time,seconds_elapsed,z,y,x
1774472691812230000,0.05922998046875,-0.8786773681640625,-0.51007080078125,0.2926788330078125
1774472691822243600,0.06924365234375,-0.8951416015625,-0.488922119140625,0.2982940673828125
1774472691832256800,0.0792568359375,-0.8946075439453125,-0.47265625,0.29693603515625
1774472691842269700,0.089269775390625,-0.8854827880859375,-0.4762725830078125,0.2908782958984375
1774472691852283600,0.09928369140625,-0.8756103515625,-0.48944091796875,0.2825164794921875
1774472691862296800,0.109296875,-0.878509521484375,-0.50421142578125,0.2853851318359375
1774472691872309800,0.119309814453125,-0.885223388671875,-0.516571044921875,0.3094940185546875
1774472691882322700,0.12932275390625,-0.88934326171875,-0.5134735107421875,0.34014892578125
1774472691892337000,0.1393369140625,-0.8865814208984375,-0.4781036376953125,0.330963134765625
1774472691902349800,0.149349853515625,-0.8659210205078125,-0.4470672607421875,0.29718017578125
1774472691912362800,0.15936279296875,-0.8484649658203125,-0.44573974609375,0.2771453857421875
1774472691922377000,0.169376953125,-0.83721923828125,-0.4664459228515625,0.278656005859375
1774472691932389600,0.1793896484375,-0.8422698974609375,-0.5009307861328125,0.3099517822265625
1774472691942402800,0.18940283203125,-0.8597412109375,-0.521270751953125,0.34075927734375
1774472691952415700,0.199415771484375,-0.858123779296875,-0.5054168701171875,0.33477783203125
1774472691962429700,0.2094296875,-0.843475341796875,-0.48553466796875,0.317779541015625
1774472691972443000,0.21944287109375,-0.8310699462890625,-0.4776458740234375,0.3121490478515625
1774472691982455800,0.229455810546875,-0.8139190673828125,-0.485443115234375,0.3137664794921875
1774472691992469800,0.2394697265625,-0.7899627685546875,-0.514190673828125,0.3304290771484375
1774472692002483000,0.24948291015625,-0.7798004150390625,-0.508056640625,0.316162109375
1774472692012496000,0.259495849609375,-0.7918853759765625,-0.52557373046875,0.2944793701171875
1774472692022508800,0.2695087890625,-0.8099822998046875,-0.5504913330078125,0.3016510009765625
1774472692032522800,0.279522705078125,-0.8361663818359375,-0.5644683837890625,0.3087158203125
1774472692042535700,0.28953564453125,-0.8589019775390625,-0.5596466064453125,0.294952392578125
1774472692052548900,0.299548828125,-0.870147705078125,-0.5297088623046875,0.264068603515625
1774472692062562800,0.309562744140625,-0.888580322265625,-0.4955596923828125,0.23004150390625
1774472692072575700,0.31957568359375,-0.939056396484375,-0.4695587158203125,0.2196044921875
1774472692082588700,0.329588623046875,-0.995147705078125,-0.449310302734375,0.220489501953125
1774472692092601900,0.339601806640625,-1.03277587890625,-0.43408203125,0.222381591796875
1774472692102615800,0.34961572265625,-1.035675048828125,-0.404815673828125,0.1886749267578125
1774472692112628700,0.359628662109375,-1.007049560546875,-0.3842926025390625,0.145111083984375
1774472692122642000,0.369641845703125,-0.9455413818359375,-0.379974365234375,0.102264404296875
1774472692132655900,0.37965576171875,-0.8800811767578125,-0.3854522705078125,0.0789337158203125
1774472692142668500,0.38966845703125,-0.842864990234375,-0.4007720947265625,0.0788421630859375
1774472692152681500,0.399681396484375,-0.84906005859375,-0.4258270263671875,0.077880859375
1774472692162695400,0.4096953125,-0.877227783203125,-0.4506072998046875,0.076934814453125
1774472692172708600,0.41970849609375,-0.9008941650390625,-0.4641571044921875,0.0897979736328125
1774472692182721300,0.42972119140625,-0.8958282470703125,-0.4497222900390625,0.1143646240234375
1774472692192734500,0.439734375,-0.8648834228515625,-0.41888427734375,0.1332244873046875
1774472692202748400,0.44974853515625,-0.8318023681640625,-0.396820068359375,0.146148681640625
1774472692212761300,0.45976123046875,-0.80987548828125,-0.3856353759765625,0.1408538818359375
1774472692222774500,0.4697744140625,-0.7928466796875,-0.3820953369140625,0.1158599853515625
1774472692232788200,0.479788330078125,-0.7814483642578125,-0.3916473388671875,0.08612060546875
1774472692242801400,0.489801513671875,-0.78009033203125,-0.4184417724609375,0.0725555419921875
1774472692252814300,0.499814453125,-0.7782135009765625,-0.4546661376953125,0.081451416015625
1774472692262827500,0.50982763671875,-0.760345458984375,-0.47418212890625,0.0996246337890625
1774472692272841500,0.519841552734375,-0.7365570068359375,-0.4686431884765625,0.1064910888671875
1774472692282854400,0.5298544921875,-0.7101593017578125,-0.4533233642578125,0.0850677490234375
1774472692292867300,0.539867431640625,-0.698760986328125,-0.458953857421875,0.0582733154296875
1774472692302881500,0.549881591796875,-0.7125701904296875,-0.464752197265625,0.087890625
1774472692312894500,0.55989453125,-0.71685791015625,-0.3583221435546875,0.2366485595703125
1774472692322907400,0.569907470703125,-0.7137298583984375,-0.277008056640625,0.330169677734375
1774472692332920300,0.57992041015625,-0.7342376708984375,-0.298858642578125,0.305755615234375
1774472692342934300,0.589934326171875,-0.7285308837890625,-0.3487091064453125,0.2997589111328125
1774472692352947500,0.599947509765625,-0.671905517578125,-0.4410400390625,0.29278564453125
1774472692362960400,0.60996044921875,-0.64031982421875,-0.5601348876953125,0.286224365234375
1774472692372974300,0.619974365234375,-0.48193359375,-0.6326904296875,0.277191162109375
1774472692382987500,0.629987548828125,-0.3590087890625,-0.4858856201171875,0.1965789794921875
1774472692393000400,0.64000048828125,-0.3812408447265625,-0.2243499755859375,0.087982177734375
1774472692403013400,0.650013427734375,-0.59173583984375,-0.380340576171875,0.150115966796875
1774472692413027300,0.66002734375,-0.541046142578125,-0.4098358154296875,0.192535400390625
1774472692423040500,0.67004052734375,-0.649566650390625,-0.34954833984375,0.154754638671875
1774472692433053400,0.680053466796875,-0.970306396484375,-0.3523406982421875,0.099334716796875
1774472692443067400,0.6900673828125,-1.141571044921875,-0.3943023681640625,0.0662841796875
1774472692453080300,0.700080322265625,-1.3268585205078125,-0.450592041015625,0.043243408203125
1774472692463093500,0.710093505859375,-1.317230224609375,-0.46429443359375,0.103424072265625
1774472692473106400,0.7201064453125,-1.1367645263671875,-0.4114837646484375,0.2345123291015625
1774472692483120400,0.730120361328125,-1.22296142578125,-0.2431182861328125,0.2198486328125
1774472692493133300,0.74013330078125,-1.207366943359375,-0.1644439697265625,0.14813232421875
1774472692503146500,0.750146484375,-1.107818603515625,-0.1954803466796875,0.1164703369140625
1774472692513160400,0.760160400390625,-1.074493408203125,-0.2843475341796875,0.1509552001953125
1774472692523173400,0.77017333984375,-1.1541595458984375,-0.3121185302734375,0.09686279296875
1774472692533186600,0.7801865234375,-1.338836669921875,-0.3372344970703125,-0.000335693359375
1774472692543200500,0.790200439453125,-1.401580810546875,-0.30865478515625,-0.0848846435546875
1774472692553213400,0.80021337890625,-1.239990234375,-0.2225799560546875,-0.114593505859375
1774472692563226400,0.810226318359375,-1.199432373046875,-0.2355499267578125,-0.109405517578125
1774472692573239300,0.8202392578125,-1.153900146484375,-0.2567291259765625,-0.0939178466796875
1774472692583253500,0.83025341796875,-1.1088409423828125,-0.2574310302734375,-0.0674591064453125
1774472692593266400,0.840266357421875,-1.112823486328125,-0.26495361328125,-0.047119140625
1774472692603279400,0.850279296875,-1.1149749755859375,-0.2666015625,-0.0307769775390625
1774472692613293300,0.860293212890625,-1.1192474365234375,-0.2583160400390625,-0.000213623046875
1774472692623306500,0.870306396484375,-1.1050567626953125,-0.2416229248046875,0.0378570556640625
1774472692633319400,0.8803193359375,-1.053192138671875,-0.24090576171875,0.05645751953125
1774472692643332600,0.89033251953125,-1.0199432373046875,-0.262969970703125,0.03717041015625
1774472692653346300,0.90034619140625,-1.0060882568359375,-0.28607177734375,0.0039215087890625
1774472692663359500,0.910359375,-0.9922943115234375,-0.2946624755859375,-0.0235595703125
1774472692673372400,0.920372314453125,-0.976287841796875,-0.286895751953125,-0.02728271484375
1774472692683386400,0.930386474609375,-0.9613037109375,-0.2843780517578125,-0.02557373046875
1774472692693399600,0.940399658203125,-0.9557037353515625,-0.2813873291015625,-0.0240631103515625
1774472692703412200,0.950412109375,-0.954681396484375,-0.274658203125,-0.012939453125
1774472692713425400,0.96042529296875,-0.9505615234375,-0.2627105712890625,0.0062713623046875
1774472692723439400,0.970439453125,-0.9544830322265625,-0.2544708251953125,0.0250701904296875
1774472692733452300,0.980452392578125,-0.9877777099609375,-0.2506103515625,0.0172576904296875
1774472692743465500,0.990465576171875,-1.01605224609375,-0.245819091796875,-0.0086517333984375
1774472692753479400,1.0004794921875,-1.0293731689453125,-0.2488250732421875,-0.035308837890625
1774472692763492400,1.010492431640625,-1.0219268798828125,-0.260772705078125,-0.047393798828125
1774472692773505500,1.020505615234375,-1.00433349609375,-0.26275634765625,-0.04852294921875
1774472692783518200,1.030518310546875,-0.97802734375,-0.2572021484375,-0.05426025390625
1774472692793532400,1.040532470703125,-0.9490814208984375,-0.256561279296875,-0.051666259765625
1774472692803545600,1.050545654296875,-0.9379425048828125,-0.2610015869140625,-0.0456390380859375
1774472692813558300,1.060558349609375,-0.9514923095703125,-0.266357421875,-0.0403289794921875
1774472692823572500,1.070572509765625,-0.968414306640625,-0.26324462890625,-0.0269927978515625
1774472692833585400,1.08058544921875,-0.9806060791015625,-0.257171630859375,-0.002166748046875
1774472692843598300,1.090598388671875,-0.9763031005859375,-0.2563018798828125,0.02410888671875
1774472692853612500,1.100612548828125,-0.962127685546875,-0.264404296875,0.04412841796875
1774472692863625200,1.110625244140625,-0.9539947509765625,-0.275299072265625,0.0482635498046875
1774472692873638400,1.120638427734375,-0.9524383544921875,-0.2828826904296875,0.042724609375
1774472692883651600,1.130651611328125,-0.9488525390625,-0.28662109375,0.037506103515625
1774472692893665300,1.140665283203125,-0.930419921875,-0.2982330322265625,0.0268707275390625
1774472692903678500,1.150678466796875,-0.9118804931640625,-0.306640625,0.0371246337890625
1774472692913691600,1.160691650390625,-0.88458251953125,-0.30718994140625,0.0696868896484375
1774472692923704300,1.170704345703125,-0.8587493896484375,-0.308990478515625,0.0989837646484375
1774472692933718500,1.180718505859375,-0.8727874755859375,-0.3094024658203125,0.1171112060546875
1774472692943731200,1.190731201171875,-0.9149169921875,-0.309661865234375,0.1259613037109375
1774472692953744400,1.200744384765625,-0.95654296875,-0.3011322021484375,0.1419219970703125
1774472692963758600,1.210758544921875,-0.9709625244140625,-0.2912445068359375,0.1598663330078125
1774472692973771300,1.220771240234375,-0.96240234375,-0.293701171875,0.1651458740234375
1774472692983784400,1.230784423828125,-0.94415283203125,-0.2976531982421875,0.159454345703125
1774472692993797400,1.24079736328125,-0.93463134765625,-0.300018310546875,0.14697265625
1774472693003811300,1.250811279296875,-0.9420013427734375,-0.301666259765625,0.135162353515625
1774472693013824500,1.260824462890625,-0.94482421875,-0.30438232421875,0.1247100830078125
1774472693023837400,1.27083740234375,-0.934783935546875,-0.305389404296875,0.1154022216796875
1774472693033851400,1.280851318359375,-0.93341064453125,-0.3115081787109375,0.1010894775390625
1774472693043864600,1.290864501953125,-0.941009521484375,-0.3150177001953125,0.0898895263671875
1774472693053877200,1.300877197265625,-0.9607086181640625,-0.313018798828125,0.088897705078125
1774472693063891500,1.310891357421875,-0.9682464599609375,-0.3125152587890625,0.0951690673828125
1774472693073904600,1.320904541015625,-0.964141845703125,-0.3218231201171875,0.0952301025390625
1774472693083917300,1.330917236328125,-0.9584503173828125,-0.3310089111328125,0.0825958251953125
1774472693093930500,1.340930419921875,-0.96014404296875,-0.333038330078125,0.06451416015625
1774472693103944200,1.350944091796875,-0.9583892822265625,-0.334503173828125,0.0495758056640625
1774472693113957400,1.360957275390625,-0.9497528076171875,-0.340057373046875,0.0391693115234375
1774472693123970600,1.370970458984375,-0.9257659912109375,-0.343841552734375,0.03204345703125
1774472693133984300,1.380984375,-0.8961181640625,-0.3484039306640625,0.0269622802734375
1774472693143997700,1.390997802734375,-0.8728485107421875,-0.3487396240234375,0.037841796875
1774472693154011000,1.401010986328125,-0.864288330078125,-0.3506011962890625,0.0587005615234375
1774472693164023600,1.4110234375,-0.8676910400390625,-0.349212646484375,0.067474365234375
1774472693174037800,1.421037841796875,-0.890838623046875,-0.3333740234375,0.0582275390625
1774472693184050700,1.43105078125,-0.901702880859375,-0.3318939208984375,0.0429840087890625
1774472693194063600,1.441063720703125,-0.9053955078125,-0.3511810302734375,0.0292510986328125
1774472693204077800,1.451077880859375,-0.9173736572265625,-0.3736724853515625,0.0189056396484375
1774472693214090500,1.461090576171875,-0.9100341796875,-0.3575286865234375,0.00360107421875
1774472693224103700,1.471103759765625,-0.8838043212890625,-0.3111419677734375,-0.0446014404296875
1774472693234116900,1.481116943359375,-0.891448974609375,-0.3568115234375,-0.066070556640625
1774472693244130600,1.491130615234375,-0.8974609375,-0.3381195068359375,-0.0044708251953125
1774472693254143700,1.501143798828125,-0.8794708251953125,-0.3836212158203125,0.0130462646484375
1774472693264156700,1.51115673828125,-0.8729248046875,-0.4125213623046875,0.0011444091796875
1774472693274170600,1.521170654296875,-0.8682861328125,-0.45513916015625,-0.0147705078125
1774472693284183800,1.531183837890625,-0.8748626708984375,-0.4921875,0.008148193359375
1774472693294196500,1.541196533203125,-0.8795318603515625,-0.49261474609375,0.0417327880859375
1774472693304209700,1.551209716796875,-0.8809967041015625,-0.497100830078125,0.059814453125
1774472693314223900,1.561223876953125,-0.8604888916015625,-0.494873046875,0.075927734375
1774472693324236500,1.571236572265625,-0.83953857421875,-0.4756011962890625,0.13232421875
1774472693334249700,1.581249755859375,-0.85736083984375,-0.4515380859375,0.116180419921875
1774472693344263700,1.591263671875,-0.8843994140625,-0.424957275390625,0.058013916015625
1774472693354276600,1.601276611328125,-0.901275634765625,-0.4274749755859375,0.0359649658203125
1774472693364289800,1.611289794921875,-0.8943634033203125,-0.430694580078125,0.02374267578125
1774472693374302700,1.621302734375,-0.87530517578125,-0.4397430419921875,0.0157623291015625
1774472693384316700,1.631316650390625,-0.8755645751953125,-0.4446868896484375,0.0055389404296875
1774472693394329900,1.641329833984375,-0.892547607421875,-0.439056396484375,0.0064849853515625
1774472693404342500,1.651342529296875,-0.90350341796875,-0.436004638671875,0.00433349609375
1774472693414356700,1.661356689453125,-0.913482666015625,-0.442474365234375,-0.0174560546875
1774472693424370000,1.671369873046875,-0.9259185791015625,-0.4550323486328125,-0.0263671875
1774472693434382600,1.681382568359375,-0.92059326171875,-0.443572998046875,-0.0151214599609375
1774472693444395800,1.691395751953125,-0.900482177734375,-0.43231201171875,0.0335845947265625
1774472693454409500,1.701409423828125,-0.8778228759765625,-0.4353485107421875,0.06280517578125
1774472693464422700,1.711422607421875,-0.8741912841796875,-0.4344635009765625,0.0404815673828125
1774472693474435800,1.721435791015625,-0.88800048828125,-0.4327239990234375,0.005615234375
1774472693484449500,1.731449462890625,-0.8899383544921875,-0.4307861328125,-0.016693115234375
1774472693494462700,1.741462646484375,-0.8805694580078125,-0.4403076171875,-0.0486297607421875
1774472693504475600,1.7514755859375,-0.904815673828125,-0.44598388671875,-0.0760498046875
1774472693514488600,1.761488525390625,-0.93951416015625,-0.4369964599609375,-0.0810089111328125
1774472693524502800,1.771502685546875,-0.9521484375,-0.4295501708984375,-0.0794677734375
1774472693534515700,1.781515625,-0.951202392578125,-0.4304046630859375,-0.0706634521484375
1774472693544528600,1.791528564453125,-0.9415435791015625,-0.434539794921875,-0.0533294677734375
1774472693554542800,1.80154296875,-0.91278076171875,-0.4359893798828125,-0.05712890625
1774472693564555500,1.811555419921875,-0.883056640625,-0.4476318359375,-0.0787811279296875
1774472693574568700,1.821568603515625,-0.8685302734375,-0.460540771484375,-0.08660888671875
1774472693584581600,1.83158154296875,-0.855255126953125,-0.46881103515625,-0.082061767578125
1774472693594595600,1.841595703125,-0.8363494873046875,-0.475494384765625,-0.0798187255859375
1774472693604608800,1.85160888671875,-0.8204193115234375,-0.4874420166015625,-0.0789947509765625
1774472693614621700,1.86162158203125,-0.8430328369140625,-0.49652099609375,-0.109344482421875
1774472693624635600,1.8716357421875,-0.878448486328125,-0.502227783203125,-0.1347503662109375
1774472693634648800,1.88164892578125,-0.877349853515625,-0.5091400146484375,-0.173095703125
1774472693644661800,1.891661865234375,-0.86676025390625,-0.5212249755859375,-0.209014892578125
1774472693654674700,1.9016748046875,-0.85888671875,-0.528778076171875,-0.2108306884765625
1774472693664688600,1.911688720703125,-0.8491668701171875,-0.53131103515625,-0.19451904296875
1774472693674701600,1.92170166015625,-0.8433837890625,-0.5361175537109375,-0.1651611328125
1774472693684714800,1.93171484375,-0.8375701904296875,-0.53973388671875,-0.148406982421875
1774472693694727700,1.941727783203125,-0.8433990478515625,-0.542266845703125,-0.1454315185546875
1774472693704741600,1.95174169921875,-0.8626708984375,-0.5461578369140625,-0.140655517578125
1774472693714754600,1.961754638671875,-0.8695068359375,-0.5493621826171875,-0.1449432373046875
1774472693724767700,1.971767822265625,-0.8590087890625,-0.5557403564453125,-0.161224365234375
1774472693734781700,1.98178173828125,-0.854248046875,-0.56549072265625,-0.199371337890625
1774472693744794600,1.991794677734375,-0.8663482666015625,-0.5683746337890625,-0.2285003662109375
1774472693754807800,2.001807861328125,-0.85455322265625,-0.562255859375,-0.22064208984375
1774472693764820500,2.011820556640625,-0.8353118896484375,-0.564453125,-0.2122344970703125
1774472693774834700,2.021834716796875,-0.82379150390625,-0.57098388671875,-0.2121429443359375
1774472693784847600,2.03184765625,-0.805419921875,-0.57275390625,-0.204559326171875
1774472693794860500,2.041860595703125,-0.7904510498046875,-0.5767669677734375,-0.1939697265625
1774472693804874800,2.051874755859375,-0.7782135009765625,-0.581024169921875,-0.19219970703125
1774472693814887700,2.0618876953125,-0.7608489990234375,-0.5839385986328125,-0.1846771240234375
1774472693824900600,2.071900634765625,-0.7263946533203125,-0.5865478515625,-0.1681365966796875
1774472693834913800,2.081913818359375,-0.6971435546875,-0.5833740234375,-0.180450439453125
1774472693844927700,2.091927734375,-0.7144775390625,-0.583251953125,-0.197265625
1774472693854940700,2.101940673828125,-0.7464599609375,-0.58453369140625,-0.1990203857421875
1774472693864953900,2.111953857421875,-0.7679290771484375,-0.580657958984375,-0.2057037353515625
1774472693874967800,2.1219677734375,-0.7812957763671875,-0.57452392578125,-0.212921142578125
1774472693884980700,2.131980712890625,-0.7828369140625,-0.5792083740234375,-0.2337188720703125
1774472693894993700,2.14199365234375,-0.7781524658203125,-0.591156005859375,-0.25274658203125
1774472693905006600,2.152006591796875,-0.78009033203125,-0.6007537841796875,-0.21337890625
1774472693915020800,2.162020751953125,-0.7899627685546875,-0.5765838623046875,-0.1841888427734375
1774472693925033700,2.17203369140625,-0.79498291015625,-0.547607421875,-0.1443328857421875
1774472693935046700,2.182046630859375,-0.7800140380859375,-0.5899810791015625,-0.1561431884765625
1774472693945060600,2.192060546875,-0.7356109619140625,-0.5885467529296875,-0.1822357177734375
1774472693955073500,2.202073486328125,-0.7151336669921875,-0.578582763671875,-0.2017059326171875
1774472693965086700,2.212086669921875,-0.7403106689453125,-0.5762939453125,-0.2358856201171875
1774472693975100000,2.222099853515625,-0.7652740478515625,-0.5766754150390625,-0.2458343505859375
1774472693985113600,2.232113525390625,-0.76568603515625,-0.576080322265625,-0.230072021484375
1774472693995126800,2.242126708984375,-0.7749481201171875,-0.5715484619140625,-0.1812896728515625
1774472694005139700,2.2521396484375,-0.79327392578125,-0.5533447265625,-0.1803131103515625
1774472694015153700,2.262153564453125,-0.808990478515625,-0.533050537109375,-0.2036590576171875
1774472694025166800,2.272166748046875,-0.8070068359375,-0.54095458984375,-0.212677001953125
1774472694035179500,2.282179443359375,-0.7823333740234375,-0.5536956787109375,-0.2326812744140625
1774472694045192700,2.292192626953125,-0.759002685546875,-0.5653076171875,-0.232696533203125
1774472694055206700,2.30220654296875,-0.7314605712890625,-0.5639801025390625,-0.222900390625
1774472694065219600,2.312219482421875,-0.735107421875,-0.55706787109375,-0.2385406494140625
1774472694075232800,2.322232666015625,-0.7857818603515625,-0.560333251953125,-0.246978759765625
1774472694085246700,2.332246826171875,-0.84259033203125,-0.5572052001953125,-0.2350006103515625
1774472694095259600,2.342259765625,-0.8637542724609375,-0.54638671875,-0.2288055419921875
1774472694105272800,2.35227294921875,-0.873016357421875,-0.5430450439453125,-0.23431396484375
1774472694115285800,2.36228564453125,-0.8854217529296875,-0.5506134033203125,-0.247833251953125
1774472694125299700,2.3722998046875,-0.8753662109375,-0.5528411865234375,-0.26361083984375
1774472694135313000,2.38231298828125,-0.8452606201171875,-0.557525634765625,-0.29498291015625
1774472694145324800,2.39232470703125,-0.820831298828125,-0.56158447265625,-0.3177642822265625
1774472694155338800,2.4023388671875,-0.807373046875,-0.58331298828125,-0.32183837890625
1774472694165351700,2.4123515625,-0.803924560546875,-0.5893402099609375,-0.2795867919921875
1774472694175364600,2.422364501953125,-0.7930145263671875,-0.592254638671875,-0.2537841796875
1774472694185377500,2.43237744140625,-0.7987060546875,-0.5828399658203125,-0.267242431640625
1774472694195391700,2.442391845703125,-0.8108978271484375,-0.5670928955078125,-0.257720947265625
1774472694205404700,2.45240478515625,-0.8117828369140625,-0.5606689453125,-0.2491607666015625
1774472694215417600,2.46241748046875,-0.7979888916015625,-0.5687713623046875,-0.2762298583984375
1774472694225430800,2.4724306640625,-0.7917938232421875,-0.5813751220703125,-0.3050537109375
1774472694235444500,2.482444580078125,-0.8094635009765625,-0.5819854736328125,-0.3095703125
1774472694245457700,2.492457763671875,-0.8317108154296875,-0.578826904296875,-0.3006591796875
1774472694255470800,2.502470947265625,-0.8271331787109375,-0.573394775390625,-0.298828125
1774472694265484500,2.512484619140625,-0.8125457763671875,-0.56890869140625,-0.303070068359375
1774472694275497700,2.522497802734375,-0.773406982421875,-0.5769500732421875,-0.29736328125
1774472694285510700,2.5325107421875,-0.734954833984375,-0.5903778076171875,-0.283477783203125
1774472694295523600,2.542523681640625,-0.751373291015625,-0.5794830322265625,-0.241180419921875
1774472694305537800,2.552537841796875,-0.7808990478515625,-0.5662384033203125,-0.18939208984375
1774472694315550500,2.562550537109375,-0.7608795166015625,-0.562530517578125,-0.2009429931640625
1774472694325563600,2.572563720703125,-0.701202392578125,-0.5662994384765625,-0.2506103515625
1774472694335577600,2.58257763671875,-0.677764892578125,-0.5634307861328125,-0.3005828857421875
1774472694345590500,2.592590576171875,-0.702178955078125,-0.5665740966796875,-0.310516357421875
1774472694355603700,2.602603759765625,-0.7487030029296875,-0.5619964599609375,-0.29248046875
1774472694365616600,2.61261669921875,-0.79034423828125,-0.5583343505859375,-0.2707061767578125
1774472694375630600,2.622630615234375,-0.806060791015625,-0.555816650390625,-0.2543792724609375
1774472694385643800,2.632643798828125,-0.7920074462890625,-0.5607147216796875,-0.24725341796875
1774472694395656700,2.64265673828125,-0.757415771484375,-0.56451416015625,-0.2642364501953125
1774472694405670700,2.652670654296875,-0.724365234375,-0.5719451904296875,-0.29034423828125
1774472694415683800,2.662683837890625,-0.6996002197265625,-0.577392578125,-0.29351806640625
1774472694425696500,2.672696533203125,-0.6972503662109375,-0.5751953125,-0.29119873046875
1774472694435709700,2.682709716796875,-0.721221923828125,-0.56121826171875,-0.272125244140625
1774472694445723600,2.6927236328125,-0.757537841796875,-0.55133056640625,-0.245513916015625
1774472694455736600,2.702736572265625,-0.771697998046875,-0.5460205078125,-0.23797607421875
1774472694465749800,2.712749755859375,-0.7588653564453125,-0.549407958984375,-0.2543792724609375
1774472694475763500,2.722763427734375,-0.758575439453125,-0.5634002685546875,-0.28570556640625
1774472694485776600,2.732776611328125,-0.7722625732421875,-0.561126708984375,-0.2998046875
1774472694495789800,2.742789794921875,-0.7644500732421875,-0.555267333984375,-0.296112060546875
1774472694505802800,2.752802734375,-0.746124267578125,-0.5554962158203125,-0.3061370849609375
1774472694515816700,2.762816650390625,-0.7748565673828125,-0.5576629638671875,-0.316925048828125
1774472694525829600,2.77282958984375,-0.8195953369140625,-0.550384521484375,-0.297088623046875
1774472694535842600,2.782842529296875,-0.8530120849609375,-0.5330352783203125,-0.2635650634765625
1774472694545856800,2.792856689453125,-0.871246337890625,-0.5259552001953125,-0.2376708984375
1774472694555869700,2.80286962890625,-0.8701171875,-0.521942138671875,-0.2250518798828125
1774472694565882600,2.812882568359375,-0.839569091796875,-0.5264129638671875,-0.2294158935546875
1774472694575895600,2.8228955078125,-0.7988433837890625,-0.539794921875,-0.2503662109375
1774472694585909500,2.832909423828125,-0.7848358154296875,-0.5505828857421875,-0.27996826171875
1774472694595922700,2.842922607421875,-0.795166015625,-0.54876708984375,-0.2803497314453125
1774472694605935600,2.852935546875,-0.7996673583984375,-0.53839111328125,-0.259002685546875
1774472694615949600,2.862949462890625,-0.812957763671875,-0.5357666015625,-0.2405548095703125
1774472694625962800,2.872962646484375,-0.822998046875,-0.530609130859375,-0.2313690185546875
1774472694635975700,2.8829755859375,-0.83184814453125,-0.532379150390625,-0.241241455078125
1774472694645988600,2.892988525390625,-0.84173583984375,-0.534271240234375,-0.2530670166015625
1774472694656002800,2.9030029296875,-0.84698486328125,-0.537994384765625,-0.2559814453125
1774472694666015700,2.913015625,-0.8511962890625,-0.53485107421875,-0.2542724609375
1774472694676028700,2.923028564453125,-0.855224609375,-0.5301361083984375,-0.2532958984375
1774472694686041600,2.93304150390625,-0.8516693115234375,-0.5287017822265625,-0.254852294921875
1774472694696055600,2.9430556640625,-0.8458099365234375,-0.527374267578125,-0.2601318359375
1774472694706068700,2.95306884765625,-0.834564208984375,-0.52923583984375,-0.266571044921875
1774472694716081700,2.96308154296875,-0.828948974609375,-0.529693603515625,-0.2681884765625
1774472694726095600,2.973095703125,-0.823333740234375,-0.5284271240234375,-0.2610626220703125
1774472694736108500,2.983108642578125,-0.81036376953125,-0.5286865234375,-0.25408935546875
1774472694746121700,2.993121826171875,-0.7932586669921875,-0.5290985107421875,-0.2555694580078125
1774472694756134700,3.003134765625,-0.7859649658203125,-0.5297393798828125,-0.2527618408203125
1774472694766148600,3.013148681640625,-0.779266357421875,-0.5270538330078125,-0.25164794921875
1774472694776161800,3.023161865234375,-0.7962493896484375,-0.52899169921875,-0.2630767822265625
1774472694786174500,3.033174560546875,-0.8327484130859375,-0.52587890625,-0.2703399658203125
1774472694796188700,3.043188720703125,-0.8651123046875,-0.521453857421875,-0.2563629150390625
1774472694806201600,3.05320166015625,-0.8711395263671875,-0.5156097412109375,-0.234283447265625
1774472694816214500,3.063214599609375,-0.8546905517578125,-0.5119781494140625,-0.2209014892578125
1774472694826227700,3.073227783203125,-0.8285675048828125,-0.5160064697265625,-0.22454833984375
1774472694836241700,3.08324169921875,-0.8031005859375,-0.525970458984375,-0.2335357666015625
1774472694846254600,3.093254638671875,-0.778533935546875,-0.5349273681640625,-0.24468994140625
1774472694856267800,3.103267822265625,-0.7746124267578125,-0.535797119140625,-0.2484588623046875
1774472694866281700,3.11328173828125,-0.78240966796875,-0.534027099609375,-0.246826171875
1774472694876294700,3.123294677734375,-0.7860870361328125,-0.5341949462890625,-0.2442474365234375
1774472694886307800,3.133307861328125,-0.7853851318359375,-0.5351715087890625,-0.242584228515625
1774472694896320500,3.143320556640625,-0.788330078125,-0.537353515625,-0.239105224609375
1774472694906334700,3.153334716796875,-0.78973388671875,-0.5380096435546875,-0.2393035888671875
1774472694916347600,3.16334765625,-0.7873687744140625,-0.5410614013671875,-0.2439422607421875
1774472694926360600,3.173360595703125,-0.7853851318359375,-0.545654296875,-0.2464141845703125
1774472694936374800,3.183374755859375,-0.7862701416015625,-0.5482025146484375,-0.253173828125
1774472694946387700,3.1933876953125,-0.7783355712890625,-0.5519256591796875,-0.2704315185546875
1774472694956400600,3.203400634765625,-0.7766265869140625,-0.555145263671875,-0.2925262451171875
1774472694966413800,3.213413818359375,-0.781402587890625,-0.5553436279296875,-0.293365478515625
1774472694976427500,3.223427490234375,-0.7926788330078125,-0.5478057861328125,-0.2752227783203125
1774472694986440700,3.233440673828125,-0.8055267333984375,-0.5428009033203125,-0.25732421875
1774472694996454000,3.243453857421875,-0.8196563720703125,-0.539398193359375,-0.251251220703125
1774472695006466600,3.253466552734375,-0.82794189453125,-0.5389556884765625,-0.265838623046875
1774472695016480800,3.263480712890625,-0.825653076171875,-0.5395660400390625,-0.2872467041015625
1774472695026493400,3.273493408203125,-0.820953369140625,-0.5394744873046875,-0.29852294921875
1774472695036506600,3.283506591796875,-0.81988525390625,-0.539794921875,-0.29205322265625
1774472695046520800,3.293520751953125,-0.8244781494140625,-0.5349273681640625,-0.2799835205078125
1774472695056533500,3.303533447265625,-0.826812744140625,-0.535247802734375,-0.2725830078125
1774472695066546700,3.313546630859375,-0.8186187744140625,-0.532135009765625,-0.26611328125
1774472695076559600,3.3235595703125,-0.803375244140625,-0.531219482421875,-0.2577667236328125
1774472695086573600,3.333573486328125,-0.791351318359375,-0.5337371826171875,-0.271759033203125
1774472695096586800,3.343586669921875,-0.7874603271484375,-0.544158935546875,-0.28240966796875
1774472695106599700,3.353599609375,-0.7935333251953125,-0.5435333251953125,-0.275238037109375
1774472695116613600,3.363613525390625,-0.791839599609375,-0.5384674072265625,-0.27557373046875
1774472695126626800,3.373626708984375,-0.790069580078125,-0.5469970703125,-0.2880859375
1774472695136639500,3.383639404296875,-0.8119354248046875,-0.5538177490234375,-0.284393310546875
1774472695146654500,3.393654541015625,-0.8484649658203125,-0.5460968017578125,-0.26055908203125
1774472695156668200,3.403668212890625,-0.8585968017578125,-0.5413055419921875,-0.2620391845703125
1774472695166681300,3.413681396484375,-0.8470458984375,-0.549407958984375,-0.287445068359375
1774472695176694300,3.4236943359375,-0.797698974609375,-0.5576324462890625,-0.309478759765625
1774472695186708200,3.433708251953125,-0.741180419921875,-0.573272705078125,-0.340911865234375
1774472695196721400,3.443721435546875,-0.715240478515625,-0.58526611328125,-0.371246337890625
1774472695206734000,3.453734130859375,-0.7202911376953125,-0.5958099365234375,-0.371826171875
1774472695216747300,3.463747314453125,-0.7359771728515625,-0.5921173095703125,-0.3482513427734375
1774472695226761200,3.47376123046875,-0.7469024658203125,-0.5904083251953125,-0.3292083740234375
1774472695236774100,3.483774169921875,-0.7483978271484375,-0.594940185546875,-0.3064422607421875
1774472695246787300,3.493787353515625,-0.715850830078125,-0.608306884765625,-0.3135528564453125
1774472695256801300,3.50380126953125,-0.6751861572265625,-0.621246337890625,-0.3391571044921875
1774472695266814200,3.513814208984375,-0.6793212890625,-0.62152099609375,-0.363006591796875
1774472695276827400,3.523827392578125,-0.714752197265625,-0.6190338134765625,-0.375732421875
1774472695286840300,3.53384033203125,-0.7506103515625,-0.6235198974609375,-0.3758544921875
1774472695296854300,3.543854248046875,-0.7653045654296875,-0.6090850830078125,-0.40545654296875
1774472695306867500,3.553867431640625,-0.76171875,-0.6212310791015625,-0.4202880859375
1774472695316880100,3.563880126953125,-0.753936767578125,-0.63421630859375,-0.3986358642578125
1774472695326893300,3.573893310546875,-0.7578125,-0.613525390625,-0.392059326171875
1774472695336907300,3.5839072265625,-0.7496490478515625,-0.60235595703125,-0.3869171142578125
1774472695346920200,3.593920166015625,-0.7141265869140625,-0.61444091796875,-0.3787994384765625
1774472695356933400,3.603933349609375,-0.6831207275390625,-0.6271209716796875,-0.37493896484375
1774472695366947000,3.613947021484375,-0.6533660888671875,-0.6449127197265625,-0.368377685546875
1774472695376960300,3.623960205078125,-0.6280975341796875,-0.6672821044921875,-0.372344970703125
1774472695386973400,3.633973388671875,-0.619140625,-0.6656951904296875,-0.3763885498046875
1774472695396986400,3.643986328125,-0.6518707275390625,-0.6256103515625,-0.3614044189453125
1774472695407000300,3.654000244140625,-0.6575775146484375,-0.643646240234375,-0.3568115234375
1774472695417013200,3.66401318359375,-0.6384124755859375,-0.6494903564453125,-0.3606109619140625
1774472695427026200,3.674026123046875,-0.6439056396484375,-0.6683349609375,-0.38958740234375
1774472695437040400,3.684040283203125,-0.66448974609375,-0.6676788330078125,-0.38922119140625
1774472695447053300,3.69405322265625,-0.69024658203125,-0.6581878662109375,-0.3815155029296875
1774472695457066200,3.704066162109375,-0.6962738037109375,-0.6906585693359375,-0.3681182861328125
1774472695467079200,3.7140791015625,-0.6643524169921875,-0.715087890625,-0.4144287109375
1774472695477093000,3.724093017578125,-0.5953521728515625,-0.7247467041015625,-0.4599761962890625
1774472695487106300,3.734106201171875,-0.546600341796875,-0.74530029296875,-0.4541168212890625
1774472695497119200,3.744119140625,-0.5244293212890625,-0.7762603759765625,-0.44140625
1774472695507133200,3.75413330078125,-0.517578125,-0.761932373046875,-0.4488983154296875
1774472695517146400,3.764146484375,-0.521453857421875,-0.7478485107421875,-0.401947021484375
1774472695527159300,3.7741591796875,-0.5210113525390625,-0.752960205078125,-0.3666839599609375
1774472695537172200,3.784172119140625,-0.5609893798828125,-0.7624053955078125,-0.3835601806640625
1774472695547186400,3.7941865234375,-0.6253509521484375,-0.7856292724609375,-0.3740081787109375
1774472695557199400,3.804199462890625,-0.612640380859375,-0.7721710205078125,-0.3444976806640625
1774472695567212300,3.81421240234375,-0.5232696533203125,-0.767242431640625,-0.3714599609375
1774472695577226200,3.824226318359375,-0.4490814208984375,-0.7662353515625,-0.40478515625
1774472695587239200,3.8342392578125,-0.4222869873046875,-0.8350830078125,-0.41497802734375
1774472695597252400,3.84425244140625,-0.3993377685546875,-0.9022064208984375,-0.4247894287109375
1774472695607265300,3.854265380859375,-0.3882598876953125,-0.8557281494140625,-0.3869781494140625
1774472695617279200,3.864279296875,-0.381866455078125,-0.865997314453125,-0.3952789306640625
1774472695627292400,3.87429248046875,-0.3663177490234375,-0.891754150390625,-0.3868865966796875
1774472695637305300,3.884305419921875,-0.367462158203125,-0.881683349609375,-0.3450775146484375
1774472695647318300,3.894318359375,-0.42926025390625,-0.8603363037109375,-0.3322906494140625
1774472695657332200,3.904332275390625,-0.44024658203125,-0.8532257080078125,-0.303680419921875
1774472695667345400,3.914345458984375,-0.3926239013671875,-0.872161865234375,-0.2802886962890625
1774472695677358300,3.9243583984375,-0.3433990478515625,-0.8793792724609375,-0.286895751953125
1774472695687372300,3.934372314453125,-0.32525634765625,-0.8828125,-0.2760772705078125
1774472695697385200,3.94438525390625,-0.3669891357421875,-0.8719329833984375,-0.28564453125
1774472695707398100,3.954398193359375,-0.363372802734375,-0.8353729248046875,-0.260711669921875
1774472695717411300,3.964411376953125,-0.3608551025390625,-0.815185546875,-0.233856201171875
1774472695727425300,3.97442529296875,-0.4125823974609375,-0.803955078125,-0.1995391845703125
1774472695737438200,3.984438232421875,-0.4452056884765625,-0.782135009765625,-0.204437255859375
1774472695747451400,3.994451416015625,-0.36370849609375,-0.781585693359375,-0.27008056640625
1774472695757465300,4.00446533203125,-0.261077880859375,-0.80169677734375,-0.30908203125
1774472695767478300,4.014478271484375,-0.2967071533203125,-0.8044891357421875,-0.3134918212890625
1774472695777491500,4.024491455078125,-0.3418731689453125,-0.7488555908203125,-0.302337646484375
1774472695787504000,4.034504150390625,-0.4152069091796875,-0.7096405029296875,-0.2838287353515625
1774472695797518300,4.044518310546875,-0.50433349609375,-0.678375244140625,-0.26214599609375
1774472695807531300,4.05453125,-0.555419921875,-0.6883697509765625,-0.271087646484375
1774472695817544200,4.064544189453125,-0.5792694091796875,-0.7158050537109375,-0.2974700927734375
1774472695827557400,4.074557373046875,-0.5857391357421875,-0.73223876953125,-0.346527099609375
1774472695837571300,4.0845712890625,-0.586669921875,-0.72509765625,-0.39251708984375
1774472695847584300,4.094584228515625,-0.6239166259765625,-0.7491455078125,-0.4313201904296875
1774472695857597400,4.104597412109375,-0.6315155029296875,-0.761566162109375,-0.420196533203125
1774472695867611100,4.114611083984375,-0.6266326904296875,-0.7519378662109375,-0.40350341796875
1774472695877624300,4.124624267578125,-0.6214599609375,-0.7276763916015625,-0.4491119384765625
1774472695887637500,4.134637451171875,-0.6188812255859375,-0.7386474609375,-0.47418212890625
1774472695897650200,4.144650146484375,-0.6024322509765625,-0.7979583740234375,-0.468780517578125
1774472695907664400,4.154664306640625,-0.57489013671875,-0.8400421142578125,-0.4637908935546875
1774472695917677000,4.164677001953125,-0.559478759765625,-0.8471832275390625,-0.4336700439453125
1774472695927690200,4.174690185546875,-0.4907684326171875,-0.82073974609375,-0.3700714111328125
1774472695937704400,4.184704345703125,-0.346527099609375,-0.84735107421875,-0.3538818359375
1774472695947717000,4.194717041015625,-0.245574951171875,-0.9140777587890625,-0.426666259765625
1774472695957730300,4.204730224609375,-0.2366180419921875,-0.88970947265625,-0.4679107666015625
1774472695967743500,4.214743408203125,-0.279144287109375,-0.805389404296875,-0.408935546875
1774472695977757200,4.224757080078125,-0.3293304443359375,-0.787933349609375,-0.3652801513671875
1774472695987770400,4.234770263671875,-0.3273468017578125,-0.7951202392578125,-0.378997802734375
1774472695997783300,4.244783203125,-0.3266754150390625,-0.7974853515625,-0.3662261962890625
1774472696007797200,4.25479736328125,-0.325408935546875,-0.7777557373046875,-0.3085174560546875
1774472696017810400,4.264810546875,-0.330230712890625,-0.7980804443359375,-0.3345184326171875
1774472696027823000,4.274822998046875,-0.3933258056640625,-0.782867431640625,-0.4006500244140625
1774472696037836300,4.284836181640625,-0.464080810546875,-0.777313232421875,-0.4279327392578125
1774472696047850500,4.2948505859375,-0.5326995849609375,-0.8848876953125,-0.400848388671875
1774472696057863200,4.30486328125,-0.5387725830078125,-0.9254608154296875,-0.37933349609375
1774472696067876400,4.31487646484375,-0.510650634765625,-0.879425048828125,-0.3261871337890625
1774472696077890300,4.324890380859375,-0.4649810791015625,-0.873779296875,-0.287384033203125
1774472696087903200,4.3349033203125,-0.43035888671875,-0.85650634765625,-0.2726593017578125
1774472696097916400,4.34491650390625,-0.43994140625,-0.8335418701171875,-0.25921630859375
1774472696107929300,4.354929443359375,-0.425933837890625,-0.826446533203125,-0.248992919921875
1774472696117943300,4.364943359375,-0.43170166015625,-0.84149169921875,-0.2910919189453125
1774472696127956500,4.37495654296875,-0.4414215087890625,-0.8565216064453125,-0.35009765625
1774472696137969200,4.38496923828125,-0.449615478515625,-0.89056396484375,-0.379852294921875
1774472696147982300,4.394982421875,-0.45068359375,-0.9256439208984375,-0.408935546875
1774472696157995300,4.404995361328125,-0.44683837890625,-0.893280029296875,-0.4161224365234375
1774472696168008400,4.415008544921875,-0.4564056396484375,-0.8408966064453125,-0.3982391357421875
1774472696178021000,4.425021240234375,-0.4683837890625,-0.792724609375,-0.38629150390625
1774472696188035300,4.435035400390625,-0.4467010498046875,-0.7646636962890625,-0.3340911865234375
1774472696198048300,4.44504833984375,-0.40875244140625,-0.783355712890625,-0.2359619140625
1774472696208061200,4.455061279296875,-0.3582000732421875,-0.8247222900390625,-0.1963653564453125
1774472696218075400,4.465075439453125,-0.3536834716796875,-0.87115478515625,-0.2389068603515625
1774472696228088300,4.47508837890625,-0.3940887451171875,-0.8828125,-0.2730255126953125
1774472696238101200,4.485101318359375,-0.4048919677734375,-0.8806304931640625,-0.24444580078125
1774472696248115200,4.495115234375,-0.3951263427734375,-0.8749237060546875,-0.20001220703125
1774472696258128100,4.505128173828125,-0.3737335205078125,-0.86065673828125,-0.1770477294921875
1774472696268141300,4.515141357421875,-0.33538818359375,-0.8582916259765625,-0.1614837646484375
1774472696278154500,4.525154541015625,-0.3091583251953125,-0.8008575439453125,-0.187225341796875
1774472696288168200,4.535168212890625,-0.3529205322265625,-0.7481842041015625,-0.2315826416015625
1774472696298181400,4.545181396484375,-0.382659912109375,-0.902740478515625,-0.212310791015625
1774472696308194000,4.555194091796875,-0.2699432373046875,-0.90802001953125,-0.1925811767578125
1774472696318208300,4.565208251953125,-0.1942596435546875,-0.8299560546875,-0.1892852783203125
1774472696328221400,4.575221435546875,-0.17352294921875,-0.8267364501953125,-0.185791015625
1774472696338234000,4.585234130859375,-0.085662841796875,-0.8150177001953125,-0.154998779296875
1774472696348247300,4.595247314453125,-0.03594970703125,-0.8323211669921875,-0.0865325927734375
1774472696358261200,4.60526123046875,-0.0849609375,-0.89971923828125,-0.022247314453125
1774472696368274200,4.615274169921875,-0.1556243896484375,-0.9066162109375,0.007537841796875
1774472696378287400,4.625287353515625,-0.1536407470703125,-0.8961944580078125,0.046112060546875
1774472696388301300,4.63530126953125,-0.1309967041015625,-0.8873748779296875,0.074920654296875
1774472696398314200,4.645314208984375,-0.1265106201171875,-0.8455657958984375,0.089813232421875
1774472696408327400,4.655327392578125,-0.1343994140625,-0.770599365234375,0.1113128662109375
1774472696418341000,4.665341064453125,-0.1357421875,-0.7236480712890625,0.1529998779296875
1774472696428354300,4.675354248046875,-0.1179962158203125,-0.702362060546875,0.1695709228515625
1774472696438367500,4.685367431640625,-0.047760009765625,-0.716552734375,0.241119384765625
1774472696448380200,4.695380126953125,-0.131805419921875,-0.724029541015625,0.3547515869140625
1774472696458394400,4.705394287109375,-0.0926361083984375,-0.664154052734375,0.3170318603515625
1774472696468407300,4.7154072265625,0.0659027099609375,-0.8486480712890625,0.441680908203125
1774472696478420200,4.725420166015625,0.2104339599609375,-1.456329345703125,0.6300201416015625
1774472696488434400,4.735434326171875,0.3430023193359375,-1.2919464111328125,0.7356414794921875
1774472696498447000,4.745447021484375,0.4237823486328125,-1.1539306640625,0.6398468017578125
1774472696508460300,4.755460205078125,0.2989654541015625,-1.279571533203125,0.3417816162109375
1774472696518474200,4.76547412109375,0.1946868896484375,-1.1510162353515625,0.17669677734375
1774472696528487200,4.775487060546875,0.1934967041015625,-1.02215576171875,0.1682281494140625
1774472696538500400,4.785500244140625,0.194366455078125,-1.0121612548828125,0.191375732421875
1774472696548514300,4.795514404296875,0.191925048828125,-1.0404205322265625,0.1090240478515625
1774472696558527200,4.80552734375,0.1591033935546875,-1.01513671875,0.0758819580078125
1774472696568540400,4.81554052734375,0.0924072265625,-0.9581146240234375,0.046173095703125
1774472696578554400,4.825554443359375,0.05718994140625,-0.9281768798828125,-0.028778076171875
1774472696588567300,4.8355673828125,0.1103057861328125,-0.913238525390625,0.010833740234375
1774472696598580500,4.84558056640625,0.16741943359375,-0.87109375,-0.0707855224609375
1774472696608593200,4.85559326171875,0.13568115234375,-0.89202880859375,-0.1285247802734375
1774472696618607400,4.865607421875,0.110382080078125,-1.0570068359375,-0.0554656982421875
1774472696628620300,4.875620361328125,-0.0385894775390625,-1.0147705078125,0.15179443359375
1774472696638633200,4.88563330078125,0.0214385986328125,-0.9961090087890625,0.230072021484375
1774472696648647400,4.8956474609375,0.112701416015625,-0.9881134033203125,0.2574615478515625
1774472696658660000,4.90566015625,0.082916259765625,-0.9250946044921875,0.202850341796875
1774472696668673300,4.91567333984375,-0.0358428955078125,-0.8846893310546875,0.1196746826171875
1774472696678687200,4.925687255859375,-0.1250152587890625,-0.852630615234375,0.1092071533203125
1774472696688700200,4.9357001953125,-0.18255615234375,-0.8218536376953125,0.16424560546875
1774472696698713300,4.94571337890625,-0.183807373046875,-0.8277740478515625,0.2550048828125
1774472696708727300,4.955727294921875,-0.158935546875,-0.8781280517578125,0.273681640625
1774472696718740200,4.965740234375,-0.1206512451171875,-0.9175872802734375,0.2068939208984375
1774472696728753400,4.97575341796875,-0.0831451416015625,-0.9268341064453125,0.1026153564453125
1774472696738767400,4.985767333984375,-0.10919189453125,-0.9854888916015625,0.041778564453125
1774472696748780300,4.9957802734375,-0.1403045654296875,-0.92449951171875,0.1832733154296875
1774472696758793500,5.00579345703125,-0.028167724609375,-0.9737701416015625,0.2318267822265625
1774472696768807200,5.01580712890625,-0.03857421875,-1.093109130859375,0.1621246337890625
1774472696778820400,5.0258203125,-0.0833892822265625,-1.070953369140625,0.1289520263671875
1774472696788833300,5.035833251953125,-0.0485992431640625,-1.004638671875,0.1860809326171875
1774472696798847200,5.04584716796875,0.004241943359375,-0.9360198974609375,0.1734619140625
1774472696808860400,5.0558603515625,0.0471343994140625,-0.8269805908203125,0.1778717041015625
1774472696818873000,5.065873046875,0.047515869140625,-0.7514495849609375,0.185882568359375
1774472696828887300,5.07588720703125,0.013946533203125,-0.7503509521484375,0.15234375
1774472696838900200,5.085900146484375,0.0007476806640625,-0.6890869140625,0.1649169921875
1774472696848913200,5.0959130859375,-0.0255584716796875,-0.70928955078125,0.2330322265625
1774472696858927400,5.10592724609375,0.03594970703125,-0.77325439453125,0.1912841796875
1774472696868940300,5.115940185546875,-0.0382080078125,-1.1091766357421875,0.0844268798828125
1774472696878953200,5.125953125,-0.345489501953125,-2.3114776611328125,-0.24517822265625
1774472696888967200,5.13596728515625,0.3582763671875,-1.7963104248046875,-0.295135498046875
1774472696898980400,5.14598046875,0.3915557861328125,-1.1967010498046875,0.522064208984375
1774472696908993300,5.1559931640625,0.1119537353515625,-1.3529052734375,0.065460205078125
1774472696919007200,5.16600732421875,0.1819915771484375,-1.347900390625,0.0768280029296875
1774472696929020200,5.176020263671875,0.0696258544921875,-1.2977447509765625,0.093017578125
1774472696939033300,5.186033447265625,-0.0219268798828125,-1.244232177734375,-0.0504608154296875
1774472696949047300,5.19604736328125,-0.11614990234375,-1.16143798828125,-0.08123779296875
1774472696959060200,5.206060302734375,-0.2459564208984375,-1.070098876953125,-0.069366455078125
1774472696969074200,5.21607421875,-0.2403717041015625,-1.0499420166015625,0.01263427734375
1774472696979087400,5.22608740234375,-0.1763916015625,-1.0282135009765625,0.233001708984375
1774472696989100300,5.236100341796875,-0.1003570556640625,-1.04620361328125,0.274871826171875
1774472696999114200,5.2461142578125,-0.1290283203125,-1.050445556640625,0.2992706298828125
1774472697009127400,5.25612744140625,-0.1367950439453125,-1.062255859375,0.2822723388671875
1774472697019140400,5.266140380859375,-0.1248626708984375,-1.0869293212890625,0.2488250732421875
1774472697029154300,5.276154296875,-0.15081787109375,-1.0827178955078125,0.2376708984375
1774472697039167200,5.286167236328125,-0.1991424560546875,-1.0590362548828125,0.1685333251953125
1774472697049180200,5.29618017578125,-0.2062835693359375,-1.025360107421875,0.10589599609375
1774472697059194400,5.3061943359375,-0.1413421630859375,-1.02734375,0.076751708984375
1774472697069207300,5.316207275390625,-0.00482177734375,-1.024810791015625,0.0577392578125
1774472697079221200,5.32622119140625,0.043212890625,-1.005523681640625,0.0503387451171875
1774472697089234400,5.336234375,0.0881805419921875,-1.027099609375,0.042755126953125
1774472697099247000,5.3462470703125,0.0888519287109375,-1.0204315185546875,0.050933837890625
1774472697109261300,5.35626123046875,0.0717010498046875,-1.0147552490234375,0.037628173828125
1774472697119274500,5.3662744140625,0.053314208984375,-0.9635162353515625,0.0792388916015625
1774472697129287200,5.376287109375,-0.0608062744140625,-0.9855499267578125,0.0961761474609375
1774472697139301400,5.38630126953125,-0.119232177734375,-0.9523468017578125,0.1475372314453125
1774472697149313800,5.396313720703125,-0.1768951416015625,-0.8726654052734375,0.1618499755859375
1774472697159327700,5.40632763671875,-0.114837646484375,-0.908355712890625,0.108917236328125
1774472697169340700,5.416340576171875,-0.065582275390625,-0.9084320068359375,0.0931854248046875
1774472697179353600,5.426353515625,-0.0471343994140625,-0.91229248046875,0.080841064453125
1774472697189367800,5.436367919921875,-0.035491943359375,-0.9044036865234375,0.1178131103515625
1774472697199380700,5.446380615234375,-0.016021728515625,-0.9023590087890625,0.1509552001953125
1774472697209393700,5.4563935546875,-0.0142059326171875,-0.863250732421875,0.200775146484375
1774472697219407600,5.46640771484375,-0.05145263671875,-0.863037109375,0.1696319580078125
1774472697229420500,5.476420654296875,-0.045440673828125,-0.8925018310546875,0.13287353515625
1774472697239434800,5.486434814453125,-0.00543212890625,-0.9126434326171875,0.1618804931640625
1774472697249447700,5.49644775390625,0.00836181640625,-0.930084228515625,0.190765380859375
1774472697259460600,5.506460693359375,0.040313720703125,-0.9170684814453125,0.2483062744140625
1774472697269474800,5.516474853515625,0.0443115234375,-0.897430419921875,0.246978759765625
1774472697279487500,5.526487548828125,0.046844482421875,-0.9027252197265625,0.207305908203125
1774472697289500700,5.536500732421875,0.095428466796875,-0.9373321533203125,0.158233642578125
1774472697299515000,5.546514892578125,0.1128387451171875,-0.96356201171875,0.17230224609375
1774472697309527600,5.556527587890625,0.0926971435546875,-0.9840087890625,0.212677001953125
1774472697319541800,5.566541748046875,0.0496826171875,-1.0074005126953125,0.2628021240234375
1774472697329554400,5.576554443359375,-0.035980224609375,-1.034820556640625,0.2815704345703125
1774472697339567600,5.586567626953125,-0.094940185546875,-1.0416259765625,0.2389373779296875
1774472697349581800,5.596581787109375,-0.079193115234375,-1.009979248046875,0.1743011474609375
1774472697359594500,5.606594482421875,-0.0594024658203125,-0.9744110107421875,0.1312408447265625
1774472697369607700,5.616607666015625,-0.06817626953125,-0.963134765625,0.1553802490234375
1774472697379621600,5.62662158203125,-0.0560150146484375,-0.9499359130859375,0.2021026611328125
1774472697389634600,5.636634521484375,-0.0219268798828125,-0.9575347900390625,0.204254150390625
1774472697399648800,5.646648681640625,-0.043121337890625,-0.979705810546875,0.2284088134765625
1774472697409661700,5.65666162109375,-0.1248626708984375,-0.9964752197265625,0.2604217529296875
1774472697419674600,5.666674560546875,-0.1750640869140625,-1.0198822021484375,0.2832794189453125
1774472697429688600,5.6766884765625,-0.1969146728515625,-1.03436279296875,0.26824951171875
1774472697439701500,5.686701416015625,-0.159637451171875,-1.0391998291015625,0.233612060546875
1774472697449714700,5.696714599609375,-0.02496337890625,-1.041778564453125,0.1687469482421875
1774472697459728600,5.706728759765625,0.144073486328125,-1.0529632568359375,0.0743865966796875
1774472697469741600,5.716741455078125,0.2189178466796875,-1.0634002685546875,0.0487518310546875
1774472697479755500,5.726755615234375,0.2340240478515625,-1.0874786376953125,0.056060791015625
1774472697489768700,5.736768798828125,0.219696044921875,-1.1079559326171875,0.093231201171875
1774472697499781600,5.74678173828125,0.1580657958984375,-1.0964202880859375,0.1269683837890625
1774472697509795600,5.756795654296875,0.0827178955078125,-1.062225341796875,0.1232147216796875
1774472697519808800,5.766808837890625,0.058563232421875,-1.03515625,0.1141815185546875
1774472697529822500,5.776822509765625,-0.0072784423828125,-1.044036865234375,0.1358642578125
1774472697539835600,5.786835693359375,0.0025634765625,-1.04290771484375,0.1493682861328125
1774472697549848600,5.7968486328125,0.026885986328125,-1.075286865234375,0.0809173583984375
1774472697559862500,5.806862548828125,0.02642822265625,-1.083343505859375,0.0510406494140625
1774472697569875700,5.816875732421875,0.03125,-1.1043548583984375,0.049407958984375
1774472697579888600,5.826888671875,0.0165252685546875,-1.119171142578125,0.0312042236328125
1774472697589902600,5.836902587890625,-0.0190582275390625,-1.1247711181640625,0.02032470703125
1774472697599915800,5.846915771484375,-0.0372772216796875,-1.0821380615234375,0.0018768310546875
1774472697609929500,5.856929443359375,-0.04931640625,-0.993560791015625,-0.018157958984375
1774472697619942700,5.866942626953125,-0.017852783203125,-0.977447509765625,0.0034332275390625
1774472697629955800,5.876955810546875,-0.0445404052734375,-1.014129638671875,0.101470947265625
1774472697639969500,5.886969482421875,-0.110321044921875,-1.0491790771484375,0.1476898193359375
1774472697649982700,5.896982666015625,-0.130126953125,-1.045623779296875,0.1420135498046875
1774472697659995600,5.90699560546875,-0.1721649169921875,-1.0505523681640625,0.1315155029296875
1774472697670009600,5.917009521484375,-0.17523193359375,-1.051666259765625,0.122039794921875
1774472697680022800,5.927022705078125,-0.1312713623046875,-1.037567138671875,0.1183624267578125
1774472697690036500,5.937036376953125,-0.11651611328125,-1.003814697265625,0.059326171875
1774472697700049700,5.947049560546875,-0.1026611328125,-0.9637298583984375,0.0443572998046875
1774472697710062800,5.957062744140625,-0.1290740966796875,-0.963714599609375,0.103057861328125
1774472697720076500,5.96707666015625,-0.158538818359375,-1.00372314453125,0.14837646484375
1774472697730089700,5.97708984375,-0.1305084228515625,-1.0218963623046875,0.1563568115234375
1774472697740103700,5.987103759765625,-0.1336669921875,-0.99493408203125,0.1749267578125
1774472697750116600,5.99711669921875,-0.172454833984375,-0.99114990234375,0.1602020263671875
1774472697760129800,6.0071298828125,-0.1994171142578125,-1.0168304443359375,0.137237548828125
1774472697770143700,6.017143798828125,-0.227447509765625,-0.99237060546875,0.1222381591796875
1774472697780156700,6.02715673828125,-0.246246337890625,-0.935577392578125,0.1295166015625
1774472697790169600,6.037169677734375,-0.1920928955078125,-0.91156005859375,0.0937652587890625
1774472697800183600,6.04718359375,-0.1649932861328125,-0.91064453125,0.0695953369140625
1774472697810196700,6.05719677734375,-0.17425537109375,-0.8980255126953125,0.0552978515625
1774472697820210700,6.067210693359375,-0.165771484375,-0.881378173828125,0.092926025390625
1774472697830223600,6.0772236328125,-0.17083740234375,-0.896240234375,0.1102142333984375
1774472697840236500,6.087236572265625,-0.204010009765625,-0.876373291015625,0.099395751953125
1774472697850250800,6.097250732421875,-0.215972900390625,-0.8734893798828125,0.072479248046875
1774472697860263700,6.107263671875,-0.2504425048828125,-0.8862152099609375,0.076171875
1774472697870277600,6.117277587890625,-0.2999267578125,-0.8946380615234375,0.074554443359375
1774472697880290800,6.127290771484375,-0.23590087890625,-0.9385986328125,0.0748443603515625
1774472697890303500,6.137303466796875,-0.153076171875,-0.9501800537109375,0.0687255859375
1774472697900317700,6.147317626953125,-0.11663818359375,-0.98834228515625,0.0626220703125
1774472697910330600,6.15733056640625,-0.21246337890625,-1.05816650390625,0.1165008544921875
1774472697920343600,6.167343505859375,-0.2455596923828125,-1.090240478515625,0.12725830078125
1774472697930357800,6.177357666015625,-0.2623291015625,-1.063507080078125,0.11334228515625
1774472697940370400,6.187370361328125,-0.3394012451171875,-1.02685546875,0.07470703125
1774472697950384600,6.197384521484375,-0.3753814697265625,-1.0172271728515625,0.06317138671875
1774472697960397800,6.207397705078125,-0.3718719482421875,-1.0380096435546875,0.0424652099609375
1774472697970410500,6.217410400390625,-0.3332061767578125,-1.0277252197265625,0.0391845703125
1774472697980424700,6.2274248046875,-0.3336944580078125,-0.9825439453125,0.072235107421875
1774472697990437600,6.237437744140625,-0.2556915283203125,-0.8611297607421875,0.2407379150390625
1774472698000450600,6.247450439453125,-0.16143798828125,-0.8321990966796875,0.369293212890625
1774472698010464800,6.25746484375,-0.312164306640625,-1.030609130859375,0.0659637451171875
1774472698020477700,6.267477783203125,-0.2549285888671875,-1.0706787109375,-0.06280517578125
1774472698030491600,6.27749169921875,-0.2384185791015625,-1.051605224609375,-0.1583251953125
1774472698040504600,6.287504638671875,-0.17999267578125,-0.971954345703125,-0.224578857421875
1774472698050517500,6.297517578125,-0.2287139892578125,-1.00787353515625,-0.17510986328125
1774472698060531700,6.30753173828125,-0.28887939453125,-1.0211334228515625,-0.134002685546875
1774472698070544600,6.317544677734375,-0.2236480712890625,-0.94281005859375,-0.1285400390625
1774472698080557600,6.3275576171875,-0.1722412109375,-0.8715667724609375,-0.2230987548828125
1774472698090571500,6.337571533203125,-0.1956939697265625,-0.8222503662109375,-0.2805938720703125
1774472698100584700,6.347584716796875,-0.20458984375,-0.811370849609375,-0.33966064453125
1774472698110598700,6.3575986328125,-0.1930694580078125,-0.80865478515625,-0.3881683349609375
1774472698120611600,6.367611572265625,-0.13787841796875,-0.830078125,-0.4408721923828125
1774472698130624800,6.377624755859375,-0.0856475830078125,-0.859130859375,-0.47802734375
1774472698140638500,6.387638427734375,-0.094451904296875,-0.8676300048828125,-0.524932861328125
1774472698150651400,6.3976513671875,-0.1169586181640625,-0.8285980224609375,-0.5498046875
1774472698160664600,6.40766455078125,-0.17230224609375,-0.7939605712890625,-0.54876708984375
1774472698170678500,6.417678466796875,-0.2282562255859375,-0.779937744140625,-0.574249267578125
1774472698180691500,6.42769140625,-0.272674560546875,-0.7671661376953125,-0.566009521484375
1774472698190705700,6.43770556640625,-0.305511474609375,-0.747100830078125,-0.55133056640625
1774472698200718600,6.447718505859375,-0.32513427734375,-0.72540283203125,-0.545257568359375
1774472698210731500,6.4577314453125,-0.3191986083984375,-0.7068023681640625,-0.554473876953125
1774472698220745500,6.467745361328125,-0.295318603515625,-0.7036285400390625,-0.5792083740234375
1774472698230758400,6.47775830078125,-0.2449798583984375,-0.7125091552734375,-0.6132965087890625
1774472698240771600,6.487771484375,-0.20318603515625,-0.7181854248046875,-0.6229248046875
1774472698250785500,6.49778564453125,-0.164154052734375,-0.7079315185546875,-0.615692138671875
1774472698260798500,6.507798583984375,-0.146148681640625,-0.7020416259765625,-0.6250762939453125
1774472698270812400,6.5178125,-0.1383056640625,-0.6961517333984375,-0.6497802734375
1774472698280825600,6.52782568359375,-0.1389007568359375,-0.6871490478515625,-0.6728057861328125
1774472698290838500,6.537838623046875,-0.1515045166015625,-0.6785736083984375,-0.6867523193359375
1774472698300852500,6.5478525390625,-0.163818359375,-0.66998291015625,-0.6969451904296875
1774472698310865700,6.55786572265625,-0.171875,-0.6562347412109375,-0.704315185546875
1774472698320878600,6.567878662109375,-0.1732635498046875,-0.6435089111328125,-0.706085205078125
1774472698330892500,6.577892578125,-0.1740570068359375,-0.6342926025390625,-0.7066192626953125
1774472698340905500,6.587905517578125,-0.187591552734375,-0.628814697265625,-0.7084503173828125
1774472698350918700,6.597918701171875,-0.20916748046875,-0.6248626708984375,-0.719512939453125
1774472698360932600,6.6079326171875,-0.221466064453125,-0.6253509521484375,-0.7275390625
1774472698370945500,6.617945556640625,-0.2164154052734375,-0.628143310546875,-0.7232818603515625
1774472698380959500,6.62795947265625,-0.203582763671875,-0.625640869140625,-0.71331787109375
1774472698390972700,6.63797265625,-0.19158935546875,-0.6288604736328125,-0.7126922607421875
1774472698400985600,6.647985595703125,-0.1959686279296875,-0.633331298828125,-0.720123291015625
1774472698410999600,6.65799951171875,-0.204620361328125,-0.62725830078125,-0.7229461669921875
1774472698421012700,6.6680126953125,-0.210845947265625,-0.61944580078125,-0.72802734375
1774472698431025400,6.678025390625,-0.215850830078125,-0.618682861328125,-0.7407989501953125
1774472698441039600,6.68803955078125,-0.2281951904296875,-0.61810302734375,-0.7433929443359375
1774472698451052500,6.698052490234375,-0.2386016845703125,-0.620025634765625,-0.741546630859375
1774472698461066500,6.70806640625,-0.22650146484375,-0.634429931640625,-0.745208740234375
1774472698471079700,6.71807958984375,-0.2119293212890625,-0.6470947265625,-0.7565765380859375
1774472698481092400,6.72809228515625,-0.203857421875,-0.6534423828125,-0.7556915283203125
1774472698491106600,6.7381064453125,-0.215789794921875,-0.660919189453125,-0.76202392578125
1774472698501119500,6.748119384765625,-0.2306976318359375,-0.6652069091796875,-0.7657318115234375
1774472698511132400,6.75813232421875,-0.2473297119140625,-0.6647796630859375,-0.757110595703125
1774472698521146600,6.768146728515625,-0.273773193359375,-0.6720733642578125,-0.748687744140625
1774472698531159600,6.77815966796875,-0.3060150146484375,-0.6859893798828125,-0.747161865234375
1774472698541172500,6.78817236328125,-0.322113037109375,-0.693878173828125,-0.7410736083984375
1774472698551186700,6.798186767578125,-0.351531982421875,-0.6980133056640625,-0.735321044921875
1774472698561199400,6.808199462890625,-0.3868560791015625,-0.6955413818359375,-0.7339935302734375
1774472698571213600,6.818213623046875,-0.4002227783203125,-0.6917877197265625,-0.7363739013671875
1774472698581226500,6.8282265625,-0.4046478271484375,-0.6976470947265625,-0.749786376953125
1774472698591239400,6.838239501953125,-0.3918914794921875,-0.7048187255859375,-0.7558441162109375
1774472698601253600,6.848253662109375,-0.3609466552734375,-0.7089996337890625,-0.7592010498046875
1774472698611266600,6.8582666015625,-0.326629638671875,-0.7109832763671875,-0.7620086669921875
1774472698621279500,6.868279541015625,-0.290771484375,-0.710479736328125,-0.7698211669921875
1774472698631293400,6.87829345703125,-0.2581787109375,-0.70452880859375,-0.7781829833984375
1774472698641306600,6.888306640625,-0.234405517578125,-0.69287109375,-0.78106689453125
1774472698651319600,6.898319580078125,-0.2241668701171875,-0.677886962890625,-0.7863922119140625
1774472698661333500,6.90833349609375,-0.210601806640625,-0.6608123779296875,-0.7902069091796875
1774472698671346400,6.918346435546875,-0.1873779296875,-0.6469879150390625,-0.7884979248046875
1774472698681359600,6.928359619140625,-0.1624755859375,-0.6386260986328125,-0.7730712890625
1774472698691373600,6.93837353515625,-0.1490325927734375,-0.6242523193359375,-0.7593536376953125
1774472698701386500,6.948386474609375,-0.1611328125,-0.6071929931640625,-0.750732421875
1774472698711400400,6.958400390625,-0.184967041015625,-0.592926025390625,-0.7471466064453125
1774472698721413600,6.96841357421875,-0.206146240234375,-0.58172607421875,-0.7429351806640625
1774472698731426600,6.978426513671875,-0.21929931640625,-0.568206787109375,-0.7369384765625
1774472698741440500,6.9884404296875,-0.235809326171875,-0.5639801025390625,-0.732269287109375
1774472698751453700,6.99845361328125,-0.240509033203125,-0.5623931884765625,-0.7220001220703125
1774472698761466600,7.008466552734375,-0.238739013671875,-0.5660552978515625,-0.71417236328125
1774472698771480600,7.01848046875,-0.2293853759765625,-0.5744171142578125,-0.71954345703125
1774472698781493500,7.028493408203125,-0.22406005859375,-0.5818634033203125,-0.72265625
1774472698791506400,7.03850634765625,-0.2311248779296875,-0.587066650390625,-0.7171783447265625
1774472698801520600,7.048520751953125,-0.2452392578125,-0.5919647216796875,-0.710479736328125
1774472698811533600,7.058533447265625,-0.2523651123046875,-0.594879150390625,-0.703643798828125
1774472698821546500,7.06854638671875,-0.2611541748046875,-0.592742919921875,-0.6947479248046875
1774472698831560700,7.078560791015625,-0.2610015869140625,-0.599090576171875,-0.683319091796875
1774472698841573400,7.088573486328125,-0.25225830078125,-0.607513427734375,-0.6767120361328125
1774472698851586600,7.098586669921875,-0.2298126220703125,-0.61474609375,-0.671844482421875
1774472698861600500,7.1086005859375,-0.21319580078125,-0.61846923828125,-0.6734771728515625
1774472698871613400,7.118613525390625,-0.1987762451171875,-0.61822509765625,-0.6777801513671875
1774472698881627600,7.128627685546875,-0.1859893798828125,-0.616119384765625,-0.683624267578125
1774472698891640300,7.138640380859375,-0.18585205078125,-0.6124114990234375,-0.683502197265625
1774472698901653500,7.148653564453125,-0.1837005615234375,-0.6104583740234375,-0.677947998046875
1774472698911667700,7.158667724609375,-0.1715240478515625,-0.614471435546875,-0.675811767578125
1774472698921680400,7.168680419921875,-0.156005859375,-0.61602783203125,-0.6735992431640625
1774472698931693600,7.178693603515625,-0.1669769287109375,-0.618408203125,-0.673675537109375
1774472698941707500,7.18870751953125,-0.1974945068359375,-0.615264892578125,-0.6765289306640625
1774472698951720400,7.198720458984375,-0.218505859375,-0.61358642578125,-0.6810455322265625
1774472698961733600,7.208733642578125,-0.242828369140625,-0.616424560546875,-0.6915435791015625
1774472698971747600,7.21874755859375,-0.2747955322265625,-0.61749267578125,-0.6963348388671875
1774472698981760500,7.228760498046875,-0.289764404296875,-0.626220703125,-0.6930084228515625
1774472698991773700,7.238773681640625,-0.2953948974609375,-0.6287384033203125,-0.670501708984375
1774472699001787400,7.248787353515625,-0.319122314453125,-0.6251373291015625,-0.6612396240234375
1774472699011800600,7.258800537109375,-0.3279571533203125,-0.715850830078125,-0.7949676513671875
1774472699021813500,7.2688134765625,-0.326385498046875,-0.66912841796875,-0.6591644287109375
1774472699031827500,7.278827392578125,-0.287933349609375,-0.671142578125,-0.643707275390625
1774472699041840600,7.288840576171875,-0.298431396484375,-0.7116241455078125,-0.675994873046875
1774472699051853300,7.298853271484375,-0.2837066650390625,-0.7200164794921875,-0.668792724609375
1774472699061867500,7.308867431640625,-0.27801513671875,-0.731353759765625,-0.66845703125
1774472699071880700,7.318880615234375,-0.261474609375,-0.7396392822265625,-0.6638946533203125
1774472699081893400,7.328893310546875,-0.2437286376953125,-0.7498779296875,-0.6752471923828125
1774472699091907600,7.338907470703125,-0.24322509765625,-0.7655792236328125,-0.6945953369140625
1774472699101920500,7.34892041015625,-0.24786376953125,-0.7777862548828125,-0.7051849365234375
1774472699111933400,7.358933349609375,-0.257110595703125,-0.776519775390625,-0.7004852294921875
1774472699121947600,7.36894775390625,-0.2743377685546875,-0.7682647705078125,-0.6860198974609375
1774472699131960600,7.378960693359375,-0.28973388671875,-0.758697509765625,-0.679718017578125
1774472699141975000,7.38897509765625,-0.300079345703125,-0.7523956298828125,-0.6794281005859375
1774472699151987700,7.39898779296875,-0.3058013916015625,-0.7439727783203125,-0.6769866943359375
1774472699162001000,7.4090009765625,-0.3104400634765625,-0.7319488525390625,-0.6649627685546875
1774472699172014600,7.4190146484375,-0.31805419921875,-0.72509765625,-0.6558074951171875
1774472699182027800,7.42902783203125,-0.32684326171875,-0.7203216552734375,-0.6548309326171875
1774472699192041000,7.439041015625,-0.324066162109375,-0.715850830078125,-0.6577606201171875
1774472699202054700,7.4490546875,-0.309234619140625,-0.712554931640625,-0.6571197509765625
1774472699212067800,7.45906787109375,-0.2887115478515625,-0.7068023681640625,-0.653564453125
1774472699222080800,7.469080810546875,-0.2750396728515625,-0.697967529296875,-0.6501007080078125
1774472699232094700,7.4790947265625,-0.2737579345703125,-0.6875457763671875,-0.657623291015625
1774472699242108000,7.48910791015625,-0.280242919921875,-0.675750732421875,-0.6714935302734375
1774472699252120800,7.499120849609375,-0.29046630859375,-0.6641693115234375,-0.682373046875
1774472699262134800,7.509134765625,-0.293975830078125,-0.6515045166015625,-0.686248779296875
1774472699272148000,7.51914794921875,-0.313018798828125,-0.6440277099609375,-0.689544677734375
1774472699282160600,7.52916064453125,-0.336883544921875,-0.6331329345703125,-0.694061279296875
1774472699292174800,7.5391748046875,-0.3662872314453125,-0.618255615234375,-0.6986083984375
1774472699302188000,7.54918798828125,-0.3833160400390625,-0.6155242919921875,-0.7123565673828125
1774472699312200700,7.55920068359375,-0.382476806640625,-0.6110687255859375,-0.734649658203125
1774472699322215000,7.56921484375,-0.3631591796875,-0.606658935546875,-0.7536163330078125
1774472699332227600,7.5792275390625,-0.342681884765625,-0.610260009765625,-0.7679443359375
1774472699342240800,7.58924072265625,-0.33013916015625,-0.6143646240234375,-0.78314208984375
1774472699352255000,7.5992548828125,-0.321563720703125,-0.6182708740234375,-0.7957763671875
1774472699362267600,7.609267578125,-0.31573486328125,-0.6206207275390625,-0.805908203125
1774472699372280800,7.61928076171875,-0.290863037109375,-0.6294403076171875,-0.81756591796875
1774472699382294800,7.629294677734375,-0.24755859375,-0.638153076171875,-0.8295440673828125
1774472699392307700,7.6393076171875,-0.2142181396484375,-0.644317626953125,-0.836181640625
1774472699402321000,7.64932080078125,-0.1923675537109375,-0.648284912109375,-0.83465576171875
1774472699412334800,7.6593349609375,-0.1737213134765625,-0.647979736328125,-0.8310699462890625
1774472699422347800,7.66934765625,-0.1661834716796875,-0.646820068359375,-0.8242645263671875
1774472699432361000,7.67936083984375,-0.1680755615234375,-0.6431427001953125,-0.8064117431640625
1774472699442374700,7.689374755859375,-0.1756591796875,-0.6391448974609375,-0.7823638916015625
1774472699452387800,7.699387939453125,-0.180145263671875,-0.643035888671875,-0.760528564453125
1774472699462401000,7.709401123046875,-0.1797332763671875,-0.6438446044921875,-0.738250732421875
1774472699472414700,7.719414794921875,-0.1865997314453125,-0.6399078369140625,-0.708221435546875
1774472699482428000,7.729427978515625,-0.2079925537109375,-0.6331939697265625,-0.6839752197265625
1774472699492440600,7.739440673828125,-0.2312164306640625,-0.6265106201171875,-0.6626739501953125
1774472699502454800,7.749454833984375,-0.2445220947265625,-0.623748779296875,-0.6454010009765625
1774472699512468000,7.759468017578125,-0.250946044921875,-0.6191864013671875,-0.6305999755859375
1774472699522480600,7.769480712890625,-0.2607421875,-0.6152801513671875,-0.619049072265625
1774472699532494800,7.779494873046875,-0.264129638671875,-0.6124420166015625,-0.607421875
1774472699542507800,7.7895078125,-0.260009765625,-0.6120452880859375,-0.6087799072265625
1774472699552520700,7.799520751953125,-0.2631072998046875,-0.6102294921875,-0.6128082275390625
1774472699562535000,7.809534912109375,-0.27667236328125,-0.606353759765625,-0.6172943115234375
1774472699572547800,7.8195478515625,-0.2919158935546875,-0.605621337890625,-0.62237548828125
1774472699582560800,7.829560791015625,-0.295806884765625,-0.6030426025390625,-0.6267852783203125
1774472699592574700,7.83957470703125,-0.291351318359375,-0.6070098876953125,-0.635162353515625
1774472699602588000,7.849587890625,-0.2859344482421875,-0.61102294921875,-0.6477813720703125
1774472699612600800,7.859600830078125,-0.2866668701171875,-0.615875244140625,-0.6576080322265625
1774472699622614800,7.86961474609375,-0.301177978515625,-0.6168060302734375,-0.66265869140625
1774472699632627700,7.879627685546875,-0.3160858154296875,-0.6181793212890625,-0.6673126220703125
1774472699642641000,7.889640869140625,-0.3209075927734375,-0.6204833984375,-0.67779541015625
1774472699652654800,7.89965478515625,-0.321075439453125,-0.6240997314453125,-0.687255859375
1774472699662667800,7.909667724609375,-0.3221282958984375,-0.6273193359375,-0.6930084228515625
1774472699672681000,7.919680908203125,-0.324127197265625,-0.630645751953125,-0.701690673828125
1774472699682695000,7.92969482421875,-0.3214569091796875,-0.63623046875,-0.711822509765625
1774472699692707800,7.939707763671875,-0.309326171875,-0.6440887451171875,-0.7245330810546875
1774472699702720800,7.949720703125,-0.2964324951171875,-0.6464385986328125,-0.7337646484375
1774472699712735000,7.95973486328125,-0.289215087890625,-0.6475830078125,-0.7411956787109375
1774472699722748000,7.969747802734375,-0.28363037109375,-0.6515045166015625,-0.7527618408203125
1774472699732760800,7.9797607421875,-0.2778778076171875,-0.655975341796875,-0.7685546875
1774472699742774800,7.98977490234375,-0.2701568603515625,-0.6622161865234375,-0.78192138671875
1774472699752787700,7.99978759765625,-0.269866943359375,-0.6683807373046875,-0.795318603515625
1774472699762801000,8.00980078125,-0.2690277099609375,-0.6692047119140625,-0.802825927734375
1774472699772814800,8.01981494140625,-0.26849365234375,-0.673919677734375,-0.8139190673828125
1774472699782827800,8.029827880859376,-0.261871337890625,-0.6798858642578125,-0.8260650634765625
1774472699792840700,8.0398408203125,-0.2520904541015625,-0.6827392578125,-0.8313140869140625
1774472699802854700,8.049854736328125,-0.2421875,-0.6881103515625,-0.8339385986328125
1774472699812867800,8.059867919921874,-0.2332763671875,-0.6950531005859375,-0.83807373046875
1774472699822880800,8.069880859375,-0.213531494140625,-0.700836181640625,-0.84222412109375
1774472699832894700,8.079894775390626,-0.196807861328125,-0.7037506103515625,-0.83648681640625
1774472699842908000,8.089907958984375,-0.1962127685546875,-0.705657958984375,-0.826385498046875
1774472699852920800,8.0999208984375,-0.2021484375,-0.705718994140625,-0.814483642578125
1774472699862934800,8.109934814453124,-0.20562744140625,-0.707366943359375,-0.8060760498046875
1774472699872948000,8.119947998046875,-0.2062225341796875,-0.7078094482421875,-0.7934722900390625
1774472699882961000,8.1299609375,-0.2096099853515625,-0.706695556640625,-0.7730712890625
1774472699892974800,8.139974853515625,-0.2124786376953125,-0.7072906494140625,-0.7562255859375
1774472699902987800,8.14998779296875,-0.2119903564453125,-0.707763671875,-0.741455078125
1774472699913000700,8.160000732421874,-0.208099365234375,-0.7077178955078125,-0.7303924560546875
1774472699923015000,8.170014892578125,-0.2102508544921875,-0.7042388916015625,-0.71514892578125
1774472699933027800,8.18002783203125,-0.220611572265625,-0.6985626220703125,-0.6981048583984375
1774472699943040800,8.190040771484375,-0.232421875,-0.6938323974609375,-0.6805877685546875
1774472699953055000,8.200054931640626,-0.2348785400390625,-0.6939849853515625,-0.668731689453125
1774472699963067600,8.210067626953125,-0.2338104248046875,-0.6945953369140625,-0.6599578857421875
1774472699973080800,8.220080810546875,-0.2323150634765625,-0.6941986083984375,-0.6518096923828125
1774472699983095000,8.230094970703124,-0.240264892578125,-0.690460205078125,-0.6395721435546875
1774472699993107700,8.240107666015625,-0.249603271484375,-0.6868438720703125,-0.624847412109375
1774472700003121000,8.250120849609376,-0.248687744140625,-0.6863250732421875,-0.613067626953125
1774472700013134600,8.260134521484375,-0.2418365478515625,-0.68701171875,-0.6028900146484375
1774472700023147800,8.270147705078125,-0.240875244140625,-0.680145263671875,-0.593505859375
1774472700033161000,8.280160888671874,-0.247344970703125,-0.675628662109375,-0.588134765625
1774472700043174000,8.290173828125,-0.2591400146484375,-0.667633056640625,-0.5869903564453125
1774472700053187800,8.300187744140626,-0.27313232421875,-0.6501922607421875,-0.584869384765625
1774472700063200800,8.31020068359375,-0.2826995849609375,-0.6320037841796875,-0.5886688232421875
1774472700073213700,8.320213623046875,-0.278900146484375,-0.6208953857421875,-0.5925750732421875
1774472700083228000,8.330227783203124,-0.2735443115234375,-0.6121826171875,-0.592926025390625
1774472700093240800,8.34024072265625,-0.2692718505859375,-0.6098785400390625,-0.5959625244140625
1774472700103253800,8.350253662109376,-0.2601776123046875,-0.608642578125,-0.5993804931640625
1774472700113268000,8.36026806640625,-0.2498779296875,-0.6078033447265625,-0.5994415283203125
1774472700123280600,8.37028076171875,-0.2564544677734375,-0.6077117919921875,-0.597625732421875
1774472700133293800,8.3802939453125,-0.266876220703125,-0.608978271484375,-0.60321044921875
1774472700143308000,8.39030810546875,-0.2869873046875,-0.607635498046875,-0.61322021484375
1774472700153321000,8.400321044921874,-0.3092193603515625,-0.6044921875,-0.6222991943359375
1774472700163334000,8.410333984375,-0.324615478515625,-0.60125732421875,-0.628692626953125
1774472700173347800,8.420347900390626,-0.3354034423828125,-0.604522705078125,-0.6405029296875
1774472700183361000,8.430361083984375,-0.3391571044921875,-0.61334228515625,-0.6519927978515625
1774472700193374000,8.4403740234375,-0.3336334228515625,-0.6200103759765625,-0.667999267578125
1774472700203388000,8.450387939453124,-0.3210296630859375,-0.6280059814453125,-0.6906890869140625
1774472700213400800,8.46040087890625,-0.3185577392578125,-0.6360015869140625,-0.712890625
1774472700223414000,8.4704140625,-0.322662353515625,-0.644622802734375,-0.7320404052734375
1774472700233428000,8.480427978515625,-0.3164520263671875,-0.65313720703125,-0.7463836669921875
1774472700243441000,8.49044091796875,-0.313262939453125,-0.657562255859375,-0.765533447265625
1774472700253454000,8.5004541015625,-0.315887451171875,-0.6664886474609375,-0.7871246337890625
1774472700263468000,8.510468017578125,-0.3147430419921875,-0.677947998046875,-0.8022003173828125
1774472700273481000,8.52048095703125,-0.3028106689453125,-0.688201904296875,-0.81854248046875
1774472700283494000,8.530493896484375,-0.28375244140625,-0.6946563720703125,-0.8371124267578125
1774472700293508000,8.540508056640626,-0.257080078125,-0.699981689453125,-0.851104736328125
1774472700303521000,8.55052099609375,-0.235015869140625,-0.7071533203125,-0.85650634765625
1774472700313534000,8.560533935546875,-0.21435546875,-0.7114105224609375,-0.8494873046875
1774472700323548000,8.5705478515625,-0.207550048828125,-0.713714599609375,-0.8329010009765625
1774472700333560800,8.580560791015625,-0.212799072265625,-0.7144622802734375,-0.8086090087890625
1774472700343574000,8.590573974609375,-0.2281494140625,-0.70977783203125,-0.7808837890625
1774472700353588000,8.600587890625,-0.24871826171875,-0.7062225341796875,-0.7570037841796875
1774472700363601000,8.610600830078125,-0.2674407958984375,-0.701263427734375,-0.7340850830078125
1774472700373613800,8.62061376953125,-0.28338623046875,-0.6917266845703125,-0.708831787109375
1774472700383627000,8.630626953125,-0.29644775390625,-0.684234619140625,-0.683746337890625
1774472700393641000,8.640640869140626,-0.30224609375,-0.681671142578125,-0.6669769287109375
1774472700403654000,8.65065380859375,-0.302459716796875,-0.6849517822265625,-0.6555633544921875
1774472700413667000,8.6606669921875,-0.304351806640625,-0.6840667724609375,-0.643096923828125
1774472700423681000,8.670680908203124,-0.3094940185546875,-0.6855621337890625,-0.6361846923828125
1774472700433694000,8.68069384765625,-0.31207275390625,-0.6835784912109375,-0.6314697265625
1774472700443707000,8.690706787109375,-0.318511962890625,-0.6831817626953125,-0.6329193115234375
1774472700453721000,8.70072119140625,-0.32025146484375,-0.680694580078125,-0.6392669677734375
1774472700463734000,8.710734130859375,-0.31732177734375,-0.677093505859375,-0.6430816650390625
1774472700473747000,8.720746826171874,-0.3122406005859375,-0.673004150390625,-0.645538330078125
1774472700483761000,8.730760986328125,-0.311187744140625,-0.6698760986328125,-0.6507720947265625
1774472700493773800,8.74077392578125,-0.3073272705078125,-0.6692352294921875,-0.65869140625
1774472700503787000,8.750787109375,-0.2961273193359375,-0.668670654296875,-0.6655120849609375
1774472700513801000,8.760801025390625,-0.2892303466796875,-0.6663360595703125,-0.6691436767578125
1774472700523814000,8.77081396484375,-0.29302978515625,-0.6648712158203125,-0.6702117919921875
1774472700533826800,8.780826904296875,-0.30145263671875,-0.662139892578125,-0.6688079833984375
1774472700543840800,8.7908408203125,-0.3043060302734375,-0.659942626953125,-0.6690673828125
1774472700553854000,8.80085400390625,-0.3054656982421875,-0.66009521484375,-0.6685638427734375
1774472700563867000,8.810866943359375,-0.30902099609375,-0.6587371826171875,-0.6705169677734375
1774472700573880800,8.820880859375,-0.3157501220703125,-0.6576385498046875,-0.673858642578125
1774472700583894000,8.83089404296875,-0.3112335205078125,-0.6586151123046875,-0.6807861328125
1774472700593907000,8.840906982421876,-0.2990875244140625,-0.6567230224609375,-0.687225341796875
1774472700603921000,8.8509208984375,-0.296875,-0.6576995849609375,-0.692352294921875
1774472700613934000,8.86093408203125,-0.3018951416015625,-0.6559600830078125,-0.69732666015625
1774472700623947000,8.870947021484374,-0.302764892578125,-0.6529083251953125,-0.69940185546875
1774472700633960000,8.8809599609375,-0.3068084716796875,-0.6524200439453125,-0.700531005859375
1774472700643974000,8.890973876953124,-0.3074951171875,-0.6509857177734375,-0.7000274658203125
1774472700653986800,8.90098681640625,-0.304412841796875,-0.6503448486328125,-0.7025604248046875
1774472700664000000,8.911,-0.294647216796875,-0.649932861328125,-0.7071075439453125
1774472700674014000,8.921013916015625,-0.2881927490234375,-0.6551513671875,-0.7098388671875
1774472700684027000,8.93102685546875,-0.2872314453125,-0.6563262939453125,-0.7081756591796875
1774472700694040000,8.9410400390625,-0.293914794921875,-0.6552886962890625,-0.7034912109375
1774472700704053800,8.9510537109375,-0.3033905029296875,-0.6523895263671875,-0.6987152099609375
1774472700714067000,8.96106689453125,-0.3123779296875,-0.647369384765625,-0.6940155029296875
1774472700724079900,8.971079833984374,-0.3162841796875,-0.642547607421875,-0.690460205078125
1774472700734093800,8.98109375,-0.31451416015625,-0.6392974853515625,-0.6905517578125
1774472700744107000,8.99110693359375,-0.302520751953125,-0.63995361328125,-0.69512939453125
1774472700754120000,9.001119873046875,-0.2878875732421875,-0.6345367431640625,-0.699127197265625
1774472700764134000,9.0111337890625,-0.28509521484375,-0.629241943359375,-0.7037200927734375
1774472700774147000,9.02114697265625,-0.2869110107421875,-0.6230621337890625,-0.70416259765625
1774472700784160000,9.031159912109375,-0.287139892578125,-0.618804931640625,-0.706085205078125
1774472700794174000,9.041174072265624,-0.29534912109375,-0.616729736328125,-0.709991455078125
1774472700804187100,9.051187255859375,-0.3042755126953125,-0.6154937744140625,-0.7136688232421875
1774472700814199800,9.06119970703125,-0.3089752197265625,-0.6135711669921875,-0.7099609375
1774472700824214000,9.071214111328125,-0.3086090087890625,-0.607879638671875,-0.7081451416015625
1774472700834227000,9.08122705078125,-0.3118743896484375,-0.6101531982421875,-0.7190704345703125
1774472700844240000,9.091239990234374,-0.316986083984375,-0.613555908203125,-0.7294769287109375
1774472700854253000,9.101253173828125,-0.319854736328125,-0.6121063232421875,-0.73663330078125
1774472700864266800,9.111266845703126,-0.3165283203125,-0.6115875244140625,-0.7442474365234375
1774472700874280000,9.121280029296875,-0.3046417236328125,-0.6089019775390625,-0.747894287109375
1774472700884292900,9.13129296875,-0.2961273193359375,-0.6100311279296875,-0.7554168701171875
1774472700894306800,9.141306884765624,-0.2904205322265625,-0.6136627197265625,-0.763275146484375
1774472700904320000,9.151320068359375,-0.2859954833984375,-0.6177215576171875,-0.7674713134765625
1774472700914333000,9.1613330078125,-0.28912353515625,-0.6154327392578125,-0.764190673828125
1774472700924347000,9.171346923828125,-0.3042755126953125,-0.6115264892578125,-0.7595062255859375
1774472700934360000,9.181360107421876,-0.318267822265625,-0.606781005859375,-0.751312255859375
1774472700944373000,9.191373046875,-0.3278350830078125,-0.6037750244140625,-0.74755859375
1774472700954387000,9.201386962890625,-0.3269805908203125,-0.6022796630859375,-0.7485504150390625
1774472700964400000,9.211400146484374,-0.3256683349609375,-0.604705810546875,-0.7564239501953125
1774472700974412800,9.221412841796875,-0.3231658935546875,-0.608367919921875,-0.7651214599609375
1774472700984427000,9.231427001953126,-0.3169708251953125,-0.611297607421875,-0.773590087890625
1774472700994440000,9.24143994140625,-0.3049774169921875,-0.6091766357421875,-0.7812652587890625
1774472701004452900,9.251452880859375,-0.295135498046875,-0.607879638671875,-0.788726806640625
1774472701014467000,9.261467041015624,-0.2908782958984375,-0.609130859375,-0.7995452880859375
1774472701024479700,9.271479736328125,-0.2817840576171875,-0.6130523681640625,-0.8036041259765625
1774472701034493000,9.281492919921876,-0.2771148681640625,-0.617340087890625,-0.80511474609375
1774472701044505900,9.291505859375,-0.26885986328125,-0.6196441650390625,-0.804656982421875
1774472701054519800,9.301519775390625,-0.2676544189453125,-0.6204681396484375,-0.7999114990234375
1774472701064533000,9.311532958984374,-0.274627685546875,-0.6188507080078125,-0.79931640625
1774472701074546000,9.3215458984375,-0.27996826171875,-0.61700439453125,-0.799530029296875
1774472701084560000,9.331559814453126,-0.28143310546875,-0.617095947265625,-0.798492431640625
1774472701094573000,9.341572998046875,-0.276275634765625,-0.621673583984375,-0.7926788330078125
1774472701104586000,9.3515859375,-0.269561767578125,-0.626708984375,-0.7858734130859375
1774472701114600000,9.361599853515624,-0.265838623046875,-0.6292266845703125,-0.7774505615234375
1774472701124613000,9.371613037109375,-0.26239013671875,-0.63232421875,-0.771331787109375
1774472701134625800,9.381625732421876,-0.257598876953125,-0.6369781494140625,-0.7624969482421875
1774472701144640500,9.391640625,-0.254547119140625,-0.639984130859375,-0.753997802734375
1774472701154653200,9.401653076171876,-0.2534637451171875,-0.6406402587890625,-0.7425994873046875
1774472701164666400,9.411666259765624,-0.255889892578125,-0.6410064697265625,-0.7332916259765625
1774472701174680600,9.4216806640625,-0.2607421875,-0.640380859375,-0.724029541015625
1774472701184693200,9.431693359375,-0.267120361328125,-0.636199951171875,-0.7130279541015625
1774472701194706400,9.44170654296875,-0.270538330078125,-0.6398468017578125,-0.7050323486328125
1774472701204720400,9.451720458984376,-0.2695465087890625,-0.64227294921875,-0.6992950439453125
1774472701214733300,9.4617333984375,-0.2679595947265625,-0.640380859375,-0.69024658203125
1774472701224746500,9.47174658203125,-0.274810791015625,-0.63983154296875,-0.6861114501953125
1774472701234759400,9.481759521484374,-0.2810516357421875,-0.63330078125,-0.683013916015625
1774472701244773400,9.4917734375,-0.280670166015625,-0.6304168701171875,-0.6829833984375
1774472701254786600,9.50178662109375,-0.279876708984375,-0.6272125244140625,-0.684814453125
1774472701264799200,9.51179931640625,-0.27203369140625,-0.625701904296875,-0.6900482177734375
1774472701274813400,9.5218134765625,-0.2632598876953125,-0.6269073486328125,-0.69635009765625
1774472701284826600,9.53182666015625,-0.26141357421875,-0.626251220703125,-0.6995849609375
1774472701294839300,9.54183935546875,-0.25921630859375,-0.6279449462890625,-0.7061004638671875
1774472701304853500,9.551853515625,-0.2545318603515625,-0.6309356689453125,-0.71466064453125
1774472701314866400,9.561866455078125,-0.257965087890625,-0.631500244140625,-0.7174835205078125
1774472701324879400,9.57187939453125,-0.26312255859375,-0.633819580078125,-0.7183837890625
1774472701334893600,9.5818935546875,-0.26898193359375,-0.6341552734375,-0.7147369384765625
1774472701344906200,9.59190625,-0.2716827392578125,-0.6342315673828125,-0.7140960693359375
1774472701354919400,9.60191943359375,-0.27813720703125,-0.6326904296875,-0.7115631103515625
1774472701364933400,9.611933349609375,-0.28253173828125,-0.6334228515625,-0.7084197998046875
1774472701374946300,9.6219462890625,-0.2777252197265625,-0.6361541748046875,-0.7080230712890625
1774472701384959500,9.63195947265625,-0.2689361572265625,-0.6396026611328125,-0.713043212890625
1774472701394972400,9.641972412109375,-0.272613525390625,-0.639495849609375,-0.71014404296875
1774472701404986400,9.651986328125,-0.284210205078125,-0.6421051025390625,-0.7098236083984375
1774472701414999600,9.66199951171875,-0.2828216552734375,-0.64715576171875,-0.7112274169921875
1774472701425012200,9.67201220703125,-0.276458740234375,-0.6543731689453125,-0.7060699462890625
1774472701435026400,9.6820263671875,-0.29730224609375,-0.651214599609375,-0.6925201416015625
1774472701445039600,9.69203955078125,-0.3339691162109375,-0.6453094482421875,-0.6942291259765625
1774472701455052300,9.70205224609375,-0.3352508544921875,-0.6426544189453125,-0.6883087158203125
1774472701465066500,9.71206640625,-0.3202362060546875,-0.637908935546875,-0.6797637939453125
1774472701475079400,9.722079345703126,-0.294952392578125,-0.6336517333984375,-0.6809234619140625
1774472701485092400,9.73209228515625,-0.2817230224609375,-0.636871337890625,-0.6981201171875
1774472701495106600,9.7421064453125,-0.2702789306640625,-0.6429901123046875,-0.71527099609375
1774472701505119200,9.752119140625,-0.254119873046875,-0.6429901123046875,-0.7249908447265625
1774472701515132400,9.76213232421875,-0.2464447021484375,-0.650634765625,-0.7362823486328125
1774472701525146400,9.772146484375,-0.242401123046875,-0.6572418212890625,-0.7474212646484375
1774472701535159300,9.7821591796875,-0.2399749755859375,-0.6565093994140625,-0.757293701171875
1774472701545172500,9.79217236328125,-0.2469482421875,-0.6572265625,-0.75799560546875
1774472701555186400,9.8021865234375,-0.264129638671875,-0.6569061279296875,-0.7519378662109375
1774472701565199400,9.812199462890625,-0.285675048828125,-0.6490631103515625,-0.7354888916015625
1774472701575212500,9.822212646484376,-0.305908203125,-0.6346435546875,-0.7178955078125
1774472701585225200,9.83222509765625,-0.322540283203125,-0.625762939453125,-0.7088165283203125
1774472701595239400,9.842239501953125,-0.336090087890625,-0.6203155517578125,-0.7039642333984375
1774472701605252600,9.852252685546874,-0.33929443359375,-0.615325927734375,-0.699981689453125
1774472701615265300,9.862265380859375,-0.33648681640625,-0.6125640869140625,-0.6997222900390625
1774472701625279500,9.872279541015626,-0.34478759765625,-0.5991363525390625,-0.701904296875
1774472701635292400,9.88229248046875,-0.3498382568359375,-0.5736083984375,-0.692657470703125
1774472701645305300,9.892305419921875,-0.3556671142578125,-0.5503997802734375,-0.6785125732421875
1774472701655319600,9.902319580078125,-0.3577117919921875,-0.53369140625,-0.654693603515625
1774472701665332200,9.912332275390625,-0.3557586669921875,-0.5165557861328125,-0.622711181640625
1774472701675345400,9.922345458984376,-0.3552398681640625,-0.509613037109375,-0.596343994140625
1774472701685359400,9.932359375,-0.36016845703125,-0.48931884765625,-0.5639801025390625
1774472701695372300,9.942372314453126,-0.3857879638671875,-0.451690673828125,-0.514190673828125
1774472701705385500,9.952385498046874,-0.38006591796875,-0.4337005615234375,-0.4759521484375
1774472701715399400,9.9623994140625,-0.2891693115234375,-0.44439697265625,-0.480224609375
1774472701725412400,9.972412353515624,-0.15423583984375,-0.453643798828125,-0.52374267578125
1774472701735425500,9.982425537109375,-0.08184814453125,-0.4456634521484375,-0.5638275146484375
1774472701745438500,9.9924384765625,-0.06219482421875,-0.4343109130859375,-0.592926025390625
1774472701755452400,10.002452392578125,-0.0902099609375,-0.4180145263671875,-0.660064697265625
1774472701765465600,10.012465576171875,-0.08160400390625,-0.402130126953125,-0.670989990234375
1774472701775478300,10.022478271484376,-0.03497314453125,-0.3733062744140625,-0.5968017578125
1774472701785492500,10.032492431640625,-0.0220947265625,-0.3740997314453125,-0.605804443359375
1774472701795505400,10.04250537109375,0.0338287353515625,-0.3676910400390625,-0.6023406982421875
1774472701805518300,10.052518310546875,0.06610107421875,-0.3609466552734375,-0.5708160400390625
1774472701815532500,10.062532470703125,0.0823974609375,-0.39471435546875,-0.535064697265625
1774472701825545200,10.072545166015624,0.07952880859375,-0.4495697021484375,-0.5369873046875
1774472701835558400,10.082558349609375,0.0930633544921875,-0.5143280029296875,-0.5752410888671875
1774472701845572400,10.092572265625,0.137786865234375,-0.5749053955078125,-0.582672119140625
1774472701855585300,10.102585205078125,0.1750640869140625,-0.628265380859375,-0.5637664794921875
1774472701865598500,10.112598388671875,0.209259033203125,-0.66937255859375,-0.5574188232421875
1774472701875612400,10.1226123046875,0.2663421630859375,-0.704559326171875,-0.55096435546875
1774472701885625300,10.132625244140625,0.2557525634765625,-0.7594757080078125,-0.5641021728515625
1774472701895638500,10.142638427734376,0.2579803466796875,-0.7905731201171875,-0.561859130859375
1774472701905651500,10.1526513671875,0.246612548828125,-0.810791015625,-0.5491790771484375
1774472701915665400,10.16266552734375,0.2271270751953125,-0.8298492431640625,-0.5394744873046875
1774472701925678600,10.1726787109375,0.222808837890625,-0.8526611328125,-0.541259765625
1774472701935691300,10.182691162109375,0.22369384765625,-0.862396240234375,-0.5795135498046875
1774472701945705500,10.19270556640625,0.2256927490234375,-0.874542236328125,-0.6302947998046875
1774472701955718400,10.202718505859375,0.2224884033203125,-0.883575439453125,-0.6597137451171875
1774472701965731300,10.2127314453125,0.252899169921875,-0.8863525390625,-0.6985015869140625
1774472701975745500,10.22274560546875,0.2620697021484375,-0.915618896484375,-0.7753448486328125
1774472701985758200,10.23275830078125,0.28265380859375,-0.921875,-0.7957611083984375
1774472701995771400,10.242771484375,0.301788330078125,-0.90948486328125,-0.7897186279296875
1774472702005785300,10.252785400390625,0.299163818359375,-0.9025726318359375,-0.7880706787109375
1774472702015798300,10.26279833984375,0.32464599609375,-0.8976287841796875,-0.80780029296875
1774472702025811500,10.2728115234375,0.3711395263671875,-0.90130615234375,-0.8394927978515625
1774472702035824400,10.282824462890625,0.4097900390625,-0.9009857177734375,-0.8759307861328125
1774472702045838300,10.29283837890625,0.4976043701171875,-0.8702392578125,-0.918212890625
1774472702055851500,10.3028515625,0.626220703125,-0.8285064697265625,-0.9280853271484375
1774472702065864400,10.312864501953126,0.686920166015625,-0.7949981689453125,-0.9416656494140625
1774472702075878400,10.32287841796875,0.713958740234375,-0.760589599609375,-0.9363861083984375
1774472702085891600,10.3328916015625,0.7237091064453125,-0.72216796875,-0.911376953125
1774472702095904300,10.342904296875,0.7177886962890625,-0.6974639892578125,-0.892913818359375
1774472702105918500,10.35291845703125,0.693817138671875,-0.72320556640625,-0.9068450927734375
1774472702115931400,10.362931396484376,0.7224578857421875,-0.7374267578125,-0.8633270263671875
1774472702125944300,10.3729443359375,0.7777099609375,-0.7153778076171875,-0.74249267578125
1774472702135958500,10.38295849609375,0.776031494140625,-0.7026519775390625,-0.6806793212890625
1774472702145971500,10.392971435546874,0.7855682373046875,-0.6883392333984375,-0.6349334716796875
1774472702155984600,10.402984619140625,0.7901611328125,-0.6694488525390625,-0.5924224853515625
1774472702165998300,10.412998291015626,0.774993896484375,-0.6171417236328125,-0.596710205078125
1774472702176011500,10.423011474609375,0.74310302734375,-0.61126708984375,-0.6836700439453125
1774472702186024700,10.433024658203125,0.7292327880859375,-0.615478515625,-0.7507781982421875
1774472702196037600,10.44303759765625,0.7046051025390625,-0.6204376220703125,-0.747406005859375
1774472702206051600,10.453051513671875,0.706573486328125,-0.63525390625,-0.6649169921875
1774472702216064500,10.463064453125,0.732696533203125,-0.66796875,-0.592559814453125
1774472702226077400,10.473077392578125,0.807098388671875,-0.7026519775390625,-0.5172882080078125
1774472702236091600,10.483091552734376,0.7833251953125,-0.742919921875,-0.4888916015625
1774472702246104600,10.4931044921875,0.701690673828125,-0.7791290283203125,-0.5190582275390625
1774472702256117500,10.503117431640625,0.648956298828125,-0.7861175537109375,-0.5165252685546875
1774472702266131700,10.513131591796874,0.6369171142578125,-0.7816162109375,-0.4761505126953125
1774472702276144400,10.523144287109375,0.6138763427734375,-0.80426025390625,-0.4404296875
1774472702286157600,10.533157470703125,0.575836181640625,-0.820281982421875,-0.4152374267578125
1774472702296171800,10.543171875,0.55224609375,-0.822998046875,-0.378509521484375
1774472702306184400,10.553184326171875,0.5335693359375,-0.8467254638671875,-0.34649658203125
1774472702316197600,10.56319775390625,0.5243377685546875,-0.876678466796875,-0.3280792236328125
1774472702326210600,10.57321044921875,0.5308990478515625,-0.8917388916015625,-0.3174285888671875
1774472702336224500,10.583224609375,0.5219573974609375,-0.88824462890625,-0.2906951904296875
1774472702346237700,10.59323779296875,0.481353759765625,-0.8758544921875,-0.27508544921875
1774472702356250600,10.603250732421875,0.4375152587890625,-0.8698272705078125,-0.268890380859375
1774472702366264600,10.6132646484375,0.4222412109375,-0.8606414794921875,-0.2652435302734375
1774472702376277800,10.62327783203125,0.46282958984375,-0.8530731201171875,-0.2715911865234375
1774472702386290400,10.63329052734375,0.5107421875,-0.8417205810546875,-0.278472900390625
1774472702396304600,10.6433046875,0.572723388671875,-0.7928619384765625,-0.3590087890625
1774472702406317600,10.653317626953125,0.60113525390625,-0.7512664794921875,-0.427001953125
1774472702416330500,10.66333056640625,0.627777099609375,-0.77496337890625,-0.2920379638671875
1774472702426344700,10.6733447265625,0.592529296875,-0.8147430419921875,-0.2196044921875
1774472702436357400,10.683357421875,0.5254058837890625,-0.8193511962890625,-0.2456817626953125
1774472702446370600,10.69337060546875,0.4567108154296875,-0.7764434814453125,-0.30908203125
1774472702456383500,10.703383544921875,0.3878021240234375,-0.7404327392578125,-0.346954345703125
1774472702466397400,10.7133974609375,0.3518218994140625,-0.738555908203125,-0.3260345458984375
1774472702476410600,10.72341064453125,0.310760498046875,-0.759063720703125,-0.321533203125
1774472702486423600,10.733423583984376,0.3274078369140625,-0.7698211669921875,-0.32635498046875
1774472702496437500,10.7434375,0.3798828125,-0.776031494140625,-0.345947265625
1774472702506450700,10.75345068359375,0.4515533447265625,-0.7870330810546875,-0.3630828857421875
1774472702516463600,10.763463623046874,0.5358428955078125,-0.7891998291015625,-0.3744964599609375
1774472702526477600,10.7734775390625,0.580474853515625,-0.80487060546875,-0.2892608642578125
1774472702536490800,10.78349072265625,0.6147308349609375,-0.8259735107421875,-0.205963134765625
1774472702546503400,10.79350341796875,0.6194610595703125,-0.7676239013671875,-0.3314208984375
1774472702556517600,10.803517578125,0.60052490234375,-0.68865966796875,-0.565582275390625
1774472702566530600,10.813530517578124,0.7333221435546875,-0.627960205078125,-0.5518341064453125
1774472702576543500,10.82354345703125,0.669158935546875,-0.6519775390625,-0.52178955078125
1774472702586557700,10.8335576171875,0.53948974609375,-0.6895599365234375,-0.61395263671875
1774472702596570400,10.8435703125,0.4608917236328125,-0.68109130859375,-0.599884033203125
1774472702606583600,10.85358349609375,0.418731689453125,-0.6496734619140625,-0.4941558837890625
1774472702616596500,10.863596435546874,0.370941162109375,-0.6473236083984375,-0.3716278076171875
1774472702626610400,10.8736103515625,0.3343658447265625,-0.6439666748046875,-0.317108154296875
1774472702636623600,10.88362353515625,0.4457550048828125,-0.61590576171875,-0.3732147216796875
1774472702646636500,10.893636474609375,0.508056640625,-0.6109619140625,-0.4564208984375
1774472702656650500,10.903650390625,0.5628509521484375,-0.6057586669921875,-0.4862060546875
1774472702666663700,10.91366357421875,0.660858154296875,-0.579132080078125,-0.4715728759765625
1774472702676676600,10.923676513671875,0.761871337890625,-0.5145416259765625,-0.510040283203125
1774472702686690600,10.933690673828124,0.877105712890625,-0.4484405517578125,-0.55792236328125
1774472702696703700,10.943703857421875,0.9365997314453125,-0.4027862548828125,-0.5906219482421875
1774472702706716400,10.95371630859375,0.9503936767578125,-0.352691650390625,-0.62957763671875
1774472702716729600,10.9637294921875,0.9605712890625,-0.3464202880859375,-0.6481475830078125
1774472702726743600,10.97374365234375,0.9108734130859375,-0.37872314453125,-0.668609619140625
1774472702736756500,10.983756591796874,0.81597900390625,-0.43951416015625,-0.645416259765625
1774472702746769700,10.993769775390625,0.72119140625,-0.4883270263671875,-0.5803070068359375
1774472702756783400,11.003783447265626,0.6338958740234375,-0.5561065673828125,-0.4698944091796875
1774472702766796500,11.013796630859375,0.6397705078125,-0.5483245849609375,-0.4058837890625
1774472702776809500,11.0238095703125,0.6380462646484375,-0.558258056640625,-0.369354248046875
1774472702786823400,11.033823486328124,0.6359100341796875,-0.5752410888671875,-0.333221435546875
1774472702796836600,11.043836669921875,0.617034912109375,-0.62261962890625,-0.2607421875
1774472702806849500,11.053849609375,0.5180206298828125,-0.7059173583984375,-0.1381988525390625
1774472702816863500,11.063863525390625,0.56103515625,-0.65594482421875,-0.200347900390625
1774472702826876700,11.073876708984375,0.734405517578125,-0.5753326416015625,-0.3185882568359375
1774472702836889600,11.0838896484375,0.8337860107421875,-0.456329345703125,-0.4110107421875
1774472702846903600,11.093903564453125,0.75054931640625,-0.451751708984375,-0.4286346435546875
1774472702856916700,11.103916748046874,0.5840911865234375,-0.508758544921875,-0.3622894287109375
1774472702866929400,11.113929443359375,0.4432525634765625,-0.5093841552734375,-0.3157196044921875
1774472702876942600,11.123942626953125,0.374908447265625,-0.46453857421875,-0.3679656982421875
1774472702886956500,11.13395654296875,0.335723876953125,-0.41973876953125,-0.4722442626953125
1774472702896969500,11.143969482421875,0.094482421875,-0.4181671142578125,-0.660400390625
1774472702906982700,11.153982666015626,-0.3510284423828125,-0.46051025390625,-0.9084625244140625
1774472702916996400,11.163996337890625,-0.3958740234375,-0.4492950439453125,-0.8914794921875
1774472702927009500,11.174009521484376,-0.1439971923828125,-0.4322662353515625,-0.8008270263671875
1774472702937022700,11.184022705078124,0.29119873046875,-0.4926605224609375,-0.892242431640625
1774472702947036400,11.194036376953125,0.85205078125,-0.813934326171875,-0.9362640380859375
1774472702957049600,11.204049560546874,0.394073486328125,-0.7295379638671875,-1.0150299072265625
1774472702967062500,11.2140625,0.189788818359375,-0.6238250732421875,-1.0218505859375
1774472702977076500,11.224076416015626,0.37799072265625,-0.6233367919921875,-0.976348876953125
1774472702987089700,11.234089599609375,0.5514984130859375,-0.582183837890625,-0.9209136962890625
1774472702997102600,11.2441025390625,0.6099853515625,-0.4653778076171875,-0.919525146484375
1774472703007115500,11.254115478515626,0.6022796630859375,-0.407928466796875,-0.91656494140625
1774472703017129700,11.264129638671875,0.5208587646484375,-0.44439697265625,-0.86859130859375
1774472703027142400,11.274142333984376,0.4535064697265625,-0.478515625,-0.843017578125
1774472703037155600,11.284155517578125,0.3846282958984375,-0.488006591796875,-1.0695343017578125
1774472703047169800,11.294169677734375,0.257781982421875,-0.5824127197265625,-1.01092529296875
1774472703057182500,11.304182373046874,0.147674560546875,-0.6331329345703125,-1.00860595703125
1774472703067195600,11.314195556640625,0.162841796875,-0.542510986328125,-0.9842987060546875
1774472703077209600,11.324209716796876,0.1798858642578125,-0.5054473876953125,-0.9306488037109375
1774472703087222500,11.334222412109375,0.208221435546875,-0.52978515625,-0.8665008544921875
1774472703097235700,11.344235595703125,0.331512451171875,-0.5070953369140625,-0.81494140625
1774472703107249400,11.35424951171875,0.4018402099609375,-0.4522247314453125,-0.8857421875
1774472703117262600,11.3642626953125,0.4287872314453125,-0.471954345703125,-0.8421173095703125
1774472703127275500,11.374275634765626,0.44708251953125,-0.438232421875,-0.70794677734375
1774472703137288400,11.384288330078125,0.435394287109375,-0.3961181640625,-0.677520751953125
1774472703147302700,11.394302734375,0.4188385009765625,-0.3879852294921875,-0.678802490234375
1774472703157315800,11.40431591796875,0.367950439453125,-0.490814208984375,-0.70477294921875
1774472703167328500,11.41432861328125,0.3431243896484375,-0.5442047119140625,-0.6841278076171875
1774472703177342700,11.4243427734375,0.398651123046875,-0.5660552978515625,-0.7158050537109375
1774472703187355600,11.434355712890625,0.489410400390625,-0.5414276123046875,-0.736083984375
1774472703197368600,11.44436865234375,0.5281219482421875,-0.4936676025390625,-0.8146514892578125
1774472703207382800,11.4543828125,0.482177734375,-0.475738525390625,-0.9364776611328125
1774472703217395500,11.4643955078125,0.4319610595703125,-0.4621124267578125,-0.9205169677734375
1774472703227408600,11.47440869140625,0.3613128662109375,-0.4583740234375,-0.86492919921875
1774472703237421800,11.484421875,0.310272216796875,-0.4700927734375,-0.764190673828125
1774472703247435500,11.494435546875,0.32244873046875,-0.45831298828125,-0.707305908203125
1774472703257448700,11.50444873046875,0.39532470703125,-0.463623046875,-0.7109222412109375
1774472703267461600,11.514461669921875,0.5473175048828125,-0.49517822265625,-0.7225341796875
1774472703277475600,11.5244755859375,0.646636962890625,-0.5193939208984375,-0.7632904052734375
1774472703287488800,11.53448876953125,0.6020050048828125,-0.5431060791015625,-0.8210906982421875
1774472703297501400,11.54450146484375,0.548553466796875,-0.6053314208984375,-0.82073974609375
1774472703307515600,11.554515625,0.4948883056640625,-0.6375274658203125,-0.7825469970703125
1774472703317528800,11.56452880859375,0.3948516845703125,-0.59564208984375,-0.7371826171875
1774472703327541500,11.57454150390625,0.3201751708984375,-0.5504302978515625,-0.6900634765625
1774472703337555700,11.5845556640625,0.3098602294921875,-0.5190887451171875,-0.6491241455078125
1774472703347568600,11.594568603515626,0.285888671875,-0.502288818359375,-0.64459228515625
1774472703357581600,11.60458154296875,0.3284759521484375,-0.5302886962890625,-0.6136932373046875
1774472703367594800,11.6145947265625,0.4329071044921875,-0.558258056640625,-0.583343505859375
1774472703377608400,11.6246083984375,0.5638275146484375,-0.573577880859375,-0.54547119140625
1774472703387621600,11.63462158203125,0.6920013427734375,-0.56866455078125,-0.51617431640625
1774472703397634800,11.644634765625,0.846099853515625,-0.559326171875,-0.5166473388671875
1774472703407648500,11.6546484375,1.0201873779296875,-0.5741119384765625,-0.529083251953125
1774472703417661700,11.66466162109375,0.9221954345703125,-0.5950164794921875,-0.62445068359375
1774472703427675000,11.6746748046875,0.819091796875,-0.5859527587890625,-0.650665283203125
1774472703437688600,11.6846884765625,0.8277587890625,-0.5102996826171875,-0.6094512939453125
1774472703447701800,11.69470166015625,0.8401947021484375,-0.463470458984375,-0.55194091796875
1774472703457714400,11.70471435546875,0.73858642578125,-0.5101470947265625,-0.5491943359375
1774472703467728600,11.714728759765626,0.6389312744140625,-0.59149169921875,-0.560516357421875
1774472703477741800,11.724741943359374,0.694427490234375,-0.6540069580078125,-0.574859619140625
1774472703487754500,11.73475439453125,0.7728271484375,-0.663665771484375,-0.6245880126953125
1774472703497767700,11.744767578125,0.7037811279296875,-0.5885162353515625,-0.6416778564453125
1774472703507781600,11.75478173828125,0.6457061767578125,-0.6075592041015625,-0.4661865234375
1774472703517794600,11.764794677734375,0.637725830078125,-0.5304412841796875,-0.4293670654296875
1774472703527807700,11.774807861328124,0.664154052734375,-0.4444427490234375,-0.42755126953125
1774472703537821700,11.78482177734375,0.7304534912109375,-0.3973236083984375,-0.351531982421875
1774472703547834600,11.794834716796874,0.7754974365234375,-0.348907470703125,-0.3628082275390625
1774472703557847800,11.804847900390625,0.767303466796875,-0.3518524169921875,-0.38885498046875
1774472703567861500,11.814861572265626,0.7566070556640625,-0.37628173828125,-0.4083099365234375
1774472703577874700,11.824874755859375,0.779632568359375,-0.3949127197265625,-0.4054107666015625
1774472703587887900,11.834887939453125,0.8131866455078125,-0.3987884521484375,-0.43255615234375
1774472703597901600,11.844901611328124,0.8262176513671875,-0.382354736328125,-0.4782867431640625
1774472703607914800,11.854914794921875,0.7334747314453125,-0.38494873046875,-0.4867401123046875
1774472703617927400,11.864927490234376,0.666168212890625,-0.3725738525390625,-0.5143585205078125
1774472703627940600,11.874940673828124,0.62933349609375,-0.3884429931640625,-0.4827880859375
1774472703637954800,11.884954833984375,0.632415771484375,-0.435394287109375,-0.3707122802734375
1774472703647967500,11.894967529296874,0.6970977783203125,-0.426055908203125,-0.352294921875
1774472703657980700,11.904980712890625,0.845367431640625,-0.3813018798828125,-0.2926483154296875
1774472703667994600,11.91499462890625,0.8889617919921875,-0.376251220703125,-0.2455291748046875
1774472703678007600,11.925007568359375,0.8095550537109375,-0.40069580078125,-0.2235107421875
1774472703688020700,11.935020751953125,0.8233184814453125,-0.411956787109375,-0.1967315673828125
1774472703698034700,11.94503466796875,0.887115478515625,-0.3981781005859375,-0.1905975341796875
1774472703708047600,11.955047607421875,0.8306427001953125,-0.402984619140625,-0.2204437255859375
1774472703718060800,11.965060791015626,0.8735504150390625,-0.4150543212890625,-0.2557220458984375
1774472703728073500,11.975073486328125,1.0168304443359375,-0.4077301025390625,-0.2709808349609375
1774472703738087700,11.985087646484375,1.1062164306640625,-0.3919525146484375,-0.2705535888671875
1774472703748100900,11.995100830078124,1.0850067138671875,-0.3601837158203125,-0.23553466796875
1774472703758113500,12.005113525390625,0.8602294921875,-0.3566741943359375,-0.190338134765625
1774472703768127700,12.015127685546876,0.6609344482421875,-0.413787841796875,-0.175994873046875
1774472703778140700,12.025140625,0.60498046875,-0.493438720703125,-0.17535400390625
1774472703788153600,12.035153564453125,0.6753997802734375,-0.5423583984375,-0.1145782470703125
1774472703798167800,12.045167724609374,0.7012481689453125,-0.5173492431640625,-0.1471710205078125
1774472703808180500,12.055180419921875,0.3919219970703125,-0.5884246826171875,-0.30670166015625
1774472703818193700,12.065193603515626,0.5990447998046875,-0.6232452392578125,-0.2786865234375
1774472703828207600,12.07520751953125,0.6478729248046875,-0.5647125244140625,-0.296112060546875
1774472703838220500,12.085220458984375,0.8003692626953125,-0.4426116943359375,-0.2332763671875
1774472703848233700,12.095233642578124,0.8277740478515625,-0.353546142578125,-0.2234344482421875
1774472703858246700,12.10524658203125,0.7617034912109375,-0.342742919921875,-0.308624267578125
1774472703868260600,12.115260498046876,0.78955078125,-0.3680877685546875,-0.3939666748046875
1774472703878273800,12.125273681640625,0.8457794189453125,-0.42071533203125,-0.4323577880859375
1774472703888286500,12.135286376953125,0.86676025390625,-0.4491729736328125,-0.51715087890625
1774472703898300700,12.14530078125,0.859619140625,-0.484100341796875,-0.5420379638671875
1774472703908313900,12.15531396484375,0.9714508056640625,-0.484832763671875,-0.5179290771484375
1774472703918326500,12.165326416015626,0.9778289794921875,-0.4785308837890625,-0.511077880859375
1774472703928340700,12.1753408203125,0.855194091796875,-0.472930908203125,-0.5094757080078125
1774472703938353700,12.185353759765626,0.731231689453125,-0.4631500244140625,-0.51141357421875
1774472703948366600,12.19536669921875,0.680877685546875,-0.46881103515625,-0.5113677978515625
1774472703958379800,12.2053798828125,0.6709136962890625,-0.4931793212890625,-0.5432586669921875
1774472703968393500,12.2153935546875,0.7026519775390625,-0.4874420166015625,-0.56842041015625
1774472703978406700,12.22540673828125,0.7331390380859375,-0.44647216796875,-0.5590057373046875
1774472703988419800,12.235419921875,0.8505859375,-0.3950042724609375,-0.5394287109375
1774472703998433500,12.24543359375,0.940399169921875,-0.337890625,-0.5234222412109375
1774472704008446700,12.25544677734375,0.9735565185546875,-0.296600341796875,-0.4903564453125
1774472704018459600,12.265459716796874,0.9203643798828125,-0.272430419921875,-0.4688720703125
1774472704028473600,12.2754736328125,0.946990966796875,-0.2694549560546875,-0.4404144287109375
1774472704038486800,12.28548681640625,1.0465545654296875,-0.2725830078125,-0.4312744140625
1774472704048499700,12.295499755859375,1.1615447998046875,-0.258087158203125,-0.4170989990234375
1774472704058513700,12.305513671875,1.16949462890625,-0.2400970458984375,-0.3707122802734375
1774472704068526800,12.31552685546875,1.083160400390625,-0.2422943115234375,-0.3248138427734375
1774472704078539500,12.32553955078125,0.93939208984375,-0.2666473388671875,-0.289031982421875
1774472704088552700,12.335552734375,0.8314666748046875,-0.297088623046875,-0.2518463134765625
1774472704098566700,12.345566650390625,0.8427886962890625,-0.3234100341796875,-0.2142486572265625
1774472704108579600,12.35557958984375,0.90838623046875,-0.3355865478515625,-0.1724090576171875
1774472704118592800,12.3655927734375,0.9800262451171875,-0.35748291015625,-0.1240234375
1774472704128606500,12.3756064453125,1.0321044921875,-0.3701171875,-0.090667724609375
1774472704138619600,12.38561962890625,0.905487060546875,-0.3558502197265625,-0.0448760986328125
1774472704148632300,12.39563232421875,0.7646636962890625,-0.36309814453125,-0.03228759765625
1774472704158646000,12.40564599609375,0.6768035888671875,-0.4199981689453125,-0.0929107666015625
1774472704168659200,12.4156591796875,0.7640228271484375,-0.4955596923828125,-0.16253662109375
1774472704178672400,12.42567236328125,0.9521942138671875,-0.562164306640625,-0.251708984375
1774472704188685000,12.43568505859375,0.9844512939453125,-0.597503662109375,-0.2736053466796875
1774472704198699300,12.44569921875,0.924560546875,-0.581512451171875,-0.2793426513671875
1774472704208712200,12.455712158203125,0.84051513671875,-0.5419921875,-0.2833099365234375
1774472704218725000,12.46572509765625,0.810943603515625,-0.5237274169921875,-0.264312744140625
1774472704228739300,12.4757392578125,0.7554779052734375,-0.529937744140625,-0.2415618896484375
1774472704238752000,12.485751953125,0.6670684814453125,-0.5734405517578125,-0.2644805908203125
1774472704248765200,12.49576513671875,0.707550048828125,-0.5578155517578125,-0.27972412109375
1774472704258779400,12.505779296875,0.571563720703125,-0.4946441650390625,-0.2510986328125
1774472704268792000,12.5157919921875,0.617645263671875,-0.4384918212890625,-0.2677154541015625
1774472704278805200,12.52580517578125,0.738555908203125,-0.37384033203125,-0.312774658203125
1774472704288818200,12.535818115234376,0.779632568359375,-0.3434906005859375,-0.293060302734375
1774472704298832100,12.54583203125,0.7479248046875,-0.3435211181640625,-0.287872314453125
1774472704308845300,12.55584521484375,0.7869873046875,-0.365966796875,-0.32366943359375
1774472704318858200,12.565858154296874,0.8448944091796875,-0.4059600830078125,-0.35626220703125
1774472704328872200,12.5758720703125,0.793731689453125,-0.460052490234375,-0.3729095458984375
1774472704338885400,12.585885498046874,0.8238372802734375,-0.5000762939453125,-0.3975830078125
1774472704348898000,12.59589794921875,0.8647613525390625,-0.5299530029296875,-0.3974609375
1774472704358912300,12.605912353515626,0.913970947265625,-0.5460205078125,-0.325653076171875
1774472704368925200,12.61592529296875,1.1407623291015625,-0.494293212890625,-0.3775482177734375
1774472704378938000,12.625938232421875,1.279205322265625,-0.383697509765625,-0.3726654052734375
1774472704388952300,12.635952392578124,1.121612548828125,-0.292694091796875,-0.2518310546875
1774472704398965200,12.64596533203125,0.7779083251953125,-0.2684478759765625,-0.201873779296875
1774472704408978200,12.655978271484376,0.6344757080078125,-0.236114501953125,-0.190673828125
1774472704418991000,12.6659912109375,0.7131805419921875,-0.219635009765625,-0.19232177734375
1774472704429005000,12.676005126953125,0.77447509765625,-0.3416900634765625,-0.23455810546875
1774472704439018200,12.686018310546874,0.8610076904296875,-0.4303741455078125,-0.2366790771484375
1774472704449031200,12.69603125,0.9951019287109375,-0.50469970703125,-0.2754058837890625
1774472704459045000,12.706045166015626,1.015716552734375,-0.596832275390625,-0.3509521484375
1774472704469058300,12.716058349609375,0.813262939453125,-0.64862060546875,-0.435394287109375
1774472704479071200,12.7260712890625,0.8495025634765625,-0.633636474609375,-0.5084991455078125
1774472704489085200,12.736085205078124,0.7822723388671875,-0.5660552978515625,-0.4435882568359375
1774472704499098400,12.746098388671875,0.5013580322265625,-0.475006103515625,-0.32684326171875
1774472704509111000,12.756111083984376,0.4229736328125,-0.4295196533203125,-0.2846221923828125
1774472704519124200,12.766124267578125,0.537078857421875,-0.41949462890625,-0.305145263671875
1774472704529138200,12.77613818359375,0.739044189453125,-0.438079833984375,-0.3530731201171875
1774472704539151000,12.786151123046874,1.069732666015625,-0.5013580322265625,-0.4105072021484375
1774472704549164300,12.796164306640625,1.4532928466796875,-0.4566650390625,-0.3404693603515625
1774472704559178200,12.80617822265625,1.2518768310546875,-0.3873291015625,-0.277984619140625
1774472704569191200,12.816191162109375,1.05023193359375,-0.3908538818359375,-0.2901763916015625
1774472704579204000,12.8262041015625,0.8490753173828125,-0.403289794921875,-0.2530517578125
1774472704589218000,12.836218017578124,0.7536163330078125,-0.3972015380859375,-0.313018798828125
1774472704599231200,12.846231201171875,0.7382049560546875,-0.38812255859375,-0.365753173828125
1774472704609244200,12.856244140625,0.728302001953125,-0.386810302734375,-0.3999481201171875
1774472704619258000,12.866258056640625,0.7210540771484375,-0.3863372802734375,-0.400970458984375
