time,seconds_elapsed,z,y,x
1773257933265639400,0.058639404296875,-0.994842529296875,0.173095703125,-0.1963653564453125
1773257933275651300,0.0686513671875,-1.0087738037109375,0.15716552734375,-0.179168701171875
1773257933285663500,0.07866357421875,-1.0368499755859375,0.15679931640625,-0.176666259765625
1773257933295676400,0.088676513671875,-1.0667572021484375,0.1659088134765625,-0.20074462890625
1773257933305688600,0.0986884765625,-1.06671142578125,0.1498565673828125,-0.2322540283203125
1773257933315700500,0.108700439453125,-1.06536865234375,0.1223602294921875,-0.25799560546875
1773257933325712600,0.118712646484375,-1.0725250244140625,0.1110076904296875,-0.279510498046875
1773257933335725600,0.1287255859375,-1.0770416259765625,0.115447998046875,-0.298583984375
1773257933345737500,0.138737548828125,-1.085052490234375,0.12420654296875,-0.2873077392578125
1773257933355749600,0.14874951171875,-1.095001220703125,0.1259307861328125,-0.263885498046875
1773257933365761500,0.158761474609375,-1.116912841796875,0.114227294921875,-0.2515106201171875
1773257933375774700,0.168774658203125,-1.1327972412109375,0.108551025390625,-0.256744384765625
1773257933385786600,0.17878662109375,-1.128875732421875,0.1363372802734375,-0.2485198974609375
1773257933395798800,0.188798828125,-1.129058837890625,0.199920654296875,-0.176483154296875
1773257933405811500,0.1988115234375,-1.1453857421875,0.1236419677734375,-0.1616363525390625
1773257933415823400,0.2088232421875,-1.154144287109375,0.17431640625,-0.165008544921875
1773257933425835500,0.21883544921875,-1.1570587158203125,0.314788818359375,-0.097076416015625
1773257933435847400,0.228847412109375,-1.1926727294921875,0.247955322265625,-0.091461181640625
1773257933445860600,0.238860595703125,-1.196807861328125,0.1741485595703125,-0.138885498046875
1773257933455872500,0.24887255859375,-1.19781494140625,0.1335906982421875,-0.1806182861328125
1773257933465884700,0.258884765625,-1.214385986328125,0.1189117431640625,-0.2559814453125
1773257933475896600,0.268896484375,-1.222076416015625,0.082672119140625,-0.317230224609375
1773257933485909500,0.278909423828125,-1.2228851318359375,0.01904296875,-0.3456268310546875
1773257933495921700,0.288921630859375,-1.1978302001953125,-0.0230865478515625,-0.376922607421875
1773257933505933600,0.29893359375,-1.187103271484375,0.00848388671875,-0.4722137451171875
1773257933515946800,0.30894677734375,-1.18145751953125,-0.0545501708984375,-0.4650115966796875
1773257933525958700,0.318958740234375,-1.194610595703125,-0.0827178955078125,-0.4392852783203125
1773257933535970600,0.328970458984375,-1.2146453857421875,-0.0781707763671875,-0.410064697265625
1773257933545982700,0.338982666015625,-1.195343017578125,-0.0563201904296875,-0.352264404296875
1773257933555996000,0.348995849609375,-1.1578826904296875,-0.008575439453125,-0.286163330078125
1773257933566007800,0.3590078125,-1.0933837890625,0.0305328369140625,-0.1949005126953125
1773257933576020000,0.36902001953125,-0.990264892578125,0.0322113037109375,-0.084625244140625
1773257933586033000,0.379032958984375,-0.8563385009765625,0.0021820068359375,-0.01416015625
1773257933596045000,0.389045166015625,-0.784912109375,0.011077880859375,-0.0459747314453125
1773257933606057000,0.399056884765625,-0.754180908203125,0.1142578125,-0.1568450927734375
1773257933616068900,0.40906884765625,-0.8757476806640625,0.09649658203125,-0.0920867919921875
1773257933626082000,0.41908203125,-0.8289031982421875,0.041259765625,-0.048675537109375
1773257933636094000,0.429093994140625,-0.7366180419921875,-0.0103912353515625,-0.016876220703125
1773257933646106000,0.439106201171875,-0.63092041015625,-0.0982818603515625,0.0305328369140625
1773257933656118000,0.449117919921875,-0.5807952880859375,-0.175445556640625,0.0911102294921875
1773257933666131000,0.459130859375,-0.5302886962890625,-0.1974945068359375,0.14630126953125
1773257933676142800,0.469142822265625,-0.570556640625,-0.2339019775390625,0.209930419921875
1773257933686154800,0.47915478515625,-0.670013427734375,-0.28973388671875,0.2583465576171875
1773257933696168000,0.48916796875,-0.7986907958984375,-0.383819580078125,0.4315032958984375
1773257933706179800,0.499179931640625,-0.84686279296875,-0.3758697509765625,0.48590087890625
1773257933716192000,0.50919189453125,-0.81646728515625,-0.27252197265625,0.2743072509765625
1773257933726204000,0.519203857421875,-0.892608642578125,-0.2758331298828125,0.1385650634765625
1773257933736217000,0.529217041015625,-1.0213775634765625,-0.24462890625,-0.0283660888671875
1773257933746229000,0.53922900390625,-0.75518798828125,-0.0582427978515625,-0.1451568603515625
1773257933756241000,0.549240966796875,-0.84027099609375,-0.0785675048828125,-0.221832275390625
1773257933766253000,0.559253173828125,-0.912689208984375,-0.1459808349609375,-0.265380859375
1773257933776266000,0.569265869140625,-0.9385223388671875,-0.1604766845703125,-0.3223724365234375
1773257933786278000,0.57927783203125,-0.97296142578125,-0.1670684814453125,-0.342559814453125
1773257933796290000,0.5892900390625,-0.9933929443359375,-0.1531524658203125,-0.320709228515625
1773257933806303000,0.599302978515625,-1.019439697265625,-0.12774658203125,-0.3134918212890625
1773257933816315000,0.60931494140625,-1.0245361328125,-0.086181640625,-0.3341522216796875
1773257933826326800,0.619326904296875,-1.0038299560546875,-0.0328369140625,-0.3376617431640625
1773257933836339000,0.6293388671875,-0.99822998046875,0.006103515625,-0.3428955078125
1773257933846352000,0.639351806640625,-0.9892425537109375,0.0106201171875,-0.3546295166015625
1773257933856364000,0.649364013671875,-0.976165771484375,0.0397796630859375,-0.3543243408203125
1773257933866376000,0.6593759765625,-0.969573974609375,0.071502685546875,-0.359344482421875
1773257933876389000,0.66938916015625,-0.9586334228515625,0.0910186767578125,-0.377410888671875
1773257933886401000,0.679401123046875,-0.954071044921875,0.1261444091796875,-0.413116455078125
1773257933896413000,0.689412841796875,-0.96514892578125,0.167999267578125,-0.4543304443359375
1773257933906425000,0.699425048828125,-0.9804534912109375,0.14691162109375,-0.5175933837890625
1773257933916437800,0.709437744140625,-0.9923095703125,0.1697998046875,-0.5163726806640625
1773257933926450000,0.719449951171875,-0.9805450439453125,0.2441864013671875,-0.467254638671875
1773257933936461800,0.7294619140625,-1.002105712890625,0.292449951171875,-0.4693450927734375
1773257933946475000,0.73947509765625,-1.0075225830078125,0.31268310546875,-0.52081298828125
1773257933956487000,0.74948681640625,-1.005218505859375,0.25445556640625,-0.5360565185546875
1773257933966498800,0.759498779296875,-1.0204620361328125,0.052703857421875,-0.37591552734375
1773257933976511000,0.769510986328125,-0.9839935302734375,0.0377655029296875,-0.2978515625
1773257933986524000,0.77952392578125,-0.9620208740234375,0.1676483154296875,-0.299102783203125
1773257933996536000,0.7895361328125,-0.9983367919921875,0.2060546875,-0.2600250244140625
1773257934006548000,0.7995478515625,-1.045654296875,0.1771392822265625,-0.266326904296875
1773257934016561200,0.80956103515625,-1.0543060302734375,0.136322021484375,-0.3577880859375
1773257934026573000,0.819572998046875,-0.9996795654296875,0.103759765625,-0.3799285888671875
1773257934036585000,0.8295849609375,-0.9540863037109375,0.05523681640625,-0.3704986572265625
1773257934046597000,0.83959716796875,-0.9318084716796875,-0.0083465576171875,-0.35101318359375
1773257934056609800,0.84960986328125,-0.9250335693359375,-0.0088958740234375,-0.3449859619140625
1773257934066622000,0.8596220703125,-1.007598876953125,0.0496978759765625,-0.396636962890625
1773257934076633900,0.8696337890625,-0.981201171875,0.0455322265625,-0.4046630859375
1773257934086647000,0.87964697265625,-0.93353271484375,0.0141143798828125,-0.3893890380859375
1773257934096659000,0.889658935546875,-0.9336700439453125,-0.0291900634765625,-0.369171142578125
1773257934106670800,0.8996708984375,-0.9206085205078125,-0.0105438232421875,-0.3898162841796875
1773257934116683000,0.90968310546875,-0.9020538330078125,0.0114288330078125,-0.4352569580078125
1773257934126696000,0.919696044921875,-0.8669281005859375,-0.0292816162109375,-0.4680023193359375
1773257934136708000,0.9297080078125,-0.807708740234375,-0.120513916015625,-0.4727935791015625
1773257934146720000,0.939719970703125,-0.7556915283203125,-0.1862945556640625,-0.4486236572265625
1773257934156733000,0.94973291015625,-0.7559967041015625,-0.1583099365234375,-0.433502197265625
1773257934166744800,0.959744873046875,-0.805633544921875,-0.165008544921875,-0.3619537353515625
1773257934176756700,0.9697568359375,-0.97894287109375,-0.255615234375,-0.157318115234375
1773257934186769000,0.979768798828125,-0.99969482421875,-0.27301025390625,-0.178253173828125
1773257934196781800,0.98978173828125,-0.9392242431640625,-0.1623992919921875,-0.349517822265625
1773257934206794000,0.9997939453125,-0.928863525390625,-0.0751190185546875,-0.43096923828125
1773257934216806000,1.009805908203125,-0.9342193603515625,-0.1010894775390625,-0.3888092041015625
1773257934226819000,1.019819091796875,-0.9165802001953125,-0.13568115234375,-0.3345489501953125
1773257934236831000,1.0298310546875,-0.8702850341796875,-0.1385498046875,-0.3233642578125
1773257934246843000,1.0398427734375,-0.842041015625,-0.136627197265625,-0.330902099609375
1773257934256855000,1.04985498046875,-0.821319580078125,-0.128021240234375,-0.3253936767578125
1773257934266868000,1.059867919921875,-0.8017730712890625,-0.1316986083984375,-0.310577392578125
1773257934276880100,1.069880126953125,-0.80474853515625,-0.1365203857421875,-0.31683349609375
1773257934286892000,1.07989208984375,-0.8230743408203125,-0.1125640869140625,-0.3288726806640625
1773257934296904000,1.089904052734375,-0.8616180419921875,-0.0890960693359375,-0.372528076171875
1773257934306916900,1.099916748046875,-0.9012298583984375,-0.10369873046875,-0.4264678955078125
1773257934316928800,1.1099287109375,-0.9276885986328125,-0.1262054443359375,-0.4720916748046875
1773257934326941000,1.11994091796875,-0.9354248046875,-0.1316986083984375,-0.5008544921875
1773257934336953900,1.129953857421875,-0.926849365234375,-0.138275146484375,-0.48358154296875
1773257934346966000,1.139966064453125,-0.926971435546875,-0.1339874267578125,-0.446868896484375
1773257934356978000,1.14997802734375,-0.916473388671875,-0.1282501220703125,-0.4147186279296875
1773257934366989800,1.15998974609375,-0.9062652587890625,-0.1175994873046875,-0.3974456787109375
1773257934377003000,1.1700029296875,-0.89532470703125,-0.0969696044921875,-0.42169189453125
1773257934387015000,1.180014892578125,-0.875274658203125,-0.11480712890625,-0.477783203125
1773257934397027000,1.190027099609375,-0.8491668701171875,-0.144012451171875,-0.4921875
1773257934407040000,1.2000400390625,-0.8194427490234375,-0.1483306884765625,-0.4762115478515625
1773257934417052000,1.210052001953125,-0.791778564453125,-0.15533447265625,-0.48382568359375
1773257934427064000,1.22006396484375,-0.787994384765625,-0.1314849853515625,-0.4486846923828125
1773257934437076000,1.230075927734375,-0.761993408203125,-0.1045074462890625,-0.4291534423828125
1773257934447089000,1.2400888671875,-0.7458953857421875,-0.1366729736328125,-0.422332763671875
1773257934457100800,1.250100830078125,-0.797027587890625,-0.106231689453125,-0.3534088134765625
1773257934467113000,1.260113037109375,-0.8849334716796875,-0.07244873046875,-0.3138275146484375
1773257934477126000,1.2701259765625,-0.9543609619140625,-0.0671844482421875,-0.3767547607421875
1773257934487138000,1.280137939453125,-1.015228271484375,-0.095733642578125,-0.4603271484375
1773257934497150000,1.29014990234375,-1.029632568359375,-0.105224609375,-0.5239715576171875
1773257934507161900,1.300161865234375,-1.0356903076171875,-0.09759521484375,-0.49005126953125
1773257934517175000,1.310175048828125,-1.0782470703125,-0.062103271484375,-0.4174041748046875
1773257934527187000,1.32018701171875,-1.0689239501953125,-0.0602264404296875,-0.3720855712890625
1773257934537199000,1.33019921875,-0.98541259765625,-0.101806640625,-0.3550567626953125
1773257934547211000,1.3402109375,-0.889923095703125,-0.1341400146484375,-0.32867431640625
1773257934557224400,1.350224365234375,-0.85357666015625,-0.1380767822265625,-0.3011322021484375
1773257934567236400,1.360236328125,-0.8486785888671875,-0.0636444091796875,-0.32550048828125
1773257934577248500,1.37024853515625,-0.82769775390625,0.1046905517578125,-0.39727783203125
1773257934587261400,1.380261474609375,-0.92230224609375,-0.0570831298828125,-0.4192962646484375
1773257934597273600,1.390273681640625,-0.869171142578125,-0.0412139892578125,-0.430023193359375
1773257934607285500,1.400285400390625,-0.7607879638671875,0.079437255859375,-0.6076812744140625
1773257934617297400,1.41029736328125,-0.69622802734375,0.0623016357421875,-0.7441864013671875
1773257934627310600,1.420310546875,-0.7049560546875,0.0173492431640625,-0.8214263916015625
1773257934637322500,1.430322509765625,-0.78411865234375,-0.0110626220703125,-0.8582763671875
1773257934647334700,1.440334716796875,-0.7996826171875,0.045166015625,-0.8590850830078125
1773257934657347300,1.450347412109375,-0.7777557373046875,0.10980224609375,-0.85797119140625
1773257934667359500,1.460359375,-0.7504425048828125,0.10418701171875,-0.8740386962890625
1773257934677371400,1.470371337890625,-0.72686767578125,0.062896728515625,-0.8950347900390625
1773257934687383300,1.48038330078125,-0.6210174560546875,0.05670166015625,-0.91802978515625
1773257934697396500,1.490396484375,-0.4810943603515625,0.0519561767578125,-0.9677276611328125
1773257934707408400,1.500408447265625,-0.4081878662109375,0.037933349609375,-0.9876556396484375
1773257934717420500,1.510420654296875,-0.3799591064453125,-0.0048370361328125,-0.976898193359375
1773257934727433500,1.52043359375,-0.3140869140625,-0.06134033203125,-0.9312591552734375
1773257934737445600,1.530445556640625,-0.246490478515625,-0.107818603515625,-0.889556884765625
1773257934747457500,1.54045751953125,-0.219085693359375,-0.18072509765625,-0.8453521728515625
1773257934757469400,1.550469482421875,-0.2156829833984375,-0.6100921630859375,-0.58367919921875
1773257934767482600,1.560482666015625,-0.01690673828125,-0.572998046875,-0.665008544921875
1773257934777494500,1.57049462890625,0.0738067626953125,-0.439178466796875,-0.8834686279296875
1773257934787506700,1.580506591796875,0.09332275390625,-0.41204833984375,-0.954864501953125
1773257934797518600,1.5905185546875,0.1531982421875,-0.4370574951171875,-0.9291839599609375
1773257934807531500,1.600531494140625,0.187347412109375,-0.4508514404296875,-0.8940582275390625
1773257934817543400,1.61054345703125,0.1968841552734375,-0.4262542724609375,-0.87677001953125
1773257934827555300,1.620555419921875,0.1927490234375,-0.3774871826171875,-0.8908843994140625
1773257934837568500,1.630568603515625,0.217041015625,-0.322784423828125,-0.9199371337890625
1773257934847580400,1.640580322265625,0.278045654296875,-0.299896240234375,-0.9995574951171875
1773257934857592600,1.650592529296875,0.3382110595703125,-0.2880706787109375,-1.1205902099609375
1773257934867604500,1.6606044921875,0.32916259765625,-0.2431793212890625,-1.1440277099609375
1773257934877617700,1.67061767578125,0.088623046875,-0.3616790771484375,-0.927764892578125
1773257934887629600,1.680629638671875,-0.0448455810546875,-0.517852783203125,-0.6744537353515625
1773257934897641500,1.690641357421875,0.02880859375,-0.560516357421875,-0.5644073486328125
1773257934907654400,1.700654296875,0.141204833984375,-0.4408111572265625,-0.6165313720703125
1773257934917666600,1.71066650390625,0.2451324462890625,-0.371795654296875,-0.7880096435546875
1773257934927678500,1.720678466796875,0.243255615234375,-0.323760986328125,-0.9659881591796875
1773257934937690600,1.730690673828125,0.11041259765625,-0.3102569580078125,-1.1008758544921875
1773257934947703600,1.74070361328125,-0.1903533935546875,-0.3279876708984375,-1.2686309814453125
1773257934957715500,1.750715576171875,-0.156463623046875,-0.271514892578125,-1.1634979248046875
1773257934967727400,1.760727294921875,-0.1080322265625,-0.1967010498046875,-0.9771881103515625
1773257934977739500,1.770739501953125,-0.171417236328125,-0.1696014404296875,-0.9256134033203125
1773257934987752400,1.78075244140625,-0.229827880859375,-0.1878814697265625,-0.8859710693359375
1773257934997764600,1.7907646484375,-0.1264801025390625,-0.168731689453125,-0.8166046142578125
1773257935007776500,1.800776611328125,-0.0064544677734375,-0.14208984375,-0.7600555419921875
1773257935017789700,1.810789794921875,-0.024322509765625,-0.159332275390625,-0.7841644287109375
1773257935027801600,1.820801513671875,-0.0315399169921875,-0.1863555908203125,-0.8406524658203125
1773257935037813500,1.8308134765625,0.037200927734375,-0.2035064697265625,-0.8529815673828125
1773257935047825700,1.84082568359375,0.093994140625,-0.210693359375,-0.8509979248046875
1773257935057838300,1.85083837890625,0.0959625244140625,-0.14544677734375,-0.919219970703125
1773257935067850500,1.8608505859375,0.1113739013671875,0.1504364013671875,-1.056549072265625
1773257935077862400,1.8708623046875,0.1642303466796875,0.246002197265625,-1.077789306640625
1773257935087875600,1.88087548828125,0.217071533203125,-0.057220458984375,-0.99822998046875
1773257935097887500,1.890887451171875,0.26959228515625,-0.0954132080078125,-0.992584228515625
1773257935107899400,1.9008994140625,0.2299652099609375,-0.23004150390625,-0.9913330078125
1773257935117911600,1.91091162109375,0.2960968017578125,-0.2748565673828125,-1.02484130859375
1773257935127924500,1.920924560546875,0.397430419921875,-0.260101318359375,-1.07733154296875
1773257935137936600,1.9309365234375,0.3861846923828125,-0.239715576171875,-1.0631561279296875
1773257935147948500,1.940948486328125,0.3602752685546875,-0.2606964111328125,-0.9598846435546875
1773257935157960400,1.95096044921875,0.4104156494140625,-0.2602081298828125,-0.85211181640625
1773257935167973600,1.9609736328125,0.5238037109375,-0.24969482421875,-0.8179168701171875
1773257935177985500,1.970985595703125,0.394622802734375,-0.3200225830078125,-0.856781005859375
1773257935187997700,1.980997802734375,0.320709228515625,-0.3306732177734375,-0.871124267578125
1773257935198010400,1.99101025390625,0.366729736328125,-0.3541412353515625,-0.9075927734375
1773257935208022500,2.0010224609375,0.4463653564453125,-0.384796142578125,-0.962890625
1773257935218034400,2.011034423828125,0.4551239013671875,-0.4011993408203125,-0.9740142822265625
1773257935228046300,2.02104638671875,0.415771484375,-0.3860015869140625,-0.952056884765625
1773257935238059500,2.0310595703125,0.38629150390625,-0.3596038818359375,-0.954620361328125
1773257935248071400,2.041071533203125,0.3736572265625,-0.34307861328125,-0.974212646484375
1773257935258083600,2.05108349609375,0.389068603515625,-0.3256378173828125,-0.9682464599609375
1773257935268096500,2.061096435546875,0.3955535888671875,-0.274871826171875,-0.9109649658203125
1773257935278108700,2.071108642578125,0.338287353515625,-0.2574615478515625,-0.9096527099609375
1773257935288120600,2.08112060546875,0.2592926025390625,-0.3654937744140625,-1.0543060302734375
1773257935298132500,2.091132568359375,0.1894989013671875,-0.4089508056640625,-1.174041748046875
1773257935308145400,2.1011455078125,0.19366455078125,-0.3648223876953125,-1.1355438232421875
1773257935318157300,2.1111572265625,0.246490478515625,-0.308837890625,-1.0714874267578125
1773257935328169500,2.12116943359375,0.2690887451171875,-0.210174560546875,-1.073974609375
1773257935338182400,2.131182373046875,0.27569580078125,-0.1337738037109375,-1.019866943359375
1773257935348194600,2.141194580078125,0.30609130859375,0.0555419921875,-0.9859771728515625
1773257935358206500,2.15120654296875,0.2751312255859375,0.0342559814453125,-0.937774658203125
1773257935368218400,2.16121826171875,0.249755859375,-0.0028533935546875,-0.9748992919921875
1773257935378231600,2.1712314453125,0.27386474609375,0.10736083984375,-1.006317138671875
1773257935388243500,2.181243408203125,0.2116241455078125,-0.0138702392578125,-0.859649658203125
1773257935398255600,2.191255615234375,0.24591064453125,-0.1010894775390625,-0.859619140625
1773257935408268500,2.2012685546875,0.3543548583984375,-0.0646209716796875,-0.9036102294921875
1773257935418280700,2.21128076171875,0.4308929443359375,0.011749267578125,-0.9696502685546875
1773257935428292600,2.221292724609375,0.4757537841796875,0.04461669921875,-0.954315185546875
1773257935438304500,2.231304443359375,0.5052337646484375,-0.016021728515625,-0.9007568359375
1773257935448317400,2.2413173828125,0.50592041015625,-0.1749420166015625,-0.975189208984375
1773257935458329300,2.251329345703125,0.4093475341796875,-0.192626953125,-0.997314453125
1773257935468341500,2.261341552734375,0.4006805419921875,-0.116180419921875,-0.896942138671875
1773257935478354400,2.2713544921875,0.4422454833984375,-0.0860595703125,-0.8248138427734375
1773257935488366600,2.28136669921875,0.479034423828125,-0.0206451416015625,-0.7592315673828125
1773257935498378500,2.29137841796875,0.5253143310546875,-0.1231231689453125,-0.844635009765625
1773257935508390400,2.301390380859375,0.546905517578125,-0.26568603515625,-0.9667510986328125
1773257935518403600,2.311403564453125,0.5251922607421875,-0.2268829345703125,-0.9035797119140625
1773257935528415500,2.32141552734375,0.5117645263671875,-0.1790618896484375,-0.844696044921875
1773257935538427600,2.331427734375,0.518646240234375,-0.177490234375,-0.82373046875
1773257935548440600,2.341440673828125,0.5555419921875,-0.1757965087890625,-0.82513427734375
1773257935558452000,2.351451904296875,0.520782470703125,-0.1732330322265625,-0.8568572998046875
1773257935568464000,2.3614638671875,0.5143890380859375,-0.144989013671875,-0.943572998046875
1773257935578476800,2.371476806640625,0.48809814453125,0.0112152099609375,-0.9397430419921875
1773257935588488700,2.38148876953125,0.3970947265625,0.159820556640625,-0.93212890625
1773257935598500900,2.3915009765625,0.3149871826171875,0.15142822265625,-0.9661102294921875
1773257935608513800,2.401513671875,0.280181884765625,0.0870513916015625,-0.9916229248046875
1773257935618526000,2.41152587890625,0.3287506103515625,0.064666748046875,-1.0302581787109375
1773257935628537900,2.421537841796875,0.4400634765625,0.03253173828125,-1.187042236328125
1773257935638551000,2.431551025390625,0.4735107421875,0.0673370361328125,-1.2825469970703125
1773257935648563000,2.44156298828125,0.485382080078125,-0.115325927734375,-1.023193359375
1773257935658574800,2.451574951171875,0.3357086181640625,-0.180694580078125,-0.91278076171875
1773257935668587000,2.4615869140625,0.222381591796875,-0.0870513916015625,-1.012542724609375
1773257935678600000,2.471599853515625,0.2791290283203125,-0.0322113037109375,-1.077728271484375
1773257935688612000,2.481612060546875,0.33392333984375,-0.0385589599609375,-0.981689453125
1773257935698624000,2.4916240234375,0.3369903564453125,-0.1033172607421875,-0.850311279296875
1773257935708637000,2.501636962890625,0.3831329345703125,-0.1635284423828125,-0.808380126953125
1773257935718648800,2.51164892578125,0.412811279296875,-0.213409423828125,-0.803375244140625
1773257935728660700,2.52166064453125,0.4559173583984375,-0.2632293701171875,-0.77587890625
1773257935738674000,2.531673828125,0.433074951171875,-0.2542877197265625,-0.7572784423828125
1773257935748685800,2.541685791015625,0.349334716796875,-0.328399658203125,-0.7432403564453125
1773257935758698000,2.551697998046875,0.3424224853515625,-0.3720550537109375,-0.6954803466796875
1773257935768711000,2.5617109375,0.4114532470703125,-0.3950653076171875,-0.676116943359375
1773257935778723000,2.57172314453125,0.37933349609375,-0.4631195068359375,-0.5876007080078125
1773257935788735000,2.58173486328125,0.336456298828125,-0.5258636474609375,-0.6147918701171875
1773257935798748000,2.591747802734375,0.4431304931640625,-0.6107177734375,-0.5888519287109375
1773257935808759800,2.601759765625,0.5353240966796875,-0.3429107666015625,-1.0678253173828125
1773257935818771700,2.611771728515625,0.3353424072265625,-0.15765380859375,-1.3522186279296875
1773257935828785000,2.621784912109375,0.477630615234375,-0.108795166015625,-1.255950927734375
1773257935838796800,2.631796875,0.603729248046875,-0.0897064208984375,-0.9674530029296875
1773257935848809000,2.64180908203125,0.514862060546875,-0.11944580078125,-0.650848388671875
1773257935858822000,2.65182177734375,0.409454345703125,-0.188995361328125,-0.61468505859375
1773257935868834000,2.661833984375,0.32965087890625,-0.254119873046875,-0.688323974609375
1773257935878846000,2.671845947265625,0.436553955078125,-0.2855072021484375,-0.7559051513671875
1773257935888859000,2.68185888671875,0.4960784912109375,-0.294036865234375,-0.801239013671875
1773257935898871000,2.69187109375,0.4193572998046875,-0.2740936279296875,-0.794342041015625
1773257935908883700,2.7018837890625,0.4676055908203125,-0.1929931640625,-0.8482666015625
1773257935918895900,2.711895751953125,0.62908935546875,-0.0530853271484375,-0.93499755859375
1773257935928907800,2.72190771484375,0.731048583984375,0.0843505859375,-0.884490966796875
1773257935938921000,2.7319208984375,0.7581329345703125,-0.0510101318359375,-0.434722900390625
1773257935948932900,2.741932861328125,0.845062255859375,-0.3291473388671875,-0.3324432373046875
1773257935958944800,2.75194482421875,0.6654052734375,-0.2325286865234375,-0.9574127197265625
1773257935968958000,2.7619580078125,0.518157958984375,-0.40484619140625,-0.6869354248046875
1773257935978969900,2.771969970703125,0.59832763671875,-0.5223236083984375,-0.7448272705078125
1773257935988982000,2.78198193359375,0.629058837890625,-0.458465576171875,-1.06072998046875
1773257935998995000,2.791994873046875,0.6995849609375,-0.5125274658203125,-1.0188751220703125
1773257936009007000,2.802007080078125,0.8153839111328125,-0.486724853515625,-0.9877471923828125
1773257936019019000,2.81201904296875,1.140899658203125,-0.3187103271484375,-1.0693206787109375
1773257936029032000,2.822031982421875,1.26068115234375,-0.42266845703125,-1.053741455078125
1773257936039043800,2.8320439453125,1.384613037109375,-0.641357421875,-1.048187255859375
1773257936049055700,2.8420556640625,1.2060699462890625,-0.71527099609375,-1.15203857421875
1773257936059069000,2.85206884765625,1.3408203125,-1.00067138671875,-1.325714111328125
1773257936069080800,2.862080810546875,0.977752685546875,-1.2685546875,-1.3699493408203125
1773257936079093000,2.872093017578125,0.93414306640625,-1.0062408447265625,-1.12506103515625
1773257936089106000,2.88210595703125,0.5602569580078125,-0.6952972412109375,-1.082275390625
1773257936099118000,2.8921181640625,0.1609344482421875,-0.3366241455078125,-0.7948760986328125
1773257936109130800,2.902130859375,-0.15570068359375,-0.1133270263671875,-0.393890380859375
1773257936119143000,2.912142822265625,0.0567626953125,0.281585693359375,-0.4649200439453125
1773257936129154800,2.92215478515625,0.0283660888671875,0.18804931640625,-0.410247802734375
1773257936139167700,2.932167724609375,-0.0532379150390625,0.0035400390625,-0.3721771240234375
1773257936149180000,2.942179931640625,0.07244873046875,-0.017730712890625,-0.389404296875
1773257936159191800,2.95219189453125,0.424896240234375,-0.1423797607421875,-0.322265625
1773257936169205000,2.962205078125,0.5046539306640625,-0.377227783203125,-0.2960357666015625
1773257936179217000,2.972216796875,0.43707275390625,-0.5135955810546875,-0.37847900390625
1773257936189229000,2.98222900390625,0.600067138671875,-0.5574493408203125,-0.3357086181640625
1773257936199242000,2.992241943359375,0.58782958984375,-0.5907440185546875,-0.424896240234375
1773257936209254000,3.00225390625,0.5253448486328125,-0.6252899169921875,-0.499359130859375
1773257936219266000,3.01226611328125,0.476043701171875,-0.64422607421875,-0.43377685546875
1773257936229278700,3.02227880859375,0.425262451171875,-0.657562255859375,-0.5319061279296875
1773257936239291000,3.032290771484375,0.3986663818359375,-0.7280120849609375,-0.629791259765625
1773257936249303800,3.0423037109375,0.573822021484375,-0.8583221435546875,-0.753936767578125
1773257936259316000,3.05231591796875,0.8112030029296875,-0.873443603515625,-0.8394927978515625
1773257936269328000,3.062327880859375,0.571014404296875,-0.9727935791015625,-0.932281494140625
1773257936279341000,3.072341064453125,0.43359375,-0.954742431640625,-1.02679443359375
1773257936289353000,3.08235302734375,0.4778289794921875,-0.930999755859375,-0.940887451171875
1773257936299364900,3.09236474609375,0.5761566162109375,-0.9296875,-0.89190673828125
1773257936309377800,3.102377685546875,0.636260986328125,-0.90289306640625,-0.884521484375
1773257936319389700,3.1123896484375,0.61749267578125,-0.91180419921875,-0.878570556640625
1773257936329401900,3.12240185546875,0.5619354248046875,-0.945556640625,-0.88067626953125
1773257936339414800,3.132414794921875,0.5440673828125,-0.9910888671875,-0.8457794189453125
1773257936349427000,3.142427001953125,0.5261383056640625,-0.9913787841796875,-0.8275299072265625
1773257936359440000,3.15243994140625,0.5186004638671875,-0.9889068603515625,-0.8342132568359375
1773257936369452000,3.1624521484375,0.5495147705078125,-0.9867095947265625,-0.783599853515625
1773257936379464000,3.1724638671875,0.5680694580078125,-1.005584716796875,-0.7607574462890625
1773257936389477000,3.18247705078125,0.6193695068359375,-1.00714111328125,-0.819793701171875
1773257936399489000,3.192489013671875,0.8502197265625,-0.9228515625,-0.807373046875
1773257936409501000,3.2025009765625,0.8814849853515625,-0.8997344970703125,-0.683380126953125
1773257936419513900,3.212513916015625,0.9419708251953125,-0.8826904296875,-0.713592529296875
1773257936429525800,3.22252587890625,0.9590911865234375,-0.8710174560546875,-0.658599853515625
1773257936439539000,3.2325390625,0.9373931884765625,-0.8316802978515625,-0.613311767578125
1773257936449550800,3.24255078125,0.8633270263671875,-0.8426055908203125,-0.6369476318359375
1773257936459563000,3.25256298828125,0.7933197021484375,-0.8227691650390625,-0.60699462890625
1773257936469576000,3.262575927734375,0.7394866943359375,-0.7613525390625,-0.556793212890625
1773257936479587800,3.272587890625,0.749298095703125,-0.69329833984375,-0.473541259765625
1773257936489600000,3.28260009765625,0.8837432861328125,-0.671722412109375,-0.391448974609375
1773257936499613000,3.292613037109375,0.948638916015625,-0.60614013671875,-0.310577392578125
1773257936509624800,3.302624755859375,0.912933349609375,-0.57330322265625,-0.2594757080078125
1773257936519637000,3.312636962890625,0.8589630126953125,-0.620635986328125,-0.295989990234375
1773257936529650000,3.32264990234375,0.7743988037109375,-0.6814117431640625,-0.3867645263671875
1773257936539661800,3.332661865234375,0.6572418212890625,-0.670684814453125,-0.3972930908203125
1773257936549675000,3.342675048828125,0.548797607421875,-0.64984130859375,-0.4178924560546875
1773257936559687200,3.352687255859375,0.550506591796875,-0.6575164794921875,-0.4160003662109375
1773257936569699300,3.36269921875,0.7382965087890625,-0.6403350830078125,-0.372039794921875
1773257936579712300,3.372712158203125,0.99853515625,-0.49615478515625,-0.3412017822265625
1773257936589724400,3.382724365234375,0.951751708984375,-0.4023895263671875,-0.4747772216796875
1773257936599736300,3.392736328125,0.9303436279296875,-0.3029327392578125,-0.543975830078125
1773257936609749000,3.4027490234375,0.987091064453125,-0.3076934814453125,-0.61578369140625
1773257936619761200,3.41276123046875,0.999298095703125,-0.2216796875,-0.6783905029296875
1773257936629773000,3.42277294921875,1.08990478515625,-0.2270050048828125,-0.569244384765625
1773257936639786200,3.4327861328125,0.929931640625,-0.2437744140625,-0.5388031005859375
1773257936649798100,3.442798095703125,0.9616851806640625,-0.2928924560546875,-0.524993896484375
1773257936659811300,3.452811279296875,0.7463531494140625,-0.255706787109375,-0.418701171875
1773257936669823200,3.4628232421875,0.638946533203125,-0.1769561767578125,-0.26611328125
1773257936679835100,3.472835205078125,0.60546875,-0.201934814453125,-0.3335113525390625
1773257936689848000,3.48284814453125,0.7678985595703125,-0.20318603515625,-0.3626708984375
1773257936699860000,3.49285986328125,0.808807373046875,-0.1411895751953125,-0.3720550537109375
1773257936709872000,3.5028720703125,0.702606201171875,-0.102386474609375,-0.4095458984375
1773257936719885000,3.512885009765625,0.57977294921875,-0.04815673828125,-0.379791259765625
1773257936729897200,3.522897216796875,0.6953277587890625,-0.0733795166015625,-0.387969970703125
1773257936739910100,3.53291015625,0.7164306640625,-0.0965118408203125,-0.4091339111328125
1773257936749922300,3.54292236328125,0.718963623046875,-0.0811614990234375,-0.403961181640625
1773257936759934200,3.552934326171875,0.6084747314453125,-0.076080322265625,-0.375732421875
1773257936769947400,3.562947509765625,0.629852294921875,-0.1368560791015625,-0.3733978271484375
1773257936779959300,3.572959228515625,0.6934814453125,-0.2073516845703125,-0.406646728515625
1773257936789971200,3.58297119140625,0.6074676513671875,-0.2095184326171875,-0.383636474609375
1773257936799984000,3.592984130859375,0.525390625,-0.18658447265625,-0.3655242919921875
1773257936809996000,3.60299609375,0.4279327392578125,-0.2613525390625,-0.32525634765625
1773257936820009200,3.61300927734375,0.3385772705078125,-0.2936553955078125,-0.30633544921875
1773257936830021000,3.623021240234375,0.3060150146484375,-0.3137664794921875,-0.291839599609375
1773257936840033300,3.633033203125,0.31414794921875,-0.390960693359375,-0.2947235107421875
1773257936850046200,3.643046142578125,0.2734375,-0.3148651123046875,-0.3052215576171875
1773257936860058400,3.653058349609375,0.3249359130859375,-0.2881622314453125,-0.3062896728515625
1773257936870070300,3.6630703125,0.39678955078125,-0.341949462890625,-0.2729034423828125
1773257936880083200,3.673083251953125,0.33953857421875,-0.4311065673828125,-0.3034820556640625
1773257936890095400,3.683095458984375,0.533050537109375,-0.5225677490234375,-0.2857818603515625
1773257936900108000,3.69310791015625,0.5367584228515625,-0.530517578125,-0.2913818359375
1773257936910120200,3.7031201171875,0.5172119140625,-0.54205322265625,-0.25201416015625
1773257936920132000,3.713132080078125,0.474365234375,-0.4769744873046875,-0.2132720947265625
1773257936930145300,3.723145263671875,0.493682861328125,-0.4403533935546875,-0.2566680908203125
1773257936940157200,3.7331572265625,0.52203369140625,-0.4308624267578125,-0.309783935546875
1773257936950169000,3.743169189453125,0.53179931640625,-0.44805908203125,-0.2691650390625
1773257936960182300,3.753182373046875,0.56610107421875,-0.4214935302734375,-0.317474365234375
1773257936970194200,3.763194091796875,0.672760009765625,-0.3943634033203125,-0.3688812255859375
1773257936980207000,3.77320703125,0.5876617431640625,-0.4348602294921875,-0.298065185546875
1773257936990219000,3.783218994140625,0.494415283203125,-0.5172576904296875,-0.2283782958984375
1773257937000231200,3.793231201171875,0.49542236328125,-0.58367919921875,-0.1755828857421875
1773257937010244000,3.803244140625,0.5746917724609375,-0.581512451171875,-0.2348175048828125
1773257937020256300,3.81325634765625,0.608123779296875,-0.51727294921875,-0.3383941650390625
1773257937030268200,3.82326806640625,0.592803955078125,-0.4004974365234375,-0.3815765380859375
1773257937040281300,3.83328125,0.6431884765625,-0.5081329345703125,-0.428863525390625
1773257937050293200,3.843293212890625,0.7611846923828125,-0.6527252197265625,-0.2898101806640625
1773257937060306400,3.853306396484375,0.8518829345703125,-0.690185546875,-0.193267822265625
1773257937070318300,3.863318359375,0.9027252197265625,-0.7056121826171875,-0.25946044921875
1773257937080330200,3.873330322265625,0.8981170654296875,-0.6788787841796875,-0.3137664794921875
1773257937090343200,3.88334326171875,0.9070587158203125,-0.633270263671875,-0.281890869140625
1773257937100355000,3.89335498046875,0.928466796875,-0.5255126953125,-0.1368255615234375
1773257937110367200,3.9033671875,0.6831207275390625,-0.5987091064453125,-0.0536956787109375
1773257937120380200,3.913380126953125,0.6224365234375,-0.6320343017578125,-0.0389251708984375
1773257937130392000,3.92339208984375,0.7855377197265625,-0.5930328369140625,-0.1290740966796875
1773257937140404200,3.933404296875,0.850128173828125,-0.660797119140625,-0.141387939453125
1773257937150417200,3.943417236328125,0.8411865234375,-0.6475372314453125,-0.1449737548828125
1773257937160429300,3.95342919921875,0.799560546875,-0.62060546875,-0.20404052734375
1773257937170442000,3.96344189453125,0.855743408203125,-0.6392059326171875,-0.1688690185546875
1773257937180454100,3.9734541015625,0.9580078125,-0.8618316650390625,-0.2569122314453125
1773257937190466000,3.983466064453125,0.7055816650390625,-0.36761474609375,-0.2556610107421875
1773257937200479200,3.993479248046875,0.90838623046875,-0.466644287109375,-0.20050048828125
1773257937210491100,4.0034912109375,0.9471893310546875,-0.5839996337890625,-0.1788787841796875
1773257937220503000,4.0135029296875,0.954376220703125,-0.54132080078125,-0.201019287109375
1773257937230516200,4.02351611328125,0.958160400390625,-0.5825958251953125,-0.179931640625
1773257937240528100,4.033528076171875,0.94232177734375,-0.5985107421875,-0.21112060546875
1773257937250540300,4.043540283203125,0.8809814453125,-0.5924072265625,-0.228759765625
1773257937260553200,4.05355322265625,0.822052001953125,-0.5426025390625,-0.2427825927734375
1773257937270565400,4.0635654296875,0.7562408447265625,-0.4278717041015625,-0.223175048828125
1773257937280578000,4.073578125,0.704681396484375,-0.359222412109375,-0.1873016357421875
1773257937290590200,4.083590087890625,0.5882568359375,-0.374176025390625,-0.2292938232421875
1773257937300602000,4.09360205078125,0.5874481201171875,-0.463653564453125,-0.2652740478515625
1773257937310615300,4.103615234375,0.5569305419921875,-0.5267333984375,-0.2616424560546875
1773257937320627200,4.113627197265625,0.546844482421875,-0.5473785400390625,-0.267608642578125
1773257937330639000,4.12363916015625,0.4487762451171875,-0.5693359375,-0.2723388671875
1773257937340652300,4.13365234375,0.6105499267578125,-0.6188507080078125,-0.3437957763671875
1773257937350664200,4.143664306640625,0.9589996337890625,-0.7027130126953125,-0.4113616943359375
1773257937360676400,4.15367626953125,0.8921661376953125,-0.7603759765625,-0.4654541015625
1773257937370689300,4.163689208984375,0.7852020263671875,-0.775238037109375,-0.48046875
1773257937380701200,4.173701171875,0.853424072265625,-0.7357940673828125,-0.4375
1773257937390714000,4.183714111328125,0.8368682861328125,-0.7000885009765625,-0.4654083251953125
1773257937400726000,4.19372607421875,0.8116302490234375,-0.671875,-0.46722412109375
1773257937410738200,4.20373828125,0.754913330078125,-0.6444091796875,-0.4999542236328125
1773257937420751000,4.213751220703125,0.6767120361328125,-0.6399688720703125,-0.5125732421875
1773257937430763300,4.22376318359375,0.663177490234375,-0.6574554443359375,-0.5029449462890625
1773257937440775200,4.233775146484375,0.6375732421875,-0.64312744140625,-0.4585113525390625
1773257937450788400,4.243788330078125,0.62841796875,-0.6109771728515625,-0.42718505859375
1773257937460800300,4.25380029296875,0.7067718505859375,-0.5971527099609375,-0.3624420166015625
1773257937470812200,4.263812255859375,0.728302001953125,-0.607757568359375,-0.35430908203125
1773257937480825000,4.2738251953125,0.66754150390625,-0.6222686767578125,-0.3442535400390625
1773257937490837000,4.2838369140625,0.647857666015625,-0.598297119140625,-0.341156005859375
1773257937500849200,4.29384912109375,0.607666015625,-0.5780181884765625,-0.3509674072265625
1773257937510862000,4.303862060546875,0.561859130859375,-0.5758209228515625,-0.378387451171875
1773257937520874200,4.313874267578125,0.5480804443359375,-0.61016845703125,-0.40631103515625
1773257937530887200,4.32388720703125,0.51251220703125,-0.66192626953125,-0.4401092529296875
1773257937540899300,4.3338994140625,0.49188232421875,-0.672393798828125,-0.4346466064453125
1773257937550911200,4.3439111328125,0.5172576904296875,-0.6492156982421875,-0.406097412109375
1773257937560924400,4.35392431640625,0.5618896484375,-0.6634063720703125,-0.4100341796875
1773257937570936300,4.363936279296875,0.5909423828125,-0.683319091796875,-0.41876220703125
1773257937580948500,4.373948486328125,0.620391845703125,-0.671539306640625,-0.422637939453125
1773257937590961200,4.383961181640625,0.6225128173828125,-0.6568145751953125,-0.4134063720703125
1773257937600973300,4.393973388671875,0.6240997314453125,-0.6562652587890625,-0.404296875
1773257937610985200,4.403985107421875,0.6011810302734375,-0.6448822021484375,-0.4164276123046875
1773257937620998400,4.413998291015625,0.600738525390625,-0.61407470703125,-0.4246826171875
1773257937631010300,4.42401025390625,0.550445556640625,-0.5847015380859375,-0.457427978515625
1773257937641022200,4.434022216796875,0.3319091796875,-0.6646728515625,-0.48321533203125
1773257937651035400,4.444035400390625,0.4068756103515625,-0.83258056640625,-0.4627227783203125
1773257937661047300,4.45404736328125,0.577545166015625,-0.8617095947265625,-0.4330596923828125
1773257937671059500,4.4640595703125,0.782318115234375,-0.7568511962890625,-0.412628173828125
1773257937681072000,4.474072021484375,0.8645782470703125,-0.654266357421875,-0.3615570068359375
1773257937691084300,4.484084228515625,0.8855743408203125,-0.5400390625,-0.337677001953125
1773257937701096200,4.49409619140625,0.8889312744140625,-0.50946044921875,-0.3570404052734375
1773257937711109000,4.504109130859375,0.9272918701171875,-0.5800933837890625,-0.3037872314453125
1773257937721121300,4.514121337890625,0.9321136474609375,-0.662506103515625,-0.3068084716796875
1773257937731133200,4.52413330078125,0.818389892578125,-0.7110595703125,-0.4076995849609375
1773257937741146400,4.534146484375,0.6721649169921875,-0.66400146484375,-0.4777374267578125
1773257937751158300,4.544158203125,0.5649566650390625,-0.6765289306640625,-0.46954345703125
1773257937761171500,4.55417138671875,0.465362548828125,-0.7758941650390625,-0.4745941162109375
1773257937771183400,4.564183349609375,0.459442138671875,-0.867828369140625,-0.4780731201171875
1773257937781195300,4.5741953125,0.53009033203125,-0.8662567138671875,-0.4749755859375
1773257937791208200,4.584208251953125,0.5178680419921875,-0.823944091796875,-0.4465789794921875
1773257937801220000,4.59422021484375,0.4344024658203125,-0.768890380859375,-0.345062255859375
1773257937811232300,4.604232177734375,0.735870361328125,-0.7002410888671875,-0.1015777587890625
1773257937821245200,4.6142451171875,0.5573883056640625,-0.7730255126953125,-0.129150390625
1773257937831257300,4.62425732421875,0.3383941650390625,-0.7776031494140625,-0.3650665283203125
1773257937841269200,4.634269287109375,0.2900848388671875,-0.709259033203125,-0.341644287109375
1773257937851282400,4.644282470703125,0.39422607421875,-0.698944091796875,-0.255096435546875
1773257937861294300,4.65429443359375,0.4498138427734375,-0.747467041015625,-0.1621856689453125
1773257937871306200,4.66430615234375,0.57879638671875,-0.7918701171875,-0.0591278076171875
1773257937881319200,4.674319091796875,0.631256103515625,-0.8368072509765625,-0.282135009765625
1773257937891331000,4.6843310546875,0.461212158203125,-0.8024139404296875,-0.292724609375
1773257937901343200,4.69434326171875,0.590118408203125,-0.7625885009765625,-0.1568450927734375
1773257937911356200,4.704356201171875,0.6871337890625,-0.78948974609375,-0.17059326171875
1773257937921368300,4.714368408203125,0.6674957275390625,-0.7717742919921875,-0.2414398193359375
1773257937931380200,4.724380126953125,0.6899871826171875,-0.7618255615234375,-0.190460205078125
1773257937941393400,4.734393310546875,0.6410369873046875,-0.78424072265625,-0.19110107421875
1773257937951405300,4.7444052734375,0.64556884765625,-0.7983551025390625,-0.2174072265625
1773257937961417200,4.754417236328125,0.64459228515625,-0.874114990234375,-0.16705322265625
1773257937971430400,4.764430419921875,0.60137939453125,-0.94281005859375,-0.16241455078125
1773257937981442300,4.7744423828125,0.52496337890625,-0.946197509765625,-0.209259033203125
1773257937991454500,4.784454345703125,0.489776611328125,-0.914825439453125,-0.1915283203125
1773257938001467100,4.794467041015625,0.416046142578125,-0.891387939453125,-0.1913909912109375
1773257938011479300,4.804479248046875,0.30908203125,-0.89703369140625,-0.160736083984375
1773257938021491200,4.8144912109375,0.29461669921875,-0.90740966796875,-0.1263275146484375
1773257938031504400,4.82450439453125,0.319488525390625,-0.8701171875,-0.1459503173828125
1773257938041516300,4.834516357421875,0.2668304443359375,-0.859039306640625,-0.1270751953125
1773257938051528200,4.844528076171875,0.42193603515625,-0.910491943359375,-0.12066650390625
1773257938061541400,4.854541259765625,0.360748291015625,-0.9498138427734375,-0.145111083984375
1773257938071553300,4.86455322265625,0.379638671875,-0.9613800048828125,-0.150726318359375
1773257938081565400,4.8745654296875,0.5513458251953125,-0.9189910888671875,-0.1423797607421875
1773257938091578400,4.884578369140625,0.5184783935546875,-0.8840789794921875,-0.1577301025390625
1773257938101590300,4.89459033203125,0.40283203125,-0.820892333984375,-0.104736328125
1773257938111602400,4.9046025390625,0.2752227783203125,-0.7403564453125,-0.1142120361328125
1773257938121615000,4.914614990234375,0.5130767822265625,-0.7202301025390625,-0.13800048828125
1773257938131627300,4.924627197265625,0.310943603515625,-0.8418426513671875,-0.0429840087890625
1773257938141639200,4.93463916015625,0.360565185546875,-0.8278961181640625,0.0724945068359375
1773257938151652400,4.94465234375,0.71917724609375,-0.8952484130859375,0.033782958984375
1773257938161664300,4.954664306640625,0.8525238037109375,-1.0484619140625,-0.0902099609375
1773257938171676200,4.96467626953125,0.3434295654296875,-1.07757568359375,-0.3520660400390625
1773257938181689300,4.974689453125,-0.20556640625,-1.109619140625,-0.2118377685546875
1773257938191701200,4.984701171875,-0.526275634765625,-0.9798583984375,-0.1147613525390625
1773257938201713400,4.99471337890625,-0.2997589111328125,-0.6212615966796875,-0.130523681640625
1773257938211726000,5.00472607421875,-0.1425628662109375,-0.7440643310546875,-0.1492156982421875
1773257938221738200,5.01473828125,-0.4642486572265625,-0.77813720703125,-0.407501220703125
1773257938231750100,5.024750244140625,-0.1208038330078125,-0.71221923828125,-0.293792724609375
1773257938241763300,5.034763427734375,0.0869598388671875,-0.84417724609375,-0.1188507080078125
1773257938251775200,5.044775146484375,0.0445709228515625,-0.94061279296875,0.0797119140625
1773257938261787100,5.054787109375,-0.1089935302734375,-1.00189208984375,-0.083099365234375
1773257938271800300,5.06480029296875,-0.15899658203125,-0.92822265625,-0.3701019287109375
1773257938281812200,5.074812255859375,0.0436553955078125,-0.8977203369140625,-0.396484375
1773257938291824400,5.084824462890625,0.24957275390625,-0.9523468017578125,-0.22662353515625
1773257938301837300,5.09483740234375,0.1993865966796875,-1.007659912109375,-0.218048095703125
1773257938311849500,5.104849365234375,0.1635284423828125,-1.0406036376953125,-0.1429443359375
1773257938321861400,5.114861328125,0.06103515625,-1.0531463623046875,-0.1468658447265625
1773257938331874300,5.124874267578125,-0.044097900390625,-1.0081634521484375,-0.2711029052734375
1773257938341886200,5.13488623046875,-0.021575927734375,-0.9909820556640625,-0.194183349609375
1773257938351898000,5.144898193359375,0.0344696044921875,-0.99969482421875,-0.2557373046875
1773257938361911300,5.154911376953125,0.0143890380859375,-1.005126953125,-0.3241424560546875
1773257938371923200,5.164923095703125,0.028778076171875,-1.008697509765625,-0.299591064453125
1773257938381935400,5.174935302734375,0.1469268798828125,-1.010986328125,-0.308685302734375
1773257938391948300,5.1849482421875,0.1819305419921875,-0.9958648681640625,-0.309539794921875
1773257938401960400,5.19496044921875,0.2630767822265625,-0.9575347900390625,-0.2446746826171875
1773257938411972400,5.204972412109375,0.3285064697265625,-0.9072723388671875,-0.256988525390625
1773257938421985300,5.2149853515625,0.353424072265625,-0.9050445556640625,-0.24383544921875
1773257938431997200,5.2249970703125,0.3441925048828125,-0.9731597900390625,-0.2489471435546875
1773257938442009000,5.235009033203125,0.295135498046875,-1.008636474609375,-0.260467529296875
1773257938452022300,5.245022216796875,0.426788330078125,-1.0410308837890625,-0.34521484375
1773257938462034200,5.2550341796875,0.3075714111328125,-1.041656494140625,-0.38726806640625
1773257938472046300,5.26504638671875,0.7141265869140625,-0.7578277587890625,0.0196533203125
1773257938482059300,5.275059326171875,0.5894317626953125,-0.7649993896484375,-0.075439453125
1773257938492071400,5.285071533203125,0.2681427001953125,-0.8253021240234375,-0.1642608642578125
1773257938502083300,5.295083251953125,0.350677490234375,-0.8074951171875,-0.112457275390625
1773257938512096300,5.30509619140625,0.345428466796875,-0.8302764892578125,-0.103973388671875
1773257938522108400,5.3151083984375,0.338714599609375,-0.8536529541015625,-0.0677642822265625
1773257938532120300,5.325120361328125,0.3772430419921875,-0.850341796875,-0.0362091064453125
1773257938542133200,5.33513330078125,0.466217041015625,-0.8525543212890625,-0.0777587890625
1773257938552145200,5.345145263671875,0.4871673583984375,-0.848480224609375,-0.1105194091796875
1773257938562157300,5.3551572265625,0.5595245361328125,-0.835693359375,-0.1385650634765625
1773257938572170200,5.365170166015625,0.6232147216796875,-0.797607421875,-0.105987548828125
1773257938582182100,5.37518212890625,0.57989501953125,-0.7942962646484375,-0.0916900634765625
1773257938592194300,5.3851943359375,0.5397491455078125,-0.762237548828125,-0.063018798828125
1773257938602207200,5.395207275390625,0.5160369873046875,-0.7127532958984375,-0.1004486083984375
1773257938612219400,5.405219482421875,0.4123687744140625,-0.664306640625,-0.123382568359375
1773257938622231300,5.415231201171875,0.4600830078125,-0.621490478515625,-0.0765380859375
1773257938632244200,5.425244140625,0.5417022705078125,-0.598602294921875,0.0253753662109375
1773257938642256400,5.43525634765625,0.805633544921875,-0.6784210205078125,-0.102874755859375
1773257938652268300,5.445268310546875,0.797271728515625,-0.78582763671875,-0.0726470947265625
1773257938662280400,5.455280517578125,0.6830596923828125,-0.794769287109375,-0.060150146484375
1773257938672293000,5.465293212890625,0.6727752685546875,-0.724090576171875,-0.0052032470703125
1773257938682305300,5.47530517578125,0.66778564453125,-0.6768951416015625,-0.009613037109375
1773257938692318200,5.485318115234375,0.7234344482421875,-0.6519012451171875,-0.0236358642578125
1773257938702330400,5.495330322265625,0.7707061767578125,-0.6359100341796875,-0.02105712890625
1773257938712342300,5.50534228515625,0.854827880859375,-0.5970611572265625,0.0167694091796875
1773257938722354200,5.515354248046875,0.9535064697265625,-0.558502197265625,0.0364837646484375
1773257938732367400,5.525367431640625,0.9843597412109375,-0.55609130859375,0.053558349609375
1773257938742379300,5.535379150390625,0.8978729248046875,-0.561798095703125,0.06634521484375
1773257938752391400,5.545391357421875,0.8325042724609375,-0.5898895263671875,0.0352630615234375
1773257938762404000,5.555404052734375,0.8257904052734375,-0.62884521484375,0.0399627685546875
1773257938772416300,5.565416259765625,0.8560943603515625,-0.648345947265625,0.062469482421875
1773257938782428200,5.57542822265625,0.7574462890625,-0.6138458251953125,0.0630645751953125
1773257938792441300,5.58544140625,0.79046630859375,-0.556976318359375,0.07635498046875
1773257938802453200,5.595453369140625,0.8849945068359375,-0.5095672607421875,0.093475341796875
1773257938812465200,5.605465087890625,0.938812255859375,-0.5016326904296875,0.0893402099609375
1773257938822478300,5.615478271484375,0.988311767578125,-0.4921112060546875,0.08154296875
1773257938832490200,5.625490234375,0.97027587890625,-0.486907958984375,0.0900726318359375
1773257938842502400,5.63550244140625,0.9192352294921875,-0.5132598876953125,0.10198974609375
1773257938852515300,5.645515380859375,0.9045562744140625,-0.516845703125,0.184967041015625
1773257938862527500,5.655527587890625,0.9294891357421875,-0.501922607421875,0.144073486328125
1773257938872539400,5.665539306640625,0.95184326171875,-0.5096588134765625,0.139404296875
1773257938882552300,5.67555224609375,0.969696044921875,-0.521697998046875,0.1316680908203125
1773257938892564200,5.685564208984375,0.83636474609375,-0.4971466064453125,0.058349609375
1773257938902576000,5.695576171875,0.8072662353515625,-0.4498291015625,0.05230712890625
1773257938912589300,5.70558935546875,0.8188323974609375,-0.4355316162109375,0.063568115234375
1773257938922601200,5.715601318359375,0.8382415771484375,-0.4226837158203125,0.0911865234375
1773257938932613400,5.72561328125,0.8531646728515625,-0.401123046875,0.1038360595703125
1773257938942626300,5.735626220703125,0.856719970703125,-0.4011077880859375,0.049468994140625
1773257938952638500,5.745638427734375,0.7976226806640625,-0.4114990234375,-0.0303802490234375
1773257938962650400,5.755650390625,0.7919464111328125,-0.3981170654296875,-0.057373046875
1773257938972663000,5.7656630859375,0.859893798828125,-0.404571533203125,-0.1091461181640625
1773257938982675200,5.77567529296875,0.9009246826171875,-0.4127044677734375,-0.2128448486328125
1773257938992687000,5.78568701171875,0.89752197265625,-0.3964080810546875,-0.1458740234375
1773257939002700300,5.7957001953125,0.91497802734375,-0.4005279541015625,-0.0615692138671875
1773257939012712200,5.805712158203125,0.921417236328125,-0.377349853515625,0.0076751708984375
1773257939022724400,5.815724365234375,0.908294677734375,-0.4072723388671875,-0.0001678466796875
1773257939032737300,5.8257373046875,0.947601318359375,-0.36883544921875,0.0344696044921875
1773257939042749200,5.835749267578125,1.007904052734375,-0.326416015625,0.0279541015625
1773257939052761300,5.84576123046875,1.0588531494140625,-0.31793212890625,0.0004425048828125
1773257939062774300,5.855774169921875,1.099273681640625,-0.3480072021484375,0.00360107421875
1773257939072786400,5.865786376953125,1.1254119873046875,-0.368255615234375,-0.008209228515625
1773257939082798300,5.87579833984375,1.1277008056640625,-0.3708953857421875,-0.0129547119140625
1773257939092810500,5.885810546875,1.100372314453125,-0.3846893310546875,-0.0025482177734375
1773257939102823200,5.8958232421875,1.0523223876953125,-0.3707733154296875,0.0214996337890625
1773257939112835000,5.9058349609375,1.01080322265625,-0.3467864990234375,0.0139923095703125
1773257939122847200,5.91584716796875,1.004791259765625,-0.3433380126953125,0.0152587890625
1773257939132860200,5.925860107421875,1.065643310546875,-0.37652587890625,-0.0210723876953125
1773257939142872300,5.935872314453125,1.106353759765625,-0.3741607666015625,-0.0233612060546875
1773257939152884200,5.94588427734375,1.177154541015625,-0.34979248046875,-0.0446624755859375
1773257939162897400,5.9558974609375,1.186676025390625,-0.3420562744140625,0.0103302001953125
1773257939172909300,5.965909423828125,1.1973419189453125,-0.337249755859375,-0.003143310546875
1773257939182921200,5.975921142578125,1.207244873046875,-0.37176513671875,-0.028228759765625
1773257939192934400,5.985934326171875,1.1754150390625,-0.3894500732421875,-0.000091552734375
1773257939202946300,5.9959462890625,1.1130523681640625,-0.339111328125,0.0186004638671875
1773257939212958200,6.005958251953125,1.0437774658203125,-0.297027587890625,0.0058746337890625
1773257939222971100,6.01597119140625,0.9713897705078125,-0.29150390625,0.0185394287109375
1773257939232983300,6.0259833984375,0.9091033935546875,-0.2924346923828125,0.05657958984375
1773257939242995200,6.0359951171875,0.8629150390625,-0.3213348388671875,0.0873565673828125
1773257939253008400,6.04600830078125,0.8683624267578125,-0.36572265625,0.06707763671875
1773257939263020300,6.056020263671875,0.9178466796875,-0.42584228515625,0.046966552734375
1773257939273032200,6.0660322265625,0.9369964599609375,-0.4983062744140625,0.0585784912109375
1773257939283045400,6.07604541015625,0.92584228515625,-0.5267486572265625,0.0683746337890625
1773257939293057300,6.086057373046875,0.963653564453125,-0.512664794921875,0.126861572265625
1773257939303069400,6.0960693359375,0.9586944580078125,-0.50775146484375,0.125274658203125
1773257939313082000,6.10608203125,0.86309814453125,-0.521575927734375,0.1439666748046875
1773257939323094300,6.11609423828125,0.7855377197265625,-0.5232696533203125,0.21044921875
1773257939333106200,6.126106201171875,0.7444000244140625,-0.5849609375,0.2357177734375
1773257939343119400,6.136119384765625,0.76629638671875,-0.6266632080078125,0.1851043701171875
1773257939353131300,6.14613134765625,0.79180908203125,-0.6406402587890625,0.100830078125
1773257939363143200,6.15614306640625,0.784881591796875,-0.6580963134765625,0.020477294921875
1773257939373156400,6.16615625,0.717193603515625,-0.6917877197265625,-0.0095062255859375
1773257939383168300,6.176168212890625,0.65423583984375,-0.6834716796875,0.0128936767578125
1773257939393180400,6.186180419921875,0.6223297119140625,-0.663330078125,0.036529541015625
1773257939403192300,6.1961923828125,0.594696044921875,-0.6220245361328125,0.07586669921875
1773257939413205500,6.20620556640625,0.6104736328125,-0.5233612060546875,0.1060943603515625
1773257939423217400,6.216217529296875,0.6394195556640625,-0.448272705078125,0.113128662109375
1773257939433229300,6.226229248046875,0.713470458984375,-0.4515838623046875,0.0873260498046875
1773257939443242200,6.2362421875,0.78643798828125,-0.4546356201171875,0.073516845703125
1773257939453254100,6.246254150390625,0.84173583984375,-0.4883880615234375,0.067962646484375
1773257939463266300,6.256266357421875,0.7994842529296875,-0.4848785400390625,0.10882568359375
1773257939473279200,6.266279296875,0.7471466064453125,-0.4453125,0.1428375244140625
1773257939483291400,6.27629150390625,0.7271881103515625,-0.4134521484375,0.1446685791015625
1773257939493303300,6.28630322265625,0.7364501953125,-0.4015960693359375,0.1354522705078125
1773257939503316200,6.296316162109375,0.7352752685546875,-0.401275634765625,0.1529998779296875
1773257939513328400,6.306328369140625,0.60699462890625,-0.5037841796875,0.0264892578125
1773257939523340300,6.31634033203125,0.9864501953125,-0.435821533203125,0.054107666015625
1773257939533353200,6.326353271484375,1.0808868408203125,-0.536651611328125,0.2281036376953125
1773257939543365000,6.336365234375,0.9342041015625,-0.4751739501953125,0.173095703125
1773257939553377300,6.346377197265625,0.9122772216796875,-0.418670654296875,0.197601318359375
1773257939563390200,6.35639013671875,0.825927734375,-0.56072998046875,0.0592041015625
1773257939573402000,6.366402099609375,0.85052490234375,-0.6938629150390625,0.0476531982421875
1773257939583414300,6.376414306640625,0.77703857421875,-0.6632232666015625,0.1055755615234375
1773257939593427200,6.38642724609375,0.709808349609375,-0.5848846435546875,0.243988037109375
1773257939603439400,6.396439453125,0.75030517578125,-0.591949462890625,0.2922210693359375
1773257939613451300,6.406451171875,0.7794189453125,-0.613983154296875,0.254425048828125
1773257939623464400,6.41646435546875,0.72003173828125,-0.645751953125,0.2423095703125
1773257939633476400,6.426476318359375,0.613800048828125,-0.67230224609375,0.1918182373046875
1773257939643488300,6.43648828125,0.513519287109375,-0.6833648681640625,0.113677978515625
1773257939653500400,6.44650048828125,0.38525390625,-0.7068634033203125,0.0452880859375
1773257939663513000,6.45651318359375,0.215606689453125,-0.710174560546875,0.0030670166015625
1773257939673525200,6.466525146484375,0.1529541015625,-0.7280731201171875,-0.037384033203125
1773257939683537200,6.476537109375,0.4237213134765625,-0.5953521728515625,-0.02923583984375
1773257939693550300,6.48655029296875,0.5519256591796875,-0.6604156494140625,0.0887603759765625
1773257939703562200,6.496562255859375,0.4974517822265625,-0.7266082763671875,0.2075042724609375
1773257939713574100,6.50657421875,0.5227508544921875,-0.7042236328125,0.22564697265625
1773257939723587300,6.51658740234375,0.538848876953125,-0.720794677734375,0.207794189453125
1773257939733599200,6.52659912109375,0.5337371826171875,-0.7447052001953125,0.255889892578125
1773257939743611400,6.536611328125,0.4818267822265625,-0.75482177734375,0.3486175537109375
1773257939753624300,6.546624267578125,0.44390869140625,-0.7605743408203125,0.462371826171875
1773257939763636200,6.55663623046875,0.43365478515625,-0.76177978515625,0.57470703125
1773257939773648400,6.5666484375,0.4184722900390625,-0.75775146484375,0.627960205078125
1773257939783661300,6.576661376953125,0.3748779296875,-0.76141357421875,0.6198577880859375
1773257939793673200,6.586673095703125,0.357269287109375,-0.7738800048828125,0.5566864013671875
1773257939803685000,6.59668505859375,0.3813629150390625,-0.789154052734375,0.4845733642578125
1773257939813698300,6.6066982421875,0.4125213623046875,-0.7903900146484375,0.4465484619140625
1773257939823710200,6.616710205078125,0.4295806884765625,-0.7734527587890625,0.4386138916015625
1773257939833722400,6.626722412109375,0.4398193359375,-0.75457763671875,0.4392547607421875
1773257939843734300,6.636734375,0.4437255859375,-0.746795654296875,0.4217681884765625
1773257939853747500,6.64674755859375,0.45654296875,-0.7434539794921875,0.40985107421875
1773257939863759400,6.65675927734375,0.471099853515625,-0.7385711669921875,0.422607421875
1773257939873771300,6.666771240234375,0.4795074462890625,-0.71612548828125,0.4364013671875
1773257939883784200,6.6767841796875,0.4708404541015625,-0.7023468017578125,0.4471282958984375
1773257939893796000,6.686796142578125,0.432342529296875,-0.6858673095703125,0.4641876220703125
1773257939903808300,6.696808349609375,0.3788299560546875,-0.680694580078125,0.4722747802734375
1773257939913821200,6.7068212890625,0.3427581787109375,-0.6987762451171875,0.46673583984375
1773257939923833300,6.716833251953125,0.31744384765625,-0.7041473388671875,0.4621124267578125
1773257939933845200,6.72684521484375,0.30419921875,-0.68853759765625,0.4481658935546875
1773257939943858400,6.7368583984375,0.2818145751953125,-0.6769866943359375,0.4379730224609375
1773257939953870300,6.746870361328125,0.2441253662109375,-0.68280029296875,0.468719482421875
1773257939963882200,6.75688232421875,0.2324066162109375,-0.680755615234375,0.54425048828125
1773257939973895400,6.7668955078125,0.2099609375,-0.68115234375,0.6578826904296875
1773257939983907300,6.7769072265625,0.166046142578125,-0.6693115234375,0.7617950439453125
1773257939993919500,6.78691943359375,0.132171630859375,-0.6572265625,0.8238525390625
1773257940003932200,6.79693212890625,0.111328125,-0.6616363525390625,0.853057861328125
1773257940013944300,6.8069443359375,0.1021575927734375,-0.658111572265625,0.8602294921875
1773257940023956200,6.816956298828125,0.10675048828125,-0.642608642578125,0.879150390625
1773257940033969200,6.82696923828125,0.098876953125,-0.6245574951171875,0.898651123046875
1773257940043981300,6.836981201171875,0.0863189697265625,-0.596221923828125,0.8637847900390625
1773257940053993200,6.8469931640625,0.0825347900390625,-0.656158447265625,0.86798095703125
1773257940064005400,6.85700537109375,0.096038818359375,-0.583251953125,0.9040069580078125
1773257940074018300,6.867018310546875,0.1012725830078125,-0.5780029296875,0.90380859375
1773257940084030500,6.877030517578125,0.0934906005859375,-0.62872314453125,0.9122161865234375
1773257940094042400,6.88704248046875,0.09228515625,-0.605743408203125,0.934295654296875
1773257940104055000,6.897054931640625,0.0850372314453125,-0.6180572509765625,0.94903564453125
1773257940114067200,6.907067138671875,0.07550048828125,-0.6048583984375,1.00006103515625
1773257940124079000,6.9170791015625,0.05584716796875,-0.6018524169921875,0.9118804931640625
1773257940134092300,6.92709228515625,0.0482330322265625,-0.6113433837890625,0.8197479248046875
1773257940144104200,6.937104248046875,0.0444793701171875,-0.514923095703125,0.8731842041015625
1773257940154116400,6.947116455078125,0.025238037109375,-0.575836181640625,0.884857177734375
1773257940164129300,6.95712939453125,0.0266265869140625,-0.5430145263671875,0.8914031982421875
1773257940174141200,6.96714111328125,0.049591064453125,-0.48834228515625,0.923828125
1773257940184153300,6.9771533203125,0.015716552734375,-0.5615234375,0.8634490966796875
1773257940194166300,6.987166259765625,-0.0064697265625,-0.5233154296875,0.872406005859375
1773257940204178400,6.997178466796875,-0.001861572265625,-0.482269287109375,0.88739013671875
1773257940214190300,7.0071904296875,0.001495361328125,-0.43817138671875,0.91302490234375
1773257940224202200,7.0172021484375,0.0149688720703125,-0.43896484375,0.92901611328125
1773257940234215200,7.027215087890625,0.0314178466796875,-0.3791656494140625,0.924346923828125
1773257940244227000,7.03722705078125,0.0463409423828125,-0.3335418701171875,0.9227294921875
1773257940254239200,7.0472392578125,0.0504913330078125,-0.307952880859375,0.898834228515625
1773257940264252200,7.057252197265625,0.05548095703125,-0.274200439453125,0.8547821044921875
1773257940274264300,7.067264404296875,0.0602264404296875,-0.221038818359375,0.814056396484375
1773257940284276200,7.077276123046875,0.091796875,-0.196563720703125,0.77410888671875
1773257940294289400,7.087289306640625,0.1104888916015625,-0.160980224609375,0.70166015625
1773257940304301300,7.09730126953125,0.1448516845703125,-0.1093902587890625,0.738250732421875
1773257940314313200,7.107313232421875,0.2168426513671875,-0.0959930419921875,0.7475433349609375
1773257940324326400,7.117326416015625,0.298431396484375,-0.063507080078125,0.746612548828125
1773257940334338300,7.12733837890625,0.3562164306640625,0.00006103515625,0.7310638427734375
1773257940344350500,7.1373505859375,0.3984832763671875,0.0308685302734375,0.7109375
1773257940354363100,7.147363037109375,0.4375,0.04486083984375,0.70660400390625
1773257940364375300,7.157375244140625,0.656585693359375,0.15966796875,0.8550872802734375
1773257940374387200,7.16738720703125,0.957672119140625,0.1179962158203125,0.904449462890625
1773257940384400400,7.177400390625,0.5147857666015625,0.0439910888671875,0.680511474609375
1773257940394412300,7.187412353515625,0.399688720703125,0.1617889404296875,0.6839141845703125
1773257940404424200,7.197424072265625,0.44708251953125,0.172088623046875,0.6729736328125
1773257940414437400,7.207437255859375,0.5002899169921875,0.19061279296875,0.710784912109375
1773257940424449300,7.21744921875,0.7689666748046875,0.2969818115234375,0.902984619140625
1773257940434461400,7.22746142578125,0.9271392822265625,0.3563690185546875,1.2201690673828125
1773257940444473300,7.237473388671875,0.8814544677734375,0.324920654296875,1.3520965576171875
1773257940454486300,7.247486328125,1.0453643798828125,0.2988128662109375,1.385589599609375
1773257940464498200,7.257498291015625,0.7512664794921875,0.2134552001953125,1.126861572265625
1773257940474510000,7.267510009765625,0.288177490234375,0.216552734375,0.8404388427734375
1773257940484523300,7.277523193359375,0.2580413818359375,0.2213592529296875,0.8227996826171875
1773257940494535200,7.28753515625,0.372650146484375,0.1845855712890625,0.8538055419921875
1773257940504547300,7.29754736328125,0.575347900390625,0.1869049072265625,0.879425048828125
1773257940514560300,7.307560302734375,0.6198577880859375,0.2035980224609375,0.875457763671875
1773257940524572400,7.317572509765625,0.6459197998046875,0.1771240234375,0.8115997314453125
1773257940534584300,7.327584228515625,0.7097320556640625,0.142974853515625,0.7216644287109375
1773257940544597500,7.337597412109375,0.7676544189453125,0.117156982421875,0.67254638671875
1773257940554609400,7.347609375,0.82177734375,0.13763427734375,0.6438751220703125
1773257940564621600,7.35762158203125,0.8366546630859375,0.158447265625,0.610687255859375
1773257940574634200,7.36763427734375,0.8049774169921875,0.1841888427734375,0.5792236328125
1773257940584646400,7.377646484375,0.8053131103515625,0.1527099609375,0.6068572998046875
1773257940594658300,7.387658203125,0.822509765625,0.1686859130859375,0.6533203125
1773257940604671500,7.39767138671875,0.9147491455078125,0.17376708984375,0.6420135498046875
1773257940614683400,7.407683349609375,0.8365020751953125,0.1960906982421875,0.6201019287109375
1773257940624695300,7.4176953125,0.8261871337890625,0.171295166015625,0.644561767578125
1773257940634707500,7.42770751953125,0.875823974609375,0.1275482177734375,0.6533966064453125
1773257940644720400,7.437720458984375,0.845428466796875,0.071746826171875,0.6249542236328125
1773257940654732500,7.447732666015625,0.8369293212890625,0.0269622802734375,0.5855865478515625
1773257940664744400,7.457744384765625,0.3308868408203125,0.08038330078125,0.4978485107421875
1773257940674757400,7.46775732421875,0.5627593994140625,0.1008453369140625,0.4652099609375
1773257940684769300,7.477769287109375,0.930908203125,-0.0507354736328125,0.4497222900390625
1773257940694781200,7.48778125,0.9168243408203125,-0.125762939453125,0.4746246337890625
1773257940704794400,7.49779443359375,0.8388671875,0.0246734619140625,0.463714599609375
1773257940714806300,7.50780615234375,0.87310791015625,0.03497314453125,0.389739990234375
1773257940724818400,7.517818359375,0.919525146484375,-0.00335693359375,0.334808349609375
1773257940734831400,7.527831298828125,0.912628173828125,-0.0008392333984375,0.3560028076171875
1773257940744843500,7.537843505859375,0.875457763671875,0.0231781005859375,0.421783447265625
1773257940754855400,7.54785546875,0.8729400634765625,0.0234832763671875,0.4327850341796875
1773257940764868600,7.55786865234375,0.869171142578125,0.010406494140625,0.4290313720703125
1773257940774880500,7.567880615234375,0.8709869384765625,0.000518798828125,0.4149017333984375
1773257940784892400,7.577892333984375,0.8871002197265625,-0.02764892578125,0.403472900390625
1773257940794905300,7.5879052734375,0.8946075439453125,-0.0559844970703125,0.41156005859375
1773257940804917200,7.597917236328125,0.8989715576171875,-0.0665283203125,0.4099578857421875
1773257940814929400,7.607929443359375,0.9040679931640625,-0.077789306640625,0.3825531005859375
1773257940824941300,7.61794140625,0.906768798828125,-0.0900421142578125,0.360992431640625
1773257940834954500,7.62795458984375,0.9072418212890625,-0.094970703125,0.3454132080078125
1773257940844966400,7.63796630859375,0.9240875244140625,-0.0908203125,0.3083343505859375
1773257940854978300,7.647978271484375,0.940704345703125,-0.085662841796875,0.2765350341796875
1773257940864991500,7.657991455078125,0.9433441162109375,-0.087646484375,0.268768310546875
1773257940875003400,7.66800341796875,0.9377899169921875,-0.0941619873046875,0.26043701171875
1773257940885015600,7.678015625,0.94390869140625,-0.09552001953125,0.24664306640625
1773257940895028500,7.688028564453125,0.9646453857421875,-0.1034088134765625,0.2417755126953125
1773257940905040400,7.698040283203125,0.9896087646484375,-0.102569580078125,0.23797607421875
1773257940915052300,7.70805224609375,0.99798583984375,-0.08990478515625,0.2216339111328125
1773257940925065500,7.7180654296875,1.0248870849609375,-0.0805816650390625,0.1986541748046875
1773257940935077400,7.728077392578125,1.05059814453125,-0.0705413818359375,0.18182373046875
1773257940945089300,7.73808935546875,1.0728607177734375,-0.07159423828125,0.169189453125
1773257940955102500,7.7481025390625,1.0801849365234375,-0.081390380859375,0.165863037109375
1773257940965114400,7.7581142578125,1.078399658203125,-0.0941619873046875,0.1732330322265625
1773257940975126500,7.76812646484375,1.0810699462890625,-0.11083984375,0.18597412109375
1773257940985139500,7.778139404296875,1.087493896484375,-0.1219940185546875,0.1959075927734375
1773257940995151400,7.7881513671875,1.087127685546875,-0.12542724609375,0.1955413818359375
1773257941005163500,7.79816357421875,1.0802459716796875,-0.1220245361328125,0.1887359619140625
1773257941015175400,7.808175537109375,1.07080078125,-0.1193695068359375,0.1744537353515625
1773257941025188400,7.818188232421875,1.057464599609375,-0.122772216796875,0.1568145751953125
1773257941035200300,7.8282001953125,1.0563812255859375,-0.1269073486328125,0.1525115966796875
1773257941045212400,7.83821240234375,1.0552978515625,-0.1284637451171875,0.1468048095703125
1773257941055225300,7.848225341796875,1.0615234375,-0.12689208984375,0.1415863037109375
1773257941065237200,7.8582373046875,1.05975341796875,-0.128631591796875,0.128265380859375
1773257941075249400,7.86824951171875,1.04827880859375,-0.1317596435546875,0.1184844970703125
1773257941085262300,7.878262451171875,1.0423736572265625,-0.1366119384765625,0.1139373779296875
1773257941095274500,7.8882744140625,1.036468505859375,-0.1414031982421875,0.103515625
1773257941105286400,7.898286376953125,1.0312652587890625,-0.14599609375,0.0930023193359375
1773257941115299600,7.908299560546875,1.0243377685546875,-0.148895263671875,0.09356689453125
1773257941125311500,7.9183115234375,1.0102081298828125,-0.149932861328125,0.0986785888671875
1773257941135323400,7.928323486328125,1.0024261474609375,-0.150970458984375,0.0870208740234375
1773257941145336300,7.93833642578125,0.994476318359375,-0.1529541015625,0.084564208984375
1773257941155348200,7.94834814453125,0.98065185546875,-0.1571807861328125,0.083831787109375
1773257941165360400,7.9583603515625,0.95562744140625,-0.167510986328125,0.075469970703125
1773257941175372300,7.968372314453125,0.9629669189453125,-0.1670989990234375,0.0642242431640625
1773257941185385500,7.978385498046875,0.98876953125,-0.175750732421875,0.0685272216796875
1773257941195397400,7.9883974609375,0.9910888671875,-0.179718017578125,0.07415771484375
1773257941205409300,7.9984091796875,0.9871826171875,-0.18731689453125,0.0760040283203125
1773257941215422500,8.00842236328125,0.9893341064453125,-0.19525146484375,0.0807647705078125
1773257941225434400,8.018434326171874,0.99786376953125,-0.2012481689453125,0.09161376953125
1773257941235446500,8.028446533203125,0.9906005859375,-0.2023773193359375,0.0997314453125
1773257941245459200,8.038459228515626,0.9819488525390625,-0.19940185546875,0.1060791015625
1773257941255471400,8.048471435546874,0.986358642578125,-0.2062530517578125,0.1068572998046875
1773257941265483300,8.058483154296875,0.9870147705078125,-0.2105560302734375,0.11224365234375
1773257941275496400,8.068496337890625,0.99169921875,-0.2137603759765625,0.1268768310546875
1773257941285508400,8.07850830078125,0.989501953125,-0.2204437255859375,0.1352081298828125
1773257941295520300,8.088520263671874,0.9842376708984375,-0.2263336181640625,0.1386871337890625
1773257941305533400,8.098533447265625,0.985076904296875,-0.230194091796875,0.13568115234375
1773257941315545300,8.10854541015625,1.0059814453125,-0.2339630126953125,0.133697509765625
1773257941325557500,8.1185576171875,1.0155181884765625,-0.2362060546875,0.13818359375
1773257941335570400,8.1285703125,1.0148773193359375,-0.2381744384765625,0.1377410888671875
1773257941345582600,8.13858251953125,1.011688232421875,-0.2410430908203125,0.137542724609375
1773257941355594500,8.148594482421874,1.00567626953125,-0.2405853271484375,0.147186279296875
1773257941365606400,8.1586064453125,0.997955322265625,-0.237640380859375,0.16363525390625
1773257941375619300,8.168619384765625,0.991119384765625,-0.2302093505859375,0.1725616455078125
1773257941385631200,8.17863134765625,0.9905242919921875,-0.22210693359375,0.16815185546875
1773257941395643400,8.188643310546874,0.991455078125,-0.21185302734375,0.154052734375
1773257941405656300,8.19865625,0.9845428466796875,-0.2014007568359375,0.140472412109375
1773257941415668500,8.20866845703125,0.972625732421875,-0.1927642822265625,0.1296539306640625
1773257941425680400,8.218680419921874,0.97357177734375,-0.185638427734375,0.1366424560546875
1773257941435693600,8.228693603515625,0.977325439453125,-0.1779937744140625,0.1510772705078125
1773257941445705500,8.23870556640625,0.9740142822265625,-0.1622314453125,0.1477508544921875
1773257941455717400,8.24871728515625,0.9721527099609375,-0.1485443115234375,0.131378173828125
1773257941465730300,8.258730224609375,0.9687042236328125,-0.131256103515625,0.114837646484375
1773257941475742500,8.268742431640625,0.9779205322265625,-0.11956787109375,0.103057861328125
1773257941485754400,8.27875439453125,0.9763946533203125,-0.1121063232421875,0.091522216796875
1773257941495767300,8.288767333984374,0.9836273193359375,-0.1069488525390625,0.1006011962890625
1773257941505779500,8.298779541015625,0.994476318359375,-0.1095733642578125,0.109283447265625
1773257941515791400,8.308791259765625,0.9783172607421875,-0.108795166015625,0.1029205322265625
1773257941525804300,8.31880419921875,0.971405029296875,-0.10064697265625,0.1042633056640625
1773257941535816400,8.32881640625,0.9897613525390625,-0.1001739501953125,0.114715576171875
1773257941545828400,8.338828369140625,0.994232177734375,-0.100921630859375,0.107940673828125
1773257941555841500,8.348841552734376,0.990020751953125,-0.1016998291015625,0.0980682373046875
1773257941565853200,8.358853271484374,0.9922637939453125,-0.1033935546875,0.106781005859375
1773257941575865000,8.368864990234375,1.003631591796875,-0.10498046875,0.11370849609375
1773257941585877000,8.378876953125,1.0029449462890625,-0.1120147705078125,0.1134033203125
1773257941595890000,8.388889892578124,0.9966583251953125,-0.118408203125,0.118896484375
1773257941605902000,8.398902099609375,0.99951171875,-0.1189117431640625,0.127044677734375
1773257941615914000,8.4089140625,1.00927734375,-0.1199798583984375,0.1376495361328125
1773257941625927000,8.418927001953126,1.0175628662109375,-0.1205596923828125,0.1378936767578125
1773257941635939000,8.42893896484375,1.0229034423828125,-0.119476318359375,0.133941650390625
1773257941645951000,8.438950927734375,1.0164337158203125,-0.1149139404296875,0.1282806396484375
1773257941655964200,8.448964111328126,1.0277099609375,-0.1134490966796875,0.1277313232421875
1773257941665976000,8.45897607421875,1.03973388671875,-0.12005615234375,0.134063720703125
1773257941675988000,8.468988037109375,1.037750244140625,-0.1216278076171875,0.139373779296875
1773257941686001200,8.479001220703125,1.0267333984375,-0.1246795654296875,0.147369384765625
1773257941696013000,8.489012939453126,1.003143310546875,-0.12744140625,0.1531219482421875
1773257941706025200,8.499025146484374,0.977325439453125,-0.127960205078125,0.1543121337890625
1773257941716038000,8.509037841796875,0.9673309326171875,-0.1313934326171875,0.1537322998046875
1773257941726050000,8.519050048828126,0.9630889892578125,-0.136138916015625,0.1606292724609375
1773257941736062000,8.52906201171875,0.9563140869140625,-0.1292266845703125,0.164398193359375
1773257941746075000,8.539074951171875,0.9583587646484375,-0.1210174560546875,0.1584014892578125
1773257941756087000,8.549087158203125,0.9670867919921875,-0.112823486328125,0.14898681640625
1773257941766099000,8.559098876953126,0.9850616455078125,-0.105010986328125,0.139556884765625
1773257941776112000,8.569112060546875,0.9941558837890625,-0.094085693359375,0.13226318359375
1773257941786124000,8.5791240234375,0.977508544921875,-0.0791015625,0.128082275390625
1773257941796136200,8.58913623046875,0.9670562744140625,-0.07342529296875,0.1253814697265625
1773257941806149000,8.599149169921875,0.9681549072265625,-0.0670166015625,0.1310577392578125
1773257941816161000,8.6091611328125,0.983001708984375,-0.05181884765625,0.1249847412109375
1773257941826173200,8.619173095703125,0.996185302734375,-0.0411834716796875,0.10906982421875
1773257941836185000,8.62918505859375,1.005401611328125,-0.038482666015625,0.1013641357421875
1773257941846198000,8.639197998046875,1.0090484619140625,-0.0432586669921875,0.10345458984375
1773257941856210000,8.6492099609375,1.0118560791015625,-0.05303955078125,0.1118316650390625
1773257941866222000,8.65922216796875,1.0128936767578125,-0.0584869384765625,0.113922119140625
1773257941876235000,8.669235107421875,1.02154541015625,-0.059356689453125,0.109832763671875
1773257941886247000,8.679246826171875,1.037261962890625,-0.056060791015625,0.1046600341796875
1773257941896259000,8.689259033203125,1.034912109375,-0.05322265625,0.108642578125
1773257941906272000,8.69927197265625,1.016357421875,-0.05389404296875,0.117218017578125
1773257941916284200,8.7092841796875,1.00042724609375,-0.0653228759765625,0.12603759765625
1773257941926296000,8.719296142578125,0.9869537353515625,-0.0751495361328125,0.1353912353515625
1773257941936309000,8.72930908203125,0.9742584228515625,-0.0791015625,0.1394805908203125
1773257941946321000,8.73932080078125,0.9672698974609375,-0.079498291015625,0.1483306884765625
1773257941956332800,8.749332763671875,0.95111083984375,-0.076385498046875,0.158233642578125
1773257941966346000,8.759345947265626,0.9376983642578125,-0.071014404296875,0.1550445556640625
1773257941976358000,8.76935791015625,0.9349517822265625,-0.062164306640625,0.1456756591796875
1773257941986370000,8.7793701171875,0.936065673828125,-0.053070068359375,0.1410980224609375
1773257941996382000,8.7893818359375,0.9452056884765625,-0.0489654541015625,0.14068603515625
1773257942006395100,8.79939501953125,0.9374237060546875,-0.0481414794921875,0.14337158203125
1773257942016407000,8.809406982421875,0.9288177490234375,-0.05084228515625,0.147216796875
1773257942026419000,8.8194189453125,0.9376068115234375,-0.0478057861328125,0.144378662109375
1773257942036432100,8.82943212890625,0.9434967041015625,-0.037994384765625,0.13433837890625
1773257942046444000,8.839444091796874,0.9337921142578125,-0.0273590087890625,0.129180908203125
1773257942056456200,8.849456298828125,0.92095947265625,-0.021820068359375,0.134002685546875
1773257942066468900,8.85946875,0.9109039306640625,-0.0183563232421875,0.14349365234375
1773257942076481000,8.86948095703125,0.904693603515625,-0.0124053955078125,0.144317626953125
1773257942086493000,8.879492919921875,0.89935302734375,-0.0093231201171875,0.1411285400390625
1773257942096506000,8.889506103515625,0.9057464599609375,-0.0081634521484375,0.1470489501953125
1773257942106518000,8.89951806640625,0.919036865234375,-0.002471923828125,0.1555633544921875
1773257942116530000,8.909530029296874,0.9272613525390625,0.01141357421875,0.151397705078125
1773257942126543000,8.919543212890625,0.92840576171875,0.0227813720703125,0.1497955322265625
1773257942136555000,8.929554931640626,0.9238128662109375,0.0333404541015625,0.1561431884765625
1773257942146567200,8.939567138671874,0.9244384765625,0.041015625,0.162811279296875
1773257942156580000,8.949580078125,0.932952880859375,0.0462188720703125,0.1670989990234375
1773257942166592000,8.959592041015625,0.947174072265625,0.0460205078125,0.1673431396484375
1773257942176604200,8.969604248046876,0.9552001953125,0.049957275390625,0.16162109375
1773257942186616000,8.979615966796874,0.953277587890625,0.051605224609375,0.15679931640625
1773257942196629000,8.98962890625,0.9442901611328125,0.0491790771484375,0.16522216796875
1773257942206641000,8.999640869140626,0.9289398193359375,0.0474090576171875,0.175445556640625
1773257942216653000,9.009653076171874,0.92401123046875,0.04864501953125,0.1764984130859375
1773257942226666000,9.019666015625,0.9291839599609375,0.05682373046875,0.1709136962890625
1773257942236678100,9.02967822265625,0.935882568359375,0.06658935546875,0.163330078125
1773257942246690000,9.03968994140625,0.935211181640625,0.069305419921875,0.1580810546875
1773257942256703200,9.049703125,0.9256591796875,0.06939697265625,0.1461639404296875
1773257942266715100,9.059715087890625,0.91790771484375,0.07293701171875,0.13226318359375
1773257942276727000,9.06972705078125,0.913787841796875,0.075653076171875,0.118743896484375
1773257942286740000,9.079739990234375,0.9061431884765625,0.0692596435546875,0.116363525390625
1773257942296751900,9.089751953125,0.904327392578125,0.0565032958984375,0.1197509765625
1773257942306764000,9.099763916015625,0.91412353515625,0.0439605712890625,0.1168365478515625
1773257942316776000,9.10977587890625,0.9194183349609375,0.049957275390625,0.1033935546875
1773257942326789000,9.1197890625,0.9228973388671875,0.0522918701171875,0.096527099609375
1773257942336801000,9.129801025390625,0.922821044921875,0.0492706298828125,0.0889892578125
1773257942346813000,9.13981298828125,0.924591064453125,0.044189453125,0.0848236083984375
1773257942356826000,9.149826171875,0.930999755859375,0.0345611572265625,0.0902557373046875
1773257942366838000,9.159838134765625,0.944244384765625,0.0232391357421875,0.0914154052734375
1773257942376850200,9.16985009765625,0.9514312744140625,0.0140838623046875,0.087432861328125
1773257942386863000,9.179863037109374,0.952117919921875,0.0019683837890625,0.0921630859375
1773257942396875300,9.189875244140625,0.9522857666015625,-0.0106353759765625,0.1044158935546875
1773257942406887200,9.19988720703125,0.95147705078125,-0.0140228271484375,0.1163787841796875
1773257942416899800,9.20989990234375,0.953277587890625,-0.017730712890625,0.123382568359375
1773257942426912000,9.219912109375,0.9637908935546875,-0.02032470703125,0.125335693359375
1773257942436924000,9.229923828125,0.9713897705078125,-0.0305938720703125,0.1066131591796875
1773257942446936000,9.23993603515625,0.959686279296875,-0.029083251953125,0.10595703125
1773257942456949000,9.249948974609374,0.9321746826171875,-0.0318603515625,0.1027679443359375
1773257942466961000,9.2599609375,0.9122314453125,-0.0292816162109375,0.0901031494140625
1773257942476973000,9.26997314453125,0.9114837646484375,-0.0204620361328125,0.1136474609375
1773257942486986000,9.279986083984374,0.9540863037109375,-0.040802001953125,0.158782958984375
1773257942496998100,9.289998046875,1.0041961669921875,-0.0628662109375,0.158905029296875
1773257942507010000,9.300010009765625,1.008697509765625,-0.0560302734375,0.1307525634765625
1773257942517023000,9.31002294921875,0.9766082763671875,-0.0341033935546875,0.098388671875
1773257942527035000,9.320034912109374,0.976837158203125,-0.030181884765625,0.072723388671875
1773257942537046800,9.330046875,1.013519287109375,-0.0441131591796875,0.0613861083984375
1773257942547060000,9.34006005859375,1.0157928466796875,-0.0530242919921875,0.073883056640625
1773257942557072000,9.35007177734375,0.9913177490234375,-0.059234619140625,0.1071624755859375
1773257942567084800,9.360084716796875,0.988800048828125,-0.084716796875,0.142913818359375
1773257942577096700,9.3700966796875,1.005126953125,-0.0999755859375,0.159332275390625
1773257942587110000,9.38010986328125,1.0186614990234375,-0.0930023193359375,0.14984130859375
1773257942597121800,9.390121826171875,1.039459228515625,-0.08905029296875,0.1474151611328125
1773257942607133700,9.4001337890625,1.0609130859375,-0.0971527099609375,0.1493682861328125
1773257942617146600,9.410146728515626,1.06903076171875,-0.1250457763671875,0.14617919921875
1773257942627158500,9.420158447265624,1.0464935302734375,-0.1479339599609375,0.14324951171875
1773257942637170700,9.430170654296875,1.0315399169921875,-0.1644439697265625,0.16387939453125
1773257942647183600,9.44018359375,1.031494140625,-0.177032470703125,0.1810302734375
1773257942657195800,9.45019580078125,1.0309906005859375,-0.1866455078125,0.20086669921875
1773257942667207700,9.460207763671875,1.03369140625,-0.2026519775390625,0.1930084228515625
1773257942677220600,9.470220703125,1.0420684814453125,-0.1868438720703125,0.1465301513671875
1773257942687232800,9.480232666015626,1.054718017578125,-0.1433563232421875,0.1114044189453125
1773257942697244700,9.49024462890625,1.053131103515625,-0.1041259765625,0.0789947509765625
1773257942707256800,9.5002568359375,1.054443359375,-0.0788726806640625,0.0749664306640625
1773257942717269800,9.510269775390626,1.0604705810546875,-0.07086181640625,0.08380126953125
1773257942727282000,9.520281982421874,1.0580596923828125,-0.0486297607421875,0.100067138671875
1773257942737293800,9.5302939453125,1.0445098876953125,-0.0115509033203125,0.110595703125
1773257942747306500,9.540306396484375,1.0237884521484375,0.0341949462890625,0.1068572998046875
1773257942757318700,9.550318603515626,1.0105438232421875,0.071502685546875,0.0937652587890625
1773257942767330600,9.56033056640625,1.0000152587890625,0.08843994140625,0.084869384765625
1773257942777343700,9.57034375,0.9836578369140625,0.1062469482421875,0.0987091064453125
1773257942787355600,9.580355712890626,0.9742431640625,0.1212615966796875,0.0967254638671875
1773257942797367600,9.590367431640624,0.9501190185546875,0.1400299072265625,0.0720367431640625
1773257942807380700,9.600380615234375,0.9169464111328125,0.1688995361328125,0.0591888427734375
1773257942817392600,9.610392578125,0.914764404296875,0.178558349609375,0.052978515625
1773257942827404800,9.62040478515625,0.9237518310546875,0.189361572265625,0.0433349609375
1773257942837416700,9.630416748046875,0.9181671142578125,0.184600830078125,0.0255279541015625
1773257942847429600,9.6404296875,0.91021728515625,0.177886962890625,0.0154876708984375
1773257942857441500,9.650441650390626,0.90460205078125,0.1619873046875,0.0042724609375
1773257942867453700,9.66045361328125,0.919464111328125,0.1325531005859375,0.007415771484375
1773257942877466600,9.670466552734375,0.962432861328125,0.1092681884765625,0.0078887939453125
1773257942887478500,9.680478515625,0.9996795654296875,0.096099853515625,0.0027923583984375
1773257942897490700,9.69049072265625,1.0169525146484375,0.090484619140625,0.025604248046875
1773257942907503600,9.700503662109375,1.031005859375,0.0823211669921875,0.05804443359375
1773257942917515800,9.710515869140625,1.0410003662109375,0.07403564453125,0.08209228515625
1773257942927527700,9.720527587890626,1.057586669921875,0.08612060546875,0.0944976806640625
1773257942937539600,9.73053955078125,1.0834197998046875,0.1029510498046875,0.1026458740234375
1773257942947552800,9.740552734375,1.0839385986328125,0.1233978271484375,0.0967864990234375
1773257942957564700,9.750564697265625,1.0556182861328125,0.1439971923828125,0.0851898193359375
1773257942967576800,9.760576904296874,1.0211181640625,0.151611328125,0.0838165283203125
1773257942977589500,9.770589599609375,1.0131988525390625,0.1370697021484375,0.084808349609375
1773257942987601700,9.7806015625,1.0168609619140625,0.1334686279296875,0.0893402099609375
1773257942997613600,9.790613525390626,1.00433349609375,0.1463775634765625,0.0932159423828125
1773257943007626800,9.800626708984375,0.974822998046875,0.13861083984375,0.0816497802734375
1773257943017638700,9.810638671875,0.9491424560546875,0.1269378662109375,0.0818328857421875
1773257943027650600,9.820650634765625,0.9410552978515625,0.1197052001953125,0.0790557861328125
1773257943037663700,9.830663818359374,0.94683837890625,0.103485107421875,0.0829925537109375
1773257943047675600,9.840675537109375,1.0036773681640625,0.039093017578125,0.09906005859375
1773257943057687800,9.850687744140625,1.038787841796875,-0.0034332275390625,0.11676025390625
1773257943067699700,9.86069970703125,1.0074005126953125,0.031646728515625,0.1396484375
1773257943077713000,9.870712890625,0.971710205078125,0.093780517578125,0.1053314208984375
1773257943087724800,9.880724853515625,0.929534912109375,0.097259521484375,0.0402069091796875
1773257943097736700,9.89073681640625,0.8961639404296875,0.1107940673828125,0.0289459228515625
1773257943107749600,9.90074951171875,0.873779296875,0.078826904296875,0.0208892822265625
1773257943117761500,9.910761474609375,0.9161376953125,-0.0321807861328125,0.015716552734375
1773257943127773700,9.920773681640625,0.9897003173828125,-0.0614166259765625,0.04052734375
1773257943137786600,9.93078662109375,1.0262603759765625,-0.013763427734375,0.0383758544921875
1773257943147798800,9.940798828125,1.011810302734375,0.074188232421875,0.0080718994140625
1773257943157810700,9.950810791015625,0.940704345703125,0.107025146484375,-0.060943603515625
1773257943167822600,9.960822509765626,0.83148193359375,0.11834716796875,-0.096954345703125
1773257943177835800,9.970835693359374,0.789306640625,0.111602783203125,-0.0815887451171875
1773257943187847700,9.98084765625,0.830078125,0.1153411865234375,-0.020233154296875
1773257943197859800,9.99085986328125,0.9191436767578125,0.1282196044921875,0.0261688232421875
1773257943207872500,10.00087255859375,1.0149383544921875,0.132720947265625,0.0391998291015625
1773257943217884700,10.010884765625,1.078369140625,0.188507080078125,-0.001678466796875
1773257943227896600,10.020896484375,1.0479888916015625,0.223541259765625,0.0482330322265625
1773257943237909800,10.03090966796875,1.0231781005859375,0.252197265625,0.136138916015625
1773257943247921700,10.040921630859375,1.029571533203125,0.3195953369140625,0.1431121826171875
1773257943257933600,10.05093359375,1.018707275390625,0.2774810791015625,0.0761260986328125
1773257943267946800,10.06094677734375,0.9876251220703125,0.207977294921875,0.08013916015625
1773257943277958700,10.070958740234374,0.99688720703125,0.1240692138671875,0.1271209716796875
1773257943287970800,10.080970703125,0.993133544921875,0.1138763427734375,0.1403350830078125
1773257943297982700,10.090982666015625,0.97613525390625,0.1217498779296875,0.109222412109375
1773257943307996000,10.100995849609374,0.9444732666015625,0.103515625,0.04302978515625
1773257943318007800,10.1110078125,0.9095611572265625,0.1114044189453125,-0.0876922607421875
1773257943328019700,10.121019775390625,0.9275360107421875,0.134918212890625,-0.214263916015625
1773257943338032600,10.13103271484375,0.939300537109375,0.1488189697265625,-0.270263671875
1773257943348044500,10.14104443359375,0.9622802734375,0.1246185302734375,-0.296417236328125
1773257943358056700,10.151056640625,0.974578857421875,0.155609130859375,-0.2769775390625
1773257943368069600,10.161069580078125,0.9660797119140625,0.1792144775390625,-0.2057647705078125
1773257943378081800,10.171081787109374,0.9720611572265625,0.2027587890625,-0.1007843017578125
1773257943388093700,10.18109375,0.983245849609375,0.2538604736328125,0.0225372314453125
1773257943398105600,10.191105712890625,0.947784423828125,0.248138427734375,0.1580963134765625
1773257943408118800,10.201118896484376,0.9057464599609375,0.1803436279296875,0.2670135498046875
1773257943418130700,10.211130615234374,0.8893890380859375,0.106292724609375,0.322235107421875
1773257943428142800,10.221142822265625,0.9184722900390625,0.0341339111328125,0.3455047607421875
1773257943438155800,10.23115576171875,0.9617767333984375,0.0422821044921875,0.3853302001953125
1773257943448167700,10.241167724609374,1.0103912353515625,0.08026123046875,0.4336700439453125
1773257943458179800,10.251179931640625,1.044647216796875,0.0439300537109375,0.464263916015625
1773257943468192500,10.261192626953125,0.9840850830078125,0.01611328125,0.4885101318359375
1773257943478204700,10.27120458984375,0.8711090087890625,0.0020904541015625,0.5031585693359375
1773257943488216600,10.281216552734374,0.76104736328125,-0.029632568359375,0.5103607177734375
1773257943498229800,10.291229736328125,0.6922454833984375,-0.0569610595703125,0.51373291015625
1773257943508241700,10.30124169921875,0.6692657470703125,-0.092742919921875,0.5106658935546875
1773257943518253800,10.31125390625,0.6756591796875,-0.08135986328125,0.529632568359375
1773257943528265700,10.321265625,0.71759033203125,-0.04986572265625,0.5659637451171875
1773257943538278700,10.331278564453125,0.7877960205078125,-0.0510711669921875,0.6350555419921875
1773257943548290800,10.341290771484376,0.8160247802734375,-0.0584564208984375,0.71142578125
1773257943558302700,10.351302734375,0.7598114013671875,-0.059814453125,0.7544708251953125
1773257943568315400,10.3613154296875,0.7070770263671875,-0.037994384765625,0.7813873291015625
1773257943578327300,10.371327392578126,0.7237701416015625,-0.0130157470703125,0.7872467041015625
1773257943588339200,10.381339111328124,0.8488616943359375,0.0300140380859375,0.783935546875
1773257943598352100,10.39135205078125,1.0339508056640625,0.088165283203125,0.8320159912109375
1773257943608364000,10.401364013671875,1.09942626953125,0.1584014892578125,0.7622528076171875
1773257943618376200,10.411376220703126,1.102294921875,0.2239532470703125,0.6781768798828125
1773257943628388000,10.42138818359375,1.0662689208984375,0.2342987060546875,0.5558929443359375
1773257943638401000,10.431401123046875,1.01776123046875,0.3067626953125,0.473724365234375
1773257943648413200,10.4414130859375,0.928802490234375,0.33428955078125,0.46875
1773257943658425000,10.451425048828124,0.9936370849609375,0.3760223388671875,0.539215087890625
1773257943668438300,10.461438232421875,1.1490020751953125,0.3802947998046875,0.5885009765625
1773257943678450200,10.4714501953125,1.304962158203125,0.3248748779296875,0.5239410400390625
1773257943688462300,10.48146240234375,1.474029541015625,0.253387451171875,0.3489532470703125
1773257943698475000,10.49147509765625,1.378387451171875,0.1709442138671875,0.2285614013671875
1773257943708487000,10.50148681640625,1.106201171875,0.051055908203125,0.2787933349609375
1773257943718499000,10.5114990234375,1.0963592529296875,-0.0965423583984375,0.2447357177734375
1773257943728511000,10.521510986328124,1.30023193359375,-0.1397552490234375,0.2471771240234375
1773257943738524200,10.531524169921875,1.3059844970703125,-0.187103271484375,0.33502197265625
1773257943748536000,10.5415361328125,-1.267822265625,-0.0481719970703125,0.5952911376953125
1773257943758548200,10.55154833984375,0.0196075439453125,-0.3523406982421875,0.7822418212890625
1773257943768561200,10.56156103515625,1.2987518310546875,-0.03082275390625,0.86358642578125
1773257943778573000,10.571572998046875,0.672943115234375,0.0216064453125,0.644866943359375
1773257943788585200,10.581585205078126,1.1240386962890625,0.1692657470703125,0.483184814453125
1773257943798598100,10.59159814453125,0.9736175537109375,0.4872589111328125,0.46826171875
1773257943808610300,10.6016103515625,0.7640228271484375,0.0290069580078125,0.4042816162109375
1773257943818622200,10.611622314453125,0.95880126953125,-0.1231689453125,0.1090240478515625
1773257943828634400,10.62163427734375,0.9063720703125,-0.2166595458984375,-0.0008392333984375
1773257943838647000,10.63164697265625,0.9375152587890625,-0.176177978515625,0.1264190673828125
1773257943848659000,10.641658935546875,1.0194549560546875,-0.085174560546875,0.1009674072265625
1773257943858671000,10.651671142578126,1.0712432861328125,-0.0379486083984375,-0.009307861328125
1773257943868684000,10.66168408203125,1.0746612548828125,-0.0368804931640625,-0.04766845703125
1773257943878696200,10.6716962890625,1.0417633056640625,-0.0956878662109375,0.024383544921875
1773257943888708000,10.6817080078125,1.015777587890625,-0.217987060546875,0.078582763671875
1773257943898721300,10.69172119140625,0.9721221923828125,-0.2728271484375,0.1361541748046875
1773257943908733200,10.701733154296875,0.9735565185546875,-0.2380828857421875,0.197021484375
1773257943918745000,10.7117451171875,0.976043701171875,-0.175750732421875,0.2021026611328125
1773257943928757200,10.72175732421875,1.0101318359375,-0.1560516357421875,0.1744232177734375
1773257943938770200,10.731770263671875,1.0521240234375,-0.136810302734375,0.1741485595703125
1773257943948782000,10.741781982421875,1.0497283935546875,-0.0589752197265625,0.1735687255859375
1773257943958794200,10.751794189453125,1.0518341064453125,0.0429229736328125,0.1478118896484375
1773257943968807200,10.76180712890625,1.0581817626953125,0.084869384765625,0.15081787109375
1773257943978819000,10.771819091796875,1.0684814453125,0.0925445556640625,0.163787841796875
1773257943988831000,10.7818310546875,1.086578369140625,0.096435546875,0.134490966796875
1773257943998844200,10.79184423828125,1.102813720703125,0.1108245849609375,0.1111602783203125
1773257944008856000,10.80185595703125,1.123626708984375,0.146209716796875,0.119781494140625
1773257944018868200,10.8118681640625,1.118621826171875,0.15142822265625,0.11810302734375
1773257944028881200,10.821881103515626,1.11273193359375,0.1041259765625,0.1374359130859375
1773257944038893300,10.831893310546874,1.0929107666015625,0.002349853515625,0.1773834228515625
1773257944048905200,10.8419052734375,1.0348663330078125,-0.0419158935546875,0.19903564453125
1773257944058917000,10.851917236328125,0.9958343505859375,-0.0017852783203125,0.2276611328125
1773257944068930000,10.861929931640624,0.98333740234375,-0.0103302001953125,0.2729644775390625
1773257944078942000,10.87194189453125,0.9698028564453125,-0.0539398193359375,0.28680419921875
1773257944088954000,10.8819541015625,0.828857421875,-0.2841796875,0.3807373046875
1773257944098967000,10.891967041015626,0.764434814453125,-0.5350494384765625,0.3185272216796875
1773257944108979200,10.901979248046874,0.877105712890625,-0.5028533935546875,0.41497802734375
1773257944118991000,10.9119912109375,0.75372314453125,-0.5053253173828125,0.6280975341796875
1773257944129004300,10.92200439453125,0.7120819091796875,-0.4613189697265625,0.567596435546875
1773257944139016200,10.93201611328125,0.738525390625,-0.296295166015625,0.5007171630859375
1773257944149028000,10.942028076171875,0.77557373046875,-0.320220947265625,0.3943634033203125
1773257944159041300,10.952041259765625,0.8592071533203125,-0.2958221435546875,0.459014892578125
1773257944169053200,10.96205322265625,0.92901611328125,-0.23388671875,0.524139404296875
1773257944179065300,10.9720654296875,1.03363037109375,-0.1628875732421875,0.432373046875
1773257944189077200,10.9820771484375,1.0383148193359375,-0.0972442626953125,0.33795166015625
1773257944199090200,10.992090087890626,0.9818572998046875,-0.1417236328125,0.2515411376953125
1773257944209102000,11.00210205078125,0.97052001953125,-0.23052978515625,0.2426300048828125
1773257944219114000,11.012114013671875,0.9509124755859375,-0.21234130859375,0.2966156005859375
1773257944229127200,11.022127197265625,0.9617462158203125,-0.192169189453125,0.3245849609375
1773257944239139000,11.03213916015625,0.9468841552734375,-0.1774749755859375,0.333099365234375
1773257944249151200,11.042151123046875,0.909881591796875,-0.1488037109375,0.3509063720703125
1773257944259164200,11.0521640625,0.7471771240234375,-0.2707977294921875,0.39251708984375
1773257944269176300,11.06217626953125,0.7825164794921875,-0.359222412109375,0.36956787109375
1773257944279188200,11.072188232421874,1.0599212646484375,-0.152679443359375,0.2777252197265625
1773257944289201200,11.082201171875,1.0105743408203125,0.0285797119140625,0.29156494140625
1773257944299213000,11.092213134765625,1.0020904541015625,0.1424102783203125,0.1548004150390625
1773257944309225000,11.102224853515626,1.229461669921875,0.0334625244140625,0.01324462890625
1773257944319238100,11.112238037109375,1.0458221435546875,-0.135498046875,0.1090545654296875
1773257944329250000,11.12225,0.8102569580078125,-0.45318603515625,0.37335205078125
1773257944339262200,11.13226220703125,0.68017578125,-0.6144866943359375,0.4755706787109375
1773257944349274000,11.142274169921874,0.5966949462890625,-0.675048828125,0.86602783203125
1773257944359287300,11.152287353515625,0.5575408935546875,-0.842041015625,0.874786376953125
1773257944369299200,11.16229931640625,0.4097747802734375,-0.63336181640625,0.784332275390625
1773257944379311000,11.17231103515625,0.199249267578125,-0.64801025390625,0.8265380859375
1773257944389324300,11.18232421875,0.24969482421875,-0.6182403564453125,0.549591064453125
1773257944399336200,11.192336181640625,0.3325347900390625,-0.5662078857421875,0.7274169921875
1773257944409348400,11.202348388671876,0.531219482421875,-0.4900665283203125,0.677581787109375
1773257944419361000,11.212361083984375,0.726104736328125,-0.3791656494140625,0.534149169921875
1773257944429373200,11.222373291015625,0.84326171875,-0.294342041015625,0.614349365234375
1773257944439385000,11.232385009765625,0.94091796875,-0.3470001220703125,0.557342529296875
1773257944449398000,11.24239794921875,0.9938201904296875,-0.4689483642578125,0.4822540283203125
1773257944459410200,11.25241015625,0.9317474365234375,-0.5140380859375,0.51812744140625
1773257944469422000,11.262422119140625,0.9864501953125,-0.519012451171875,0.450897216796875
1773257944479435300,11.272435302734374,0.9134063720703125,-0.4739990234375,0.322540283203125
1773257944489447200,11.282447265625,0.7736053466796875,-0.526641845703125,0.346435546875
1773257944499459300,11.292459228515625,0.6149444580078125,-0.5567474365234375,0.4405364990234375
1773257944509472300,11.30247216796875,0.460693359375,-0.6300048828125,0.4140472412109375
1773257944519484200,11.312484130859374,0.3749237060546875,-0.6121978759765625,0.419647216796875
1773257944529496300,11.322496337890625,0.3529815673828125,-0.5505828857421875,0.435577392578125
1773257944539508200,11.33250830078125,0.4120635986328125,-0.5054931640625,0.467742919921875
1773257944549521200,11.342521240234374,0.4690399169921875,-0.46484375,0.43951416015625
1773257944559533000,11.352532958984375,0.50299072265625,-0.444732666015625,0.39117431640625
1773257944569545500,11.36254541015625,0.5210418701171875,-0.480804443359375,0.3703460693359375
1773257944579558400,11.372558349609376,0.5899200439453125,-0.496429443359375,0.3200836181640625
1773257944589570300,11.3825703125,0.647796630859375,-0.46636962890625,0.2950286865234375
1773257944599582500,11.39258251953125,0.704345703125,-0.398193359375,0.3096160888671875
1773257944609595400,11.402595458984376,0.748199462890625,-0.323638916015625,0.3063812255859375
1773257944619607600,11.412607666015624,0.7397613525390625,-0.23846435546875,0.2881011962890625
1773257944629619500,11.422619384765625,0.7574462890625,-0.239166259765625,0.264862060546875
1773257944639632400,11.43263232421875,0.7494659423828125,-0.3123016357421875,0.2220916748046875
1773257944649644300,11.442644287109376,0.7166290283203125,-0.393402099609375,0.193115234375
1773257944659656200,11.45265625,0.736297607421875,-0.467132568359375,0.1439666748046875
1773257944669669400,11.46266943359375,0.83026123046875,-0.4488677978515625,0.1837005615234375
1773257944679681300,11.472681396484376,0.83453369140625,-0.4114837646484375,0.2694549560546875
1773257944689693400,11.482693359375,0.8523712158203125,-0.4266815185546875,0.4686126708984375
1773257944699706400,11.492706298828125,0.9234771728515625,-0.4297027587890625,0.5511627197265625
1773257944709718500,11.502718505859375,0.9656219482421875,-0.4515228271484375,0.43853759765625
1773257944719730400,11.51273046875,0.9208526611328125,-0.536834716796875,0.37457275390625
1773257944729743400,11.522743408203125,0.878875732421875,-0.5539703369140625,0.388946533203125
1773257944739755500,11.532755615234375,0.9301910400390625,-0.4920654296875,0.41790771484375
1773257944749767400,11.542767333984376,1.0227813720703125,-0.450653076171875,0.360870361328125
1773257944759780400,11.5527802734375,1.092498779296875,-0.4387054443359375,0.305511474609375
1773257944769792300,11.562792236328125,1.15496826171875,-0.4036407470703125,0.2684173583984375
1773257944779804400,11.572804443359376,1.206756591796875,-0.3408660888671875,0.313629150390625
1773257944789817300,11.5828173828125,1.1220245361328125,-0.291534423828125,0.2171630859375
1773257944799829500,11.59282958984375,1.096466064453125,-0.203857421875,0.1143798828125
1773257944809841400,11.60284130859375,1.11553955078125,-0.14312744140625,-0.0244903564453125
1773257944819854600,11.6128544921875,1.126251220703125,-0.1516265869140625,-0.0366973876953125
1773257944829866500,11.622866455078125,0.9940948486328125,-0.1344146728515625,-0.0707244873046875
1773257944839878400,11.63287841796875,0.9634246826171875,-0.0692138671875,-0.0750732421875
1773257944849891300,11.642891357421876,1.222381591796875,-0.040008544921875,0.0524444580078125
1773257944859903200,11.6529033203125,1.0731201171875,0.1329193115234375,0.0355072021484375
1773257944869915400,11.662915283203125,0.936767578125,0.2653350830078125,-0.03607177734375
1773257944879928300,11.67292822265625,0.9162445068359375,0.1171417236328125,-0.0694732666015625
1773257944889940500,11.6829404296875,0.994384765625,-0.0756683349609375,-0.2783050537109375
1773257944899952400,11.692952392578125,1.0341033935546875,0.178497314453125,-0.206085205078125
1773257944909965600,11.702965576171875,1.0804290771484375,0.1873931884765625,-0.23846435546875
1773257944919977500,11.7129775390625,0.9212646484375,0.333953857421875,-0.1848602294921875
1773257944929989400,11.7229892578125,0.943878173828125,0.4337005615234375,-0.2135009765625
1773257944940002600,11.73300244140625,1.01092529296875,0.4896087646484375,-0.1828765869140625
1773257944950014500,11.743014404296876,0.9998016357421875,0.5162200927734375,-0.232879638671875
1773257944960026600,11.753026611328124,0.9536895751953125,0.4560394287109375,-0.3326873779296875
1773257944970039300,11.763039306640625,0.945159912109375,0.3563232421875,-0.506103515625
1773257944980051500,11.773051513671875,1.0662994384765625,0.23150634765625,-0.6592864990234375
1773257944990063400,11.7830634765625,1.3198699951171875,0.0627593994140625,-0.6788787841796875
1773257945000076300,11.793076171875,1.4788970947265625,-0.0527496337890625,-0.5259552001953125
1773257945010088400,11.80308837890625,1.5501251220703125,-0.1705474853515625,-0.4450531005859375
1773257945020100400,11.813100341796876,1.5467681884765625,-0.2609100341796875,-0.509674072265625
1773257945030113500,11.823113525390625,1.482208251953125,-0.3271636962890625,-0.551422119140625
1773257945040125400,11.83312548828125,1.4607391357421875,-0.4686279296875,-0.5486602783203125
1773257945050137300,11.843137451171875,1.4739990234375,-0.6722259521484375,-0.546478271484375
1773257945060150300,11.853150390625,1.47698974609375,-0.8809356689453125,-0.5449066162109375
1773257945070162200,11.863162109375,1.4647369384765625,-1.089691162109375,-0.53582763671875
1773257945080174300,11.87317431640625,1.48468017578125,-1.3107147216796875,-0.6373748779296875
1773257945090187300,11.883187255859376,1.440673828125,-1.392547607421875,-0.6551971435546875
1773257945100199400,11.893199462890625,1.4092254638671875,-1.3892364501953125,-0.697601318359375
1773257945110211300,11.90321142578125,1.3325653076171875,-1.356048583984375,-0.7064056396484375
1773257945120224500,11.913224609375,1.23577880859375,-1.32403564453125,-0.725433349609375
1773257945130236400,11.923236328125,1.12615966796875,-1.2933807373046875,-0.7716217041015625
1773257945140248300,11.933248291015625,1.0121002197265625,-1.2088470458984375,-0.8571319580078125
1773257945150261500,11.943261474609375,0.8969268798828125,-1.0936279296875,-0.9347991943359375
1773257945160273400,11.9532734375,0.7615966796875,-0.971649169921875,-1.06866455078125
1773257945170285600,11.96328564453125,0.6430816650390625,-0.833953857421875,-1.0959014892578125
1773257945180298200,11.97329833984375,0.613006591796875,-0.738250732421875,-1.0257110595703125
1773257945190310400,11.983310302734376,0.5375823974609375,-0.642578125,-0.9908447265625
1773257945200322300,11.993322265625,0.1653900146484375,-0.6653900146484375,-1.2081451416015625
1773257945210335500,12.00333544921875,-0.00640869140625,-0.5652923583984375,-1.2728729248046875
1773257945220347400,12.013347412109376,0.2455596923828125,-0.378814697265625,-1.0334320068359375
1773257945230360600,12.023360595703124,0.46240234375,-0.1569671630859375,-0.9061126708984375
1773257945240372500,12.03337255859375,0.508026123046875,0.2198638916015625,-0.9888458251953125
1773257945250384400,12.04338427734375,0.5117034912109375,0.4101104736328125,-1.0749664306640625
1773257945260397300,12.053397216796874,0.353271484375,0.34600830078125,-1.2837677001953125
1773257945270409500,12.063409423828125,0.4679107666015625,0.470703125,-1.35601806640625
1773257945280421400,12.07342138671875,0.97064208984375,0.68829345703125,-1.1298675537109375
1773257945290434300,12.083434326171876,0.85552978515625,0.5068359375,-1.1001434326171875
1773257945300446500,12.093446533203124,0.60162353515625,0.5101776123046875,-1.0679168701171875
1773257945310458400,12.103458251953125,0.50238037109375,0.50762939453125,-0.9899444580078125
1773257945320471300,12.11347119140625,0.4410552978515625,0.470703125,-0.8861846923828125
1773257945330483500,12.1234833984375,0.4871978759765625,0.38232421875,-0.7651214599609375
1773257945340495400,12.133495361328125,0.4732666015625,0.2451324462890625,-0.64013671875
1773257945350508500,12.143508544921875,0.498046875,0.0935821533203125,-0.559814453125
1773257945360520400,12.1535205078125,0.8427581787109375,0.0949249267578125,-0.4878387451171875
1773257945370532600,12.16353271484375,1.23193359375,0.0761871337890625,-0.508392333984375
1773257945380545300,12.173545166015625,1.3533782958984375,-0.022247314453125,-0.496337890625
1773257945390557200,12.18355712890625,1.2401123046875,-0.11761474609375,-0.4444580078125
1773257945400570400,12.1935703125,1.016632080078125,-0.2507781982421875,-0.465545654296875
1773257945410582300,12.203582275390625,0.711578369140625,-0.2386627197265625,-0.48260498046875
1773257945420594400,12.213594482421875,1.0482025146484375,-0.2261810302734375,-0.4249114990234375
1773257945430607400,12.223607421875,0.85040283203125,-0.192291259765625,-0.3893890380859375
1773257945440619500,12.23361962890625,0.6458892822265625,-0.10498046875,-0.3619384765625
1773257945450631400,12.24363134765625,0.6627655029296875,0.0001678466796875,-0.3082122802734375
1773257945460644600,12.25364453125,0.70611572265625,0.0595550537109375,-0.29168701171875
1773257945470656500,12.263656494140625,0.696044921875,0.1015472412109375,-0.30865478515625
1773257945480668400,12.27366845703125,0.6859588623046875,0.136077880859375,-0.358551025390625
1773257945490681300,12.283681396484376,0.8217620849609375,0.1390838623046875,-0.4648590087890625
1773257945500693200,12.293693359375,1.0091400146484375,0.0330810546875,-0.604827880859375
1773257945510705400,12.303705322265625,0.98370361328125,-0.1591033935546875,-0.730316162109375
1773257945520718300,12.31371826171875,0.8131256103515625,-0.2634124755859375,-0.8175811767578125
1773257945530730500,12.32373046875,0.79205322265625,-0.18505859375,-0.8517608642578125
1773257945540743400,12.333743408203125,0.909942626953125,-0.098297119140625,-0.7673797607421875
1773257945550755600,12.343755615234375,0.9962310791015625,-0.0443878173828125,-0.7105865478515625
1773257945560767500,12.353767578125,0.92437744140625,0.071990966796875,-0.6669158935546875
1773257945570780700,12.36378076171875,0.748016357421875,0.18646240234375,-0.6293487548828125
1773257945580792600,12.37379248046875,0.80419921875,0.2285919189453125,-0.5710296630859375
1773257945590804500,12.383804443359375,0.9217681884765625,0.244110107421875,-0.528533935546875
1773257945600817700,12.393817626953124,0.916961669921875,0.263336181640625,-0.5144805908203125
1773257945610829600,12.40382958984375,0.9096527099609375,0.2332763671875,-0.481842041015625
1773257945620841700,12.413841796875,0.63775634765625,0.2302398681640625,-0.4444732666015625
1773257945630854700,12.423854736328124,0.58355712890625,0.30902099609375,-0.4074554443359375
1773257945640866800,12.43386669921875,0.64776611328125,0.3143310546875,-0.352874755859375
1773257945650878700,12.443878662109375,0.5570831298828125,0.2869720458984375,-0.338958740234375
1773257945660891600,12.4538916015625,0.4446563720703125,0.2687835693359375,-0.3513946533203125
1773257945670903800,12.46390380859375,0.4603424072265625,0.2979888916015625,-0.3600921630859375
1773257945680916500,12.47391650390625,0.523223876953125,0.3065032958984375,-0.3526763916015625
1773257945690928600,12.4839287109375,0.5162506103515625,0.2313385009765625,-0.3716278076171875
1773257945700940500,12.4939404296875,0.41827392578125,0.101776123046875,-0.4321441650390625
1773257945710953700,12.50395361328125,0.5894317626953125,-0.039306640625,-0.4626007080078125
1773257945720965600,12.513965576171875,0.6957244873046875,-0.1876373291015625,-0.5220489501953125
1773257945730977500,12.5239775390625,0.7121124267578125,-0.3134765625,-0.5976409912109375
1773257945740990700,12.53399072265625,0.6822509765625,-0.39947509765625,-0.6576385498046875
1773257945751002600,12.544002685546875,0.6823883056640625,-0.4272308349609375,-0.6927032470703125
1773257945761014800,12.554014892578126,0.6210784912109375,-0.393096923828125,-0.6975860595703125
1773257945771027500,12.56402734375,0.505218505859375,-0.3189849853515625,-0.721771240234375
1773257945781039600,12.57403955078125,0.555908203125,-0.1949005126953125,-0.7062225341796875
1773257945791052500,12.584052490234376,0.6187744140625,-0.0913848876953125,-0.7559051513671875
1773257945801064700,12.594064697265624,0.5500946044921875,-0.022552490234375,-0.7764739990234375
1773257945811076600,12.60407666015625,0.6501007080078125,0.0335845947265625,-0.8460693359375
1773257945821089800,12.61408984375,0.7577362060546875,0.10589599609375,-0.852783203125
1773257945831101700,12.624101806640626,0.80767822265625,0.11767578125,-0.896881103515625
1773257945841113600,12.634113525390624,0.8148956298828125,0.0763092041015625,-0.9890289306640625
1773257945851126800,12.644126708984375,0.7884674072265625,0.0295867919921875,-1.0172882080078125
1773257945861138700,12.654138671875,0.8710479736328125,-0.070892333984375,-1.066375732421875
1773257945871150800,12.66415087890625,0.9864654541015625,-0.20843505859375,-1.114044189453125
1773257945881163500,12.67416357421875,0.9034881591796875,-0.2432098388671875,-1.1021270751953125
1773257945891175700,12.68417578125,0.8161163330078125,-0.2098541259765625,-1.0931396484375
1773257945901187600,12.6941875,0.78912353515625,-0.214202880859375,-1.0812530517578125
1773257945911200800,12.70420068359375,0.901947021484375,-0.208465576171875,-1.0405120849609375
1773257945921212700,12.714212646484375,0.9398345947265625,-0.2342071533203125,-1.01422119140625
1773257945931224600,12.724224609375,0.833953857421875,-0.2116546630859375,-0.974945068359375
1773257945941237800,12.73423779296875,0.72027587890625,-0.15252685546875,-0.960205078125
1773257945951249700,12.744249755859375,0.615936279296875,-0.077056884765625,-0.9173583984375
1773257945961261800,12.75426171875,0.570526123046875,-0.0215301513671875,-0.8505859375
1773257945971274500,12.7642744140625,0.6069183349609375,-0.0016937255859375,-0.7635955810546875
1773257945981286700,12.77428662109375,0.5704498291015625,0.0084381103515625,-0.6759185791015625
1773257945991299600,12.784299560546875,0.59881591796875,-0.0020599365234375,-0.6087799072265625
1773257946001311500,12.7943115234375,0.7107391357421875,-0.061767578125,-0.5938873291015625
1773257946011323600,12.80432373046875,0.6673583984375,-0.05206298828125,-0.538238525390625
1773257946021336600,12.814336669921875,0.5773162841796875,-0.0605316162109375,-0.49798583984375
1773257946031348700,12.8243486328125,0.5516204833984375,-0.072723388671875,-0.4655303955078125
1773257946041360600,12.834360595703124,0.5794830322265625,-0.0499725341796875,-0.4432220458984375
1773257946051373800,12.844373779296875,0.5751495361328125,0.0069122314453125,-0.4076690673828125
1773257946061385700,12.8543857421875,0.5685577392578125,0.0398712158203125,-0.408355712890625
1773257946071397600,12.864397705078124,0.5217132568359375,0.0463409423828125,-0.4255218505859375
1773257946081410600,12.87441064453125,0.4997100830078125,0.024566650390625,-0.461456298828125
1773257946091422500,12.88442236328125,0.4954376220703125,0.012786865234375,-0.5151519775390625
1773257946101434600,12.8944345703125,0.468963623046875,-0.0063934326171875,-0.5664215087890625
1773257946111447600,12.904447509765625,0.4928436279296875,-0.053253173828125,-0.5952606201171875
1773257946121459700,12.914459716796875,0.5786285400390625,-0.096221923828125,-0.6063995361328125
1773257946131471600,12.9244716796875,0.671295166015625,-0.1785736083984375,-0.672882080078125
1773257946141484800,12.93448486328125,0.74755859375,-0.3047027587890625,-0.7541656494140625
1773257946151496700,12.94449658203125,0.757720947265625,-0.3928680419921875,-0.8211822509765625
1773257946161509600,12.954509521484376,0.7633514404296875,-0.4298248291015625,-0.8863067626953125
1773257946171521500,12.964521484375,0.69952392578125,-0.42974853515625,-0.9394683837890625
1773257946181533700,12.97453369140625,0.6264495849609375,-0.3744964599609375,-0.9499969482421875
1773257946191546600,12.984546630859375,0.650177001953125,-0.269805908203125,-0.9344635009765625
1773257946201558500,12.99455859375,0.685302734375,-0.1556396484375,-0.89910888671875
1773257946211570700,13.00457080078125,0.680023193359375,-0.0571441650390625,-0.881988525390625
1773257946221583600,13.01458349609375,0.62353515625,-0.0245361328125,-0.8582611083984375
