time,seconds_elapsed,z,y,x
1773257933265639400,0.058639404296875,-0.049246110022068024,-0.3738657236099243,-0.20698247849941254
1773257933275651300,0.0686513671875,0.010723751038312912,-0.6486155390739441,-0.03491484001278877
1773257933285663500,0.07866357421875,0.04662982001900673,-0.8368173837661743,0.14275822043418884
1773257933295676400,0.088676513671875,0.06351319700479507,-0.8640602231025696,0.27690961956977844
1773257933305688600,0.0986884765625,0.03309403732419014,-0.7781774997711182,0.2771596908569336
1773257933315700500,0.108700439453125,0.008580705150961876,-0.655795693397522,0.24842259287834167
1773257933325712600,0.118712646484375,-0.020322315394878387,-0.4517786502838135,0.19118966162204742
1773257933335725600,0.1287255859375,-0.031242340803146362,-0.2350873500108719,0.16333912312984467
1773257933345737500,0.138737548828125,-0.011800733394920826,-0.11258459836244583,0.17591777443885803
1773257933355749600,0.14874951171875,0.02660125121474266,-0.07741143554449081,0.24553705751895905
1773257933365761500,0.158761474609375,0.03693777695298195,-0.09341996163129807,0.3494994044303894
1773257933375774700,0.168774658203125,0.009652094915509224,-0.12227024883031845,0.4492792785167694
1773257933385786600,0.17878662109375,0.13950836658477783,-0.14031264185905457,0.5565841794013977
1773257933395798800,0.188798828125,0.3521029055118561,-0.02912592701613903,0.6487345695495605
1773257933405811500,0.1988115234375,0.48033252358436584,0.056535981595516205,0.6888660192489624
1773257933415823400,0.2088232421875,0.6502211689949036,0.17922940850257874,0.7142406105995178
1773257933425835500,0.21883544921875,0.9944533705711365,0.4818958044052124,0.7669286131858826
1773257933435847400,0.228847412109375,1.4074441194534302,0.8204078078269958,0.820242166519165
1773257933445860600,0.238860595703125,1.7393029928207397,1.0784529447555542,0.8622985482215881
1773257933455872500,0.24887255859375,1.8247572183609009,1.2963922023773193,0.9149976968765259
1773257933465884700,0.258884765625,1.6515531539916992,1.4710156917572021,0.9679578542709351
1773257933475896600,0.268896484375,1.3476015329360962,1.6828831434249878,1.0434366464614868
1773257933485909500,0.278909423828125,0.9754498600959778,1.7937543392181396,1.133083701133728
1773257933495921700,0.288921630859375,0.3956722319126129,1.7686399221420288,1.228115439414978
1773257933505933600,0.29893359375,-0.28622668981552124,1.644995927810669,1.3311437368392944
1773257933515946800,0.30894677734375,-0.9618552327156067,1.2762203216552734,1.37628972530365
1773257933525958700,0.318958740234375,-1.533194899559021,0.7936654090881348,1.3949570655822754
1773257933535970600,0.328970458984375,-1.946390151977539,0.3860262632369995,1.446438193321228
1773257933545982700,0.338982666015625,-2.240952491760254,0.06402851641178131,1.5294337272644043
1773257933555996000,0.348995849609375,-2.487091064453125,-0.39693349599838257,1.5898739099502563
1773257933566007800,0.3590078125,-2.65767502784729,-0.8800532817840576,1.6430481672286987
1773257933576020000,0.36902001953125,-2.756532907485962,-1.3418132066726685,1.7105361223220825
1773257933586033000,0.379032958984375,-2.8007662296295166,-1.691506266593933,1.6380743980407715
1773257933596045000,0.389045166015625,-2.702072858810425,-2.1991958618164062,1.3924452066421509
1773257933606057000,0.399056884765625,-2.543977737426758,-2.4626779556274414,1.3108302354812622
1773257933616068900,0.40906884765625,-2.4621715545654297,-2.1658782958984375,1.2054274082183838
1773257933626082000,0.41908203125,-2.424962282180786,-1.5670689344406128,1.1130324602127075
1773257933636094000,0.429093994140625,-2.407036542892456,-0.829507052898407,0.9941385984420776
1773257933646106000,0.439106201171875,-2.3693084716796875,-0.061717692762613297,0.8314282298088074
1773257933656118000,0.449117919921875,-2.268676280975342,0.6484251022338867,0.5376636981964111
1773257933666131000,0.459130859375,-2.028496265411377,1.173661470413208,0.09156160801649094
1773257933676142800,0.469142822265625,-1.6606758832931519,1.4487135410308838,-0.4278040826320648
1773257933686154800,0.47915478515625,-1.1947540044784546,1.102146029472351,-0.9055131077766418
1773257933696168000,0.48916796875,-0.5954159498214722,-1.1979953050613403,-1.3258206844329834
1773257933706179800,0.499179931640625,-0.09031365066766739,-1.617393136024475,-1.458552360534668
1773257933716192000,0.50919189453125,0.37281137704849243,-1.0725679397583008,-1.5247303247451782
1773257933726204000,0.519203857421875,0.8948109149932861,0.14244769513607025,-1.6695998907089233
1773257933736217000,0.529217041015625,1.357915997505188,-0.7796161770820618,-1.8335059881210327
1773257933746229000,0.53922900390625,1.5700868368148804,-0.9429475665092468,-1.9613661766052246
1773257933756241000,0.549240966796875,1.6208724975585938,-0.8675822615623474,-2.023688316345215
1773257933766253000,0.559253173828125,1.5990655422210693,-0.9460456371307373,-2.0333802700042725
1773257933776266000,0.569265869140625,1.5538541078567505,-0.9575651288032532,-1.9771337509155273
1773257933786278000,0.57927783203125,1.5443753004074097,-0.7643229365348816,-1.869566559791565
1773257933796290000,0.5892900390625,1.5877585411071777,-0.3922599256038666,-1.7173426151275635
1773257933806303000,0.599302978515625,1.6763243675231934,-0.09136107563972473,-1.5299087762832642
1773257933816315000,0.60931494140625,1.7496920824050903,-0.025254756212234497,-1.340856909751892
1773257933826326800,0.619326904296875,1.7822548151016235,-0.17346365749835968,-1.1890335083007812
1773257933836339000,0.6293388671875,1.8189486265182495,-0.274292528629303,-1.067569375038147
1773257933846352000,0.639351806640625,1.8835790157318115,-0.3277144730091095,-0.9636445641517639
1773257933856364000,0.649364013671875,1.9705772399902344,-0.3977825343608856,-0.8780974745750427
1773257933866376000,0.6593759765625,2.0538649559020996,-0.45253443717956543,-0.7895715832710266
1773257933876389000,0.66938916015625,2.0945370197296143,-0.48931455612182617,-0.6843575835227966
1773257933886401000,0.679401123046875,2.0541956424713135,-0.5553380846977234,-0.5659433007240295
1773257933896413000,0.689412841796875,1.9291927814483643,-0.7042279243469238,-0.3943651616573334
1773257933906425000,0.699425048828125,1.7103917598724365,-0.9213756918907166,-0.1499924212694168
1773257933916437800,0.709437744140625,1.4577560424804688,-0.9560607075691223,0.05264909565448761
1773257933926450000,0.719449951171875,1.1204733848571777,-0.7986793518066406,0.2572467029094696
1773257933936461800,0.7294619140625,0.6053721904754639,-0.6531514525413513,0.5404366254806519
1773257933946475000,0.73947509765625,-0.05050338804721832,-0.5719969272613525,0.7791376113891602
1773257933956487000,0.74948681640625,-0.5623118281364441,-0.6018320322036743,0.8901250958442688
1773257933966498800,0.759498779296875,-0.7095550298690796,-0.6183907985687256,0.9310469627380371
1773257933976511000,0.769510986328125,-0.6566569805145264,-0.5754997730255127,0.9855632185935974
1773257933986524000,0.77952392578125,-0.46283289790153503,-0.5219241976737976,1.0740150213241577
1773257933996536000,0.7895361328125,-0.19993574917316437,-0.586083710193634,1.2121888399124146
1773257934006548000,0.7995478515625,-0.04844955727458,-0.6258396506309509,1.375836968421936
1773257934016561200,0.80956103515625,-0.024815334007143974,-0.551564633846283,1.5027397871017456
1773257934026573000,0.819572998046875,-0.009841445833444595,-0.6773353219032288,1.6122188568115234
1773257934036585000,0.8295849609375,-0.023492809385061264,-0.7665666937828064,1.6397838592529297
1773257934046597000,0.83959716796875,-0.04926954582333565,-0.8536078333854675,1.6264015436172485
1773257934056609800,0.84960986328125,-0.1529139131307602,-1.0401036739349365,1.6128270626068115
1773257934066622000,0.8596220703125,-0.2715550661087036,-0.8725298643112183,1.6708565950393677
1773257934076633900,0.8696337890625,-0.31241703033447266,-0.6800256371498108,1.714163899421692
1773257934086647000,0.87964697265625,-0.318255215883255,-0.6688629984855652,1.6749056577682495
1773257934096659000,0.889658935546875,-0.30162110924720764,-0.683221161365509,1.5904043912887573
1773257934106670800,0.8996708984375,-0.28778862953186035,-0.5572195649147034,1.5143905878067017
1773257934116683000,0.90968310546875,-0.31173524260520935,-0.4173751175403595,1.4219434261322021
1773257934126696000,0.919696044921875,-0.4123036861419678,-0.39748743176460266,1.2225861549377441
1773257934136708000,0.9297080078125,-0.5621981024742126,-0.47457584738731384,0.7884584069252014
1773257934146720000,0.939719970703125,-0.6909171938896179,0.01420689933001995,0.33176755905151367
1773257934156733000,0.94973291015625,-0.6974310278892517,0.7596831917762756,-0.0671452134847641
1773257934166744800,0.959744873046875,-0.48433631658554077,0.9579758048057556,-0.3029145896434784
1773257934176756700,0.9697568359375,-0.024710671976208687,0.9366720914840698,-0.253030925989151
1773257934186769000,0.979768798828125,0.26170191168785095,1.0199049711227417,-0.11950216442346573
1773257934196781800,0.98978173828125,0.1625968962907791,0.8415911197662354,-0.09253206104040146
1773257934206794000,0.9997939453125,0.033488985151052475,0.6348917484283447,-0.04098311811685562
1773257934216806000,1.009805908203125,0.043226566165685654,0.4884524941444397,0.05455858260393143
1773257934226819000,1.019819091796875,0.08257024735212326,0.3418577313423157,0.08221897482872009
1773257934236831000,1.0298310546875,0.10156630724668503,0.22737616300582886,0.04668814316391945
1773257934246843000,1.0398427734375,0.12341541051864624,0.07799945771694183,-0.016526246443390846
1773257934256855000,1.04985498046875,0.16177931427955627,-0.07091252505779266,-0.08781401067972183
1773257934266868000,1.059867919921875,0.17838677763938904,-0.20461998879909515,-0.16243179142475128
1773257934276880100,1.069880126953125,0.1817796528339386,-0.2773280143737793,-0.22277316451072693
1773257934286892000,1.07989208984375,0.16925959289073944,-0.3162301480770111,-0.26108965277671814
1773257934296904000,1.089904052734375,0.12306893616914749,-0.3485257625579834,-0.2610686123371124
1773257934306916900,1.099916748046875,0.03951917961239815,-0.34240981936454773,-0.24807532131671906
1773257934316928800,1.1099287109375,-0.07533124089241028,-0.3099823594093323,-0.21681912243366241
1773257934326941000,1.11994091796875,-0.19116435945034027,-0.3451898694038391,-0.18058203160762787
1773257934336953900,1.129953857421875,-0.27714958786964417,-0.39622989296913147,-0.14778999984264374
1773257934346966000,1.139966064453125,-0.29845088720321655,-0.37401965260505676,-0.14131930470466614
1773257934356978000,1.14997802734375,-0.26111680269241333,-0.3137691020965576,-0.16294071078300476
1773257934366989800,1.15998974609375,-0.2456102967262268,-0.23117169737815857,-0.1888601928949356
1773257934377003000,1.1700029296875,-0.2670780420303345,-0.1653950810432434,-0.20054587721824646
1773257934387015000,1.180014892578125,-0.31515634059906006,-0.23009152710437775,-0.1860010325908661
1773257934397027000,1.190027099609375,-0.42038023471832275,-0.3285309970378876,-0.19183920323848724
1773257934407040000,1.2000400390625,-0.5285046100616455,-0.4575185477733612,-0.23438666760921478
1773257934417052000,1.210052001953125,-0.5658716559410095,-0.556128740310669,-0.28628554940223694
1773257934427064000,1.22006396484375,-0.5704571008682251,-0.6167055368423462,-0.3738388419151306
1773257934437076000,1.230075927734375,-0.616049587726593,-0.7176316380500793,-0.47927311062812805
1773257934447089000,1.2400888671875,-0.6151233911514282,-0.7974684238433838,-0.5679917931556702
1773257934457100800,1.250100830078125,-0.49143046140670776,-0.5283187031745911,-0.6733749508857727
1773257934467113000,1.260113037109375,-0.3325723707675934,-0.1480610966682434,-0.7434113025665283
1773257934477126000,1.2701259765625,-0.3052070438861847,0.001936917076818645,-0.7149732708930969
1773257934487138000,1.280137939453125,-0.39544907212257385,-0.1727352887392044,-0.5627581477165222
1773257934497150000,1.29014990234375,-0.5269806981086731,-0.49220970273017883,-0.3919035792350769
1773257934507161900,1.300161865234375,-0.5699998140335083,-0.6889150142669678,-0.237732395529747
1773257934517175000,1.310175048828125,-0.48424816131591797,-0.7637770175933838,-0.10475543886423111
1773257934527187000,1.32018701171875,-0.3844161033630371,-0.9294538497924805,-0.027598604559898376
1773257934537199000,1.33019921875,-0.300546795129776,-1.323469638824463,-0.011334413662552834
1773257934547211000,1.3402109375,-0.2210002839565277,-1.8181509971618652,-0.008409996517002583
1773257934557224400,1.350224365234375,-0.1717882752418518,-2.310248374938965,-0.035714853554964066
1773257934567236400,1.360236328125,-0.12633530795574188,-2.804579496383667,-0.1767425537109375
1773257934577248500,1.37024853515625,-0.10318124294281006,-3.0395779609680176,-0.349450945854187
1773257934587261400,1.380261474609375,-0.06959053128957748,-3.514268159866333,-0.4707515239715576
1773257934597273600,1.390273681640625,-0.12313045561313629,-3.9919090270996094,-0.6604013442993164
1773257934607285500,1.400285400390625,-0.23645594716072083,-4.463829517364502,-0.8739954233169556
1773257934617297400,1.41029736328125,-0.4102040231227875,-4.991700172424316,-0.9789156913757324
1773257934627310600,1.420310546875,-0.7294328808784485,-5.307517051696777,-0.9509892463684082
1773257934637322500,1.430322509765625,-1.1201626062393188,-5.504064083099365,-0.8666917085647583
1773257934647334700,1.440334716796875,-1.3784239292144775,-5.813149929046631,-0.711089015007019
1773257934657347300,1.450347412109375,-1.568758487701416,-6.174086570739746,-0.46770647168159485
1773257934667359500,1.460359375,-1.8197650909423828,-6.243001461029053,-0.19821108877658844
1773257934677371400,1.470371337890625,-2.094397783279419,-5.9959564208984375,0.005103149451315403
1773257934687383300,1.48038330078125,-2.3431437015533447,-5.875879764556885,0.1681663691997528
1773257934697396500,1.490396484375,-2.5304958820343018,-5.884848117828369,0.34130141139030457
1773257934707408400,1.500408447265625,-2.7400009632110596,-5.706640720367432,0.4935726821422577
1773257934717420500,1.510420654296875,-2.951934337615967,-5.356236934661865,0.5956319570541382
1773257934727433500,1.52043359375,-3.0923349857330322,-5.01596736907959,0.6407315135002136
1773257934737445600,1.530445556640625,-3.137532949447632,-4.604321479797363,0.6449866890907288
1773257934747457500,1.54045751953125,-2.763646364212036,-3.768181324005127,0.863053023815155
1773257934757469400,1.550469482421875,-1.8821685314178467,-2.9155075550079346,1.1829707622528076
1773257934767482600,1.560482666015625,-1.2814351320266724,-2.42277455329895,1.240911602973938
1773257934777494500,1.57049462890625,-0.8819646239280701,-2.068643808364868,1.0388485193252563
1773257934787506700,1.580506591796875,-0.55283522605896,-1.769467830657959,0.685006320476532
1773257934797518600,1.5905185546875,-0.2686336040496826,-1.563178300857544,0.3322432041168213
1773257934807531500,1.600531494140625,-0.05926492065191269,-1.481938123703003,0.05796822905540466
1773257934817543400,1.61054345703125,0.025189775973558426,-1.487403154373169,-0.19433724880218506
1773257934827555300,1.620555419921875,-0.023998010903596878,-1.5111167430877686,-0.48094984889030457
1773257934837568500,1.630568603515625,-0.15129178762435913,-1.5650180578231812,-0.8147368431091309
1773257934847580400,1.640580322265625,-0.4817360043525696,-1.8171051740646362,-1.2108231782913208
1773257934857592600,1.650592529296875,-0.9895156025886536,-2.0729188919067383,-1.7019953727722168
1773257934867604500,1.6606044921875,-1.2538279294967651,-1.7444038391113281,-1.8570469617843628
1773257934877617700,1.67061767578125,-0.7452685832977295,-1.1418728828430176,-1.4095804691314697
1773257934887629600,1.680629638671875,0.19858819246292114,-1.0163229703903198,-1.218032717704773
1773257934897641500,1.690641357421875,1.0821571350097656,-0.5734432935714722,-1.4519248008728027
1773257934907654400,1.700654296875,1.507724404335022,-0.21459566056728363,-1.7103427648544312
1773257934917666600,1.71066650390625,1.452207088470459,-0.3020133972167969,-1.9372036457061768
1773257934927678500,1.720678466796875,1.176873803138733,-0.5889652371406555,-2.045423984527588
1773257934937690600,1.730690673828125,0.6514145135879517,-0.4147132933139801,-1.8398523330688477
1773257934947703600,1.74070361328125,0.2096107453107834,-0.5759831666946411,-1.4895981550216675
1773257934957715500,1.750715576171875,0.09744240343570709,-0.37648308277130127,-1.105951189994812
1773257934967727400,1.760727294921875,0.0907466784119606,0.009796970523893833,-0.6338515281677246
1773257934977739500,1.770739501953125,0.1378777027130127,0.07225102931261063,0.016952618956565857
1773257934987752400,1.78075244140625,0.3077540993690491,-0.01986132189631462,0.6528502106666565
1773257934997764600,1.7907646484375,0.5374871492385864,-0.02449815161526203,1.055993676185608
1773257935007776500,1.800776611328125,0.6772716641426086,-0.21862049400806427,1.3351057767868042
1773257935017789700,1.810789794921875,0.7297466397285461,-0.4096035063266754,1.5903172492980957
1773257935027801600,1.820801513671875,0.8386504650115967,-0.5668229460716248,1.7482293844223022
1773257935037813500,1.8308134765625,0.984324038028717,-0.6551610827445984,1.831992745399475
1773257935047825700,1.84082568359375,1.0322116613388062,-0.7294094562530518,1.935646414756775
1773257935057838300,1.85083837890625,0.7787882089614868,-0.920146107673645,2.1784050464630127
1773257935067850500,1.8608505859375,0.15735739469528198,-1.3014583587646484,2.1512551307678223
1773257935077862400,1.8708623046875,-0.19521796703338623,-1.2643072605133057,1.8917852640151978
1773257935087875600,1.88087548828125,-0.21688544750213623,-0.8537311553955078,1.764227271080017
1773257935097887500,1.890887451171875,-0.010319216176867485,-0.6350041031837463,1.6761534214019775
1773257935107899400,1.9008994140625,0.07761463522911072,-0.4818177819252014,1.623085618019104
1773257935117911600,1.91091162109375,0.01667564921081066,-0.5575801730155945,1.4295412302017212
1773257935127924500,1.920924560546875,-0.1143750473856926,-0.5536083579063416,1.2104392051696777
1773257935137936600,1.9309365234375,-0.12132003903388977,-0.6052025556564331,1.0375885963439941
1773257935147948500,1.940948486328125,0.04435494914650917,-0.642785906791687,0.9013396501541138
1773257935157960400,1.95096044921875,0.35902607440948486,-0.7963903546333313,0.6214736700057983
1773257935167973600,1.9609736328125,0.5562006831169128,-0.852526843547821,0.4176563620567322
1773257935177985500,1.970985595703125,0.7363962531089783,-1.0283290147781372,0.3721810281276703
1773257935187997700,1.980997802734375,0.9489383697509766,-1.1418532133102417,0.3584233820438385
1773257935198010400,1.99101025390625,1.1408874988555908,-1.154904842376709,0.30870378017425537
1773257935208022500,2.0010224609375,1.2922786474227905,-1.0605112314224243,0.18197380006313324
1773257935218034400,2.011034423828125,1.3676490783691406,-0.9118711352348328,0.017670340836048126
1773257935228046300,2.02104638671875,1.4317712783813477,-0.762712299823761,-0.13710884749889374
1773257935238059500,2.0310595703125,1.4808144569396973,-0.6598806977272034,-0.2643573582172394
1773257935248071400,2.041071533203125,1.529234766960144,-0.5739471912384033,-0.3671891987323761
1773257935258083600,2.05108349609375,1.5980972051620483,-0.6265677809715271,-0.44981375336647034
1773257935268096500,2.061096435546875,1.6471233367919922,-0.7402852773666382,-0.48830097913742065
1773257935278108700,2.071108642578125,1.572586178779602,-0.7194287180900574,-0.5079963803291321
1773257935288120600,2.08112060546875,1.3087918758392334,-0.5448446869850159,-0.47070997953414917
1773257935298132500,2.091132568359375,0.978348970413208,-0.3918476700782776,-0.4231741726398468
1773257935308145400,2.1011455078125,0.7376980185508728,-0.2293650060892105,-0.397571325302124
1773257935318157300,2.1111572265625,0.5898022651672363,-0.11568611860275269,-0.36850425601005554
1773257935328169500,2.12116943359375,0.4544926583766937,-0.18994569778442383,-0.32432934641838074
1773257935338182400,2.131182373046875,0.3804892897605896,-0.3109104633331299,-0.3482522666454315
1773257935348194600,2.141194580078125,0.036200616508722305,-0.15916036069393158,-0.38454073667526245
1773257935358206500,2.15120654296875,-0.2626827657222748,-0.17672523856163025,-0.2926691472530365
1773257935368218400,2.16121826171875,-0.8361244797706604,-0.4978489279747009,-0.06457473337650299
1773257935378231600,2.1712314453125,-0.9837858080863953,-0.9946589469909668,0.34161752462387085
1773257935388243500,2.181243408203125,-0.8175254464149475,-1.0954854488372803,0.7704927325248718
1773257935398255600,2.191255615234375,-0.7071757912635803,-0.9768278002738953,0.9502065777778625
1773257935408268500,2.2012685546875,-0.5979949831962585,-0.8572156429290771,0.9906370639801025
1773257935418280700,2.21128076171875,-0.4775244891643524,-0.9041216373443604,0.9513034820556641
1773257935428292600,2.221292724609375,-0.34963950514793396,-0.4731726050376892,0.6940314769744873
1773257935438304500,2.231304443359375,-0.2969943881034851,-0.09385272860527039,0.32751473784446716
1773257935448317400,2.2413173828125,-0.30884864926338196,0.08473246544599533,0.23368066549301147
1773257935458329300,2.251329345703125,-0.06196882948279381,-0.16209276020526886,0.38704144954681396
1773257935468341500,2.261341552734375,0.2504676282405853,-0.46508458256721497,0.5600510835647583
1773257935478354400,2.2713544921875,0.5239273905754089,-0.5828104019165039,0.5860525369644165
1773257935488366600,2.28136669921875,0.7250480055809021,-0.3838816285133362,0.43707984685897827
1773257935498378500,2.29137841796875,0.6563613414764404,-0.3495934307575226,0.28789064288139343
1773257935508390400,2.301390380859375,0.406161367893219,-0.22493484616279602,0.20498643815517426
1773257935518403600,2.311403564453125,0.2728126347064972,-0.1297244429588318,0.1834728866815567
1773257935528415500,2.32141552734375,0.21537676453590393,-0.1213541254401207,0.15495416522026062
1773257935538427600,2.331427734375,0.2771405279636383,-0.13461054861545563,0.02069728821516037
1773257935548440600,2.341440673828125,0.47748827934265137,-0.04331471771001816,-0.16744785010814667
1773257935558452000,2.351451904296875,0.6301012635231018,0.10241878032684326,-0.35553520917892456
1773257935568464000,2.3614638671875,0.7700048089027405,0.26441699266433716,-0.5733711123466492
1773257935578476800,2.371476806640625,1.0499770641326904,0.5254209041595459,-0.7633455991744995
1773257935588488700,2.38148876953125,1.2937732934951782,0.6954560279846191,-0.8556022644042969
1773257935598500900,2.3915009765625,1.366207242012024,0.7124446034431458,-0.7984521985054016
1773257935608513800,2.401513671875,1.23708975315094,0.7647141814231873,-0.6735991835594177
1773257935618526000,2.41152587890625,0.7925194501876831,0.7097902297973633,-0.6523780822753906
1773257935628537900,2.421537841796875,-0.06928613036870956,0.2701800763607025,-0.7468931078910828
1773257935638551000,2.431551025390625,-0.7444469928741455,0.17509405314922333,-0.866804838180542
1773257935648563000,2.44156298828125,-0.8941294550895691,0.11320032179355621,-0.9061080813407898
1773257935658574800,2.451574951171875,-0.8861977458000183,0.08838924765586853,-0.8054014444351196
1773257935668587000,2.4615869140625,-1.0514135360717773,-0.04139218106865883,-0.6796565651893616
1773257935678600000,2.471599853515625,-1.1944671869277954,-0.2548708915710449,-0.6097834706306458
1773257935688612000,2.481612060546875,-1.1528406143188477,-0.41283470392227173,-0.5224519968032837
1773257935698624000,2.4916240234375,-1.0529565811157227,-0.5740233063697815,-0.5002740025520325
1773257935708637000,2.501636962890625,-1.0805286169052124,-0.648838460445404,-0.5394155383110046
1773257935718648800,2.51164892578125,-1.1110436916351318,-0.7095468044281006,-0.632777988910675
1773257935728660700,2.52166064453125,-1.0975341796875,-0.865673840045929,-0.663792073726654
1773257935738674000,2.531673828125,-1.0130542516708374,-0.9740562438964844,-0.7081637978553772
1773257935748685800,2.541685791015625,-0.8326844573020935,-0.9582900404930115,-0.6554140448570251
1773257935758698000,2.551697998046875,-0.6574127674102783,-0.8338559865951538,-0.6506954431533813
1773257935768711000,2.5617109375,-0.3854939043521881,-0.6093805432319641,-0.7020121812820435
1773257935778723000,2.57172314453125,-0.16804519295692444,-0.40644019842147827,-0.7033437490463257
1773257935788735000,2.58173486328125,0.04926581680774689,-0.336301326751709,-0.7616280913352966
1773257935798748000,2.591747802734375,0.0791584700345993,-0.47948750853538513,-1.0111311674118042
1773257935808759800,2.601759765625,-0.43950414657592773,-0.3445054590702057,-1.0957025289535522
1773257935818771700,2.611771728515625,-0.9837722182273865,-0.07246887683868408,-1.1552451848983765
1773257935828785000,2.621784912109375,-1.3584305047988892,-0.38041630387306213,-1.4051676988601685
1773257935838796800,2.631796875,-1.3381150960922241,-0.6553871631622314,-1.6379567384719849
1773257935848809000,2.64180908203125,-1.1410340070724487,-0.7268621325492859,-1.7493114471435547
1773257935858822000,2.65182177734375,-0.9905534386634827,-0.6771497130393982,-1.6916390657424927
1773257935868834000,2.661833984375,-0.877480149269104,-0.4832281768321991,-1.6437565088272095
1773257935878846000,2.671845947265625,-0.7712969779968262,-0.34394699335098267,-1.7262243032455444
1773257935888859000,2.68185888671875,-0.6692979335784912,-0.18064194917678833,-1.7172092199325562
1773257935898871000,2.69187109375,-0.5237920880317688,0.1379312425851822,-1.6639208793640137
1773257935908883700,2.7018837890625,-0.5154058337211609,0.20118796825408936,-1.7209874391555786
1773257935918895900,2.711895751953125,-0.5723599195480347,0.09691855311393738,-1.972169280052185
1773257935928907800,2.72190771484375,-0.34726500511169434,-0.19247570633888245,-2.239854574203491
1773257935938921000,2.7319208984375,0.9378244280815125,-0.9789590835571289,-2.5447723865509033
1773257935948932900,2.741932861328125,1.5067989826202393,-1.0946239233016968,-2.759441375732422
1773257935958944800,2.75194482421875,1.8942042589187622,-1.2373826503753662,-2.6076784133911133
1773257935968958000,2.7619580078125,2.834761142730713,-1.339235782623291,-2.2814950942993164
1773257935978969900,2.771969970703125,3.216060161590576,-1.6596838235855103,-1.9427001476287842
1773257935988982000,2.78198193359375,3.5625803470611572,-2.316100597381592,-1.5477311611175537
1773257935998995000,2.791994873046875,3.925644874572754,-3.37152361869812,-1.1925874948501587
1773257936009007000,2.802007080078125,4.170982837677002,-4.670129776000977,-1.2640728950500488
1773257936019019000,2.81201904296875,4.280203342437744,-6.462494850158691,-1.666424036026001
1773257936029032000,2.822031982421875,4.3801445960998535,-8.36574935913086,-2.209658145904541
1773257936039043800,2.8320439453125,4.06869649887085,-9.625066757202148,-2.5543665885925293
1773257936049055700,2.8420556640625,3.302384376525879,-10.158732414245605,-2.926250696182251
1773257936059069000,2.85206884765625,2.0205647945404053,-10.720924377441406,-3.4077706336975098
1773257936069080800,2.862080810546875,0.9794390201568604,-9.86086654663086,-3.994615077972412
1773257936079093000,2.872093017578125,0.0016522251535207033,-8.435763359069824,-4.762679100036621
1773257936089106000,2.88210595703125,-0.7358734607696533,-6.953081130981445,-5.278048038482666
1773257936099118000,2.8921181640625,-0.800286054611206,-6.799980163574219,-4.925986289978027
1773257936109130800,2.902130859375,-0.5810122489929199,-5.592827796936035,-4.464979648590088
1773257936119143000,2.912142822265625,-0.23395870625972748,-3.509561777114868,-3.789618730545044
1773257936129154800,2.92215478515625,0.2831116020679474,-0.9240117073059082,-2.7294809818267822
1773257936139167700,2.932167724609375,0.5856701135635376,1.6539649963378906,-1.659774661064148
1773257936149180000,2.942179931640625,0.715118944644928,3.085859537124634,-1.097220540046692
1773257936159191800,2.95219189453125,0.6554955244064331,3.6887118816375732,-1.0706636905670166
1773257936169205000,2.962205078125,0.4095161557197571,4.438400745391846,-1.220878005027771
1773257936179217000,2.972216796875,0.008470982313156128,5.238786220550537,-1.558073878288269
1773257936189229000,2.98222900390625,-0.37287265062332153,5.355634689331055,-1.9049538373947144
1773257936199242000,2.992241943359375,-0.8469837307929993,5.223759651184082,-2.0833218097686768
1773257936209254000,3.00225390625,-1.1957556009292603,5.2270588874816895,-2.087315082550049
1773257936219266000,3.01226611328125,-1.487409234046936,5.198585033416748,-1.9259575605392456
1773257936229278700,3.02227880859375,-1.7808188199996948,5.173938274383545,-1.6140955686569214
1773257936239291000,3.032290771484375,-1.9652591943740845,5.479550838470459,-1.285225510597229
1773257936249303800,3.0423037109375,-2.0658226013183594,4.802424907684326,-1.128602147102356
1773257936259316000,3.05231591796875,-1.8847461938858032,4.547439098358154,-0.8265485167503357
1773257936269328000,3.062327880859375,-2.0049357414245605,4.423177719116211,-0.32378631830215454
1773257936279341000,3.072341064453125,-1.9286335706710815,4.437363147735596,0.16237665712833405
1773257936289353000,3.08235302734375,-1.8775418996810913,4.100379943847656,0.5653533935546875
1773257936299364900,3.09236474609375,-1.7095651626586914,3.418712615966797,0.8630245327949524
1773257936309377800,3.102377685546875,-1.5347131490707397,2.6081981658935547,1.1459931135177612
1773257936319389700,3.1123896484375,-1.4402929544448853,1.868595838546753,1.4793974161148071
1773257936329401900,3.12240185546875,-1.3661174774169922,1.2426072359085083,1.806140661239624
1773257936339414800,3.132414794921875,-1.3048826456069946,0.826675295829773,2.115917921066284
1773257936349427000,3.142427001953125,-1.2612038850784302,0.7312025427818298,2.4142444133758545
1773257936359440000,3.15243994140625,-1.254737138748169,0.6691921949386597,2.714034080505371
1773257936369452000,3.1624521484375,-1.1951793432235718,0.6569198369979858,2.9656176567077637
1773257936379464000,3.1724638671875,-1.0845904350280762,0.8256481289863586,3.2608768939971924
1773257936389477000,3.18247705078125,-1.0541363954544067,0.7708389163017273,3.2986538410186768
1773257936399489000,3.192489013671875,-0.8491944670677185,0.15428277850151062,3.263073444366455
1773257936409501000,3.2025009765625,-0.6703381538391113,-0.7299016118049622,3.1560921669006348
1773257936419513900,3.212513916015625,-0.5509923100471497,-1.4748228788375854,2.9299938678741455
1773257936429525800,3.22252587890625,-0.425030380487442,-1.9478120803833008,2.6055421829223633
1773257936439539000,3.2325390625,-0.38851311802864075,-2.1933693885803223,2.2901861667633057
1773257936449550800,3.24255078125,-0.4219997227191925,-2.0638558864593506,2.039546489715576
1773257936459563000,3.25256298828125,-0.5212802290916443,-1.6836246252059937,1.881529450416565
1773257936469576000,3.262575927734375,-0.6588625907897949,-1.243977665901184,1.787183165550232
1773257936479587800,3.272587890625,-0.7778531312942505,-0.9159191250801086,1.6305254697799683
1773257936489600000,3.28260009765625,-0.8177472949028015,-0.5018977522850037,1.3202452659606934
1773257936499613000,3.292613037109375,-0.802160918712616,-0.2553630471229553,1.0165499448776245
1773257936509624800,3.302624755859375,-0.8758532404899597,-0.12799444794654846,0.8930029273033142
1773257936519637000,3.312636962890625,-1.1433733701705933,0.29286330938339233,0.9443859457969666
1773257936529650000,3.32264990234375,-1.4774324893951416,0.9271763563156128,1.2564524412155151
1773257936539661800,3.332661865234375,-1.8593953847885132,1.6713471412658691,1.8294332027435303
1773257936549675000,3.342675048828125,-2.2703959941864014,2.450887441635132,2.5709128379821777
1773257936559687200,3.352687255859375,-2.646198034286499,3.1276795864105225,3.2990353107452393
1773257936569699300,3.36269921875,-2.875549554824829,3.362445592880249,3.668405055999756
1773257936579712300,3.372712158203125,-2.912903308868408,3.3459017276763916,3.979891777038574
1773257936589724400,3.382724365234375,-2.778547763824463,3.1873438358306885,4.349113464355469
1773257936599736300,3.392736328125,-2.356624126434326,3.0074753761291504,4.505322456359863
1773257936609749000,3.4027490234375,-2.139333724975586,2.386643171310425,4.622218608856201
1773257936619761200,3.41276123046875,-1.844556212425232,1.6917682886123657,4.348544597625732
1773257936629773000,3.42277294921875,-1.732764482498169,0.5366469025611877,4.018090724945068
1773257936639786200,3.4327861328125,-1.8235721588134766,-0.6032683253288269,3.211954116821289
1773257936649798100,3.442798095703125,-1.9534752368927002,-0.9127763509750366,2.2281875610351562
1773257936659811300,3.452811279296875,-1.8695359230041504,-0.8613483309745789,1.3597221374511719
1773257936669823200,3.4628232421875,-1.7939069271087646,-0.8860682845115662,0.7244898080825806
1773257936679835100,3.472835205078125,-1.7805777788162231,-0.9528225660324097,0.16080592572689056
1773257936689848000,3.48284814453125,-1.7723767757415771,-0.9259781837463379,-0.4010763168334961
1773257936699860000,3.49285986328125,-1.7437318563461304,-0.8875546455383301,-0.8467518091201782
1773257936709872000,3.5028720703125,-1.6351460218429565,-0.30243417620658875,-0.8945121169090271
1773257936719885000,3.512885009765625,-1.3558249473571777,-0.07304331660270691,-1.0467389822006226
1773257936729897200,3.522897216796875,-1.1656259298324585,0.0652298703789711,-1.2490500211715698
1773257936739910100,3.53291015625,-1.0611940622329712,0.09712068736553192,-1.5121194124221802
1773257936749922300,3.54292236328125,-0.9772746562957764,0.3313305377960205,-1.6962695121765137
1773257936759934200,3.552934326171875,-0.9077131748199463,0.622994065284729,-1.7697865962982178
1773257936769947400,3.562947509765625,-0.8971728682518005,0.6908761858940125,-1.9511204957962036
1773257936779959300,3.572959228515625,-0.9121630191802979,0.8106632828712463,-2.104306221008301
1773257936789971200,3.58297119140625,-0.889660120010376,1.1145923137664795,-2.1415109634399414
1773257936799984000,3.592984130859375,-0.8356719613075256,1.201918363571167,-2.07901668548584
1773257936809996000,3.60299609375,-0.7252373695373535,1.2228854894638062,-1.908262014389038
1773257936820009200,3.61300927734375,-0.5454638600349426,1.308059811592102,-1.7307305335998535
1773257936830021000,3.623021240234375,-0.28654947876930237,1.055757999420166,-1.5646934509277344
1773257936840033300,3.633033203125,-0.038786277174949646,0.7482649087905884,-1.392118215560913
1773257936850046200,3.643046142578125,0.0832485482096672,0.5283716917037964,-1.1475629806518555
1773257936860058400,3.653058349609375,0.18425185978412628,0.3003939092159271,-1.0005954504013062
1773257936870070300,3.6630703125,0.25431084632873535,0.1159210130572319,-0.7988841533660889
1773257936880083200,3.673083251953125,0.3177683651447296,-0.1884511411190033,-0.6088724136352539
1773257936890095400,3.683095458984375,0.3577914237976074,-0.42327216267585754,-0.5533667802810669
1773257936900108000,3.69310791015625,0.42301782965660095,-0.7686465978622437,-0.396782249212265
1773257936910120200,3.7031201171875,0.49116864800453186,-0.8239356875419617,-0.2256387174129486
1773257936920132000,3.713132080078125,0.529228687286377,-0.5597543716430664,0.01805170439183712
1773257936930145300,3.723145263671875,0.3979550898075104,-0.45047077536582947,0.2518490254878998
1773257936940157200,3.7331572265625,0.2965792119503021,-0.35346564650535583,0.46594613790512085
1773257936950169000,3.743169189453125,0.15873079001903534,-0.24361665546894073,0.6662728190422058
1773257936960182300,3.753182373046875,-0.07829932868480682,-0.26625457406044006,0.7733635902404785
1773257936970194200,3.763194091796875,-0.33937326073646545,-0.3393956422805786,0.8432905077934265
1773257936980207000,3.77320703125,-0.5940271019935608,-0.3863695561885834,1.107779622077942
1773257936990219000,3.783218994140625,-0.7596089243888855,-0.3121858537197113,1.2980215549468994
1773257937000231200,3.793231201171875,-0.8406350612640381,-0.2381148338317871,1.3058887720108032
1773257937010244000,3.803244140625,-1.0064327716827393,-0.26035967469215393,1.089890956878662
1773257937020256300,3.81325634765625,-1.2338638305664062,-0.24614132940769196,0.8067143559455872
1773257937030268200,3.82326806640625,-1.4360501766204834,-0.11661583185195923,0.5577487349510193
1773257937040281300,3.83328125,-1.3998419046401978,0.05252126604318619,0.29160600900650024
1773257937050293200,3.843293212890625,-1.1412606239318848,-0.18264330923557281,0.10555519163608551
1773257937060306400,3.853306396484375,-0.9219692945480347,-0.3151760697364807,-0.010459299199283123
1773257937070318300,3.863318359375,-0.8619192838668823,-0.16076651215553284,-0.020478377118706703
1773257937080330200,3.873330322265625,-0.8477150797843933,-0.04047871753573418,0.02984338253736496
1773257937090343200,3.88334326171875,-0.7020766139030457,-0.0724630132317543,0.05946226045489311
1773257937100355000,3.89335498046875,-0.5332170724868774,0.011149589903652668,0.21808306872844696
1773257937110367200,3.9033671875,-0.2928933799266815,0.1102689802646637,0.5552405714988708
1773257937120380200,3.913380126953125,-0.1799178421497345,0.03243011236190796,0.6320914030075073
1773257937130392000,3.92339208984375,-0.18517038226127625,-0.240292489528656,0.5168657898902893
1773257937140404200,3.933404296875,-0.14381203055381775,-0.4377424418926239,0.3080901801586151
1773257937150417200,3.943417236328125,-0.13317909836769104,-0.4000840187072754,0.15931402146816254
1773257937160429300,3.95342919921875,-0.014874819666147232,-0.35474103689193726,0.007078149355947971
1773257937170442000,3.96344189453125,-0.02467658370733261,-0.3328557312488556,-0.3411714434623718
1773257937180454100,3.9734541015625,-0.014448448084294796,0.15780161321163177,-0.32989296317100525
1773257937190466000,3.983466064453125,0.0935342088341713,0.6565682888031006,-0.5136276483535767
1773257937200479200,3.993479248046875,0.2169477641582489,0.5857689380645752,-0.5767099261283875
1773257937210491100,4.0034912109375,0.31626343727111816,0.31784960627555847,-0.6193625926971436
1773257937220503000,4.0135029296875,0.4148741662502289,-0.003340402850881219,-0.6316871643066406
1773257937230516200,4.02351611328125,0.46411359310150146,-0.32702872157096863,-0.6501103639602661
1773257937240528100,4.033528076171875,0.5126009583473206,-0.5225912928581238,-0.6773896813392639
1773257937250540300,4.043540283203125,0.5439852476119995,-0.5933184623718262,-0.707795262336731
1773257937260553200,4.05355322265625,0.5803078413009644,-0.41437479853630066,-0.7293436527252197
1773257937270565400,4.0635654296875,0.6661410331726074,-0.07049467414617538,-0.7639610171318054
1773257937280578000,4.073578125,0.771304190158844,0.37679362297058105,-0.6719900965690613
1773257937290590200,4.083590087890625,0.8456993103027344,0.6788578629493713,-0.6009372472763062
1773257937300602000,4.09360205078125,0.9276493191719055,0.9164424538612366,-0.5309112668037415
1773257937310615300,4.103615234375,0.9967567324638367,1.1543346643447876,-0.5206445455551147
1773257937320627200,4.113627197265625,1.0869979858398438,1.541272759437561,-0.48680853843688965
1773257937330639000,4.12363916015625,1.1125866174697876,1.8164350986480713,-0.48647964000701904
1773257937340652300,4.13365234375,1.0889666080474854,1.1953619718551636,-0.6110250353813171
1773257937350664200,4.143664306640625,1.0429128408432007,0.2586885392665863,-0.6878569722175598
1773257937360676400,4.15367626953125,0.9379205703735352,-0.15950444340705872,-0.5965302586555481
1773257937370689300,4.163689208984375,0.8854848146438599,-0.37070801854133606,-0.6348991990089417
1773257937380701200,4.173701171875,0.7760725617408752,-0.6069384217262268,-0.7319445013999939
1773257937390714000,4.183714111328125,0.6578729748725891,-0.7878530621528625,-0.8100731372833252
1773257937400726000,4.19372607421875,0.5322422981262207,-0.8847844004631042,-0.867616593837738
1773257937410738200,4.20373828125,0.4098375737667084,-0.8133520483970642,-0.8613924980163574
1773257937420751000,4.213751220703125,0.3511393964290619,-0.6585869789123535,-0.8331305384635925
1773257937430763300,4.22376318359375,0.36769840121269226,-0.5646353960037231,-0.7964977025985718
1773257937440775200,4.233775146484375,0.4025445282459259,-0.36154887080192566,-0.7940888404846191
1773257937450788400,4.243788330078125,0.4635287821292877,-0.32971692085266113,-0.8541979789733887
1773257937460800300,4.25380029296875,0.4952491521835327,-0.5311539173126221,-0.9751598238945007
1773257937470812200,4.263812255859375,0.47934767603874207,-0.6571751832962036,-1.0017536878585815
1773257937480825000,4.2738251953125,0.4108423888683319,-0.6690755486488342,-1.021823763847351
1773257937490837000,4.2838369140625,0.37013065814971924,-0.5511385202407837,-0.9975966811180115
1773257937500849200,4.29384912109375,0.3678230345249176,-0.40528303384780884,-0.9044244289398193
1773257937510862000,4.303862060546875,0.41541823744773865,-0.32817867398262024,-0.7781543731689453
1773257937520874200,4.313874267578125,0.4658750295639038,-0.34015172719955444,-0.6518049240112305
1773257937530887200,4.32388720703125,0.4782946705818176,-0.30813172459602356,-0.5191856622695923
1773257937540899300,4.3338994140625,0.44182056188583374,-0.2545212209224701,-0.4235273003578186
1773257937550911200,4.3439111328125,0.3766591250896454,-0.2249753177165985,-0.3741917014122009
1773257937560924400,4.35392431640625,0.2853076457977295,-0.23309077322483063,-0.3508616089820862
1773257937570936300,4.363936279296875,0.22654205560684204,-0.2811349928379059,-0.36341947317123413
1773257937580948500,4.373948486328125,0.19647496938705444,-0.2902930676937103,-0.3973526954650879
1773257937590961200,4.383961181640625,0.21544547379016876,-0.31778889894485474,-0.41802626848220825
1773257937600973300,4.393973388671875,0.2474132627248764,-0.3678898811340332,-0.39988669753074646
1773257937610985200,4.403985107421875,0.2688964307308197,-0.3742641508579254,-0.3705011010169983
1773257937620998400,4.413998291015625,0.266814649105072,-0.5091947913169861,-0.39692044258117676
1773257937631010300,4.42401025390625,0.21511922776699066,-0.3980594873428345,-0.21825776994228363
1773257937641022200,4.434022216796875,0.15503352880477905,-0.0030599720776081085,0.059843093156814575
1773257937651035400,4.444035400390625,0.0662011206150055,0.18877151608467102,0.22923904657363892
1773257937661047300,4.45404736328125,-0.005182245280593634,0.14444346725940704,0.19582968950271606
1773257937671059500,4.4640595703125,-0.027308853343129158,-0.3543975055217743,-0.01188089419156313
1773257937681072000,4.474072021484375,0.06562241911888123,-0.8946021199226379,-0.31104177236557007
1773257937691084300,4.484084228515625,0.14917457103729248,-1.4733896255493164,-0.6294375658035278
1773257937701096200,4.49409619140625,0.25516676902770996,-1.7049940824508667,-1.0071218013763428
1773257937711109000,4.504109130859375,0.3526078462600708,-1.7120578289031982,-1.3357185125350952
1773257937721121300,4.514121337890625,0.3235306739807129,-1.7366505861282349,-1.5400383472442627
1773257937731133200,4.52413330078125,0.16398388147354126,-1.7824307680130005,-1.6167962551116943
1773257937741146400,4.534146484375,0.06404849141836166,-1.831552267074585,-1.5873122215270996
1773257937751158300,4.544158203125,0.014242053031921387,-1.6263154745101929,-1.493161916732788
1773257937761171500,4.55417138671875,-0.04297516494989395,-1.2284672260284424,-1.3906524181365967
1773257937771183400,4.564183349609375,-0.14421284198760986,-1.0218168497085571,-1.3236198425292969
1773257937781195300,4.5741953125,-0.2551950216293335,-0.9067581295967102,-1.3335782289505005
1773257937791208200,4.584208251953125,-0.32951077818870544,-0.9027546048164368,-1.2278810739517212
1773257937801220000,4.59422021484375,-0.26248276233673096,-0.9757862091064453,-1.2552490234375
1773257937811232300,4.604232177734375,-0.05046903342008591,-1.5001897811889648,-1.4291329383850098
1773257937821245200,4.6142451171875,-0.19004876911640167,-1.671818494796753,-1.2829043865203857
1773257937831257300,4.62425732421875,-0.434893399477005,-1.4330682754516602,-1.0536003112792969
1773257937841269200,4.634269287109375,-0.5366005897521973,-1.063094973564148,-0.8980194926261902
1773257937851282400,4.644282470703125,-0.48028379678726196,-0.747166097164154,-0.8387769460678101
1773257937861294300,4.65429443359375,-0.2556717097759247,-0.3628370463848114,-0.8094872236251831
1773257937871306200,4.66430615234375,-0.23735396564006805,-0.27715596556663513,-0.8940857648849487
1773257937881319200,4.674319091796875,-0.44968166947364807,-0.2479536086320877,-0.7859576940536499
1773257937891331000,4.6843310546875,-0.4986627995967865,-0.062190402299165726,-0.696971595287323
1773257937901343200,4.69434326171875,-0.4488912522792816,-0.04325985535979271,-0.8735149502754211
1773257937911356200,4.704356201171875,-0.4955191910266876,-0.12797687947750092,-0.9446038007736206
1773257937921368300,4.714368408203125,-0.4926019608974457,-0.23569081723690033,-1.0129239559173584
1773257937931380200,4.724380126953125,-0.41005808115005493,-0.3747778832912445,-1.0393174886703491
1773257937941393400,4.734393310546875,-0.34522077441215515,-0.4971219003200531,-1.0397512912750244
1773257937951405300,4.7444052734375,-0.2365129441022873,-0.6478815674781799,-1.117031455039978
1773257937961417200,4.754417236328125,-0.13512985408306122,-0.7044684290885925,-1.2325327396392822
1773257937971430400,4.764430419921875,-0.13793763518333435,-0.7376540899276733,-1.3311855792999268
1773257937981442300,4.7744423828125,-0.15998487174510956,-0.7301540970802307,-1.4227889776229858
1773257937991454500,4.784454345703125,-0.1719973236322403,-0.759719967842102,-1.4862531423568726
1773257938001467100,4.794467041015625,-0.16468216478824615,-0.7550056576728821,-1.4632419347763062
1773257938011479300,4.804479248046875,-0.04908552020788193,-0.6729355454444885,-1.3211236000061035
1773257938021491200,4.8144912109375,0.0019446401856839657,-0.5113658308982849,-1.3081399202346802
1773257938031504400,4.82450439453125,-0.009801231324672699,-0.2650090157985687,-1.2256869077682495
1773257938041516300,4.834516357421875,-0.03397873789072037,-0.021508753299713135,-1.220130205154419
1773257938051528200,4.844528076171875,-0.10349629819393158,0.10807773470878601,-1.1875733137130737
1773257938061541400,4.854541259765625,-0.19071641564369202,0.5222597122192383,-1.0660711526870728
1773257938071553300,4.86455322265625,-0.27312713861465454,0.7645312547683716,-1.1419309377670288
1773257938081565400,4.8745654296875,-0.26596909761428833,0.9172816276550293,-1.2676012516021729
1773257938091578400,4.884578369140625,-0.26471129059791565,1.1674227714538574,-1.350588083267212
1773257938101590300,4.89459033203125,-0.23180899024009705,1.5886735916137695,-1.213340401649475
1773257938111602400,4.9046025390625,-0.2712320387363434,2.1349658966064453,-1.0827107429504395
1773257938121615000,4.914614990234375,-0.24769528210163116,2.9578583240509033,-1.1672859191894531
1773257938131627300,4.924627197265625,-0.042387139052152634,2.3436408042907715,-0.9456427097320557
1773257938141639200,4.93463916015625,0.21894806623458862,1.454223871231079,-1.1954783201217651
1773257938151652400,4.94465234375,0.35262754559516907,1.3219177722930908,-2.0287728309631348
1773257938161664300,4.954664306640625,0.21106590330600739,0.7003016471862793,-2.4720380306243896
1773257938171676200,4.96467626953125,-0.08592076599597931,-0.4258338510990143,-2.145346164703369
1773257938181689300,4.974689453125,0.08615512400865555,-0.9425001740455627,-1.4597246646881104
1773257938191701200,4.984701171875,0.2467767596244812,-0.5684831738471985,-0.8858099579811096
1773257938201713400,4.99471337890625,0.48966023325920105,-0.7381914854049683,-0.8500732779502869
1773257938211726000,5.00472607421875,0.25079360604286194,-0.7495136857032776,-0.3972056806087494
1773257938221738200,5.01473828125,0.04210883751511574,-0.7294797897338867,-0.051481299102306366
1773257938231750100,5.024750244140625,0.11281044036149979,-1.300443410873413,-0.09562879055738449
1773257938241763300,5.034763427734375,0.3357974588871002,-1.9185185432434082,-0.15124064683914185
1773257938251775200,5.044775146484375,0.5537769198417664,-2.1442103385925293,-0.09039541333913803
1773257938261787100,5.054787109375,0.36196938157081604,-1.4910557270050049,0.1413898915052414
1773257938271800300,5.06480029296875,0.06615185737609863,-0.5274403691291809,0.3372502028942108
1773257938281812200,5.074812255859375,-0.04013650119304657,-0.23539866507053375,0.369139701128006
1773257938291824400,5.084824462890625,0.011211642064154148,-0.37848684191703796,0.4275049865245819
1773257938301837300,5.09483740234375,0.03517769277095795,-0.37315094470977783,0.5813531279563904
1773257938311849500,5.104849365234375,0.2099207490682602,-0.3826808035373688,0.7200825214385986
1773257938321861400,5.114861328125,0.17232783138751984,0.04784981533885002,0.9967431426048279
1773257938331874300,5.124874267578125,0.17979159951210022,0.1940336525440216,1.2558929920196533
1773257938341886200,5.13488623046875,0.2124270498752594,-0.156907856464386,1.4290902614593506
1773257938351898000,5.144898193359375,0.13316710293293,-0.31473103165626526,1.476577639579773
1773257938361911300,5.154911376953125,0.048173122107982635,-0.6990909576416016,1.5923268795013428
1773257938371923200,5.164923095703125,-0.019453059881925583,-1.189213752746582,1.6243131160736084
1773257938381935400,5.174935302734375,-0.1374492049217224,-1.3555830717086792,1.6139432191848755
1773257938391948300,5.1849482421875,-0.18949748575687408,-1.306801676750183,1.6133946180343628
1773257938401960400,5.19496044921875,-0.2642369866371155,-1.1103181838989258,1.5745092630386353
1773257938411972400,5.204972412109375,-0.36533695459365845,-0.75389564037323,1.579740047454834
1773257938421985300,5.2149853515625,-0.4661296308040619,-0.21935072541236877,1.614060640335083
1773257938431997200,5.2249970703125,-0.601692259311676,0.40683701634407043,1.7454110383987427
1773257938442009000,5.235009033203125,-0.6934101581573486,0.881297767162323,1.7827095985412598
1773257938452022300,5.245022216796875,-1.0083668231964111,1.3278989791870117,1.819156289100647
1773257938462034200,5.2550341796875,-0.856111466884613,1.096619963645935,1.7193917036056519
1773257938472046300,5.26504638671875,-0.6563594937324524,-0.1948602944612503,1.3822882175445557
1773257938482059300,5.275059326171875,-0.6552367210388184,-0.41715168952941895,1.4289995431900024
1773257938492071400,5.285071533203125,-0.63211590051651,-0.47071024775505066,1.4725674390792847
1773257938502083300,5.295083251953125,-0.6122218370437622,-0.4776515066623688,1.5196510553359985
1773257938512096300,5.30509619140625,-0.5922497510910034,-0.2916124165058136,1.6072715520858765
1773257938522108400,5.3151083984375,-0.5869377851486206,-0.0891309380531311,1.7165601253509521
1773257938532120300,5.325120361328125,-0.604462206363678,-0.00782596506178379,1.7615017890930176
1773257938542133200,5.33513330078125,-0.6250673532485962,0.028609806671738625,1.7720245122909546
1773257938552145200,5.345145263671875,-0.6598730087280273,0.024107733741402626,1.7557451725006104
1773257938562157300,5.3551572265625,-0.6342321038246155,-0.0439315065741539,1.6887109279632568
1773257938572170200,5.365170166015625,-0.6038656234741211,-0.23726554214954376,1.644372582435608
1773257938582182100,5.37518212890625,-0.5951811075210571,-0.280483603477478,1.6399966478347778
1773257938592194300,5.3851943359375,-0.5712544322013855,-0.253549188375473,1.7031497955322266
1773257938602207200,5.395207275390625,-0.6158432364463806,-0.13334926962852478,1.850380539894104
1773257938612219400,5.405219482421875,-0.6453608870506287,0.15622448921203613,2.0837724208831787
1773257938622231300,5.415231201171875,-0.5675526261329651,0.3174826204776764,2.2433035373687744
1773257938632244200,5.425244140625,-0.5916872620582581,0.05420917645096779,2.238172769546509
1773257938642256400,5.43525634765625,-0.6252833008766174,-0.3772474229335785,2.01358962059021
1773257938652268300,5.445268310546875,-0.6335050463676453,-0.44287675619125366,1.9515635967254639
1773257938662280400,5.455280517578125,-0.6701576113700867,-0.1827988475561142,1.896047592163086
1773257938672293000,5.465293212890625,-0.72437983751297,0.15083318948745728,1.9207031726837158
1773257938682305300,5.47530517578125,-0.7523272633552551,0.19402939081192017,1.9337491989135742
1773257938692318200,5.485318115234375,-0.7523843050003052,0.06628447771072388,1.9260412454605103
1773257938702330400,5.495330322265625,-0.7046777606010437,-0.15540823340415955,1.8832024335861206
1773257938712342300,5.50534228515625,-0.6270665526390076,-0.4394274353981018,1.7658451795578003
1773257938722354200,5.515354248046875,-0.5796971917152405,-0.6323822140693665,1.5774235725402832
1773257938732367400,5.525367431640625,-0.5132380127906799,-0.6534103155136108,1.4760676622390747
1773257938742379300,5.535379150390625,-0.4898293614387512,-0.5114771127700806,1.4524390697479248
1773257938752391400,5.545391357421875,-0.49683693051338196,-0.31289318203926086,1.436819076538086
1773257938762404000,5.555404052734375,-0.465602844953537,-0.17335739731788635,1.390565276145935
1773257938772416300,5.565416259765625,-0.4496092200279236,-0.0070861391723155975,1.3507667779922485
1773257938782428200,5.57542822265625,-0.45128756761550903,0.2731167674064636,1.4159502983093262
1773257938792441300,5.58544140625,-0.44497746229171753,0.2836546301841736,1.37218177318573
1773257938802453200,5.595453369140625,-0.39969944953918457,0.2278832346200943,1.2847422361373901
1773257938812465200,5.605465087890625,-0.35971397161483765,0.17831167578697205,1.156320571899414
1773257938822478300,5.615478271484375,-0.2890717387199402,0.0519912950694561,1.0334670543670654
1773257938832490200,5.625490234375,-0.2378125637769699,0.04253893718123436,0.9413158297538757
1773257938842502400,5.63550244140625,-0.08055795729160309,-0.06558273732662201,0.8909780979156494
1773257938852515300,5.645515380859375,0.07012955099344254,-0.20950715243816376,0.828316867351532
1773257938862527500,5.655527587890625,0.17999640107154846,-0.29858216643333435,0.7692194581031799
1773257938872539400,5.665539306640625,0.32224729657173157,-0.34711775183677673,0.6610596776008606
1773257938882552300,5.67555224609375,0.3457062840461731,-0.3940887153148651,0.6609259843826294
1773257938892564200,5.685564208984375,0.3778029680252075,-0.28297552466392517,0.702193021774292
1773257938902576000,5.695576171875,0.3857543468475342,-0.0752745121717453,0.7437719106674194
1773257938912589300,5.70558935546875,0.388302206993103,0.08687524497509003,0.7897955775260925
1773257938922601200,5.715601318359375,0.4281175136566162,0.2223646342754364,0.8261503577232361
1773257938932613400,5.72561328125,0.45876625180244446,0.2540264129638672,0.8653417229652405
1773257938942626300,5.735626220703125,0.44523417949676514,0.17945684492588043,0.9522451758384705
1773257938952638500,5.745638427734375,0.3979974389076233,0.1887025386095047,1.0557060241699219
1773257938962650400,5.755650390625,0.3374752402305603,0.08439770340919495,1.1532903909683228
1773257938972663000,5.7656630859375,0.1351010948419571,0.008329303003847599,1.1663258075714111
1773257938982675200,5.77567529296875,-0.023990022018551826,-0.040936246514320374,1.1916955709457397
1773257938992687000,5.78568701171875,-0.12033519893884659,0.0019313243683427572,1.2013835906982422
1773257939002700300,5.7957001953125,-0.10826202481985092,-0.06193580478429794,1.2082128524780273
1773257939012712200,5.805712158203125,-0.11286503076553345,-0.08836128562688828,1.2115478515625
1773257939022724400,5.815724365234375,-0.13108958303928375,-0.06169212609529495,1.1934617757797241
1773257939032737300,5.8257373046875,-0.10726706683635712,-0.08639108389616013,1.1358566284179688
1773257939042749200,5.835749267578125,-0.11220642924308777,-0.15470382571220398,1.04133141040802
1773257939052761300,5.84576123046875,-0.12761281430721283,-0.30281126499176025,0.9036310315132141
1773257939062774300,5.855774169921875,-0.17643016576766968,-0.44115129113197327,0.7410192489624023
1773257939072786400,5.865786376953125,-0.22623074054718018,-0.5059345364570618,0.5801815986633301
1773257939082798300,5.87579833984375,-0.28922009468078613,-0.47562697529792786,0.4234961271286011
1773257939092810500,5.885810546875,-0.3172333538532257,-0.43990039825439453,0.3141227662563324
1773257939102823200,5.8958232421875,-0.35536423325538635,-0.37712010741233826,0.23521330952644348
1773257939112835000,5.9058349609375,-0.40929776430130005,-0.2172204703092575,0.1662483662366867
1773257939122847200,5.91584716796875,-0.5131485462188721,0.0032258869614452124,0.04952121526002884
1773257939132860200,5.925860107421875,-0.6275776624679565,0.19548560678958893,-0.09723201394081116
1773257939142872300,5.935872314453125,-0.7230815291404724,0.29942452907562256,-0.2843414545059204
1773257939152884200,5.94588427734375,-0.7915511131286621,0.38485580682754517,-0.5111356973648071
1773257939162897400,5.9558974609375,-0.842815101146698,0.5129644870758057,-0.7560091018676758
1773257939172909300,5.965909423828125,-0.9575488567352295,0.659238874912262,-1.0297610759735107
1773257939182921200,5.975921142578125,-1.0490069389343262,0.6522478461265564,-1.258670687675476
1773257939192934400,5.985934326171875,-1.0828804969787598,0.46420708298683167,-1.4124239683151245
1773257939202946300,5.9959462890625,-1.0731689929962158,0.23350143432617188,-1.5089033842086792
1773257939212958200,6.005958251953125,-1.0365182161331177,0.07015884667634964,-1.5524884462356567
1773257939222971100,6.01597119140625,-0.9884955883026123,0.057506170123815536,-1.5576943159103394
1773257939232983300,6.0259833984375,-0.9198382496833801,0.23829512298107147,-1.54097318649292
1773257939242995200,6.0359951171875,-0.8622236847877502,0.45387375354766846,-1.511541724205017
1773257939253008400,6.04600830078125,-0.8093610405921936,0.7531270384788513,-1.5176275968551636
1773257939263020300,6.056020263671875,-0.8029488921165466,0.9759278893470764,-1.5220463275909424
1773257939273032200,6.0660322265625,-0.8185492157936096,1.0900142192840576,-1.4732534885406494
1773257939283045400,6.07604541015625,-0.8060339093208313,1.0019536018371582,-1.4440908432006836
1773257939293057300,6.086057373046875,-0.7373718023300171,0.8879748582839966,-1.5930001735687256
1773257939303069400,6.0960693359375,-0.7603548765182495,0.8286023736000061,-1.9494056701660156
1773257939313082000,6.10608203125,-0.7588709592819214,0.819650411605835,-2.059175729751587
1773257939323094300,6.11609423828125,-0.8270662426948547,0.9702646732330322,-2.027141571044922
1773257939333106200,6.126106201171875,-0.9511008262634277,1.0729924440383911,-1.9177193641662598
1773257939343119400,6.136119384765625,-1.0782910585403442,0.9728562235832214,-1.8455791473388672
1773257939353131300,6.14613134765625,-1.208399772644043,0.806720495223999,-1.8318848609924316
1773257939363143200,6.15614306640625,-1.3962141275405884,0.6461843252182007,-1.805936336517334
1773257939373156400,6.16615625,-1.5716415643692017,0.5126446485519409,-1.6367771625518799
1773257939383168300,6.176168212890625,-1.6712853908538818,0.4034672975540161,-1.3624540567398071
1773257939393180400,6.186180419921875,-1.7231032848358154,0.39335209131240845,-1.045129656791687
1773257939403192300,6.1961923828125,-1.6982107162475586,0.5143493413925171,-0.7639024257659912
1773257939413205500,6.20620556640625,-1.4268218278884888,0.8331949710845947,-0.6100113987922668
1773257939423217400,6.216217529296875,-1.2270421981811523,0.8314053416252136,-0.5315144658088684
1773257939433229300,6.226229248046875,-1.0199289321899414,0.5754947066307068,-0.5537950396537781
1773257939443242200,6.2362421875,-0.9165908098220825,0.11994291841983795,-0.6124135851860046
1773257939453254100,6.246254150390625,-0.8779600262641907,-0.3081200122833252,-0.6033639311790466
1773257939463266300,6.256266357421875,-0.8391295671463013,-0.5628649592399597,-0.5300502777099609
1773257939473279200,6.266279296875,-0.7661482691764832,-0.7538929581642151,-0.44322270154953003
1773257939483291400,6.27629150390625,-0.6798405647277832,-0.9080651998519897,-0.4123859703540802
1773257939493303300,6.28630322265625,-0.5477885007858276,-0.972300112247467,-0.49185895919799805
1773257939503316200,6.296316162109375,-0.2161693125963211,-0.2511134445667267,-0.02184404619038105
1773257939513328400,6.306328369140625,-0.09530707448720932,-0.30732080340385437,0.6705285906791687
1773257939523340300,6.31634033203125,0.06816760450601578,-1.4493029117584229,0.43729931116104126
1773257939533353200,6.326353271484375,0.21167096495628357,-1.8219926357269287,0.12810496985912323
1773257939543365000,6.336365234375,0.4090157449245453,-2.109067440032959,-0.22897592186927795
1773257939553377300,6.346377197265625,0.7956971526145935,-2.0558481216430664,-0.9542622566223145
1773257939563390200,6.35639013671875,0.9069030284881592,-2.1809802055358887,-1.2313958406448364
1773257939573402000,6.366402099609375,0.9438120126724243,-2.156418561935425,-1.4474080801010132
1773257939583414300,6.376414306640625,0.9425704479217529,-1.9783433675765991,-1.6175289154052734
1773257939593427200,6.38642724609375,0.877483069896698,-1.9026434421539307,-1.6711477041244507
1773257939603439400,6.396439453125,0.8049473762512207,-1.7625356912612915,-1.8125865459442139
1773257939613451300,6.406451171875,0.6777142882347107,-1.607675552368164,-1.9818973541259766
1773257939623464400,6.41646435546875,0.5320015549659729,-1.6094534397125244,-2.0635108947753906
1773257939633476400,6.426476318359375,0.36467278003692627,-1.6425578594207764,-2.028594732284546
1773257939643488300,6.43648828125,0.15083611011505127,-1.6585637331008911,-1.9288221597671509
1773257939653500400,6.44650048828125,-0.09677527844905853,-1.5204089879989624,-1.631016492843628
1773257939663513000,6.45651318359375,-0.3641510605812073,-1.230909824371338,-1.1998085975646973
1773257939673525200,6.466525146484375,-0.7409459948539734,-0.7086402773857117,-0.9572585821151733
1773257939683537200,6.476537109375,-0.9652187824249268,-0.27849873900413513,-1.0274853706359863
1773257939693550300,6.48655029296875,-1.0480703115463257,-1.0151081085205078,-0.962062656879425
1773257939703562200,6.496562255859375,-1.1082507371902466,-2.014836072921753,-0.8786631226539612
1773257939713574100,6.50657421875,-1.1984280347824097,-2.690495491027832,-0.8947174549102783
1773257939723587300,6.51658740234375,-1.3601034879684448,-2.9049510955810547,-1.0116866827011108
1773257939733599200,6.52659912109375,-1.4982949495315552,-2.626412868499756,-1.122404932975769
1773257939743611400,6.536611328125,-1.5489485263824463,-2.2470927238464355,-1.1158196926116943
1773257939753624300,6.546624267578125,-1.431820034980774,-1.9717328548431396,-1.0054916143417358
1773257939763636200,6.55663623046875,-1.1963531970977783,-1.871440052986145,-0.8583999276161194
1773257939773648400,6.5666484375,-0.9113169312477112,-1.7596333026885986,-0.6736676096916199
1773257939783661300,6.576661376953125,-0.6989336013793945,-1.6103626489639282,-0.4777311384677887
1773257939793673200,6.586673095703125,-0.6185029149055481,-1.5473690032958984,-0.3306562006473541
1773257939803685000,6.59668505859375,-0.6495015621185303,-1.5055416822433472,-0.2571558952331543
1773257939813698300,6.6066982421875,-0.7250687479972839,-1.3705087900161743,-0.2612755298614502
1773257939823710200,6.616710205078125,-0.7893079519271851,-1.2633525133132935,-0.2943354845046997
1773257939833722400,6.626722412109375,-0.8518069982528687,-1.2405052185058594,-0.32775869965553284
1773257939843734300,6.636734375,-0.9538598656654358,-1.2380577325820923,-0.3679434061050415
1773257939853747500,6.64674755859375,-1.063611388206482,-1.1947307586669922,-0.43671074509620667
1773257939863759400,6.65675927734375,-1.1617581844329834,-1.1412513256072998,-0.551715075969696
1773257939873771300,6.666771240234375,-1.2578197717666626,-1.1346030235290527,-0.703386664390564
1773257939883784200,6.6767841796875,-1.3457549810409546,-1.115457534790039,-0.8639947175979614
1773257939893796000,6.686796142578125,-1.417027473449707,-1.0632587671279907,-0.9842159152030945
1773257939903808300,6.696808349609375,-1.5042940378189087,-1.105819821357727,-1.0617860555648804
1773257939913821200,6.7068212890625,-1.625553846359253,-1.2771193981170654,-1.1259647607803345
1773257939923833300,6.716833251953125,-1.75423002243042,-1.4747425317764282,-1.201592206954956
1773257939933845200,6.72684521484375,-1.9124654531478882,-1.6278332471847534,-1.25608491897583
1773257939943858400,6.7368583984375,-2.1249330043792725,-1.594465970993042,-1.27937912940979
1773257939953870300,6.746870361328125,-2.3331079483032227,-1.2033610343933105,-1.2805492877960205
1773257939963882200,6.75688232421875,-2.453916549682617,-0.7426387071609497,-1.2458446025848389
1773257939973895400,6.7668955078125,-2.458251953125,-0.2168891727924347,-1.153710126876831
1773257939983907300,6.7769072265625,-2.3752565383911133,0.3536105453968048,-0.965714156627655
1773257939993919500,6.78691943359375,-2.2505829334259033,0.7882091403007507,-0.7415939569473267
1773257940003932200,6.79693212890625,-2.128870964050293,1.0517557859420776,-0.5544679760932922
1773257940013944300,6.8069443359375,-2.0263171195983887,1.0823755264282227,-0.4496142864227295
1773257940023956200,6.816956298828125,-1.9026120901107788,0.9419978857040405,-0.42208385467529297
1773257940033969200,6.82696923828125,-1.8010356426239014,0.8166120052337646,-0.4204771816730499
1773257940043981300,6.836981201171875,-1.7873246669769287,0.7479871511459351,-0.4624669849872589
1773257940053993200,6.8469931640625,-1.6817302703857422,0.5110962986946106,-0.50397127866745
1773257940064005400,6.85700537109375,-1.5412013530731201,0.26361778378486633,-0.5356423854827881
1773257940074018300,6.867018310546875,-1.4746320247650146,0.2069353312253952,-0.5852930545806885
1773257940084030500,6.877030517578125,-1.4239099025726318,0.196524515748024,-0.6174978613853455
1773257940094042400,6.88704248046875,-1.4293224811553955,0.1146746501326561,-0.6636443138122559
1773257940104055000,6.897054931640625,-1.2902042865753174,-0.002799248555675149,-0.6846752762794495
1773257940114067200,6.907067138671875,-1.1339290142059326,-0.11899882555007935,-0.7044111490249634
1773257940124079000,6.9170791015625,-1.2454272508621216,0.10346034914255142,-0.8056344389915466
1773257940134092300,6.92709228515625,-1.4292634725570679,0.08304242044687271,-0.8095559477806091
1773257940144104200,6.937104248046875,-1.433173418045044,-0.3946671485900879,-0.7643288373947144
1773257940154116400,6.947116455078125,-1.3871649503707886,-0.5969459414482117,-0.7235321402549744
1773257940164129300,6.95712939453125,-1.3544621467590332,-0.6178941130638123,-0.7077372074127197
1773257940174141200,6.96714111328125,-1.4587105512619019,-0.5378762483596802,-0.7078778147697449
1773257940184153300,6.9771533203125,-1.5930126905441284,-0.32745856046676636,-0.6332035660743713
1773257940194166300,6.987166259765625,-1.6884918212890625,0.006620618514716625,-0.5249175429344177
1773257940204178400,6.997178466796875,-1.804564356803894,0.4117438793182373,-0.3933046758174896
1773257940214190300,7.0071904296875,-1.8408368825912476,0.7525328993797302,-0.22941161692142487
1773257940224202200,7.0172021484375,-1.8749929666519165,1.0060477256774902,-0.11031132936477661
1773257940234215200,7.027215087890625,-1.880497694015503,1.1113331317901611,-0.002936401404440403
1773257940244227000,7.03722705078125,-1.8979523181915283,1.1302911043167114,0.08156117051839828
1773257940254239200,7.0472392578125,-1.9567596912384033,1.1352763175964355,0.14902223646640778
1773257940264252200,7.057252197265625,-2.109496831893921,1.214614748954773,0.2037470042705536
1773257940274264300,7.067264404296875,-2.283710479736328,1.52744722366333,0.26427799463272095
1773257940284276200,7.077276123046875,-2.4979093074798584,1.9472339153289795,0.3686986565589905
1773257940294289400,7.087289306640625,-2.688891887664795,2.1941680908203125,0.5240967869758606
1773257940304301300,7.09730126953125,-2.8191022872924805,2.4193828105926514,0.6680318713188171
1773257940314313200,7.107313232421875,-2.905734062194824,2.611783027648926,0.7422352433204651
1773257940324326400,7.117326416015625,-2.9731099605560303,2.747384786605835,0.7515600323677063
1773257940334338300,7.12733837890625,-3.0529351234436035,2.871617078781128,0.7283018231391907
1773257940344350500,7.1373505859375,-3.189453601837158,2.9655022621154785,0.7327003479003906
1773257940354363100,7.147363037109375,-3.2620880603790283,2.6793081760406494,0.6905534267425537
1773257940364375300,7.157375244140625,-2.9226667881011963,1.4969143867492676,0.08647843450307846
1773257940374387200,7.16738720703125,-2.9625725746154785,0.7019719481468201,-0.3552941679954529
1773257940384400400,7.177400390625,-3.004976987838745,0.8158870935440063,-0.34222736954689026
1773257940394412300,7.187412353515625,-3.034210205078125,0.9042313098907471,-0.41701480746269226
1773257940404424200,7.197424072265625,-3.064095973968506,1.0069150924682617,-0.4498286843299866
1773257940414437400,7.207437255859375,-2.9302027225494385,1.5204663276672363,-0.7965853214263916
1773257940424449300,7.21744921875,-2.652880907058716,2.1337411403656006,-1.2495224475860596
1773257940434461400,7.22746142578125,-1.9873615503311157,2.6069259643554688,-1.75699782371521
1773257940444473300,7.237473388671875,-1.5189841985702515,2.2685625553131104,-2.191793441772461
1773257940454486300,7.247486328125,-1.1312109231948853,1.9401088953018188,-2.565735101699829
1773257940464498200,7.257498291015625,-1.1503894329071045,2.3939812183380127,-2.285475015640259
1773257940474510000,7.267510009765625,-1.3189784288406372,3.256504535675049,-1.789534568786621
1773257940484523300,7.277523193359375,-1.4326043128967285,3.97676682472229,-1.3682941198349
1773257940494535200,7.28753515625,-1.3845899105072021,4.04184627532959,-1.1989129781723022
1773257940504547300,7.29754736328125,-1.201308012008667,3.6068918704986572,-1.1533644199371338
1773257940514560300,7.307560302734375,-1.0056591033935547,3.0275466442108154,-1.1053553819656372
1773257940524572400,7.317572509765625,-0.8576321601867676,2.415606737136841,-1.0235300064086914
1773257940534584300,7.327584228515625,-0.7929266691207886,1.9247205257415771,-0.9235504269599915
1773257940544597500,7.337597412109375,-0.745082437992096,1.634363055229187,-0.8741378784179688
1773257940554609400,7.347609375,-0.694801926612854,1.4869896173477173,-0.8804426193237305
1773257940564621600,7.35762158203125,-0.6624978184700012,1.4581515789031982,-0.9119494557380676
1773257940574634200,7.36763427734375,-0.6704678535461426,1.4947409629821777,-0.932694137096405
1773257940584646400,7.377646484375,-0.6607893705368042,1.5028194189071655,-0.9729912281036377
1773257940594658300,7.387658203125,-0.562400758266449,1.4279710054397583,-1.063533902168274
1773257940604671500,7.39767138671875,-0.5229638814926147,1.1805377006530762,-1.1998659372329712
1773257940614683400,7.407683349609375,-0.4579167068004608,1.3477022647857666,-1.2340019941329956
1773257940624695300,7.4176953125,-0.3755784034729004,1.1328648328781128,-1.3175933361053467
1773257940634707500,7.42770751953125,-0.2561505436897278,1.002553939819336,-1.3663334846496582
1773257940644720400,7.437720458984375,-0.09285377711057663,0.9569640755653381,-1.4400633573532104
1773257940654732500,7.447732666015625,0.12076237052679062,1.7508041858673096,-1.2360275983810425
1773257940664744400,7.457744384765625,0.3583347201347351,2.7497808933258057,-0.7895476222038269
1773257940674757400,7.46775732421875,0.39891090989112854,2.5934388637542725,-0.7474774122238159
1773257940684769300,7.477769287109375,0.43331122398376465,2.169588088989258,-0.8923613429069519
1773257940694781200,7.48778125,0.5596475601196289,1.9006143808364868,-0.8880787491798401
1773257940704794400,7.49779443359375,0.5869689583778381,1.7603007555007935,-0.8097056150436401
1773257940714806300,7.50780615234375,0.4677882492542267,1.6118505001068115,-0.8153272867202759
1773257940724818400,7.517818359375,0.26352110505104065,1.456083059310913,-0.8540307283401489
1773257940734831400,7.527831298828125,0.0762188732624054,1.4020302295684814,-0.8652442693710327
1773257940744843500,7.537843505859375,-0.133445143699646,1.3616281747817993,-0.8713389039039612
1773257940754855400,7.54785546875,-0.3769422173500061,1.2991400957107544,-0.8800021409988403
1773257940764868600,7.55786865234375,-0.6194778680801392,1.2488683462142944,-0.8595730662345886
1773257940774880500,7.567880615234375,-0.8343089818954468,1.2113009691238403,-0.8393170237541199
1773257940784892400,7.577892333984375,-0.9880561828613281,1.206761121749878,-0.8454228639602661
1773257940794905300,7.5879052734375,-1.063891887664795,1.2402846813201904,-0.8733575940132141
1773257940804917200,7.597917236328125,-1.096109390258789,1.2566317319869995,-0.921491265296936
1773257940814929400,7.607929443359375,-1.109410047531128,1.2506496906280518,-0.9821450114250183
1773257940824941300,7.61794140625,-1.095069408416748,1.2448033094406128,-1.0370328426361084
1773257940834954500,7.62795458984375,-1.0935392379760742,1.1943414211273193,-1.0861531496047974
1773257940844966400,7.63796630859375,-1.1133546829223633,1.0636979341506958,-1.1278095245361328
1773257940854978300,7.647978271484375,-1.1267770528793335,0.8700850605964661,-1.1433751583099365
1773257940864991500,7.657991455078125,-1.1138607263565063,0.6938642263412476,-1.1080769300460815
1773257940875003400,7.66800341796875,-1.0838080644607544,0.5630473494529724,-1.0268819332122803
1773257940885015600,7.678015625,-1.0342737436294556,0.47905129194259644,-0.9333370327949524
1773257940895028500,7.688028564453125,-0.9781622886657715,0.4020577073097229,-0.8659899234771729
1773257940905040400,7.698040283203125,-0.9230468273162842,0.3633081614971161,-0.8096350431442261
1773257940915052300,7.70805224609375,-0.8972639441490173,0.3506682813167572,-0.7692535519599915
1773257940925065500,7.7180654296875,-0.8919091820716858,0.31340184807777405,-0.7611594200134277
1773257940935077400,7.728077392578125,-0.8949975967407227,0.25639423727989197,-0.7811445593833923
1773257940945089300,7.73808935546875,-0.8883873820304871,0.19701452553272247,-0.8121845126152039
1773257940955102500,7.7481025390625,-0.8637193441390991,0.1745116114616394,-0.8233245015144348
1773257940965114400,7.7581142578125,-0.8081114888191223,0.1811271756887436,-0.8153720498085022
1773257940975126500,7.76812646484375,-0.7229813933372498,0.20115600526332855,-0.8036139011383057
1773257940985139500,7.778139404296875,-0.6298445463180542,0.21769264340400696,-0.7886730432510376
1773257940995151400,7.7881513671875,-0.5523949861526489,0.23472756147384644,-0.7654566764831543
1773257941005163500,7.79816357421875,-0.4949711263179779,0.2500564455986023,-0.7301463484764099
1773257941015175400,7.808175537109375,-0.465562105178833,0.274435818195343,-0.6714843511581421
1773257941025188400,7.818188232421875,-0.4408913850784302,0.3163662254810333,-0.6097171306610107
1773257941035200300,7.8282001953125,-0.41694876551628113,0.37402018904685974,-0.5490239858627319
1773257941045212400,7.83821240234375,-0.3893629312515259,0.4199618697166443,-0.48984745144844055
1773257941055225300,7.848225341796875,-0.3609406054019928,0.4522484242916107,-0.43696799874305725
1773257941065237200,7.8582373046875,-0.336934357881546,0.4842718839645386,-0.3851735293865204
1773257941075249400,7.86824951171875,-0.307346373796463,0.49784359335899353,-0.33225491642951965
1773257941085262300,7.878262451171875,-0.2818732261657715,0.4811570346355438,-0.28918734192848206
1773257941095274500,7.8882744140625,-0.26804983615875244,0.436458557844162,-0.2596680521965027
1773257941105286400,7.898286376953125,-0.2564203441143036,0.3633800745010376,-0.24020594358444214
1773257941115299600,7.908299560546875,-0.2436038702726364,0.30019524693489075,-0.20544476807117462
1773257941125311500,7.9183115234375,-0.23406682908535004,0.24863244593143463,-0.1603907346725464
1773257941135323400,7.928323486328125,-0.2323397696018219,0.18524841964244843,-0.11431459337472916
1773257941145336300,7.93833642578125,-0.22925981879234314,0.1295958161354065,-0.07687240839004517
1773257941155348200,7.94834814453125,-0.2292097508907318,0.11346770823001862,-0.030607176944613457
1773257941165360400,7.9583603515625,-0.2315187156200409,0.144578754901886,0.027465978637337685
1773257941175372300,7.968372314453125,-0.22942040860652924,0.11081573367118835,0.051424574106931686
1773257941185385500,7.978385498046875,-0.21403080224990845,0.027633491903543472,0.051594220101833344
1773257941195397400,7.9883974609375,-0.18358634412288666,-0.0637827068567276,0.042142659425735474
1773257941205409300,7.9984091796875,-0.15831027925014496,-0.14103782176971436,0.02484622783958912
1773257941215422500,8.00842236328125,-0.1317013055086136,-0.2014359086751938,-0.008133294060826302
1773257941225434400,8.018434326171874,-0.09895268082618713,-0.22430899739265442,-0.040400952100753784
1773257941235446500,8.028446533203125,-0.0645638108253479,-0.19811494648456573,-0.0551210418343544
1773257941245459200,8.038459228515626,-0.04261749982833862,-0.17013125121593475,-0.05589815229177475
1773257941255471400,8.048471435546874,-0.030474819242954254,-0.1551818698644638,-0.056419599801301956
1773257941265483300,8.058483154296875,-0.01961631141602993,-0.14002740383148193,-0.05254922807216644
1773257941275496400,8.068496337890625,-0.008737032301723957,-0.1192728653550148,-0.05006183683872223
1773257941285508400,8.07850830078125,0.0014823154779151082,-0.08388984203338623,-0.03702326491475105
1773257941295520300,8.088520263671874,0.010949586518108845,-0.015600265003740788,-0.00808908510953188
1773257941305533400,8.098533447265625,0.018396584317088127,0.06403198093175888,0.014427674934267998
1773257941315545300,8.10854541015625,0.039448339492082596,0.12377253919839859,0.022434469312429428
1773257941325557500,8.1185576171875,0.07320896536111832,0.15475815534591675,0.03237871080636978
1773257941335570400,8.1285703125,0.11005779355764389,0.16208024322986603,0.05494607239961624
1773257941345582600,8.13858251953125,0.1499362289905548,0.14974795281887054,0.08211910724639893
1773257941355594500,8.148594482421874,0.20387722551822662,0.14191479980945587,0.12403912097215652
1773257941365606400,8.1586064453125,0.24746757745742798,0.1625758558511734,0.1832590401172638
1773257941375619300,8.168619384765625,0.2787008583545685,0.21777813136577606,0.24865029752254486
1773257941385631200,8.17863134765625,0.29227927327156067,0.2903258502483368,0.30683502554893494
1773257941395643400,8.188643310546874,0.2853206992149353,0.37676966190338135,0.3525681793689728
1773257941405656300,8.19865625,0.26985490322113037,0.49053457379341125,0.39791595935821533
1773257941415668500,8.20866845703125,0.2590528726577759,0.6013761162757874,0.43101316690444946
1773257941425680400,8.218680419921874,0.26424309611320496,0.6668579578399658,0.44371673464775085
1773257941435693600,8.228693603515625,0.27711015939712524,0.6768314838409424,0.4435526728630066
1773257941445705500,8.23870556640625,0.27788832783699036,0.6490017175674438,0.43740448355674744
1773257941455717400,8.24871728515625,0.26338449120521545,0.6099043488502502,0.4364870488643646
1773257941465730300,8.258730224609375,0.23640374839305878,0.5681459903717041,0.42498430609703064
1773257941475742500,8.268742431640625,0.20090806484222412,0.4948848485946655,0.4076439440250397
1773257941485754400,8.27875439453125,0.14907389879226685,0.38482117652893066,0.3961382806301117
1773257941495767300,8.288767333984374,0.12427454441785812,0.2705689072608948,0.3482525050640106
1773257941505779500,8.298779541015625,0.09733081609010696,0.21538235247135162,0.30598148703575134
1773257941515791400,8.308791259765625,0.04787804186344147,0.20197147130966187,0.30237478017807007
1773257941525804300,8.31880419921875,-0.0009419600828550756,0.17553746700286865,0.28761234879493713
1773257941535816400,8.32881640625,-0.04212881252169609,0.12698350846767426,0.25195714831352234
1773257941545828400,8.338828369140625,-0.09947705268859863,0.07616481184959412,0.22986702620983124
1773257941555841500,8.348841552734376,-0.1517237424850464,0.019063705578446388,0.21671633422374725
1773257941565853200,8.358853271484374,-0.18213331699371338,-0.068776935338974,0.1976504921913147
1773257941575865000,8.368864990234375,-0.19848299026489258,-0.1712910532951355,0.17248176038265228
1773257941585877000,8.378876953125,-0.20735159516334534,-0.25578251481056213,0.15672889351844788
1773257941595890000,8.388889892578124,-0.2051968276500702,-0.3252268135547638,0.1427917778491974
1773257941605902000,8.398902099609375,-0.1954142302274704,-0.37448251247406006,0.12439519166946411
1773257941615914000,8.4089140625,-0.19159819185733795,-0.3914247453212738,0.0908936858177185
1773257941625927000,8.418927001953126,-0.19820629060268402,-0.38949528336524963,0.0568009652197361
1773257941635939000,8.42893896484375,-0.21822208166122437,-0.3531644642353058,0.029499301686882973
1773257941645951000,8.438950927734375,-0.24353435635566711,-0.29917100071907043,0.01895371824502945
1773257941655964200,8.448964111328126,-0.27268052101135254,-0.2804814577102661,0.0018306568963453174
1773257941665976000,8.45897607421875,-0.29801145195961,-0.2823515236377716,-0.012584767304360867
1773257941675988000,8.468988037109375,-0.3182666599750519,-0.282579243183136,-0.015046327374875546
1773257941686001200,8.479001220703125,-0.3291914761066437,-0.27255430817604065,0.00364746549166739
1773257941696013000,8.489012939453126,-0.3295805752277374,-0.2334529608488083,0.05918768793344498
1773257941706025200,8.499025146484374,-0.3257879614830017,-0.19301685690879822,0.13291996717453003
1773257941716038000,8.509037841796875,-0.31827276945114136,-0.17562881112098694,0.19628456234931946
1773257941726050000,8.519050048828126,-0.3039127588272095,-0.16260302066802979,0.2445937693119049
1773257941736062000,8.52906201171875,-0.29011890292167664,-0.13515888154506683,0.2694093585014343
1773257941746075000,8.539074951171875,-0.28934818506240845,-0.09128836542367935,0.2646191418170929
1773257941756087000,8.549087158203125,-0.30223602056503296,-0.05675222724676132,0.22594498097896576
1773257941766099000,8.559098876953126,-0.33167195320129395,-0.044083572924137115,0.16190101206302643
1773257941776112000,8.569112060546875,-0.373069703578949,-0.021570805460214615,0.11969417333602905
1773257941786124000,8.5791240234375,-0.42013683915138245,0.0011345066595822573,0.11293267458677292
1773257941796136200,8.58913623046875,-0.4614696204662323,0.0048767803236842155,0.1281268149614334
1773257941806149000,8.599149169921875,-0.49484169483184814,-0.0021283982787281275,0.14447009563446045
1773257941816161000,8.6091611328125,-0.5278933644294739,0.003561178920790553,0.1487703025341034
1773257941826173200,8.619173095703125,-0.552979588508606,0.01332565862685442,0.14001329243183136
1773257941836185000,8.62918505859375,-0.5600731372833252,0.005335377063602209,0.12554620206356049
1773257941846198000,8.639197998046875,-0.545875072479248,-0.026923492550849915,0.11089935153722763
1773257941856210000,8.6492099609375,-0.5207965970039368,-0.08014463633298874,0.10061928629875183
1773257941866222000,8.65922216796875,-0.4944528639316559,-0.14690501987934113,0.0949222519993782
1773257941876235000,8.669235107421875,-0.47255903482437134,-0.22912666201591492,0.08471515029668808
1773257941886247000,8.679246826171875,-0.46035802364349365,-0.3026091456413269,0.070692278444767
1773257941896259000,8.689259033203125,-0.43958374857902527,-0.339516282081604,0.0792495459318161
1773257941906272000,8.69927197265625,-0.4121097922325134,-0.3531394302845001,0.10583535581827164
1773257941916284200,8.7092841796875,-0.3772412836551666,-0.3470200002193451,0.13385607302188873
1773257941926296000,8.719296142578125,-0.34204283356666565,-0.31588125228881836,0.1685301661491394
1773257941936309000,8.72930908203125,-0.29029467701911926,-0.28706640005111694,0.2020295262336731
1773257941946321000,8.73932080078125,-0.23051123321056366,-0.27477189898490906,0.2395729124546051
1773257941956332800,8.749332763671875,-0.16712987422943115,-0.24822045862674713,0.2885092794895172
1773257941966346000,8.759345947265626,-0.11308261007070541,-0.21295860409736633,0.3291752338409424
1773257941976358000,8.76935791015625,-0.07017882168292999,-0.16387814283370972,0.3524685800075531
1773257941986370000,8.7793701171875,-0.03689996153116226,-0.12010324001312256,0.3480013906955719
1773257941996382000,8.7893818359375,-0.011812717653810978,-0.058938685804605484,0.3288726806640625
1773257942006395100,8.79939501953125,0.0001739044237183407,0.0032344090286642313,0.3156980276107788
1773257942016407000,8.809406982421875,0.004195810295641422,0.032176047563552856,0.2995225191116333
1773257942026419000,8.8194189453125,-0.00802996288985014,0.03080292046070099,0.27542731165885925
1773257942036432100,8.82943212890625,-0.025427594780921936,0.02707795612514019,0.26875635981559753
1773257942046444000,8.839444091796874,-0.0393519327044487,0.013688381761312485,0.28871116042137146
1773257942056456200,8.849456298828125,-0.037758298218250275,-0.010332532227039337,0.3233999013900757
1773257942066468900,8.85946875,-0.01691213808953762,-0.02135482244193554,0.35803669691085815
1773257942076481000,8.86948095703125,0.013949104584753513,0.012388759292662144,0.3859676718711853
1773257942086493000,8.879492919921875,0.04434828832745552,0.06975670903921127,0.39895325899124146
1773257942096506000,8.889506103515625,0.08198700845241547,0.09981607645750046,0.38683372735977173
1773257942106518000,8.89951806640625,0.12097648531198502,0.10274102538824081,0.3511660099029541
1773257942116530000,8.909530029296874,0.15587082505226135,0.10003844648599625,0.30390024185180664
1773257942126543000,8.919543212890625,0.19031961262226105,0.08844038099050522,0.26539546251296997
1773257942136555000,8.929554931640626,0.22409754991531372,0.09165694564580917,0.2337469756603241
1773257942146567200,8.939567138671874,0.25252440571784973,0.09732415527105331,0.1954435259103775
1773257942156580000,8.949580078125,0.2725154161453247,0.08625206351280212,0.15075676143169403
1773257942166592000,8.959592041015625,0.28006866574287415,0.0590425468981266,0.09590176492929459
1773257942176604200,8.969604248046876,0.275073379278183,0.029530994594097137,0.051307663321495056
1773257942186616000,8.979615966796874,0.2734176814556122,0.005630721338093281,0.022844595834612846
1773257942196629000,8.98962890625,0.2860437333583832,0.009826531633734703,0.02401851676404476
1773257942206641000,8.999640869140626,0.3102164566516876,0.03903767839074135,0.05140593275427818
1773257942216653000,9.009653076171874,0.3362182378768921,0.06644906103610992,0.07629397511482239
1773257942226666000,9.019666015625,0.36163172125816345,0.09732948243618011,0.09058529138565063
1773257942236678100,9.02967822265625,0.3863932490348816,0.12296613305807114,0.09476778656244278
1773257942246690000,9.03968994140625,0.40638267993927,0.15342311561107635,0.10029277950525284
1773257942256703200,9.049703125,0.4227437973022461,0.179077610373497,0.10931983590126038
1773257942266715100,9.059715087890625,0.4385848045349121,0.18324784934520721,0.11786272376775742
1773257942276727000,9.06972705078125,0.4689815938472748,0.1698622703552246,0.12319916486740112
1773257942286740000,9.079739990234375,0.5042974948883057,0.13483957946300507,0.12390650063753128
1773257942296751900,9.089751953125,0.5385207533836365,0.07259297370910645,0.11379794031381607
1773257942306764000,9.099763916015625,0.5562693476676941,0.0020333235152065754,0.09362582117319107
1773257942316776000,9.10977587890625,0.5565751194953918,-0.04441620036959648,0.076911561191082
1773257942326789000,9.1197890625,0.5388408303260803,-0.06760434061288834,0.06316804885864258
1773257942336801000,9.129801025390625,0.5096475481987,-0.07989855855703354,0.05241793394088745
1773257942346813000,9.13981298828125,0.4883267879486084,-0.07957392185926437,0.03906884044408798
1773257942356826000,9.149826171875,0.4800877869129181,-0.08705899864435196,0.01278423797339201
1773257942366838000,9.159838134765625,0.48134613037109375,-0.10016068816184998,-0.018787270411849022
1773257942376850200,9.16985009765625,0.49589604139328003,-0.1092577800154686,-0.0463363379240036
1773257942386863000,9.179863037109374,0.5235657691955566,-0.11357343196868896,-0.0637078732252121
1773257942396875300,9.189875244140625,0.5681065917015076,-0.09694945067167282,-0.07293279469013214
1773257942406887200,9.19988720703125,0.6144424080848694,-0.04119883477687836,-0.08057793229818344
1773257942416899800,9.20989990234375,0.6584324836730957,0.04478291794657707,-0.08774929493665695
1773257942426912000,9.219912109375,0.7496955394744873,0.015200258232653141,-0.1557757407426834
1773257942436924000,9.229923828125,0.8596529364585876,-0.003847202518954873,-0.2617141604423523
1773257942446936000,9.23993603515625,0.9500488638877869,0.08180458843708038,-0.34094852209091187
1773257942456949000,9.249948974609374,1.016471028327942,0.23498988151550293,-0.353378564119339
1773257942466961000,9.2599609375,1.0469112396240234,0.28966429829597473,-0.29535868763923645
1773257942476973000,9.26997314453125,1.117836594581604,0.3468437194824219,-0.2814793586730957
1773257942486986000,9.279986083984374,1.1470777988433838,0.5950324535369873,-0.2850269377231598
1773257942496998100,9.289998046875,1.1171162128448486,0.6993445158004761,-0.29767775535583496
1773257942507010000,9.300010009765625,1.0672879219055176,0.5147693157196045,-0.2799464464187622
1773257942517023000,9.31002294921875,0.9797969460487366,0.32986366748809814,-0.20818142592906952
1773257942527035000,9.320034912109374,0.8577764630317688,0.2646838426589966,-0.1387224644422531
1773257942537046800,9.330046875,0.739931583404541,0.18135541677474976,-0.09354300051927567
1773257942547060000,9.34006005859375,0.6542502641677856,0.07481139153242111,-0.010753045789897442
1773257942557072000,9.35007177734375,0.6116825342178345,-0.037523139268159866,0.0964258685708046
1773257942567084800,9.360084716796875,0.5870805382728577,-0.14699317514896393,0.18267926573753357
1773257942577096700,9.3700966796875,0.5532464385032654,-0.1926509439945221,0.23813852667808533
1773257942587110000,9.38010986328125,0.5018172860145569,-0.13917626440525055,0.259674996137619
1773257942597121800,9.390121826171875,0.457904189825058,0.008643289096653461,0.25723713636398315
1773257942607133700,9.4001337890625,0.45072829723358154,0.21804630756378174,0.23906956613063812
1773257942617146600,9.410146728515626,0.48425909876823425,0.40677815675735474,0.24144244194030762
1773257942627158500,9.420158447265624,0.5823787450790405,0.49714186787605286,0.2699292302131653
1773257942637170700,9.430170654296875,0.6852797865867615,0.6005862355232239,0.3158639669418335
1773257942647183600,9.44018359375,0.7882953882217407,0.6379599571228027,0.35001394152641296
1773257942657195800,9.45019580078125,0.8953715562820435,0.7080205678939819,0.3929677903652191
1773257942667207700,9.460207763671875,0.9669591784477234,0.7291865348815918,0.5735607147216797
1773257942677220600,9.470220703125,0.9894713759422302,0.7084402441978455,0.7550591826438904
1773257942687232800,9.480232666015626,0.9683322906494141,0.644737720489502,0.954512894153595
1773257942697244700,9.49024462890625,0.9348536729812622,0.5974516868591309,1.1192853450775146
1773257942707256800,9.5002568359375,0.9202404022216797,0.5427210927009583,1.225891351699829
1773257942717269800,9.510269775390626,0.9010730981826782,0.4898059070110321,1.3012993335723877
1773257942727282000,9.520281982421874,0.8929717540740967,0.4144275486469269,1.353407859802246
1773257942737293800,9.5302939453125,0.8594276309013367,0.4123699963092804,1.3489965200424194
1773257942747306500,9.540306396484375,0.7969695925712585,0.5015240907669067,1.235149621963501
1773257942757318700,9.550318603515626,0.714366614818573,0.6721482872962952,1.0133447647094727
1773257942767330600,9.56033056640625,0.6221762299537659,0.8911219239234924,0.7204340696334839
1773257942777343700,9.57034375,0.526305615901947,1.065262794494629,0.3640024662017822
1773257942787355600,9.580355712890626,0.3942362666130066,1.1874446868896484,-0.009825199842453003
1773257942797367600,9.590367431640624,0.2348838895559311,1.202142596244812,-0.3140884339809418
1773257942807380700,9.600380615234375,0.09190036356449127,1.1032469272613525,-0.5452257990837097
1773257942817392600,9.610392578125,-0.04607827961444855,0.9256681799888611,-0.716616690158844
1773257942827404800,9.62040478515625,-0.18290376663208008,0.6867850422859192,-0.8083546161651611
1773257942837416700,9.630416748046875,-0.32730570435523987,0.3793206810951233,-0.8095916509628296
1773257942847429600,9.6404296875,-0.47663232684135437,0.061034590005874634,-0.7254629135131836
1773257942857441500,9.650441650390626,-0.6037684679031372,-0.3221314251422882,-0.5332287549972534
1773257942867453700,9.66045361328125,-0.6839269399642944,-0.7804068326950073,-0.2595612704753876
1773257942877466600,9.670466552734375,-0.7245625257492065,-1.2000259160995483,-0.018820293247699738
1773257942887478500,9.680478515625,-0.7164673209190369,-1.4929832220077515,0.17478325963020325
1773257942897490700,9.69049072265625,-0.6576540470123291,-1.6140040159225464,0.28985631465911865
1773257942907503600,9.700503662109375,-0.5752369165420532,-1.5585812330245972,0.3340509533882141
1773257942917515800,9.710515869140625,-0.4957708716392517,-1.345436453819275,0.32444706559181213
1773257942927527700,9.720527587890626,-0.4323175847530365,-1.061819314956665,0.263077974319458
1773257942937539600,9.73053955078125,-0.3992568552494049,-0.7913798689842224,0.20021165907382965
1773257942947552800,9.740552734375,-0.40887725353240967,-0.5801416635513306,0.16066451370716095
1773257942957564700,9.750564697265625,-0.4421912729740143,-0.42033523321151733,0.1811029464006424
1773257942967576800,9.760576904296874,-0.48286759853363037,-0.3221796452999115,0.3141113221645355
1773257942977589500,9.770589599609375,-0.5235162377357483,-0.3112151324748993,0.5620417594909668
1773257942987601700,9.7806015625,-0.5581842064857483,-0.325504869222641,0.7862825989723206
1773257942997613600,9.790613525390626,-0.5992844700813293,-0.31031739711761475,0.9322965145111084
1773257943007626800,9.800626708984375,-0.6385794281959534,-0.2547425329685211,0.9765241742134094
1773257943017638700,9.810638671875,-0.6713088750839233,-0.25824567675590515,0.9033982753753662
1773257943027650600,9.820650634765625,-0.6974549889564514,-0.3760111927986145,0.7353221774101257
1773257943037663700,9.830663818359374,-0.6902742981910706,-0.5150074362754822,0.44181734323501587
1773257943047675600,9.840675537109375,-0.635032594203949,-0.4486028254032135,-0.16638152301311493
1773257943057687800,9.850687744140625,-0.5075708031654358,-0.05301741138100624,-0.9576913714408875
1773257943067699700,9.86069970703125,-0.33482620120048523,0.5115857720375061,-1.3320918083190918
1773257943077713000,9.870712890625,-0.26336798071861267,0.9133057594299316,-1.3938367366790771
1773257943087724800,9.880724853515625,-0.2643323242664337,1.058891773223877,-1.329835057258606
1773257943097736700,9.89073681640625,-0.2785695791244507,0.8928689360618591,-1.0903156995773315
1773257943107749600,9.90074951171875,-0.32133808732032776,0.40090081095695496,-0.6224771738052368
1773257943117761500,9.910761474609375,-0.2775841951370239,-0.06353343278169632,-0.38814401626586914
1773257943127773700,9.920773681640625,-0.15627428889274597,-0.2955714762210846,-0.36856046319007874
1773257943137786600,9.93078662109375,-0.04580477252602577,-0.3407634496688843,-0.5377137660980225
1773257943147798800,9.940798828125,0.01569720357656479,-0.29848843812942505,-0.886819064617157
1773257943157810700,9.950810791015625,0.028870530426502228,-0.4127945005893707,-1.0191421508789062
1773257943167822600,9.960822509765626,-0.050877828150987625,-0.746719479560852,-0.918866753578186
1773257943177835800,9.970835693359374,-0.20467378199100494,-1.1824840307235718,-0.7474685907363892
1773257943187847700,9.98084765625,-0.33908191323280334,-1.5031543970108032,-0.59273362159729
1773257943197859800,9.99085986328125,-0.4379730820655823,-1.4866797924041748,-0.565234363079071
1773257943207872500,10.00087255859375,-0.5752009749412537,-1.2866381406784058,-0.6611316204071045
1773257943217884700,10.010884765625,-0.7674447298049927,-1.05290687084198,-0.8316679000854492
1773257943227896600,10.020896484375,-0.9359219074249268,-0.9045850038528442,-0.9616419076919556
1773257943237909800,10.03090966796875,-1.0250113010406494,-0.8473241329193115,-1.0917562246322632
1773257943247921700,10.040921630859375,-1.1714550256729126,-0.7474334836006165,-1.149368166923523
1773257943257933600,10.05093359375,-1.271761178970337,-0.7459953427314758,-1.0657345056533813
1773257943267946800,10.06094677734375,-1.2549808025360107,-0.8049708008766174,-0.9522824883460999
1773257943277958700,10.070958740234374,-1.1456961631774902,-0.9607377648353577,-0.8444164991378784
1773257943287970800,10.080970703125,-1.0191608667373657,-1.110521674156189,-0.7770190238952637
1773257943297982700,10.090982666015625,-0.9703536033630371,-1.1291533708572388,-0.7392200231552124
1773257943307996000,10.100995849609374,-1.0663435459136963,-1.0140230655670166,-0.6927832961082458
1773257943318007800,10.1110078125,-1.3201817274093628,-0.8175241351127625,-0.6589518189430237
1773257943328019700,10.121019775390625,-1.7026855945587158,-0.6893951892852783,-0.610288679599762
1773257943338032600,10.13103271484375,-2.172743797302246,-0.6695751547813416,-0.5369465351104736
1773257943348044500,10.14104443359375,-2.700866460800171,-0.7260698676109314,-0.4844934344291687
1773257943358056700,10.151056640625,-3.2438769340515137,-0.7868219017982483,-0.47419312596321106
1773257943368069600,10.161069580078125,-3.7599997520446777,-0.8941209316253662,-0.5570486187934875
1773257943378081800,10.171081787109374,-4.209275245666504,-0.9948880076408386,-0.6961159706115723
1773257943388093700,10.18109375,-4.5146026611328125,-0.8421538472175598,-0.8595970273017883
1773257943398105600,10.191105712890625,-4.646098613739014,-0.2923210859298706,-0.9915561079978943
1773257943408118800,10.201118896484376,-4.659013748168945,0.33737829327583313,-1.0533286333084106
1773257943418130700,10.211130615234374,-4.651749610900879,0.7521957159042358,-1.1007204055786133
1773257943428142800,10.221142822265625,-4.621150016784668,0.81889808177948,-1.1442830562591553
1773257943438155800,10.23115576171875,-4.5354814529418945,0.7787911295890808,-1.2466353178024292
1773257943448167700,10.241167724609374,-4.4068169593811035,0.44012171030044556,-1.4134618043899536
1773257943458179800,10.251179931640625,-4.291092872619629,0.1760019212961197,-1.6314828395843506
1773257943468192500,10.261192626953125,-4.131430625915527,0.07974090427160263,-1.7331396341323853
1773257943478204700,10.27120458984375,-3.9228672981262207,0.22082531452178955,-1.6915600299835205
1773257943488216600,10.281216552734374,-3.6871774196624756,0.5817086696624756,-1.494200587272644
1773257943498229800,10.291229736328125,-3.4996800422668457,0.8963209390640259,-1.1827911138534546
1773257943508241700,10.30124169921875,-3.401143789291382,0.9656025767326355,-0.8447352647781372
1773257943518253800,10.31125390625,-3.339078187942505,0.764662504196167,-0.5418313145637512
1773257943528265700,10.321265625,-3.290940523147583,0.38629284501075745,-0.3603973388671875
1773257943538278700,10.331278564453125,-3.1635665893554688,-0.08171723037958145,-0.2876056730747223
1773257943548290800,10.341290771484376,-2.949359655380249,-0.37404149770736694,-0.20474781095981598
1773257943558302700,10.351302734375,-2.6544127464294434,-0.551868736743927,-0.043654270470142365
1773257943568315400,10.3613154296875,-2.334932804107666,-0.7166710495948792,0.2133421003818512
1773257943578327300,10.371327392578126,-2.003180742263794,-0.8488247990608215,0.44544216990470886
1773257943588339200,10.381339111328124,-1.666573405265808,-0.9424934983253479,0.434032678604126
1773257943598352100,10.39135205078125,-1.4950120449066162,-0.9649900197982788,0.22787630558013916
1773257943608364000,10.401364013671875,-1.3866413831710815,-0.7811102271080017,-0.05236360430717468
1773257943618376200,10.411376220703126,-1.4571027755737305,-0.3759235739707947,-0.30807021260261536
1773257943628388000,10.42138818359375,-1.5882240533828735,0.14995940029621124,-0.5032035112380981
1773257943638401000,10.431401123046875,-1.753296136856079,0.6105355620384216,-0.5517718195915222
1773257943648413200,10.4414130859375,-1.8905961513519287,0.799555778503418,-0.5622745156288147
1773257943658425000,10.451425048828124,-1.9549833536148071,0.6602476835250854,-0.6683858036994934
1773257943668438300,10.461438232421875,-1.97349214553833,0.2887077033519745,-0.8713980317115784
1773257943678450200,10.4714501953125,-2.0810134410858154,-0.09093736112117767,-1.2759602069854736
1773257943688462300,10.48146240234375,-2.231903314590454,-0.5122156143188477,-1.6717513799667358
1773257943698475000,10.49147509765625,-2.2842397689819336,-0.7696980237960815,-1.761164665222168
1773257943708487000,10.50148681640625,-2.2649142742156982,-0.510621964931488,-1.7388542890548706
1773257943718499000,10.5114990234375,-2.195208787918091,-0.015113972127437592,-1.7175061702728271
1773257943728511000,10.521510986328124,-2.0496413707733154,0.7799893021583557,-1.925622582435608
1773257943738524200,10.531524169921875,-1.8358324766159058,0.9549350142478943,-1.425832986831665
1773257943748536000,10.5415361328125,-1.2957359552383423,3.2459394931793213,1.3252307176589966
1773257943758548200,10.55154833984375,-1.1130977869033813,3.859588623046875,0.44063571095466614
1773257943768561200,10.56156103515625,-1.1541693210601807,4.289653301239014,0.34235867857933044
1773257943778573000,10.571572998046875,-1.2339674234390259,4.679529190063477,0.2857894003391266
1773257943788585200,10.581585205078126,-1.029820442199707,3.374901056289673,0.0015720640076324344
1773257943798598100,10.59159814453125,-0.6932713985443115,2.40777325630188,0.22432763874530792
1773257943808610300,10.6016103515625,-0.5104222297668457,1.3017786741256714,0.04162707179784775
1773257943818622200,10.611622314453125,-0.6137531399726868,0.20267587900161743,-0.18181347846984863
1773257943828634400,10.62163427734375,-0.780794620513916,-0.6497303247451782,-0.3382299840450287
1773257943838647000,10.63164697265625,-0.9597707390785217,-1.2925926446914673,-0.5007011890411377
1773257943848659000,10.641658935546875,-1.1469411849975586,-1.8083068132400513,-0.587802529335022
1773257943858671000,10.651671142578126,-1.3617323637008667,-2.1984598636627197,-0.5560416579246521
1773257943868684000,10.66168408203125,-1.5768853425979614,-2.487497091293335,-0.5289226770401001
1773257943878696200,10.6716962890625,-1.7720556259155273,-2.5676259994506836,-0.41105225682258606
1773257943888708000,10.6817080078125,-1.9146772623062134,-2.0680196285247803,-0.2217787355184555
1773257943898721300,10.69172119140625,-1.9958817958831787,-1.2037855386734009,-0.029042836278676987
1773257943908733200,10.701733154296875,-2.0278732776641846,-0.3595898747444153,0.1870303452014923
1773257943918745000,10.7117451171875,-2.0485904216766357,0.3010117709636688,0.3647361397743225
1773257943928757200,10.72175732421875,-2.018094778060913,0.76899653673172,0.42035093903541565
1773257943938770200,10.731770263671875,-1.9409905672073364,1.0578699111938477,0.43504786491394043
1773257943948782000,10.741781982421875,-1.8734318017959595,1.1443169116973877,0.43136364221572876
1773257943958794200,10.751794189453125,-1.8218674659729004,1.105686902999878,0.3910122215747833
1773257943968807200,10.76180712890625,-1.7763513326644897,1.0206351280212402,0.30911338329315186
1773257943978819000,10.771819091796875,-1.7702553272247314,0.8690634965896606,0.18511180579662323
1773257943988831000,10.7818310546875,-1.8224689960479736,0.8219026327133179,0.006305300164967775
1773257943998844200,10.79184423828125,-1.8476921319961548,0.4854990541934967,-0.16154362261295319
1773257944008856000,10.80185595703125,-1.8187850713729858,0.09886959195137024,-0.34772148728370667
1773257944018868200,10.8118681640625,-1.73232102394104,-0.267377644777298,-0.5516972541809082
1773257944028881200,10.821881103515626,-1.5362468957901,-0.8833300471305847,-0.8951566219329834
1773257944038893300,10.831893310546874,-1.273478627204895,-1.681300163269043,-1.3984391689300537
1773257944048905200,10.8419052734375,-1.1024261713027954,-1.7800654172897339,-1.6523188352584839
1773257944058917000,10.851917236328125,-1.0110834836959839,-1.363808512687683,-1.5796430110931396
1773257944068930000,10.861929931640624,-0.9732943177223206,-1.0779941082000732,-1.3891847133636475
1773257944078942000,10.87194189453125,-0.9285222887992859,-1.5044153928756714,-1.262410044670105
1773257944088954000,10.8819541015625,-0.8113850355148315,-3.010833263397217,-1.247179388999939
1773257944098967000,10.891967041015626,-0.7684473991394043,-2.8657546043395996,-1.4821202754974365
1773257944108979200,10.901979248046874,-0.575252890586853,-2.2555367946624756,-1.5792046785354614
1773257944118991000,10.9119912109375,-0.465525358915329,-2.0732998847961426,-1.6580638885498047
1773257944129004300,10.92200439453125,-0.5383963584899902,-2.0492610931396484,-1.8521870374679565
1773257944139016200,10.93201611328125,-0.789979875087738,-1.6907775402069092,-2.1950156688690186
1773257944149028000,10.942028076171875,-1.0512067079544067,-1.027870774269104,-2.5462381839752197
1773257944159041300,10.952041259765625,-1.218196153640747,-0.29743486642837524,-2.7497305870056152
1773257944169053200,10.96205322265625,-1.3808485269546509,0.40548571944236755,-2.705535411834717
1773257944179065300,10.9720654296875,-1.4699528217315674,0.21742074191570282,-2.604405164718628
1773257944189077200,10.9820771484375,-1.4521892070770264,0.013461213558912277,-2.286608934402466
1773257944199090200,10.992090087890626,-1.3829143047332764,-0.3073927164077759,-1.9693706035614014
1773257944209102000,11.00210205078125,-1.2078777551651,-0.2348785549402237,-1.6521830558776855
1773257944219114000,11.012114013671875,-1.0353935956954956,0.1878466010093689,-1.3233497142791748
1773257944229127200,11.022127197265625,-0.9451186060905457,0.35590431094169617,-1.0595860481262207
1773257944239139000,11.03213916015625,-0.9866076707839966,0.5803678035736084,-0.8587394952774048
1773257944249151200,11.042151123046875,-1.0979886054992676,0.8397306203842163,-0.522861897945404
1773257944259164200,11.0521640625,-1.1069133281707764,-0.07884687930345535,-0.3526643216609955
1773257944269176300,11.06217626953125,-1.211024522781372,-0.06288149207830429,-0.6878535151481628
1773257944279188200,11.072188232421874,-1.2984178066253662,-0.10237164795398712,-1.282069206237793
1773257944289201200,11.082201171875,-1.358132243156433,-1.059175968170166,-1.6920287609100342
1773257944299213000,11.092213134765625,-1.5077054500579834,-2.028304100036621,-2.651135206222534
1773257944309225000,11.102224853515626,-1.6060906648635864,-2.760314702987671,-3.302823305130005
1773257944319238100,11.112238037109375,-1.2736831903457642,-3.694173812866211,-3.404209613800049
1773257944329250000,11.12225,-0.7049211859703064,-4.033276081085205,-2.987170934677124
1773257944339262200,11.13226220703125,0.05944947898387909,-4.117661952972412,-2.461555004119873
1773257944349274000,11.142274169921874,1.231794834136963,-5.220364570617676,-1.576668620109558
1773257944359287300,11.152287353515625,1.74173104763031,-4.689250946044922,-1.0780004262924194
1773257944369299200,11.16229931640625,2.180114984512329,-3.680784225463867,-0.20600296556949615
1773257944379311000,11.17231103515625,2.1018154621124268,-1.6687191724777222,0.48142123222351074
1773257944389324300,11.18232421875,1.8276041746139526,0.26036500930786133,0.9280154705047607
1773257944399336200,11.192336181640625,1.4627037048339844,2.124452829360962,1.0299581289291382
1773257944409348400,11.202348388671876,0.766229510307312,3.4237053394317627,0.8746652007102966
1773257944419361000,11.212361083984375,0.13351358473300934,3.830019235610962,0.6862545013427734
1773257944429373200,11.222373291015625,-0.2985459566116333,3.234135389328003,0.6201769709587097
1773257944439385000,11.232385009765625,-0.6501473784446716,2.1326940059661865,0.5022271871566772
1773257944449398000,11.24239794921875,-0.8007113337516785,1.0704879760742188,0.40126752853393555
1773257944459410200,11.25241015625,-0.7926999926567078,-0.04426546394824982,0.3158780634403229
1773257944469422000,11.262422119140625,-0.7308393120765686,-1.2040705680847168,0.27053001523017883
1773257944479435300,11.272435302734374,-0.6641473770141602,-2.096001386642456,0.345863938331604
1773257944489447200,11.282447265625,-0.39284050464630127,-2.3684842586517334,0.5043244361877441
1773257944499459300,11.292459228515625,-0.17459124326705933,-2.082674741744995,0.7703057527542114
1773257944509472300,11.30247216796875,-0.01565033197402954,-1.207227110862732,1.1308958530426025
1773257944519484200,11.312484130859374,0.07715337723493576,-0.19029617309570312,1.5329890251159668
1773257944529496300,11.322496337890625,0.18602313101291656,0.9892868399620056,1.8287732601165771
1773257944539508200,11.33250830078125,0.296216756105423,1.9156641960144043,2.0221924781799316
1773257944549521200,11.342521240234374,0.3412920832633972,2.3029441833496094,2.1914570331573486
1773257944559533000,11.352532958984375,0.3641081750392914,2.359586238861084,2.354205369949341
1773257944569545500,11.36254541015625,0.3353867828845978,2.2484359741210938,2.432675361633301
1773257944579558400,11.372558349609376,0.2479243129491806,1.9887501001358032,2.370264768600464
1773257944589570300,11.3825703125,0.1934557557106018,1.6659220457077026,2.178929567337036
1773257944599582500,11.39258251953125,0.20933564007282257,1.3003493547439575,1.872353196144104
1773257944609595400,11.402595458984376,0.2875537574291229,0.9274759292602539,1.513914942741394
1773257944619607600,11.412607666015624,0.39726772904396057,0.38563451170921326,1.192566990852356
1773257944629619500,11.422619384765625,0.5243375301361084,-0.27530401945114136,0.9225674867630005
1773257944639632400,11.43263232421875,0.6585803031921387,-0.8430758118629456,0.7320976257324219
1773257944649644300,11.442644287109376,0.7776342630386353,-1.3363391160964966,0.5775411128997803
1773257944659656200,11.45265625,0.9398204684257507,-1.865020513534546,0.3119001090526581
1773257944669669400,11.46266943359375,1.1952022314071655,-2.3083314895629883,-0.05282486602663994
1773257944679681300,11.472681396484376,1.6254504919052124,-2.3737895488739014,-0.4214220643043518
1773257944689693400,11.482693359375,2.217158079147339,-2.006561279296875,-0.8462290167808533
1773257944699706400,11.492706298828125,2.6474387645721436,-1.6914561986923218,-1.1850025653839111
1773257944709718500,11.502718505859375,2.872265577316284,-1.5103117227554321,-1.3205084800720215
1773257944719730400,11.51273046875,2.9612233638763428,-1.111728549003601,-1.2171151638031006
1773257944729743400,11.522743408203125,2.9991540908813477,-0.4479772448539734,-0.9484632611274719
1773257944739755500,11.532755615234375,2.9363176822662354,0.4418240189552307,-0.6759944558143616
1773257944749767400,11.542767333984376,2.8461081981658936,1.1789268255233765,-0.45920807123184204
1773257944759780400,11.5527802734375,2.804022789001465,1.5242160558700562,-0.25874021649360657
1773257944769792300,11.562792236328125,3.012789726257324,1.706299066543579,-0.16561932861804962
1773257944779804400,11.572804443359376,3.308110237121582,2.1201260089874268,-0.07981600612401962
1773257944789817300,11.5828173828125,3.550492763519287,2.9225308895111084,0.008163387887179852
1773257944799829500,11.59282958984375,3.6683497428894043,4.149520397186279,-0.013679060153663158
1773257944809841400,11.60284130859375,3.749340534210205,5.131990432739258,-0.03448234498500824
1773257944819854600,11.6128544921875,3.8566877841949463,5.360084533691406,-0.009333048015832901
1773257944829866500,11.622866455078125,3.780489444732666,3.1700897216796875,0.6150418519973755
1773257944839878400,11.63287841796875,3.809602975845337,1.2673929929733276,0.9746237397193909
1773257944849891300,11.642891357421876,3.8136630058288574,1.2573505640029907,1.034162163734436
1773257944859903200,11.6529033203125,3.6885082721710205,1.7130402326583862,0.9976334571838379
1773257944869915400,11.662915283203125,3.9052751064300537,2.117016553878784,1.001796007156372
1773257944879928300,11.67292822265625,4.224236965179443,2.343986749649048,0.8907139301300049
1773257944889940500,11.6829404296875,4.623047351837158,2.595022678375244,0.538557231426239
1773257944899952400,11.692952392578125,5.01418924331665,2.789977550506592,-0.21797281503677368
1773257944909965600,11.702965576171875,5.5330376625061035,3.109375476837158,-0.8395758867263794
1773257944919977500,11.7129775390625,5.9182586669921875,3.574455738067627,-1.3575226068496704
1773257944929989400,11.7229892578125,6.286410331726074,3.891150712966919,-2.0062034130096436
1773257944940002600,11.73300244140625,6.580075740814209,4.0384931564331055,-2.6362359523773193
1773257944950014500,11.743014404296876,6.840202331542969,4.082249164581299,-3.1301310062408447
1773257944960026600,11.753026611328124,7.0650200843811035,4.345577239990234,-3.481353759765625
1773257944970039300,11.763039306640625,7.24859619140625,4.459998607635498,-3.7190146446228027
1773257944980051500,11.773051513671875,7.441905498504639,3.889181613922119,-4.0206685066223145
1773257944990063400,11.7830634765625,7.808001518249512,2.932297706604004,-4.460498809814453
1773257945000076300,11.793076171875,8.347204208374023,1.921209692955017,-4.803811550140381
1773257945010088400,11.80308837890625,8.844526290893555,0.8233399391174316,-4.8816328048706055
1773257945020100400,11.813100341796876,9.078327178955078,-0.15751345455646515,-4.586671829223633
1773257945030113500,11.823113525390625,9.053181648254395,-1.0106980800628662,-3.924820899963379
1773257945040125400,11.83312548828125,8.799151420593262,-1.7318507432937622,-3.0129880905151367
1773257945050137300,11.843137451171875,8.311312675476074,-2.291891098022461,-1.953199863433838
1773257945060150300,11.853150390625,7.649385929107666,-2.8193585872650146,-0.8268697261810303
1773257945070162200,11.863162109375,6.825506210327148,-3.2668209075927734,0.3084515631198883
1773257945080174300,11.87317431640625,5.6788201332092285,-3.6058318614959717,1.2919585704803467
1773257945090187300,11.883187255859376,4.300790786743164,-3.867983818054199,2.1537678241729736
1773257945100199400,11.893199462890625,2.7476325035095215,-4.065532684326172,2.806610584259033
1773257945110211300,11.90321142578125,1.1967660188674927,-4.1976447105407715,3.2242720127105713
1773257945120224500,11.913224609375,-0.18628385663032532,-4.1457414627075195,3.4332823753356934
1773257945130236400,11.923236328125,-1.340742826461792,-3.966886281967163,3.49552583694458
1773257945140248300,11.933248291015625,-2.19698429107666,-3.671670913696289,3.51659893989563
1773257945150261500,11.943261474609375,-2.8038110733032227,-3.23635196685791,3.554588794708252
1773257945160273400,11.9532734375,-3.2680280208587646,-2.77449631690979,3.6588382720947266
1773257945170285600,11.96328564453125,-3.432683229446411,-2.387826681137085,3.703300952911377
1773257945180298200,11.97329833984375,-3.4117496013641357,-2.1981189250946045,3.6748404502868652
1773257945190310400,11.983310302734376,-3.537564516067505,-2.2059788703918457,3.812943935394287
1773257945200322300,11.993322265625,-3.8081743717193604,-1.535374402999878,4.343783855438232
1773257945210335500,12.00333544921875,-3.8960750102996826,-0.4577571749687195,4.491835594177246
1773257945220347400,12.013347412109376,-3.6792922019958496,-0.685523509979248,4.1608710289001465
1773257945230360600,12.023360595703124,-3.5347628593444824,-1.1970685720443726,3.570082187652588
1773257945240372500,12.03337255859375,-3.5026235580444336,-1.5481855869293213,2.73921275138855
1773257945250384400,12.04338427734375,-3.50978422164917,-1.5511560440063477,2.004347801208496
1773257945260397300,12.053397216796874,-3.5075795650482178,-1.1162493228912354,1.4079298973083496
1773257945270409500,12.063409423828125,-3.1437346935272217,-1.2923345565795898,0.24077798426151276
1773257945280421400,12.07342138671875,-2.410832643508911,-1.6487784385681152,-1.1816102266311646
1773257945290434300,12.083434326171876,-1.5783034563064575,-1.2679342031478882,-1.8889583349227905
1773257945300446500,12.093446533203124,-0.7715622186660767,-0.8419216275215149,-2.0796875953674316
1773257945310458400,12.103458251953125,-0.0728188157081604,-0.44118085503578186,-1.8240551948547363
1773257945320471300,12.11347119140625,0.47649356722831726,-0.00023542344570159912,-1.4322311878204346
1773257945330483500,12.1234833984375,0.8592257499694824,0.3640162944793701,-1.0000263452529907
1773257945340495400,12.133495361328125,1.0392184257507324,1.032211184501648,-0.5609503984451294
1773257945350508500,12.143508544921875,1.012129783630371,1.3179174661636353,-0.4841565489768982
1773257945360520400,12.1535205078125,0.8405799269676208,0.8968189358711243,-1.0368647575378418
1773257945370532600,12.16353271484375,0.5997984409332275,0.11260324716567993,-1.9558212757110596
1773257945380545300,12.173545166015625,0.46955791115760803,-0.31979185342788696,-2.6502814292907715
1773257945390557200,12.18355712890625,0.381243497133255,-0.28464317321777344,-2.9912290573120117
1773257945400570400,12.1935703125,0.1518545150756836,0.10206777602434158,-2.3615715503692627
1773257945410582300,12.203582275390625,-0.05102856457233429,0.44905850291252136,-1.8838356733322144
1773257945420594400,12.213594482421875,-0.20732522010803223,0.20537446439266205,-1.3979947566986084
1773257945430607400,12.223607421875,-0.36374759674072266,0.47700944542884827,-0.5607059001922607
1773257945440619500,12.23361962890625,-0.49536871910095215,0.6329486966133118,0.26265132427215576
1773257945450631400,12.24363134765625,-0.6136868596076965,0.5399308800697327,0.7755553722381592
1773257945460644600,12.25364453125,-0.72871333360672,0.6057596802711487,0.8696624636650085
1773257945470656500,12.263656494140625,-0.8851223587989807,0.6513402462005615,0.6479990482330322
1773257945480668400,12.27366845703125,-1.1246196031570435,0.5485235452651978,0.1688223034143448
1773257945490681300,12.283681396484376,-1.371370553970337,0.2122667133808136,-0.6184794902801514
1773257945500693200,12.293693359375,-1.5208947658538818,-0.2580259442329407,-1.455413818359375
1773257945510705400,12.303705322265625,-1.5016262531280518,-0.24934804439544678,-1.895707607269287
1773257945520718300,12.31371826171875,-1.4109141826629639,0.2867279052734375,-1.9340101480484009
1773257945530730500,12.32373046875,-1.2538836002349854,0.4551962912082672,-1.7631348371505737
1773257945540743400,12.333743408203125,-1.0429562330245972,0.2729202210903168,-1.6326085329055786
1773257945550755600,12.343755615234375,-0.9069088697433472,0.022007297724485397,-1.387505292892456
1773257945560767500,12.353767578125,-0.8822815418243408,0.12380582839250565,-0.864774227142334
1773257945570780700,12.36378076171875,-0.9291324019432068,0.5682727694511414,-0.2612451910972595
1773257945580792600,12.37379248046875,-0.9094082713127136,0.5710150003433228,0.1494446098804474
1773257945590804500,12.383804443359375,-0.8149510025978088,0.5635821223258972,0.48544445633888245
1773257945600817700,12.393817626953124,-0.599233865737915,0.4287175238132477,0.6987993717193604
1773257945610829600,12.40382958984375,-0.31523358821868896,0.45468655228614807,1.0983257293701172
1773257945620841700,12.413841796875,-0.04917073994874954,1.018113136291504,1.5887846946716309
1773257945630854700,12.423854736328124,0.25884461402893066,1.245631217956543,1.8285964727401733
1773257945640866800,12.43386669921875,0.5623834729194641,1.2734102010726929,1.901780366897583
1773257945650878700,12.443878662109375,0.8113711476325989,1.629045009613037,1.9203119277954102
1773257945660891600,12.4538916015625,0.9741899371147156,2.161224603652954,1.7891483306884766
1773257945670903800,12.46390380859375,1.0817432403564453,2.412111759185791,1.4560513496398926
1773257945680916500,12.47391650390625,1.1726385354995728,2.356079339981079,0.9831508994102478
1773257945690928600,12.4839287109375,1.1835572719573975,2.4418928623199463,0.647505521774292
1773257945700940500,12.4939404296875,1.1955119371414185,2.4018783569335938,0.28766506910324097
1773257945710953700,12.50395361328125,1.201386570930481,1.9070369005203247,-0.2145165652036667
1773257945720965600,12.513965576171875,1.1202675104141235,1.5057557821273804,-0.7509248852729797
