time,seconds_elapsed,z,y,x
1774472077355355400,0.04035546875,0.5908358693122864,0.2925706207752228,-0.08243149518966675
1774472077365373700,0.050373779296875,0.6284186840057373,0.23008379340171814,-0.033781133592128754
1774472077375391500,0.0603916015625,0.6896764039993286,0.1413685828447342,-0.01823306642472744
1774472077385409500,0.070409423828125,0.7563236355781555,0.06487460434436798,-0.059300076216459274
1774472077395427600,0.080427490234375,0.8024402856826782,-0.00860360823571682,-0.12645700573921204
1774472077405445600,0.090445556640625,0.8229036927223206,-0.10170958191156387,-0.1941833198070526
1774472077415463400,0.10046337890625,0.8247799277305603,-0.19248928129673004,-0.25000104308128357
1774472077425481500,0.1104814453125,0.8089061379432678,-0.23813080787658691,-0.2904520630836487
1774472077435499500,0.12049951171875,0.7794979214668274,-0.21296633780002594,-0.30967316031455994
1774472077445516500,0.1305166015625,0.743812620639801,-0.10174846649169922,-0.3000836670398712
1774472077455534300,0.140534423828125,0.7031528353691101,0.049373939633369446,-0.25789493322372437
1774472077465552600,0.150552734375,0.6582154631614685,0.19589786231517792,-0.19228209555149078
1774472077475570400,0.1605703125,0.6164328455924988,0.32095086574554443,-0.11546720564365387
1774472077485588500,0.17058837890625,0.5857468247413635,0.3824179470539093,-0.04574032500386238
1774472077495606500,0.1806064453125,0.5738744735717773,0.3781009614467621,0.007487477269023657
1774472077505624600,0.19062451171875,0.5799968242645264,0.3537370264530182,0.04532140865921974
1774472077515642400,0.200642333984375,0.5985593199729919,0.2878482937812805,0.058404721319675446
1774472077525659600,0.21065966796875,0.6300980448722839,0.20745864510536194,0.050515905022621155
1774472077535677400,0.220677490234375,0.6628338694572449,0.16958610713481903,0.028325913473963737
1774472077545695500,0.230695556640625,0.6830049157142639,0.12562556564807892,0.012085158377885818
1774472077555713500,0.240713623046875,0.6821628212928772,0.02617541141808033,0.008816394954919815
1774472077565731600,0.250731689453125,0.6697035431861877,-0.05517164245247841,0.003923634998500347
1774472077575749400,0.260749267578125,0.6361764669418335,-0.08408930897712708,-0.014085458591580391
1774472077585767400,0.270767333984375,0.5859044790267944,-0.07656561583280563,-0.031691085547208786
1774472077595785700,0.28078564453125,0.5272364020347595,-0.013618607074022293,-0.048886582255363464
1774472077605803500,0.290803466796875,0.46048158407211304,0.11081919074058533,-0.03304636850953102
1774472077615820300,0.3008203125,0.3996797502040863,0.17543946206569672,0.032223448157310486
1774472077625838600,0.310838623046875,0.3621678054332733,0.1798858791589737,0.11099469661712646
1774472077635856400,0.3208564453125,0.37611958384513855,0.09466312825679779,0.15274347364902496
1774472077645874400,0.33087451171875,0.4614288806915283,-0.1119084283709526,0.15407851338386536
1774472077655892700,0.340892822265625,0.6072840690612793,-0.3942738175392151,0.1125827357172966
1774472077665910500,0.35091064453125,0.7897694706916809,-0.6735893487930298,0.07677759975194931
1774472077675928600,0.360928466796875,0.9849890470504761,-0.9954369068145752,0.05290635675191879
1774472077685946400,0.3709462890625,1.1368765830993652,-1.1853681802749634,-0.00926327332854271
1774472077695963400,0.38096337890625,1.0964617729187012,-1.2852524518966675,-0.032582975924015045
1774472077705981400,0.3909814453125,0.9036622047424316,-1.3398123979568481,0.014126204885542393
1774472077715999500,0.40099951171875,0.6650070548057556,-1.2715516090393066,0.06419336795806885
1774472077726017500,0.411017578125,0.46451839804649353,-1.1542038917541504,0.16899888217449188
1774472077736035600,0.42103564453125,0.3447408676147461,-1.1482412815093994,0.32425159215927124
1774472077746053400,0.431053466796875,0.2873225808143616,-1.1102631092071533,0.42581707239151
1774472077756071700,0.44107177734375,0.33839908242225647,-1.229263186454773,0.6645620465278625
1774472077766089500,0.45108935546875,0.49538472294807434,-1.5026640892028809,1.0437593460083008
1774472077776107500,0.461107421875,0.75030517578125,-1.7516257762908936,1.4117600917816162
1774472077786124500,0.47112451171875,1.015866756439209,-1.7684873342514038,1.6653659343719482
1774472077796142600,0.481142578125,1.1012115478515625,-1.645890474319458,1.8628976345062256
1774472077806160400,0.491160400390625,1.1425416469573975,-1.498443603515625,2.00046443939209
1774472077816178700,0.5011787109375,1.215588092803955,-1.3849231004714966,2.1118927001953125
1774472077826196500,0.511196533203125,1.3073737621307373,-1.3792988061904907,2.183314800262451
1774472077836214500,0.521214599609375,1.2580221891403198,-1.3966500759124756,2.2205748558044434
1774472077846232300,0.531232421875,1.032754898071289,-1.435837745666504,2.2395553588867188
1774472077856250600,0.541250732421875,0.7982926368713379,-1.3991765975952148,2.2247867584228516
1774472077866267400,0.551267333984375,0.6631894111633301,-1.2446882724761963,2.1486048698425293
1774472077876285400,0.561285400390625,0.5999449491500854,-1.1254463195800781,1.986664056777954
1774472077886303500,0.571303466796875,0.6124777793884277,-1.1091383695602417,1.7031681537628174
1774472077896321500,0.581321533203125,0.28236591815948486,-0.5254011750221252,1.4032552242279053
1774472077906339300,0.59133935546875,0.04328222572803497,0.08421501517295837,0.9002006649971008
1774472077916357600,0.601357666015625,0.10946417599916458,0.7484803795814514,0.3735072612762451
1774472077926375400,0.61137548828125,0.294086754322052,1.395036220550537,0.026686204597353935
1774472077936393500,0.6213935546875,0.38255801796913147,2.147671699523926,-0.1865730732679367
1774472077946411500,0.63141162109375,0.3672863841056824,2.6108882427215576,-0.11717509478330612
1774472077956428500,0.641428466796875,0.40356290340423584,2.905576705932617,0.08783850818872452
1774472077966446300,0.6514462890625,0.5238059759140015,3.587897300720215,0.06877240538597107
1774472077976464400,0.66146435546875,0.5324205160140991,4.040097236633301,-0.024649687111377716
1774472077986482400,0.671482421875,0.44540995359420776,3.82370662689209,-0.2105628252029419
1774472077996500500,0.68150048828125,0.2692176103591919,3.0660784244537354,-0.5554144978523254
1774472078006518500,0.6915185546875,0.12793879210948944,2.037602663040161,-0.9920709133148193
1774472078016536600,0.70153662109375,0.14445358514785767,1.0470422506332397,-1.362396001815796
1774472078026554600,0.7115546875,0.27751070261001587,0.2211608737707138,-1.5541539192199707
1774472078036571400,0.7215712890625,0.41456228494644165,-0.5915179252624512,-1.53805410861969
1774472078046589700,0.731589599609375,0.5249777436256409,-1.2538354396820068,-1.3904742002487183
1774472078056607500,0.741607421875,0.5966303944587708,-1.6228011846542358,-1.2493910789489746
1774472078066625500,0.75162548828125,0.6455715298652649,-1.6576834917068481,-1.2701352834701538
1774472078076643600,0.7616435546875,0.6943257451057434,-1.5056207180023193,-1.3921847343444824
1774472078086661600,0.77166162109375,0.6778519749641418,-1.3793944120407104,-1.485982894897461
1774472078096679400,0.781679443359375,0.6330307126045227,-1.2213035821914673,-1.3219367265701294
1774472078106697500,0.791697509765625,0.5880869626998901,-0.9896982908248901,-0.9662273526191711
1774472078116715500,0.801715576171875,0.5506452918052673,-0.44128739833831787,-0.4864434003829956
1774472078126732500,0.811732666015625,0.523312509059906,0.5643949508666992,-0.09025319665670395
1774472078136750300,0.821750244140625,0.5019456744194031,1.591789960861206,0.22742623090744019
1774472078146768600,0.8317685546875,0.5516722202301025,1.846198558807373,0.46485263109207153
1774472078156786400,0.841786376953125,0.6366089582443237,1.956976294517517,0.6714587807655334
1774472078166804500,0.851804443359375,0.6462040543556213,1.9165830612182617,1.1115461587905884
1774472078176822500,0.861822509765625,0.7384247779846191,2.017167568206787,1.4748953580856323
1774472078186840600,0.871840576171875,0.5118364095687866,2.267125129699707,0.9839410781860352
1774472078196858400,0.8818583984375,0.022906115278601646,2.887638568878174,0.3898974359035492
1774472078206876400,0.89187646484375,-0.6894210577011108,2.5591137409210205,-0.04749481379985809
1774472078216893400,0.9018935546875,-1.2817671298980713,1.9070600271224976,-0.11464641988277435
1774472078226911500,0.911911376953125,-1.4351935386657715,1.4981056451797485,0.019788352772593498
1774472078236929500,0.921929443359375,-1.238221287727356,1.2567260265350342,0.23721441626548767
1774472078246947600,0.931947509765625,-1.2893366813659668,0.8916835784912109,0.585479736328125
1774472078256965400,0.94196533203125,-1.4338682889938354,1.0653927326202393,0.7219089269638062
1774472078266983400,0.9519833984375,-1.4781696796417236,1.4790698289871216,0.6895885467529297
1774472078277001700,0.962001708984375,-1.3124561309814453,1.748535394668579,0.509419322013855
1774472078287019500,0.97201953125,-0.4946531355381012,2.590400218963623,-0.1694052666425705
1774472078297036300,0.982036376953125,-0.586599588394165,2.6307647228240967,-1.1899776458740234
1774472078307054600,0.9920546875,-0.7477154731750488,1.9509234428405762,-1.907231330871582
1774472078317072400,1.002072265625,-0.5886960029602051,1.5790473222732544,-2.7423646450042725
1774472078327090400,1.01209033203125,-0.5210621356964111,1.0758405923843384,-3.6829514503479004
1774472078337108700,1.022108642578125,-0.4600940942764282,0.49307122826576233,-4.498585224151611
1774472078347126500,1.03212646484375,-0.42351239919662476,-0.08072493970394135,-5.086796760559082
1774472078357144800,1.042144775390625,-0.10753631591796875,-0.32155460119247437,-5.299039840698242
1774472078367162600,1.05216259765625,-0.026510968804359436,-0.01942562870681286,-4.982290267944336
1774472078377181000,1.062180908203125,-0.22937273979187012,0.22234465181827545,-4.3819899559021
1774472078387197700,1.07219775390625,-0.317923903465271,0.3470783233642578,-3.626774787902832
1774472078397215700,1.0822158203125,-0.21927456557750702,0.5318588614463806,-2.723393678665161
1774472078407233800,1.09223388671875,0.008235825225710869,0.8057790398597717,-1.8276422023773193
1774472078417251800,1.102251953125,0.28103166818618774,1.0816439390182495,-1.160881757736206
1774472078427269600,1.11226953125,0.4435289800167084,1.3816159963607788,-0.8257221579551697
1774472078437287700,1.12228759765625,0.3930002748966217,1.3795701265335083,-0.7470030784606934
1774472078447305700,1.1323056640625,0.10014737397432327,0.9938075542449951,-0.8331211805343628
1774472078457323800,1.14232373046875,-0.17612415552139282,0.48403406143188477,-0.9820715188980103
1774472078467341600,1.152341552734375,-0.2508798837661743,0.48508015275001526,-1.1749097108840942
1774472078477358800,1.16235888671875,-0.17242316901683807,0.8841180801391602,-1.3071966171264648
1774472078487376600,1.172376708984375,-0.03911091759800911,1.1688331365585327,-1.3050767183303833
1774472078497394700,1.182394775390625,0.180329829454422,1.0181310176849365,-1.1881592273712158
1774472078507412700,1.192412841796875,0.3785387873649597,0.9289252161979675,-0.9692026376724243
1774472078517430800,1.2024306640625,0.44332149624824524,0.9555067420005798,-0.7060695290565491
1774472078527448600,1.212448486328125,0.3653220534324646,1.0093237161636353,-0.4613841474056244
1774472078537467000,1.222466796875,0.30805689096450806,1.1627107858657837,-0.23699018359184265
1774472078547484700,1.232484619140625,0.331148624420166,1.0903247594833374,0.021515944972634315
1774472078557501700,1.242501708984375,0.5256088972091675,1.1240371465682983,0.2505030632019043
1774472078567519700,1.252519775390625,0.9052614569664001,1.1525274515151978,0.3291882872581482
1774472078577537800,1.262537841796875,1.208396077156067,1.2653224468231201,0.34254828095436096
1774472078587555600,1.2725556640625,1.2285231351852417,0.9996017813682556,0.31681710481643677
1774472078597573600,1.28257373046875,0.9944208860397339,0.5682384371757507,0.28350362181663513
1774472078607592000,1.292592041015625,0.5755429267883301,0.06379256397485733,0.2313181757926941
1774472078617609700,1.302609619140625,0.16691814363002777,-0.14309537410736084,0.1749664843082428
1774472078627627800,1.312627685546875,-0.11649332195520401,-0.3008120357990265,0.16776131093502045
1774472078637645800,1.322645751953125,-0.20956628024578094,-0.41652825474739075,0.2254730761051178
1774472078647662600,1.33266259765625,-0.11975090205669403,-0.33146899938583374,0.3391956388950348
1774472078657680600,1.3426806640625,0.10734083503484726,-0.09511080384254456,0.4559504985809326
1774472078667699000,1.352698974609375,0.42051446437835693,0.18054713308811188,0.48220178484916687
1774472078677716700,1.362716796875,0.801720380783081,0.359354704618454,0.3557834029197693
1774472078687734800,1.37273486328125,1.18800950050354,0.5047595500946045,0.10630913078784943
1774472078697752800,1.3827529296875,1.4847828149795532,0.6428852081298828,-0.2046271711587906
1774472078707771000,1.39277099609375,1.6108856201171875,0.5978293418884277,-0.4959125518798828
1774472078717788700,1.40278857421875,1.6287213563919067,0.46964818239212036,-0.7261795997619629
1774472078727806000,1.412805908203125,1.5717058181762695,0.3910817503929138,-0.8180583715438843
1774472078737823700,1.42282373046875,1.484915018081665,0.32974594831466675,-0.7414738535881042
1774472078747841800,1.432841796875,1.394653558731079,0.25604110956192017,-0.5080952048301697
1774472078757859600,1.442859619140625,1.252792477607727,0.1399267464876175,-0.1719677597284317
1774472078767878000,1.4528779296875,1.0327125787734985,-0.021891983225941658,0.12834039330482483
1774472078777895700,1.462895751953125,0.7806057929992676,-0.07296209037303925,0.3147813677787781
1774472078787913700,1.472913818359375,0.5445874333381653,-0.07640422880649567,0.3913126289844513
1774472078797931800,1.482931884765625,0.4142019748687744,-0.10886496305465698,0.37529292702674866
1774472078807949800,1.49294970703125,0.3798144459724426,-0.22414840757846832,0.292185515165329
1774472078817966600,1.502966552734375,0.4477010667324066,-0.32457196712493896,0.12441302835941315
1774472078827985000,1.51298486328125,0.5275368094444275,-0.5092611312866211,-0.07635948807001114
1774472078838002700,1.523002685546875,0.4605359137058258,-0.7276280522346497,-0.2795245945453644
1774472078848020700,1.533020751953125,0.25531405210494995,-0.833469569683075,-0.4709496796131134
1774472078858038800,1.543038818359375,-0.02142513170838356,-0.7406429648399353,-0.5816569924354553
1774472078868056800,1.553056884765625,-0.19279448688030243,-0.6463372111320496,-0.5681023001670837
1774472078878074600,1.56307470703125,-0.20398534834384918,-0.5922446846961975,-0.3894156813621521
1774472078888092700,1.5730927734375,-0.11616601794958115,-0.48713555932044983,-0.07226221263408661
1774472078898111000,1.583111083984375,-0.025482989847660065,-0.4603247344493866,0.2547428011894226
1774472078908128800,1.593128662109375,0.022184131667017937,-0.4801836609840393,0.4620014429092407
1774472078918145500,1.6031455078125,0.02263713628053665,-0.4165250360965729,0.45131605863571167
1774472078928163800,1.613163818359375,0.008130896836519241,-0.2530234754085541,0.26391980051994324
1774472078938181600,1.623181640625,0.020427776500582695,0.00006391586794052273,-0.0009486179915256798
1774472078948199700,1.63319970703125,0.08349276334047318,0.1321559101343155,-0.21990014612674713
1774472078958218000,1.643218017578125,0.10205153375864029,0.26176130771636963,-0.36891970038414
1774472078968235800,1.65323583984375,-0.012971991673111916,0.433400422334671,-0.42472705245018005
1774472078978253800,1.66325390625,-0.14239682257175446,0.3661721348762512,-0.36714285612106323
1774472078988271600,1.673271728515625,-0.09593185782432556,0.4006808400154114,-0.21387100219726562
1774472078998290000,1.6832900390625,-0.019036540761590004,0.42554596066474915,-0.030944867059588432
1774472079008306700,1.693306640625,0.023670176044106483,0.32995980978012085,0.13450747728347778
1774472079018324700,1.70332470703125,0.03994821384549141,0.2874658703804016,0.24949026107788086
1774472079028342800,1.7133427734375,-0.0036479979753494263,0.18824127316474915,0.24749740958213806
1774472079038360800,1.72336083984375,-0.14326341450214386,0.03821689262986183,0.10986897349357605
1774472079048378600,1.733378662109375,-0.2685188055038452,0.04958486184477806,-0.10777067393064499
1774472079058397000,1.74339697265625,-0.2595069408416748,0.06726265698671341,-0.2485339194536209
1774472079068414700,1.753414794921875,-0.21137802302837372,-0.017616810277104378,-0.26142147183418274
1774472079078432800,1.763432861328125,-0.1404780149459839,-0.057084858417510986,-0.21784311532974243
1774472079088450600,1.773450439453125,-0.054792940616607666,-0.06456834077835083,-0.18675497174263
1774472079098468900,1.78346875,0.015161908231675625,0.21363452076911926,-0.2024252712726593
1774472079108485600,1.793485595703125,-0.02262834645807743,0.2810481786727905,-0.128290593624115
1774472079118504000,1.80350390625,-0.04126647859811783,0.2833406329154968,0.04718375578522682
1774472079128521700,1.813521728515625,-0.09556008130311966,0.0898265615105629,0.2643086016178131
1774472079138539800,1.823539794921875,-0.142989382147789,0.07048055529594421,0.40074422955513
1774472079148557600,1.8335576171875,-0.09246441721916199,0.0905325636267662,0.4137260615825653
1774472079158575900,1.843575927734375,0.05170127749443054,0.19353803992271423,0.29536986351013184
1774472079168593700,1.85359375,0.18190056085586548,0.44508692622184753,0.0799584835767746
1774472079178611700,1.86361181640625,0.19167035818099976,0.6382084488868713,-0.11283014714717865
1774472079188629800,1.873629638671875,-0.06342051923274994,0.6668419241905212,-0.2382594347000122
1774472079198647800,1.883647705078125,-0.5216605067253113,0.5064261555671692,-0.23340529203414917
1774472079208664600,1.89366455078125,-0.9077121019363403,0.20846451818943024,-0.17300985753536224
1774472079218683000,1.903682861328125,-1.0017642974853516,0.04482206702232361,-0.06904351711273193
1774472079228700700,1.91370068359375,-0.8523809313774109,0.03002980351448059,0.09830206632614136
1774472079238718700,1.92371875,-0.5325301885604858,0.27933603525161743,0.3677314221858978
1774472079248736800,1.93373681640625,-0.4113164246082306,0.4623631238937378,0.6234936714172363
1774472079258754800,1.9437548828125,-0.18731635808944702,0.651537299156189,0.859107255935669
1774472079268772900,1.95377294921875,0.13191382586956024,0.7970976829528809,1.2446011304855347
1774472079278790700,1.963790771484375,0.29950201511383057,0.6091722846031189,1.5059051513671875
1774472079288808700,1.97380859375,0.29818403720855713,0.42469483613967896,1.2984795570373535
1774472079298826800,1.98382666015625,0.21485744416713715,0.20934416353702545,0.8902489542961121
1774472079308843800,1.99384375,-0.04869696497917175,-0.01919633150100708,0.39813777804374695
1774472079318861800,2.00386181640625,-0.3949025869369507,-0.23483088612556458,-0.1337316930294037
1774472079328879900,2.0138798828125,-0.690607488155365,-0.7393912672996521,-0.653924286365509
1774472079338897700,2.023897705078125,-0.8193891644477844,-1.4298423528671265,-1.1324362754821777
1774472079348915700,2.033915771484375,-0.8782660365104675,-1.6519221067428589,-1.3998658657073975
1774472079358933200,2.043933349609375,-0.9555150270462036,-1.762292742729187,-1.3205091953277588
1774472079368951000,2.053950927734375,-1.0664072036743164,-1.8568378686904907,-0.9323008060455322
1774472079378969000,2.063968994140625,-1.2499452829360962,-2.022005796432495,-0.4131268560886383
1774472079388987100,2.073987060546875,-1.4560763835906982,-2.2630627155303955,-0.06652789562940598
1774472079399005200,2.084005126953125,-1.5519006252288818,-2.8357725143432617,0.07954462617635727
1774472079409022200,2.094022216796875,-1.5282491445541382,-3.3711767196655273,0.05350583419203758
1774472079419040300,2.104040283203125,-1.3858115673065186,-3.9876508712768555,-0.036325518041849136
1774472079429058000,2.11405810546875,-1.181723713874817,-4.887783527374268,-0.08071854710578918
1774472079439076000,2.124076171875,-0.990969717502594,-5.309946537017822,0.2320295125246048
1774472079449094100,2.13409423828125,-0.8146631121635437,-2.872817277908325,1.2484052181243896
1774472079459112200,2.1441123046875,-0.5581596493721008,0.148259237408638,2.061805248260498
1774472079469130000,2.1541298828125,-0.36599716544151306,0.8202576041221619,2.4118988513946533
1774472079479148000,2.16414794921875,-0.5365334749221802,-0.0020777983590960503,2.1639277935028076
1774472079489166000,2.174166015625,-1.1344362497329712,-0.7239883542060852,1.1569002866744995
1774472079499184000,2.18418408203125,-1.684591293334961,-0.23304124176502228,0.08879564702510834
1774472079509202200,2.1942021484375,-1.7467159032821655,0.5570027828216553,-0.6252854466438293
1774472079519219200,2.20421923828125,-1.5412381887435913,1.0658594369888306,-0.884427547454834
1774472079529237000,2.214237060546875,-1.4247914552688599,1.6497834920883179,-0.671864926815033
1774472079539255000,2.224255126953125,-1.559108018875122,2.3125224113464355,-0.10035909712314606
1774472079549273000,2.234273193359375,-1.824669361114502,2.977774143218994,0.6546675562858582
1774472079559291100,2.244291015625,-2.020219326019287,3.4696996212005615,1.448163628578186
1774472079569309200,2.25430908203125,-2.092982053756714,3.6832962036132812,2.1311726570129395
1774472079579327200,2.2643271484375,-2.076616048812866,3.4047014713287354,2.606239080429077
1774472079589345300,2.27434521484375,-2.135446071624756,2.955451250076294,2.660862922668457
1774472079599363000,2.284363037109375,-2.3288230895996094,2.62638783454895,2.522866725921631
1774472079609381000,2.294381103515625,-2.5306427478790283,2.680305004119873,2.2924532890319824
1774472079619398100,2.304398193359375,-2.5735270977020264,3.0289463996887207,2.1060869693756104
1774472079629416200,2.314416259765625,-2.5183799266815186,3.0937349796295166,1.978435754776001
1774472079639434000,2.32443408203125,-2.405862331390381,2.775275468826294,1.9686627388000488
1774472079649452300,2.334452392578125,-2.7234084606170654,1.3108006715774536,1.1290907859802246
1774472079659470000,2.344469970703125,-2.7191214561462402,1.7466843128204346,1.0687816143035889
1774472079669488000,2.354488037109375,-2.8053441047668457,1.305851697921753,0.5852831602096558
1774472079679506200,2.364506103515625,-2.5744783878326416,1.5377947092056274,0.6172147393226624
1774472079689524200,2.374524169921875,-2.5659937858581543,-0.4652177393436432,-0.3968741297721863
1774472079699542000,2.3845419921875,-2.39691424369812,-0.20505434274673462,-0.44015926122665405
1774472079709560000,2.39456005859375,-2.2042062282562256,-0.24907293915748596,-0.5069953203201294
1774472079719577000,2.4045771484375,-1.9733043909072876,-0.6363836526870728,-0.6074433326721191
1774472079729595100,2.41459521484375,-1.711308479309082,-1.130702257156372,-0.7192734479904175
1774472079739613200,2.42461328125,-1.4730775356292725,-1.4397317171096802,-0.8412912487983704
1774472079749631200,2.43463134765625,-1.6343704462051392,-3.160444498062134,-1.5546573400497437
1774472079759649000,2.44464892578125,-0.150257408618927,-7.3082404136657715,0.5421972274780273
1774472079769667000,2.4546669921875,-0.15745460987091064,-4.868322372436523,0.7193824052810669
1774472079779685000,2.46468505859375,-0.16130474209785461,-2.7457520961761475,0.5149048566818237
1774472079789703200,2.474703125,-0.3811612129211426,-3.7271616458892822,-0.3898169994354248
1774472079799721200,2.48472119140625,0.02642202004790306,-2.952741861343384,0.22027431428432465
1774472079809739000,2.494739013671875,0.07293146848678589,-2.7209298610687256,-0.16522623598575592
1774472079819757300,2.50475732421875,0.21017533540725708,-2.0609378814697266,-0.1819159984588623
1774472079829774000,2.514774169921875,0.2877090275287628,-1.345723032951355,-0.11345252394676208
1774472079839792000,2.524792236328125,0.1627098172903061,0.06387245655059814,0.06094804033637047
1774472079849810200,2.53481005859375,0.07576533406972885,0.7926201224327087,0.195815309882164
1774472079859828200,2.544828125,0.00765738682821393,0.4564969539642334,-0.11283840239048004
1774472079869846000,2.554845947265625,0.015427958220243454,0.1415691077709198,-0.01576564647257328
1774472079879864300,2.5648642578125,0.06078612059354782,-0.7065262198448181,-0.008274441584944725
1774472079889882000,2.574882080078125,0.08586643636226654,-1.3136111497879028,-0.3906655013561249
1774472079899900200,2.584900146484375,0.039630234241485596,-1.655138611793518,-0.709217369556427
1774472079909918000,2.59491796875,-0.009038502350449562,-1.6900508403778076,-0.9646504521369934
1774472079919936300,2.604936279296875,0.003997670952230692,-1.5140634775161743,-1.127953052520752
1774472079929953000,2.614953125,0.08374123275279999,-1.5033913850784302,-1.0906113386154175
1774472079939971300,2.624971435546875,0.19073958694934845,-1.4076907634735107,-1.0017735958099365
1774472079949989000,2.634989013671875,0.33217155933380127,-1.2709991931915283,-0.8685660362243652
1774472079960007200,2.645007080078125,0.4690798819065094,-1.1117483377456665,-0.6679399609565735
1774472079970025000,2.65502490234375,0.4581390619277954,-0.5477813482284546,-0.2908661961555481
1774472079980043300,2.665043212890625,0.49019715189933777,0.0965033695101738,-0.023573769256472588
1774472079990061000,2.67506103515625,0.4980577230453491,0.4658539891242981,0.2047366350889206
1774472080000079000,2.6850791015625,0.4719584882259369,0.6940016746520996,0.36458727717399597
1774472080010097200,2.69509716796875,0.4518257677555084,0.8362488150596619,0.4528612196445465
1774472080020115200,2.705115234375,0.39741259813308716,0.9026494026184082,0.4714365005493164
1774472080030132000,2.715132080078125,0.32278844714164734,0.8776862621307373,0.42974764108657837
1774472080040150300,2.725150390625,0.2257061004638672,0.7525160908699036,0.3628349304199219
1774472080050168000,2.73516796875,0.11672448366880417,0.5500929355621338,0.27850592136383057
1774472080060186000,2.74518603515625,0.03406688943505287,0.3204752206802368,0.18467344343662262
1774472080070204000,2.755203857421875,0.002508697798475623,0.1282554417848587,0.08833172917366028
1774472080080222200,2.76522216796875,-0.0020149475894868374,-0.02219904586672783,-0.003952663857489824
1774472080090240300,2.775240234375,-0.004750280175358057,-0.15335386991500854,-0.08624167740345001
1774472080100258000,2.785258056640625,-0.005061870440840721,-0.24472559988498688,-0.13845720887184143
1774472080110276000,2.795276123046875,-0.0068057081662118435,-0.27360063791275024,-0.15028084814548492
1774472080120294100,2.805294189453125,-0.002368881832808256,-0.23540478944778442,-0.13112686574459076
1774472080130312200,2.815312255859375,0.0026756778825074434,-0.16546805202960968,-0.091519795358181
1774472080140329200,2.8253291015625,0.006745520513504744,-0.07805564999580383,-0.04398130625486374
1774472080150347300,2.83534716796875,0.005754292011260986,0.00800093449652195,0.004157194402068853
1774472080160365000,2.845364990234375,0.006624879315495491,0.07130666822195053,0.0390629805624485
1774472080170383000,2.855383056640625,0.008170045912265778,0.11177127063274384,0.06462027132511139
1774472080180401200,2.865401123046875,0.001743305241689086,0.10468965768814087,0.05441131070256233
1774472080190419200,2.875419189453125,0.04278341680765152,0.023850737139582634,0.027044666931033134
1774472080200437000,2.88543701171875,-0.003266899613663554,0.08378571271896362,0.05781003460288048
1774472080210455300,2.895455322265625,0.0038032603915780783,0.03466077521443367,0.05487949401140213
1774472080220473000,2.90547314453125,-0.006904244888573885,0.048161402344703674,0.037342045456171036
1774472080230491100,2.9154912109375,0.002261023735627532,-0.005278118886053562,-0.002709766384214163
1774472080240509000,2.925509033203125,-0.0016881778137758374,-0.02244378998875618,-0.027846012264490128
1774472080250526200,2.935526123046875,-0.007274158298969269,-0.024146614596247673,-0.02833683229982853
1774472080260544000,2.9455439453125,-0.0031611721497029066,-0.05692293867468834,-0.02701989933848381
1774472080270562000,2.95556201171875,0.009485647082328796,-0.08600199222564697,-0.029415413737297058
1774472080280580000,2.965580078125,0.005917011294513941,-0.06057759374380112,-0.018490327522158623
1774472080290598100,2.97559814453125,-0.004465854726731777,0.022461632266640663,-0.004430434666574001
1774472080300616000,2.985615966796875,0.00009880327706923708,0.018031997606158257,0.005347893573343754
1774472080310634200,2.99563427734375,0.0076869479380548,0.006768157705664635,0.012772520072758198
1774472080320652000,3.005652099609375,0.004471713677048683,0.024745559319853783,0.017799770459532738
1774472080330670000,3.015670166015625,0.001461010193452239,0.012298477813601494,0.007450193166732788
1774472080340688100,3.025688232421875,0.004649613052606583,0.01684955321252346,-0.0003014698449987918
1774472080350706200,3.0357060546875,0.00026498452643863857,0.04398290440440178,-0.0007411577389575541
1774472080360724000,3.045723876953125,-0.008346613496541977,-0.050398193299770355,0.009417470544576645
1774472080370741800,3.05574169921875,0.020956413820385933,-0.06988374143838882,-0.0179987084120512
1774472080380760000,3.065760009765625,-0.008592689409852028,0.007377222646027803,-0.007640609052032232
1774472080390777900,3.07577783203125,0.003507116809487343,-0.005430984310805798,-0.009795106016099453
1774472080400796000,3.0857958984375,0.004547613672912121,-0.009725597687065601,-0.007184409536421299
1774472080410813700,3.095813720703125,0.006975351367145777,-0.04259885847568512,0.009098690003156662
1774472080420832000,3.10583203125,0.014171745628118515,0.0674285739660263,0.018092185258865356
1774472080430849800,3.115849853515625,-0.017163541167974472,0.09632493555545807,0.03747067600488663
1774472080440867800,3.125867919921875,0.014735803008079529,0.023000124841928482,0.015547534450888634
1774472080450886000,3.135885986328125,-0.002160090021789074,0.013588513247668743,0.009899502620100975
1774472080460904000,3.145904052734375,-0.0005302353529259562,-0.02196655236184597,-0.007321029901504517
1774472080470922000,3.155921875,0.005112470127642155,-0.04728655517101288,-0.031074563041329384
1774472080480939000,3.16593896484375,0.0016703346045687795,-0.05849872902035713,-0.023899739608168602
1774472080490956800,3.175956787109375,0.004352670628577471,-0.040531713515520096,-0.02171781286597252
1774472080500974800,3.185974853515625,0.0019022959750145674,-0.010222277604043484,-0.010499512776732445
1774472080510992600,3.19599267578125,0.0018239989876747131,0.01689988747239113,0.002898318227380514
1774472080521011000,3.206010986328125,0.005197425372898579,0.03479606285691261,0.013256150297820568
1774472080531029000,3.216029052734375,0.005833654198795557,0.028919000178575516,0.020142551511526108
1774472080541046800,3.226046875,0.003357979701831937,0.029275862500071526,0.014729411341249943
1774472080551065000,3.236065185546875,0.008035555481910706,0.025061145424842834,0.013807158917188644
1774472080561083000,3.246082763671875,0.0020719394087791443,-0.0012114719720557332,-0.007771636825054884
1774472080571101000,3.256100830078125,0.0011920308461412787,-0.0031169636640697718,-0.012322179973125458
1774472080581118700,3.26611865234375,0.008440356701612473,-0.035404860973358154,-0.012782640755176544
1774472080591137000,3.276136962890625,0.002025600289925933,0.021920744329690933,0.012774650938808918
1774472080601154800,3.28615478515625,0.007004379760473967,0.0016114787431433797,0.01625460386276245
1774472080611171800,3.296171875,0.008830775506794453,0.0028937908355146646,0.00984277669340372
1774472080621190000,3.30618994140625,0.000758734589908272,0.02287016250193119,0.004966795444488525
1774472080631208000,3.3162080078125,0.0014642059104517102,0.022553246468305588,0.0025419872254133224
1774472080641225700,3.326225830078125,0.0044322991743683815,-0.003925765864551067,-0.005509547423571348
1774472080651244000,3.336244140625,0.0023917849175632,-0.015123292803764343,-0.004511128645390272
1774472080661261800,3.34626171875,0.00487198680639267,-0.00932372733950615,-0.005365204066038132
1774472080671279900,3.35627978515625,-0.0008889631717465818,-0.020012058317661285,-0.012135492637753487
1774472080681297700,3.366297607421875,0.003975300583988428,-0.017416540533304214,-0.006603308022022247
1774472080691316000,3.37631591796875,0.003777960315346718,-0.00621049152687192,-0.0036224317736923695
1774472080701333800,3.386333740234375,0.00256355875171721,0.0046243127435445786,0.0011140003334730864
1774472080711351800,3.396351806640625,0.0035451999865472317,0.016044214367866516,0.0075876121409237385
1774472080721369900,3.406369873046875,0.004462392535060644,0.017825335264205933,0.008568454533815384
1774472080731388000,3.416387939453125,0.002719353651627898,0.008608135394752026,0.0011446266435086727
1774472080741404700,3.42640478515625,0.002074069809168577,-0.013983193784952164,-0.004458131734281778
1774472080751423000,3.436423095703125,0.005229915492236614,-0.022885341197252274,-0.01312006264925003
1774472080761441000,3.44644091796875,0.002633866388350725,0.008625712245702744,-0.005209675524383783
1774472080771458800,3.456458740234375,0.0027712853625416756,-0.023959660902619362,-0.012078233994543552
1774472080781476900,3.466476806640625,0.008292018435895443,-0.03299630060791969,-0.008955411612987518
1774472080791495000,3.476494873046875,0.0034916705917567015,0.011571701616048813,0.0004040015337523073
1774472080801513000,3.486512939453125,0.0015752597246319056,0.033844251185655594,0.012138155288994312
1774472080811530800,3.49653076171875,-0.0016327840276062489,0.0030722226947546005,0.009395898319780827
1774472080821549000,3.506549072265625,0.007224357221275568,0.009081113152205944,0.005303418729454279
1774472080831566800,3.51656689453125,-0.006125270389020443,0.02917413040995598,0.00977300200611353
1774472080841585000,3.5265849609375,0.005593969952315092,-0.000642354425508529,-0.0023398532066494226
1774472080851602000,3.536601806640625,0.0035712989047169685,-0.00723634148016572,-0.00173717993311584
1774472080861620000,3.546619873046875,0.003329750383272767,-0.010658237151801586,-0.002918558195233345
1774472080871637800,3.5566376953125,0.004388090688735247,-0.008636364713311195,-0.0067820060066878796
1774472080881655800,3.56665576171875,0.004245345015078783,-0.007135141175240278,-0.0030977888964116573
1774472080891673900,3.576673828125,0.0030605047941207886,0.0006881608278490603,-0.00148151651956141
1774472080901692000,3.58669189453125,0.004207261838018894,0.003811782458797097,0.002915362361818552
1774472080911709700,3.596709716796875,0.0030692932195961475,0.010608169250190258,0.0014266553334891796
1774472080921728000,3.60672802734375,0.00293320557102561,0.00815113727003336,0.003552124137058854
1774472080931745800,3.616745849609375,0.0029406624380499125,0.003427754621952772,0.0009100021561607718
1774472080941763800,3.626763916015625,0.004190217703580856,0.0026429209392517805,0.0011299792677164078
1774472080951782000,3.636781982421875,0.0029342707712203264,-0.002037850907072425,-0.004222441930323839
1774472080961800000,3.646800048828125,0.0012309130979701877,-0.0030799456872045994,-0.0022921827621757984
1774472080971816700,3.656816650390625,0.0008053398923948407,-0.004215517546981573,-0.003498062025755644
1774472080981835000,3.6668349609375,0.0032296155113726854,-0.003154247999191284,-0.004216849338263273
1774472080991852800,3.676852783203125,0.0037585191894322634,0.0034224283881485462,-0.0003483414766378701
1774472081001870800,3.686870849609375,0.0020716730505228043,0.003608316881582141,0.0005347627447918057
1774472081011889000,3.696888916015625,0.005636846646666527,0.004613660275936127,0.0010101370280608535
1774472081021907000,3.706906982421875,0.0036850159522145987,0.003185939509421587,0.000027696874894900247
1774472081031925000,3.716925048828125,0.0038477350026369095,0.0011827098205685616,-0.00024154871061909944
1774472081041942800,3.72694287109375,0.003769171889871359,0.0004980111261829734,-0.001853560097515583
1774472081051960800,3.7369609375,0.0003968109958805144,-0.0005089300684630871,-0.0019627497531473637
1774472081061979000,3.746978759765625,0.002522812457755208,-0.0004945489927195013,-0.0010349043877795339
1774472081071996000,3.756995849609375,0.0036426717415452003,-0.0011566109023988247,-0.004653341136872768
1774472081082014000,3.767013916015625,0.0025542378425598145,0.000355532014509663,0.0004319647268857807
1774472081092032000,3.777031982421875,0.0029702235478907824,0.002782204421237111,-0.0007044061203487217
1774472081102049800,3.7870498046875,0.003780623432248831,0.005246161017566919,0.0023667511995881796
1774472081112067800,3.79706787109375,0.0034615767654031515,0.004503405187278986,0.0010378338629379869
1774472081122086000,3.8070859375,0.0026138925459235907,0.002793655963614583,0.0013968279818072915
1774472081132104000,3.81710400390625,0.0028011128306388855,0.0001853560097515583,-0.0014482269762083888
1774472081142121700,3.827121826171875,0.0027350664604455233,-0.0016293219523504376,-0.0026554379146546125
1774472081152139800,3.837139892578125,0.0032895365729928017,-0.003768639173358679,-0.002222940558567643
1774472081162157800,3.84715771484375,0.0017395768081769347,-0.003052515210583806,-0.0017014936311170459
1774472081172176000,3.85717578125,0.003555586328729987,0.0006817692192271352,-0.001047687605023384
1774472081182193000,3.86719287109375,0.005584382452070713,0.00023169501218944788,-0.001275920425541699
1774472081192211000,3.8772109375,0.002959570847451687,0.003288471372798085,0.00037444045301526785
1774472081202228700,3.887228759765625,0.004357197787612677,0.004506068304181099,0.001817873795516789
1774472081212246800,3.897246826171875,0.0033989925868809223,0.0043683829717338085,0.002011485630646348
1774472081222264800,3.907264892578125,0.0038184402510523796,0.004376372788101435,-0.00027563716867007315
1774472081232283000,3.917282958984375,0.005649097263813019,0.003391801845282316,-0.0010125337867066264
1774472081242301000,3.927301025390625,0.004278101958334446,0.00034461304312571883,-0.0013467605458572507
1774472081252319000,3.937319091796875,0.003847202518954873,-0.0019198728259652853,0.000871652620844543
1774472081262337000,3.9473369140625,0.0010317085543647408,-0.003980626817792654,-0.001303351018577814
1774472081272354800,3.957354736328125,0.005616873037070036,-0.0010831075487658381,0.000916393706575036
1774472081282371800,3.967371826171875,0.0030072415247559547,0.0009664611425250769,-0.0010721886064857244
1774472081292390000,3.977389892578125,0.0012335762148723006,0.0005496764206327498,-0.00018801917030941695
1774472081302408000,3.987407958984375,0.002624278888106346,0.004833637271076441,0.0009118663729168475
1774472081312425700,3.99742578125,0.0036762275267392397,0.0030977888964116573,-0.0002812298189383
1774472081322444000,4.007444091796875,0.0041542649269104,0.003425357863306999,0.0004676510870922357
1774472081332461800,4.0174619140625,0.0020599551498889923,0.00185036426410079,0.00005406216951087117
1774472081342480000,4.02747998046875,0.0037055222783237696,0.0014631407102569938,-0.0015962987672537565
1774472081352498000,4.037497802734375,0.0021640846971422434,0.0005499427788890898,-0.00039308256236836314
1774472081362515200,4.04751513671875,0.004229366313666105,-0.00046046054922044277,0.0016141419764608145
1774472081372533200,4.057533203125,0.0033933997619897127,0.002267149044200778,-0.0006804376607760787
1774472081382550300,4.06755029296875,0.0028762139845639467,0.002831472782418132,0.0004652542411349714
1774472081392568300,4.077568359375,0.003347060875967145,0.0006596649764105678,-0.00019920444174204022
1774472081402586000,4.087586181640625,0.0029316076543182135,0.0027113643009215593,-0.0013129384024068713
1774472081412604400,4.0976044921875,0.0022895196452736855,0.00207673292607069,-0.0008575378451496363
1774472081422622200,4.107622314453125,0.003984888084232807,0.00318940170109272,-0.000059921123465755954
1774472081432640300,4.11764013671875,0.003370496677234769,0.0009859022684395313,-0.00036139096482656896
1774472081442658300,4.127658203125,0.00350365461781621,0.00449754623696208,0.0003856257244478911
1774472081452676400,4.13767626953125,0.0035771578550338745,0.0022330605424940586,0.0017337178578600287
1774472081462694100,4.147694091796875,0.002189118415117264,0.0016322514275088906,-0.0004247741890139878
1774472081472711400,4.15771142578125,0.0041031320579349995,0.0014567491598427296,-0.0006647250265814364
1774472081482729200,4.167729248046875,0.004279966000467539,0.0007643272401764989,-0.0010423612548038363
1774472081492747300,4.177747314453125,0.002225337317213416,0.0005496764206327498,-0.00006870955257909372
1774472081502765000,4.18776513671875,0.0014418354257941246,0.00043755737715400755,-0.0005081311101093888
1774472081512783400,4.197783447265625,0.0028447885997593403,-0.0006194512825459242,-0.0013789847726002336
1774472081522801200,4.20780126953125,0.0025598304346203804,-0.0012365056900307536,-0.0002348908019484952
1774472081532819200,4.217819091796875,0.002639192622154951,0.0004820321628358215,-0.0009869674686342478
1774472081542837200,4.227837158203125,0.0028663603588938713,0.0017001620726659894,0.0009600695921108127
1774472081552855300,4.237855224609375,0.003037867834791541,0.0029920614324510098,0.001916144392453134
1774472081562872000,4.2478720703125,0.004674646537750959,0.003054911969229579,-0.0008711199625395238
1774472081572890400,4.257890380859375,0.0029917950741946697,0.0031220237724483013,0.0018250643042847514
1774472081582908200,4.267908203125,0.00307568465359509,0.001107076066546142,0.0010543455136939883
1774472081592926200,4.27792626953125,0.002772350562736392,-0.0004396878939587623,-0.0010495517635717988
1774472081602944300,4.2879443359375,0.0032836776226758957,0.0004492752777878195,-0.002430667169392109
1774472081612962300,4.29796240234375,0.0037180392537266016,-0.000978978001512587,-0.0014096111990511417
1774472081622980400,4.30798046875,0.00436145905405283,-0.0007147924043238163,-0.00046685212873853743
1774472081632998100,4.317998046875,0.002557699801400304,0.0005142564186826348,-0.0007091998122632504
1774472081643016400,4.328016357421875,0.004338821861892939,0.0037020600866526365,0.00019920444174204022
1774472081653033200,4.338033203125,0.0037534593138843775,0.0031372036319226027,-0.0009116000146605074
1774472081663051300,4.34805126953125,0.0020066918805241585,0.003224022686481476,0.0010468886466696858
1774472081673069300,4.3580693359375,0.0034943337086588144,0.0021752698812633753,-0.0005390237784013152
1774472081683087400,4.36808740234375,0.002400839701294899,0.0011675298446789384,0.00018349179299548268
1774472081693105200,4.378105224609375,0.002425074577331543,0.0009416937828063965,-0.001290834159590304
1774472081703123500,4.38812353515625,0.004473045468330383,0.0002585929469205439,-0.0010072075529024005
1774472081713141200,4.398141357421875,0.003631752682849765,0.0002759034978225827,-0.003229881636798382
1774472081723159300,4.4081591796875,0.00276063266210258,0.0010167949367314577,0.0008692557457834482
1774472081733177000,4.418177001953125,0.0028668928425759077,-0.0015760586829856038,-0.0006234460161067545
1774472081743194400,4.4281943359375,0.004831240512430668,0.001958488719537854,0.0003336940717417747
1774472081753212200,4.438212158203125,0.003320695599541068,0.0006263754912652075,-0.0011677960865199566
1774472081763230200,4.448230224609375,0.0032921996898949146,0.0003145193331874907,-0.00011877698125317693
1774472081773248300,4.458248291015625,0.002502572489902377,0.0010381002211943269,-0.002020007697865367
1774472081783266300,4.468266357421875,0.003763579297810793,0.0006362291751429439,-0.0012772521004080772
1774472081793284000,4.4782841796875,0.004024036228656769,0.0003347593592479825,-0.0017574200173839927
1774472081803302400,4.488302490234375,0.0014476943761110306,0.0009419600828550756,-0.0007890945998951793
1774472081813320200,4.4983203125,0.002927080262452364,0.00012516857532318681,-0.0004988100845366716
1774472081823338200,4.508338134765625,0.004113518632948399,0.0010218549286946654,-0.000859934720210731
1774472081833355300,4.518355224609375,0.002379534300416708,0.0019622170366346836,-0.001281779375858605
1774472081843373300,4.528373291015625,0.004278901033103466,0.003829892026260495,-0.00011664645717246458
1774472081853391000,4.53839111328125,0.0028517129831016064,0.0011371697764843702,0.0001549959706608206
1774472081863409400,4.548409423828125,0.004453071393072605,0.0016578177455812693,-0.0002996056282427162
1774472081873427200,4.55842724609375,0.0021528995130211115,0.002555569401010871,0.0011976235546171665
1774472081883445200,4.5684453125,0.0020759340841323137,0.0012985573848709464,-0.0017963021527975798
1774472081893463000,4.578463134765625,0.0036336169578135014,-0.0006261091912165284,0.00003435477628954686
1774472081903481300,4.5884814453125,0.0033308155834674835,-0.0014942996203899384,-0.001868473831564188
1774472081913499400,4.59849951171875,0.002441585995256901,-0.0007651261985301971,-0.0021046961192041636
1774472081923516200,4.60851611328125,0.002978213131427765,0.002241050126031041,-0.00036911413189955056
1774472081933534200,4.6185341796875,0.002372077666223049,0.0014168017078191042,-0.00034168356796726584
1774472081943552300,4.62855224609375,0.004486893769353628,0.0022943131625652313,0.0003989415417890996
1774472081953570300,4.6385703125,0.003727626521140337,0.003228283952921629,0.0014863101532682776
1774472081963588400,4.64858837890625,0.0035340148024260998,0.0026413232553750277,0.0010956244077533484
1774472081973606400,4.6586064453125,0.00293347192928195,0.002621882129460573,0.0002665824140422046
1774472081983624200,4.668624267578125,0.001987250754609704,0.002796851797029376,-0.00011265171633567661
1774472081993642200,4.678642333984375,0.002216282533481717,0.0013677994720637798,-0.0015707324491813779
1774472082003660300,4.688660400390625,0.00202267081476748,-0.001219461439177394,-0.0008916263468563557
1774472082013677300,4.69867724609375,0.0009731190511956811,-0.0018309232546016574,-0.0022354573011398315
1774472082023695000,4.708695068359375,0.0036618465092033148,-0.001365668955259025,-0.002813895931467414
1774472082033713400,4.71871337890625,0.0029433255549520254,-0.0002689792599994689,-0.0006293049664236605
1774472082043731200,4.728731201171875,0.0036661075428128242,0.0018192053539678454,0.0002495381922926754
1774472082053749200,4.738749267578125,0.004175037611275911,0.004972920753061771,0.0008183894096873701
1774472082063767300,4.748767333984375,0.00330231967382133,0.004318848252296448,-0.00013369068619795144
1774472082073785300,4.758785400390625,0.0033782199025154114,0.0025153555907309055,0.00009614011651137844
1774472082083803100,4.76880322265625,0.003478088416159153,0.000037550569686573,-0.0010700580896809697
1774472082093820400,4.7788203125,0.003998736385256052,-0.0005938849062658846,-0.001511343871243298
1774472082103838200,4.788838134765625,0.003634415799751878,-0.0019915117882192135,-0.0014767227694392204
1774472082113856300,4.798856201171875,0.004181961994618177,0.00008788431296125054,-0.0019622170366346836
1774472082123874300,4.808874267578125,0.003111903788521886,0.00006178533658385277,-0.0007952199084684253
1774472082133892400,4.818892333984375,0.002335858531296253,0.001728391507640481,0.00009720538218971342
1774472082143910100,4.82891015625,0.0033100428991019726,0.0017893778858706355,-0.001255680457688868
1774472082153928200,4.83892822265625,0.004543885588645935,0.00230789533816278,-0.0013440974289551377
1774472082163946200,4.8489462890625,0.002659698948264122,0.0015531554818153381,-0.0015448997728526592
1774472082173963300,4.85896337890625,0.0029851372819393873,0.001258609932847321,-0.0020783308427780867
1774472082183981000,4.86898095703125,0.002139050979167223,0.0008402272942475975,-0.00033662354690022767
1774472082193999400,4.878999267578125,0.003920173272490501,0.0018823222490027547,-0.000012783173588104546
1774472082204017200,4.88901708984375,0.0030570426024496555,0.0012863067677244544,0.00008921589324017987
1774472082214035200,4.89903515625,0.0035369442775845528,0.00236222380772233,0.0012562130577862263
1774472082224053200,4.90905322265625,0.0033039175905287266,0.0028008464723825455,-0.000874582096002996
1774472082234071300,4.9190712890625,0.003433347214013338,0.005137237720191479,0.0013997574569657445
1774472082244089300,4.92908935546875,0.00455666845664382,0.006882407236844301,0.0012591425329446793
1774472082254106400,4.9391064453125,0.00324799120426178,0.0062158177606761456,0.002645584288984537
1774472082264124200,4.949124267578125,0.003683151677250862,0.005001682788133621,0.002031192881986499
1774472082274142200,4.95914208984375,0.0029997846577316523,0.0033569145016372204,0.0008847020799294114
1774472082284160300,4.96916015625,0.0028157602064311504,-0.0023305322974920273,-0.002710299100726843
1774472082294178300,4.97917822265625,0.0015251922886818647,-0.0065322015434503555,-0.004326038993895054
1774472082304196400,4.9891962890625,0.0028855351265519857,-0.00811811350286007,-0.00541447289288044
1774472082314214100,4.999214111328125,0.0033926009200513363,-0.006016879808157682,-0.006340453866869211
1774472082324232400,5.009232421875,0.002088717184960842,-0.0036613137926906347,-0.0027174896094948053
1774472082334250200,5.019250244140625,0.0014181332662701607,0.002398442942649126,-0.0006050702068023384
1774472082344267300,5.029267333984375,0.003450924064964056,0.007232346571981907,0.0021734058391302824
1774472082354285300,5.039285400390625,0.005156146362423897,0.008183893747627735,0.002615490462630987
1774472082364302800,5.049302734375,0.0043774377554655075,0.00637773796916008,0.0023819312918931246
1774472082374320600,5.059320556640625,0.0022535668686032295,0.003082609036937356,0.00006151902198325843
1774472082384339000,5.0693388671875,0.002049036091193557,0.0009917612187564373,-0.002269279444590211
1774472082394356700,5.079356689453125,0.004563859198242426,-0.002507898723706603,-0.002222674200311303
1774472082404374800,5.089374755859375,0.003126817522570491,-0.0022000374738126993,-0.0024562333710491657
1774472082414392800,5.099392822265625,0.003460245206952095,-0.0020959076937288046,-0.0028514466248452663
1774472082424409900,5.109409912109375,0.00006311691686278209,-0.0004958806093782187,-0.003478354774415493
1774472082434427600,5.119427734375,0.0027419906109571457,0.0028338697738945484,0.00056219327962026
1774472082444446000,5.129446044921875,0.0041340249590575695,0.00469541922211647,0.0004647216119337827
1774472082454463700,5.139463623046875,0.0054789213463664055,0.004421379882842302,0.0017744642682373524
1774472082464481800,5.149481689453125,0.00404614070430398,0.003498062025755644,0.0005209143273532391
1774472082474499600,5.15949951171875,0.003257578704506159,-0.001597363967448473,-0.0006833671359345317
1774472082484518000,5.169517822265625,0.001976065570488572,-0.002805906580761075,-0.004544151946902275
1774472082494535700,5.17953564453125,0.002579271560534835,-0.00392842898145318,-0.002712695859372616
1774472082504553700,5.1895537109375,0.004509796854108572,0.001341966912150383,-0.0008780442294664681
1774472082514570800,5.19957080078125,0.0026999127585440874,0.003201385959982872,-0.0008058725506998599
1774472082524588800,5.2095888671875,0.0028626318089663982,0.006107693538069725,0.0016519587952643633
1774472082534606600,5.219606689453125,0.002734533743932843,0.0046821036376059055,0.0019955066964030266
1774472082544625000,5.229625,0.002049568807706237,0.005817142780870199,-0.0001728391507640481
1774472082554642700,5.239642578125,0.004070109222084284,0.0004087952256668359,-0.0009478190331719816
1774472082564660700,5.24966064453125,0.0026546388398855925,-0.00042290997225791216,-0.0023302659392356873
1774472082574678800,5.2596787109375,0.003406715579330921,-0.0029265477787703276,-0.0029878003988415003
1774472082584696800,5.26969677734375,0.003665042342618108,-0.0015531554818153381,-0.0032783513888716698
1774472082594713600,5.279713623046875,0.0034727619495242834,-0.00239205127581954,-0.0018895127577707171
1774472082604732000,5.28973193359375,0.003254116512835026,0.003114300547167659,-0.0010668623726814985
1774472082614750000,5.29975,0.0030368026345968246,0.005608617328107357,0.0025829998776316643
1774472082624767700,5.309767822265625,0.004095675423741341,0.007470965851098299,0.0006535397260449827
1774472082634785800,5.319785888671875,0.002653307281434536,0.00666535971686244,0.003599262097850442
1774472082644803800,5.329803955078125,0.003004844533279538,0.004707137122750282,0.0018096179701387882
1774472082654822000,5.33982177734375,0.003884486621245742,0.005364938173443079,-0.0010349043877795339
1774472082664839700,5.349839599609375,0.0042144525796175,0.0013582120882347226,-0.0015939018921926618
1774472082674857000,5.35985693359375,0.002698048483580351,-0.0008500810363329947,-0.0027318706270307302
1774472082684874800,5.369874755859375,0.002659166231751442,-0.0013622068800032139,-0.0018487664638087153
1774472082694892800,5.379892822265625,0.0033308155834674835,-0.00008948221511673182,-0.0019459717441350222
1774472082704910800,5.389910888671875,0.0038780951872467995,-0.0001627191377338022,-0.0015166702214628458
1774472082714929000,5.399928955078125,0.005094094667583704,0.0008194546680897474,0.0010365023044869304
1774472082724946700,5.40994677734375,0.0019470370607450604,0.003569967346265912,-0.0009526127250865102
1774472082734964700,5.41996484375,0.004259992390871048,0.002895388752222061,0.000020772657080669887
1774472082744982800,5.429982666015625,0.004379302263259888,0.0019443739438429475,-0.0019773971289396286
1774472082754999800,5.439999755859375,0.0025806031189858913,0.0008205199264921248,-0.0015688681742176414
1774472082765017900,5.450017822265625,0.002493784064427018,-0.0011496866354718804,0.000693220819812268
1774472082775036000,5.460035888671875,0.0032597091048955917,-0.002174204681068659,-0.0018247979460284114
1774472082785053700,5.4700537109375,0.0032112395856529474,0.0002234392159152776,-0.0008900284301489592
1774472082795071700,5.48007177734375,0.0028447885997593403,0.004051200579851866,-0.00009054747351910919
1774472082805089800,5.49008984375,0.0029827402904629707,0.004893025849014521,0.0006679208017885685
1774472082815107800,5.50010791015625,0.003780623432248831,0.005259210709482431,0.0025899240281432867
1774472082825125600,5.510125732421875,0.002944923471659422,0.005525260232388973,0.0008498146780766547
1774472082835143000,5.520142822265625,0.0028842033352702856,0.0031302794814109802,0.0008319715270772576
1774472082845160700,5.53016064453125,0.0021638183388859034,0.00036485306918621063,-0.0018165421206504107
1774472082855178800,5.5401787109375,0.0028455876745283604,-0.0017409083666279912,-0.0035151063930243254
1774472082865196800,5.55019677734375,0.0023246733471751213,-0.002258893335238099,-0.0020993698853999376
1774472082875214800,5.56021484375,0.0035473306197673082,-0.0016429040115326643,-0.0026439863722771406
1774472082885232600,5.570232666015625,0.0030927290208637714,-0.00025060345069505274,-0.0023635553661733866
1774472082895250700,5.580250732421875,0.0038120488170534372,-0.00020879182557109743,-0.0020746025256812572
1774472082905269000,5.59026904296875,0.0044104610569775105,0.0003062635369133204,-0.0029113676864653826
1774472082915285800,5.60028564453125,0.003427754621952772,0.0020852552261203527,-0.0006735134520567954
1774472082925303800,5.6103037109375,0.004749215207993984,0.004339088220149279,-0.00030786142451688647
1774472082935321900,5.62032177734375,0.0038043255917727947,0.004719654098153114,-0.00007456851017195731
1774472082945339600,5.630339599609375,0.004671717062592506,0.0033337450586259365,0.000016245283404714428
1774472082955357700,5.640357666015625,0.005333246197551489,0.0029555761720985174,0.0007257114048115909
1774472082965376000,5.6503759765625,0.00196381495334208,0.002413356676697731,-0.0002671150432433933
1774472082975393800,5.660393798828125,0.00344586418941617,0.00013928332191426307,0.000020240024241502397
1774472082985411800,5.670411865234375,0.0028868666850030422,-0.0011520835105329752,-0.001612011343240738
1774472082995428900,5.680428955078125,0.00418355967849493,-0.0018367822049185634,-0.0021939121652394533
1774472083005447000,5.690447021484375,0.0025153555907309055,-0.0013877731980755925,-0.0019654128700494766
1774472083015464700,5.700464599609375,0.002037584548816085,-0.0006679208017885685,-0.001395496423356235
1774472083025483000,5.71048291015625,0.0032085764687508345,0.0016647420125082135,-0.0005033374181948602
1774472083035500800,5.720500732421875,0.0038011297583580017,0.0031784826423972845,0.0013997574569657445
1774472083045518800,5.730518798828125,0.005329251755028963,0.005409146659076214,0.0019321233266964555
1774472083055536600,5.74053662109375,0.0030652983114123344,0.0018245317041873932,0.00008708536915946752
1774472083065555000,5.750554931640625,0.0029912625905126333,0.002620816696435213,-0.0009970874525606632
1774472083075571700,5.76057177734375,0.0030075078830122948,-0.00002956108801299706,-0.0015520902816206217
1774472083085589800,5.77058984375,0.0014090784825384617,-0.0011329087428748608,-0.0029582392890006304
1774472083095607800,5.78060791015625,0.0030802120454609394,-0.0016684704460203648,-0.0014101437991485
1774472083105625900,5.7906259765625,0.0030099046416580677,0.0010154632618650794,-0.0011262508342042565
1774472083115643600,5.8006435546875,0.0034027209039777517,0.0004468784318305552,0.0002793656021822244
1774472083125662000,5.810661865234375,0.003026416292414069,0.0015390408225357533,-0.0001371527905575931
1774472083135679700,5.8206796875,0.00395745737478137,0.001130511867813766,0.0005012069013901055
1774472083145697800,5.83069775390625,0.0016911072889342904,0.00014913702034391463,-0.002095375210046768
1774472083155714800,5.84071484375,0.003972371108829975,0.00010652644414221868,-0.001264468883164227
1774472083165732900,5.85073291015625,0.003689809702336788,-0.0003478088474366814,-0.0009134642314165831
1774472083175750700,5.860750732421875,0.00350392097607255,0.00012543488992378116,-0.00046818371629342437
1774472083185769000,5.87076904296875,0.002862365450710058,0.0011345066595822573,-0.0005091963685117662
1774472083195786800,5.880786865234375,0.004151601810008287,-0.00039787625428289175,-0.0006458165589720011
1774472083205804800,5.8908046875,0.003963316325098276,0.0010399643797427416,-0.001651426195167005
1774472083215822600,5.900822509765625,0.0033372072502970695,0.0002681803307496011,-0.0023638217244297266
1774472083225841000,5.9108408203125,0.004285292699933052,0.0014152037911117077,-0.0038549257442355156
1774472083235857700,5.920857666015625,0.003659449517726898,0.0002950782363768667,-0.0004886900424025953
1774472083245875700,5.930875732421875,0.0029939257074147463,0.001526257605291903,-0.0002388855500612408
1774472083255893800,5.940893798828125,0.0034059167373925447,0.0017510283505544066,-0.0009020126308314502
1774472083265911800,5.950911865234375,0.004225371405482292,0.000010386328540334944,-0.0010804444318637252
1774472083275929600,5.9609296875,0.0031936627347022295,0.0006042712484486401,-0.00126766471657902
1774472083285948000,5.970947998046875,0.00430207047611475,0.0009025452891364694,-0.0013712616637349129
1774472083295966000,5.980966064453125,0.003519367426633835,0.0002383529208600521,-0.002719087526202202
1774472083305983700,5.990983642578125,0.003069559345021844,0.0011225224006921053,-0.002226136391982436
1774472083316000800,6.001000732421875,0.0029017801862210035,0.0004106594424229115,-0.0014823154779151082
1774472083326018800,6.011018798828125,0.0024943165481090546,0.0009249158320017159,-0.001591505017131567
1774472083336036600,6.02103662109375,0.0033904702868312597,0.0024519723374396563,-0.00027803401462733746
1774472083346055000,6.031054931640625,0.0011299792677164078,0.0028274781070649624,-0.0015840481501072645
1774472083356073200,6.0410732421875,0.002447977662086487,0.0013251889031380415,0.00018455706594977528
1774472083366091300,6.05109130859375,0.004594751633703709,-0.0013848437229171395,-0.0006860303110443056
1774472083376109000,6.061109130859375,0.003961984533816576,-0.0001382180635118857,-0.0008407599525526166
1774472083386126300,6.071126220703125,0.002755040070042014,-0.001139566651545465,-0.0009158611064776778
1774472083396144000,6.08114404296875,0.005166532471776009,-0.0006974819116294384,-0.0018471685471013188
1774472083406162200,6.091162109375,0.004323375876992941,0.0003890878288075328,-0.0006178533658385277
1774472083416180200,6.10118017578125,0.003337739733979106,0.001889246515929699,-0.00019414443522691727
1774472083426198300,6.1111982421875,0.004211789462715387,0.0018975022248923779,0.0000601874417043291
1774472083436216000,6.121216064453125,0.003674629610031843,0.0026794064324349165,-0.00017443705291952938
1774472083446234000,6.131234130859375,0.003215234261006117,0.0011211908422410488,-0.0007629956235177815
1774472083456252200,6.141252197265625,0.002448510378599167,0.000624777574557811,-0.0011653993278741837
1774472083466269200,6.151269287109375,0.0029411951545625925,0.0007741809240542352,-0.0025545042008161545
1774472083476287200,6.161287353515625,0.0032767534721642733,0.0005661880713887513,-0.001210406655445695
1774472083486305300,6.17130517578125,0.005049087107181549,-0.00037044569035060704,-0.0013792511308565736
1774472083496323000,6.181322998046875,0.003921504598110914,-0.0013667342718690634,-0.0014152037911117077
1774472083506341000,6.191341064453125,0.003796336008235812,-0.0011371697764843702,-0.0004034689045511186
1774472083516359200,6.201359130859375,0.0026724820490926504,0.0021931130904704332,-0.0012665993999689817
1774472083526377200,6.211377197265625,0.0032083101104944944,0.0023965786676853895,0.00024740767548792064
1774472083536395000,6.22139501953125,0.002491120947524905,0.001541171339340508,0.00040772996726445854
1774472083546412300,6.231412353515625,0.0029406624380499125,0.0005779059720225632,-0.0017859158106148243
1774472083556430000,6.24143017578125,0.00242081331089139,0.0016354472609236836,-0.001418665866367519
1774472083566448000,6.2514482421875,0.003780623432248831,0.0003515372518450022,-0.001654622028581798
1774472083576466200,6.261466064453125,0.003245328087359667,-0.0014242585748434067,-0.0008615325787104666
1774472083586484200,6.271484130859375,0.003674097126349807,-0.00006178533658385277,-0.0003499393642414361
1774472083596502000,6.281501953125,0.003346794517710805,0.00042450788896530867,-0.00009480853623244911
1774472083606520000,6.29152001953125,0.003552656853571534,0.00027856664382852614,-0.0015579492319375277
1774472083616538000,6.3015380859375,0.0028093685396015644,0.0027475832030177116,-0.0009392969077453017
1774472083626555100,6.31155517578125,0.0023158849216997623,0.0014682007022202015,0.00028069718973711133
1774472083636573200,6.3215732421875,0.0035481294617056847,0.001731853699311614,-0.0011065434664487839
1774472083646591200,6.33159130859375,0.001948634977452457,0.0007784419576637447,-0.0013667342718690634
1774472083656609000,6.341609130859375,0.0033987262286245823,0.000559530162718147,-0.001148088718764484
1774472083666627000,6.351626953125,0.0038658445701003075,0.002659166231751442,-0.00210629403591156
1774472083676645400,6.361645263671875,0.002138784620910883,0.001059405505657196,-0.00034115093876607716
1774472083686663200,6.3716630859375,0.0033771544694900513,0.0012357067316770554,0.0005225121858529747
1774472083696680200,6.38168017578125,0.0029646309558302164,0.0017305220244452357,-0.0012245214311406016
1774472083706698200,6.3916982421875,0.0034179009962826967,0.00044900894863530993,-0.002641855739057064
1774472083716716000,6.401716064453125,0.004349741153419018,-0.00009693906031316146,-0.000827177835162729
1774472083726734000,6.411734130859375,0.005028580781072378,0.0014676681021228433,0.0000015978966985130683
1774472083736752400,6.42175244140625,0.004295678809285164,0.0016144082183018327,-0.0007653924985788763
1774472083746770200,6.431770263671875,0.003658917034044862,0.0007840346079319715,-0.002513757674023509
1774472083756788200,6.441788330078125,0.0026578346733003855,0.003251187037676573,-0.0008412926108576357
1774472083766806000,6.451805908203125,0.00333214714191854,0.001812014845199883,-0.0018021611031144857
1774472083776823300,6.4618232421875,0.0034461303148418665,0.0006705839768983424,-0.0013539510546252131
1774472083786841000,6.471841064453125,0.004626177251338959,-0.0005307680112309754,-0.0027449200861155987
1774472083796859400,6.481859375,0.0013869742397218943,0.0010133327450603247,-0.000594950164668262
1774472083806877200,6.491877197265625,0.003507649526000023,0.000041278995922766626,-0.0017566210590302944
1774472083816895200,6.501895263671875,0.0035065840929746628,0.0013022858183830976,-0.0020932445768266916
1774472083826913000,6.5119130859375,0.002302569104358554,0.0022088258992880583,-0.001672198879532516
1774472083836931300,6.521931396484375,0.004065581597387791,0.0014620753936469555,-0.002058357233181596
1774472083846949000,6.53194921875,0.002966228872537613,0.0031561122741550207,-0.0007126618875190616
1774472083856966100,6.541966064453125,0.002043976215645671,0.0008612662786617875,0.0010165285784751177
1774472083866984200,6.551984130859375,0.003964914008975029,-0.00008069378236541525,-0.0005395564367063344
1774472083877002200,6.562002197265625,0.002663161139935255,0.0001882854849100113,-0.00185063062235713
1774472083887020000,6.57202001953125,0.0022450448013842106,0.0012112056137993932,-0.0024165522772818804
1774472083897038300,6.582038330078125,0.0016591493040323257,0.0005158542771823704,-0.001541171339340508
1774472083907056000,6.59205615234375,0.0020788635592907667,-0.00027057717670686543,-0.0015712650492787361
1774472083917074200,6.60207421875,0.004338289611041546,0.0028011128306388855,-0.001365668955259025
1774472083927091200,6.61209130859375,0.003990480676293373,0.0033478597179055214,-0.0000697748182574287
1774472083937109200,6.622109130859375,0.0033846113365143538,0.0031228226143866777,-0.0021140172611922026
1774472083947127000,6.632126953125,0.0028360001742839813,0.002683401107788086,0.0006591323763132095
1774472083957145000,6.64214501953125,0.0014868428697809577,0.0013068130938336253,-0.0002569950302131474
1774472083967163100,6.6521630859375,0.0028993834275752306,0.000898550555575639,-0.0019345202017575502
1774472083977181200,6.66218115234375,0.0025004418566823006,-0.0009398295660503209,-0.0003861583536490798
1774472083987199000,6.672198974609375,0.004205131437629461,0.00045060686534270644,-0.0008900284301489592
1774472083997217300,6.68221728515625,0.0030157635919749737,0.0016530241118744016,-0.0019265307346358895
1774472084007234000,6.692234130859375,0.0039867521263659,0.0014927018200978637,-0.0004966795677319169
1774472084017252000,6.702252197265625,0.002493517706170678,0.0022514364682137966,-0.000046339002437889576
1774472084027270100,6.712270263671875,0.00247540813870728,0.0010069411946460605,-0.0005105279851704836
1774472084037288200,6.7222880859375,0.002475142013281584,0.0018101505702361465,-0.0015211976133286953
1774472084047306000,6.732305908203125,0.0018189389957115054,0.0017723336350172758,-0.0015744607662782073
1774472084057324300,6.74232421875,0.0023406522814184427,0.0009803095599636436,-0.0009100021561607718
1774472084067342300,6.75234228515625,0.00458782771602273,-0.00033103092573583126,-0.0021797972731292248
1774472084077359000,6.762359130859375,0.0035358788445591927,0.0003885551996063441,-0.0009816411184147
1774472084087377200,6.772377197265625,0.004767324775457382,0.0011619371362030506,-0.0005930859479121864
1774472084097395200,6.782395263671875,0.00333214714191854,0.002754773711785674,-0.000010386328540334944
1774472084107413000,6.7924130859375,0.0034080471377819777,0.001734516816213727,-0.0006556702428497374
1774472084117431000,6.80243115234375,0.004270378965884447,0.0019214707426726818,-0.0003398193512111902
1774472084127449300,6.812449462890625,0.0026964505668729544,0.0010285128373652697,-0.001278849900700152
1774472084137467100,6.822467041015625,0.0031587753910571337,0.002831206424161792,-0.000031425301131093875
1774472084147485200,6.832485107421875,0.001936384360305965,0.00036938043194822967,-5.326322138898831e-7
1774472084157502200,6.842502197265625,0.0004308994684834033,0.0020032296888530254,-0.00063356600003317
1774472084167520300,6.852520263671875,0.00279046013019979,0.00033182985498569906,-0.0015190670965239406
1774472084177538000,6.8625380859375,0.0026559706311672926,0.001156877144239843,-0.003677559085190296
1774472084187556400,6.872556396484375,0.003643736941739917,-0.00025592977181077003,-0.0023579627741128206
1774472084197574100,6.88257421875,0.0031166973058134317,0.0006631271098740399,-0.0021281319204717875
1774472084207592200,6.89259228515625,0.004274107050150633,0.001544100814498961,-0.0015542207984253764
1774472084217610200,6.9026103515625,0.001865011639893055,0.0020663465838879347,-0.0006777744856663048
1774472084227628300,6.912628173828125,0.0026849990244954824,0.002543052425608039,0.000027963191314483993
1774472084237645000,6.92264501953125,0.002540389308705926,0.0008820389630272985,-0.0009859022684395313
1774472084247663400,6.932663330078125,0.0023454460315406322,0.0003043993201572448,-0.0017893778858706355
1774472084257681200,6.94268115234375,0.003064765827730298,0.0006322344415821135,-0.001112668658606708
1774472084267699200,6.95269921875,0.00293320557102561,-0.00014993596414569765,0.00007190534961409867
1774472084277717000,6.962717041015625,0.0029848709236830473,-0.00023702133330516517,-0.001725462032482028
1774472084287735300,6.9727353515625,0.0030626351945102215,-0.0001715075777610764,-0.0014703312190249562
1774472084297753000,6.982753173828125,0.002907106652855873,-0.0009121326729655266,-0.0015606123488396406
1774472084307770400,6.992770263671875,0.0036131106317043304,0.00035979304811917245,-0.0007262440049089491
1774472084317788200,7.0027880859375,0.004249872639775276,0.0016085492679849267,-0.001472728094086051
1774472084327806200,7.01280615234375,0.0029108349699527025,0.00037257623625919223,-0.0012844426091760397
1774472084337824000,7.022823974609375,0.0022921827621757984,0.0011544802691787481,-0.00020453077740967274
1774472084347842300,7.03284228515625,0.0039020637050271034,-0.00005912217602599412,-0.0020178770646452904
1774472084357860600,7.042860595703125,0.00347462622448802,0.0010793792316690087,-0.0003539340978022665
1774472084367878700,7.052878662109375,0.0008724515791982412,0.0016998957144096494,-0.0016857809387147427
1774472084377895700,7.062895751953125,0.0033936661202460527,0.0011936287628486753,0.000050600061513250694
1774472084387913700,7.072913818359375,0.0035582494456321,0.002302835462614894,0.00013395700079854578
1774472084397931500,7.082931640625,0.002302569104358554,0.0008764463127590716,-0.0008655273704789579
1774472084407949600,7.092949462890625,0.002838130807504058,0.0006772418855689466,-0.001781921018846333
1774472084417967600,7.102967529296875,0.004983306862413883,0.0013813816476613283,-0.0015595471486449242
1774472084427985700,7.112985595703125,0.004406998865306377,0.0003880225704051554,-0.0007880293414928019
1774472084438003700,7.123003662109375,0.0023545008152723312,0.0006479470757767558,-0.000075101139373146
1774472084448021800,7.133021728515625,0.0032373385038226843,-0.0004146541759837419,-0.001876995898783207
1774472084458038500,7.14303857421875,0.0027470507193356752,0.0002162486780434847,-0.0018255969043821096
1774472084468056600,7.153056640625,0.004844556096941233,0.0008226504432968795,-0.0010966897243633866
1774472084478074600,7.16307470703125,0.004384628497064114,0.0011342403013259172,-0.0006697850185446441
1774472084488092700,7.1730927734375,0.0017150756902992725,0.002846386516466737,-0.0023909860756248236
1774472084498110700,7.18311083984375,0.0044996771030128,0.004877046681940556,0.0004791026876773685
1774472084508128800,7.193128662109375,0.0016218650853261352,0.003906590864062309,-0.000054861116950633004
1774472084518146800,7.203146728515625,0.0021616879384964705,0.005366535857319832,0.001201618229970336
1774472084528163600,7.21316357421875,0.005401156842708588,0.0019824570044875145,-0.0007142598042264581
1774472084538182000,7.223181884765625,0.00296276668086648,0.0011587414192035794,0.0002820287481881678
1774472084548199700,7.23319970703125,0.002141447737812996,-0.0008364989189431071,-0.002046905690804124
1774472084558217700,7.2432177734375,0.0035984632559120655,-0.0018519621808081865,-0.002665291540324688
1774472084568235500,7.253235595703125,0.003778493031859398,-0.0013632721966132522,-0.002317482838407159
1774472084578253800,7.26325390625,0.003540938952937722,-0.0008559399866499007,-0.0011837751371785998
1774472084588271600,7.273271728515625,0.0010378338629379869,0.0009885653853416443,-0.001811482128687203
1774472084598289700,7.28328955078125,0.0031185615807771683,0.0026136261876672506,-0.0012341088149696589
1774472084608306700,7.293306640625,0.0028764803428202868,0.0028794098179787397,0.0004237089306116104
1774472084618324700,7.30332470703125,0.004108192399144173,0.002261023735627532,0.00039947417099028826
1774472084628342500,7.313342529296875,0.00467651104554534,0.0004974784678779542,-0.0015417039394378662
1774472084638360800,7.32336083984375,0.002511360915377736,-0.0010522148804739118,-0.00250523560680449
1774472084648378600,7.333378662109375,0.0036730316933244467,-0.00028389296494424343,-0.0017449031583964825
1774472084658396700,7.343396728515625,0.002781938062980771,-0.001585646066814661,-0.002528405049815774
1774472084668414700,7.353414794921875,0.003591006388887763,0.000624777574557811,-0.0021438447292894125
1774472084678431700,7.363431640625,0.003436276689171791,0.0002724413643591106,-0.001151018193922937
1774472084688449500,7.373449462890625,0.003477822057902813,0.0014301175251603127,-0.0018897791160270572
1774472084698467800,7.3834677734375,0.003102049930021167,0.001930525409989059,0.000835966260638088
1774472084708485600,7.393485595703125,0.0019225359428673983,0.0018402442801743746,-0.00010572749306447804
1774472084718503700,7.403503662109375,0.0025896579027175903,0.0029499835800379515,0.00034727618913166225
1774472084728521500,7.413521484375,0.002570483135059476,0.002528671408072114,-0.0007563377148471773
1774472084738539800,7.423539794921875,0.0031992553267627954,0.0018881811993196607,-0.002092445734888315
1774472084748557600,7.4335576171875,0.0038253646343946457,-0.0010894992155954242,-0.0012053466634824872
1774472084758574800,7.443574951171875,0.003668237943202257,0.00012783173588104546,-0.001278849900700152
1774472084768592600,7.453592529296875,0.004641357343643904,-0.0018602180061861873,-0.0022927154786884785
1774472084778610700,7.463610595703125,0.0034903388004750013,-0.00047351003740914166,-0.0024341291282325983
1774472084788628500,7.47362841796875,0.003983822651207447,0.000687361869495362,-0.0012977584265172482
1774472084798646800,7.483646728515625,0.0036541232839226723,0.0018354506464675069,0.0005403553950600326
1774472084808664600,7.49366455078125,0.0023409186396747828,0.0022804648615419865,-0.0007968177669681609
1774472084818682600,7.5036826171875,0.0012663330417126417,0.0009989517275243998,-0.0006585997180081904
1774472084828699600,7.51369970703125,0.002861832967028022,0.0011499529937282205,-0.0018032263033092022
1774472084838717700,7.5237177734375,0.002314553363248706,0.0015813850332051516,-0.0008711199625395238
1774472084848735500,7.533735595703125,0.001621332485228777,-0.0003105245705228299,-0.0011712582781910896
1774472084858753800,7.54375390625,0.0034413367975503206,-0.0005526058957912028,-0.0015875103417783976
1774472084868771600,7.553771484375,0.0027228158432990313,0.0010932276491075754,-0.0008138620178215206
1774472084878789600,7.56378955078125,0.0032570459879934788,0.0007179882377386093,-0.001955292886123061
1774472084888807700,7.5738076171875,0.0031124362722039223,0.002543052425608039,0.00021225394448265433
1774472084898825700,7.58382568359375,0.004020041786134243,0.0019742012955248356,0.0005965480813756585
1774472084908842500,7.593842529296875,0.0035052525345236063,0.003376888344064355,-0.0010961571242660284
1774472084918860800,7.60386083984375,0.0019414444686844945,0.0010615360224619508,0.00003781688792514615
1774472084928878800,7.61387890625,0.004162786994129419,0.0018282600212842226,-0.0001001348573481664
1774472084938896600,7.623896728515625,0.001904160133562982,0.001511343871243298,-0.0011643340112641454
1774472084948914700,7.633914794921875,0.003498861100524664,-0.0007968177669681609,-0.0012921657180413604
1774472084958932700,7.6439326171875,0.003745469730347395,0.0007952199084684253,-0.0019955066964030266
1774472084968950800,7.65395068359375,0.0035808864049613476,-0.00023515711654908955,-0.0014482269762083888
1774472084978967600,7.663967529296875,0.003206712193787098,0.001701759872958064,-0.00044341632747091353
1774472084988985900,7.67398583984375,0.0033949976786971092,0.00031185615807771683,-0.0004772384709212929
1774472084999003600,7.684003662109375,0.0022738068364560604,0.0016982977977022529,0.00013875069271307439
1774472085009021700,7.694021728515625,0.003439472522586584,0.0016554208705201745,0.0006625944515690207
1774472085019039700,7.704039794921875,0.004467719234526157,0.0021201425697654486,0.0003099919413216412
1774472085029057800,7.714057861328125,0.002858637133613229,0.0008314388687722385,0.00012596751912496984
1774472085039075600,7.72407568359375,0.002877012826502323,-0.00034727618913166225,-0.002636263146996498
1774472085049092900,7.7340927734375,0.0036368127912282944,-0.0006551376427523792,-0.003568103304132819
1774472085059110700,7.744110595703125,0.0035393410362303257,-0.00022130868455860764,-0.0028485171496868134
1774472085069128700,7.754128662109375,0.0034112429711967707,-0.0007475492893718183,-0.00036139096482656896
1774472085079146500,7.764146484375,0.004021106753498316,0.002129996195435524,-0.0006117281154729426
1774472085089164800,7.774164794921875,0.003011502558365464,0.0027979169972240925,-0.00014940333494450897
1774472085099182600,7.7841826171875,0.0032836776226758957,0.0019467707024887204,-0.00037497308221645653
1774472085109200600,7.79420068359375,0.0029025792609900236,0.0013217268278822303,-0.000014114753867033869
1774472085119218700,7.80421875,0.003263703780248761,0.0001656486128922552,-0.0020210728980600834
1774472085129235700,7.814235595703125,0.002642654813826084,0.00022370553051587194,-0.002748914761468768
1774472085139253500,7.82425341796875,0.0032490564044564962,-0.0006093312404118478,-0.0014476943761110306
1774472085149271800,7.834271728515625,0.0031180288642644882,0.0008343683439306915,-0.0009632653673179448
1774472085159289600,7.84428955078125,0.005025118589401245,0.001958488719537854,-0.001279116258956492
1774472085169307600,7.8543076171875,0.004198739770799875,0.0016189356101676822,-0.0018671422731131315
1774472085179325700,7.86432568359375,0.0032525185961276293,0.0026013758033514023,-0.0007571366732008755
1774472085189343700,7.87434375,0.003204315435141325,0.002615756820887327,-0.0014207963831722736
1774472085199360500,7.884360595703125,0.0038746329955756664,0.0025305356830358505,-0.0022530341520905495
1774472085209378800,7.89437890625,0.0032469260040670633,0.0019944412633776665,-0.0010330402292311192
1774472085219396600,7.904396728515625,0.0029342707712203264,0.0010785802733153105,-0.0008325041271746159
1774472085229414700,7.91441455078125,0.002210689941421151,-0.00011877698125317693,-0.0011142665753141046
1774472085239432400,7.924432373046875,0.002919357270002365,0.00018455706594977528,-0.0020594224333763123
1774472085249450800,7.93445068359375,0.003677559085190296,0.00021917815320193768,-0.0009209210984408855
1774472085259468500,7.944468505859375,0.0038831550627946854,0.0014735270524397492,-0.0018218684708699584
1774472085269485800,7.95448583984375,0.0013784521725028753,0.00042264367220923305,-0.002004561247304082
1774472085279503600,7.964503662109375,0.001930791768245399,0.002861566608771682,0.00045300371129997075
1774472085289521700,7.974521728515625,0.0034027209039777517,0.00013156015484128147,-0.00279125920496881
1774472085299539500,7.98453955078125,0.003183010034263134,-0.0009510148083791137,-0.0011563445441424847
1774472085309557800,7.994557861328125,0.0052352421917021275,-0.0018610169645398855,-0.0026130937039852142
1774472085319575600,8.004575439453125,0.004485296085476875,0.000570981705095619,-0.0007890945998951793
1774472085329593600,8.014593505859375,0.0036434705834835768,0.0008165251929312944,0.0001704423048067838
1774472085339611600,8.024611572265625,0.003353186184540391,0.0017222663154825568,0.0011004181578755379
1774472085349628700,8.034628662109375,0.0026130937039852142,0.0031641016248613596,-0.0006660565850324929
1774472085359646700,8.044646728515625,0.003918042406439781,0.0009709885343909264,-0.0008671252289786935
1774472085369665000,8.0546650390625,0.0046730488538742065,0.0026583673898130655,0.00013369068619795144
1774472085379682800,8.064682861328125,0.0023366576060652733,0.0009861685102805495,-0.001820803270675242
1774472085389700900,8.074700927734375,0.004057858604937792,0.0012892362428829074,-0.0014972290955483913
1774472085399718700,8.08471875,0.0034224283881485462,0.000371777277905494,-0.0007297061383724213
1774472085409737000,8.094737060546874,0.0031033814884722233,0.001112668658606708,-0.0012652678415179253
1774472085419753700,8.104753662109376,0.004354801028966904,-0.0003049319493584335,-0.0015052186790853739
1774472085429771800,8.114771728515626,0.0036035231314599514,-0.0002868224401026964,-0.0032402679789811373
1774472085439789800,8.124789794921876,0.002754773711785674,0.0005550027708522975,-0.0017638115677982569
1774472085449808000,8.134807861328126,0.0030184267088770866,0.00034408041392453015,-0.0003217098710592836
1774472085459825700,8.14482568359375,0.003453587181866169,0.0003009371866937727,-0.0016192019684240222
1774472085469844000,8.154843994140625,0.003920971881598234,-0.000245543458731845,-0.00014993596414569765
1774472085479861800,8.16486181640625,0.0035116442013531923,0.002930009737610817,-0.0004679173871409148
1774472085489878800,8.174878662109375,0.002436526119709015,0.0017603494925424457,-0.0009078715811483562
1774472085499896800,8.184896728515625,0.002996056107804179,0.002603772561997175,-0.0007307713967747986
1774472085509915000,8.194914794921875,0.00439048744738102,0.0019244002178311348,-0.001198688754811883
1774472085519932700,8.2049326171875,0.003891411004588008,0.002180329989641905,-0.0009603358921594918
1774472085529951000,8.214950927734375,0.002861566608771682,-0.0002657834847923368,-0.0005427522119134665
1774472085539968800,8.22496875,0.0036277580074965954,0.0017835189355537295,-0.0020658141002058983
1774472085549986800,8.23498681640625,0.004534564446657896,0.0005624596378766,-0.0003001382574439049
1774472085560004600,8.245004638671874,0.0031095067970454693,0.0005558017292059958,-0.0005259743193164468
1774472085570022000,8.25502197265625,0.0027113643009215593,0.00024101608141791075,-0.0010125337867066264
1774472085580039700,8.265039794921876,0.0014271880500018597,-0.00047697214176878333,-0.000669518718495965
1774472085590057700,8.2750576171875,0.004508465528488159,-0.0008455536444671452,-0.002267415402457118
1774472085600075800,8.28507568359375,0.0027164241764694452,-0.0007091998122632504,-0.0010154632618650794
1774472085610093800,8.29509375,0.0038000645581632853,0.000025832661776803434,-0.0014223942998796701
1774472085620111600,8.305111572265625,0.002231728984043002,0.0005691175465472043,-0.0008572715451009572
1774472085630130000,8.3151298828125,0.002511627273634076,0.0018578211311250925,-0.0010910971323028207
1774472085640146700,8.325146728515625,0.0029377329628914595,0.002403236459940672,-0.0008886968716979027
1774472085650164700,8.335164794921875,0.002344913315027952,0.001913214917294681,-0.0017915084026753902
1774472085660182800,8.345182861328125,0.0036136433482170105,0.0022530341520905495,-0.0010032127611339092
1774472085670200800,8.355200927734375,0.0023457121569663286,0.003266367129981518,-0.00039068571641109884
1774472085680218600,8.365218505859374,0.002855974016711116,-0.0010631339391693473,-0.0000655137628200464
1774472085690237000,8.37523681640625,0.002353968098759651,0.0001994707708945498,-0.0012221246724948287
1774472085700254700,8.385254638671874,0.0016796556301414967,-0.00036938043194822967,-0.001973136095330119
1774472085710272800,8.395272705078124,0.0029859361238777637,0.000568318588193506,-0.0010703244479373097
1774472085720289800,8.405289794921876,0.0035414716694504023,0.0011970909545198083,-0.0019345202017575502
1774472085730307800,8.415307861328126,0.0029017801862210035,-0.0009097357979044318,-0.0014037522487342358
1774472085740325600,8.42532568359375,0.0028506475500762463,0.0009502158500254154,-0.0008154599345289171
1774472085750343700,8.43534375,0.00433189794421196,0.0017057546647265553,-0.0014207963831722736
1774472085760362000,8.445362060546875,0.0025776736438274384,0.001942243310622871,-0.00096086849225685
1774472085770379800,8.4553798828125,0.0029553098138421774,0.001660480978898704,-0.0006135923322290182
1774472085780397800,8.465397705078125,0.0026551715563982725,0.0013768542557954788,-0.0017747305100783706
1774472085790414800,8.475414794921875,0.002627474721521139,0.0015614113071933389,-0.0009885653853416443
1774472085800432600,8.4854326171875,0.00401551416143775,0.001044758129864931,-0.0007006776868365705
1774472085810450700,8.49545068359375,0.0026045716367661953,0.0009278453071601689,-0.0010815097484737635
1774472085820469000,8.505468994140625,0.0049215215258300304,0.0005126585019752383,-0.0017235978739336133
1774472085830486800,8.51548681640625,0.0025334651581943035,0.002407231368124485,-0.0005241101025603712
1774472085840504800,8.5255048828125,0.0018343853298574686,0.001862348522990942,-0.002101234160363674
1774472085850523000,8.53552294921875,0.003070624778047204,0.0008737831376492977,-0.0009603358921594918
1774472085860539600,8.54553955078125,0.002683401107788086,0.0024562333710491657,0.0007403587806038558
1774472085870557700,8.5555576171875,0.0029526466969400644,0.00012357067316770554,-0.0017907095607370138
1774472085880576000,8.565575927734375,0.0032322786282747984,-7.989483492565341e-7,-0.0004362257895991206
1774472085890593800,8.57559375,0.0021193434949964285,0.002519882982596755,-0.0007640608819201589
1774472085900611800,8.58561181640625,0.001948368619196117,0.0006013417732901871,-0.0006687197601422668
1774472085910629600,8.595629638671875,0.003215766977518797,0.001454884884878993,-0.0012178635224699974
1774472085920648000,8.60564794921875,0.00418382603675127,0.0004135889175813645,-0.0028093685396015644
1774472085930664700,8.615664794921875,0.003266633255407214,0.00264824740588665,-0.00009267800487577915
1774472085940683000,8.62568310546875,0.002566488226875663,0.0018080200534313917,-0.0012452941155061126
1774472085950700800,8.63570068359375,0.0032858080230653286,0.0006207828409969807,-0.0015824503498151898
1774472085960718800,8.64571875,0.0037268276792019606,-0.001038366463035345,-0.0017241304740309715
1774472085970736600,8.655736572265624,0.003430417738854885,-0.0009536779834888875,-0.002523078816011548
1774472085980755000,8.6657548828125,0.003433613572269678,0.0017358483746647835,-0.0009084042394533753
1774472085990772700,8.675772705078124,0.003996073268353939,0.004022172186523676,0.0014881744282320142
1774472086000789800,8.685789794921876,0.0027569043450057507,0.006085855886340141,0.0008556736283935606
1774472086010807800,8.695807861328126,0.0035449336282908916,0.0049526807852089405,0.0017222663154825568
1774472086020825900,8.705825927734375,0.0021057615522295237,0.0019204054260626435,-0.00003808320252574049
1774472086030843600,8.71584375,0.002715625334531069,-0.0015957661671563983,-0.0017366473330184817
1774472086040862000,8.725862060546875,0.0037374801468104124,-0.0026972496416419744,-0.0006495449924841523
1774472086050879700,8.735879638671875,0.0027196200098842382,-0.003561977995559573,-0.003031742526218295
1774472086060897800,8.745897705078125,0.003822967642918229,-0.0014183996245265007,-0.003087668912485242
1774472086070915600,8.75591552734375,0.003468767274171114,0.0000798948312876746,-0.001284975209273398
1774472086080932900,8.765932861328125,0.004014449194073677,0.001704689348116517,-0.0008404936525039375
1774472086090950700,8.77595068359375,0.0016399745363742113,0.0032178976107388735,0.0008980178972706199
1774472086100969000,8.785968994140624,0.00330311874859035,0.004079962614923716,0.00006072007090551779
1774472086110986800,8.79598681640625,0.002383529208600521,0.002840527566149831,0.00026498452643863857
1774472086121004800,8.8060048828125,0.0041609229519963264,0.0018021611031144857,-0.0021616879384964705
1774472086131022600,8.816022705078124,0.0039044604636728764,-0.0013456953456625342,-0.0012828446924686432
1774472086141041000,8.826041015625,0.001749430550262332,-0.0027798074297606945,-0.002805640222504735
1774472086151057700,8.8360576171875,0.00321949552744627,-0.0020042951218783855,-0.0036674391012638807
1774472086161075700,8.84607568359375,0.0019925772212445736,-0.0015433018561452627,-0.001609348226338625
1774472086171093800,8.85609375,0.003829625668004155,-0.00021305288828443736,-0.0018583538476377726
1774472086181111800,8.86611181640625,0.002234392100945115,0.0031009847298264503,-0.0006956176948733628
1774472086191129600,8.876129638671875,0.0036490634083747864,0.0028333370573818684,0.0001685781026026234
1774472086201148000,8.88614794921875,0.002581668319180608,0.0019566244445741177,0.0012170645641162992
1774472086211166000,8.896166015625,0.002656236756592989,0.0031467911321669817,0.0017670074012130499
1774472086221182700,8.9061826171875,0.0013161342358216643,0.0023552996572107077,-0.002042910782620311
1774472086231200800,8.91620068359375,0.0021939121652394533,-0.0005163869354873896,-0.0010423612548038363
1774472086241218800,8.92621875,0.003718571737408638,-0.0007632619817741215,-0.0037649108562618494
1774472086251236600,8.936236572265624,0.002752110594883561,-0.0009209210984408855,-0.002936401404440403
1774472086261255000,8.9462548828125,0.0028852687682956457,0.0005044027348048985,-0.001478587044402957
1774472086271273000,8.95627294921875,0.004459196701645851,0.00003302319601061754,-0.0009843043517321348
1774472086281290800,8.966290771484376,0.004282895475625992,0.000592020689509809,-0.0012751214671880007
1774472086291307800,8.976307861328126,0.0046482812613248825,0.002895388752222061,-0.0011941614793613553
1774472086301325800,8.986325927734375,0.004600610584020615,0.0031816784758120775,0.0002234392159152776
1774472086311343900,8.99634375,0.0028152274899184704,0.0022093583829700947,-0.000035952674807049334
1774472086321361700,9.006361572265625,0.004056526813656092,0.0013049489352852106,-0.00022610237647313625
1774472086331380000,9.0163798828125,0.0044293696992099285,0.0013547500129789114,-0.0008548747282475233
1774472086341397800,9.026397705078125,0.002935868687927723,0.00013156015484128147,-0.0024370586033910513
1774472086351415800,9.036415771484375,0.0029031119775027037,-0.0011763182701542974,-0.0016916398890316486
1774472086361432300,9.046432373046875,0.003215234261006117,-0.00008229167724493891,-0.0017124125733971596
1774472086371450000,9.0564501953125,0.0032661007717251778,-0.001537709147669375,-0.002508697798475623
1774472086381468400,9.066468505859374,0.0028644960839301348,0.0016234630020335317,-0.0022181468084454536
1774472086391486500,9.076486572265624,0.0035958001390099525,-0.0014831144362688065,-0.0020937772933393717
1774472086401504300,9.086504150390626,0.0030088394414633512,0.00040959418402053416,-0.0004551342281047255
1774472086411522300,9.096522216796876,0.004131628200411797,0.0012210593558847904,-0.0000031957933970261365
1774472086421540400,9.106540283203126,0.00384400668554008,0.003620833856984973,-0.001612277701497078
1774472086431558400,9.116558349609376,0.0031044469214975834,0.0020367854740470648,-0.001466602785512805
1774472086441575200,9.1265751953125,0.0028847360517829657,-0.00035739620216190815,-0.0016016251174733043
1774472086451593500,9.136593505859375,0.0034735610242933035,0.000874582096002996,-0.0018559569725766778
1774472086461611300,9.146611328125,0.002575809368863702,0.000966727442573756,-0.00355931487865746
1774472086471629300,9.15662939453125,0.0021339908707886934,0.0002719087351579219,-0.0020501012913882732
1774472086481647400,9.1666474609375,0.002737463219091296,0.0010905644157901406,-0.0027177559677511454
1774472086491665400,9.17666552734375,0.002124669961631298,0.0015022892039269209,-0.001948634977452457
1774472086501683200,9.18668310546875,0.0031846079509705305,0.000434361572843045,-0.0018426411552354693
1774472086511700500,9.196700439453124,0.0022213426418602467,0.0015238607302308083,-0.0007952199084684253
1774472086521718300,9.20671826171875,0.003965713083744049,0.0009369000908918679,-0.0009454221581108868
1774472086531736300,9.216736328125,0.0018996327416971326,0.0015369103057309985,-0.0007747135823592544
1774472086541754400,9.22675439453125,0.002332396572455764,0.0007222492713481188,-0.00043809000635519624
1774472086551772400,9.2367724609375,0.0037846181076020002,-0.00009161273919744417,-0.0020836573094129562
1774472086561790200,9.246790283203126,0.0032314795535057783,0.0007661914569325745,-0.0002681803307496011
1774472086571808300,9.256808349609376,0.0035361452028155327,0.0012402341235429049,-0.0010700580896809697
1774472086581825300,9.2668251953125,0.0035539884120225906,0.000821318884845823,-0.0003222425002604723
1774472086591843300,9.27684326171875,0.0035169704351574183,0.0013712616637349129,-0.0010420948965474963
1774472086601861000,9.286861083984375,0.002043976215645671,-0.00042823629337362945,-0.0006588660762645304
1774472086611879400,9.29687939453125,0.0034197650384157896,0.00045566685730591416,-0.0021134845446795225
1774472086621897200,9.306897216796875,0.0033981935121119022,0.00041678472189232707,-0.0018767296569421887
1774472086631915300,9.316915283203125,0.003933222498744726,0.0003235740587115288,-0.000743820914067328
1774472086641933300,9.326933349609375,0.0036884781438857317,0.0024594292044639587,-0.002241050126031041
1774472086651950300,9.336950439453124,0.002525475574657321,0.0034061830956488848,-0.0014109427575021982
1774472086661968100,9.346968017578124,0.0027659591287374496,-0.00033875409280881286,-0.0002508697798475623
1774472086671986400,9.356986328125,0.0023872575256973505,0.001844771672040224,-0.001198955113068223
1774472086682004200,9.367004150390626,0.004258926957845688,0.0011017497163265944,-0.0001001348573481664
1774472086692022300,9.377022216796876,0.0027622305788099766,0.002186721656471491,-0.0006087986403144896
1774472086702040300,9.387040283203126,0.0015270565636456013,0.00012863067968282849,0.00021411814668681473
1774472086712058400,9.397058349609376,0.004865595139563084,-0.0004902879591099918,-0.002234658459201455
1774472086722075100,9.4070751953125,0.0020221380982548,0.0007400924805551767,-0.000892691605258733
1774472086732093400,9.417093505859375,0.005096225067973137,0.0007462177309207618,-0.001055943313986063
1774472086742111200,9.427111328125,0.003531884169206023,-0.0005432848702184856,-0.001585646066814661
1774472086752129300,9.43712939453125,0.0029433255549520254,0.0002170476218452677,-0.0028788771014660597
1774472086762147000,9.44714697265625,0.0025784724857658148,0.0003933488915208727,-0.00011611382069531828
1774472086772165400,9.457165283203125,0.002769953804090619,0.0014165353495627642,-0.0011267834343016148
1774472086782183400,9.467183349609375,0.002626675646752119,0.00044022052315995097,-0.0003427488263696432
1774472086792200400,9.477200439453124,0.004883438348770142,0.001826395862735808,-0.0009432916413061321
1774472086802218200,9.48721826171875,0.004098871257156134,0.0011877698125317693,-0.0005699164466932416
1774472086812236300,9.497236328125,0.002718821167945862,0.0017251957906410098,-0.0010357033461332321
1774472086822254000,9.507254150390626,0.0028687571175396442,0.0011427623685449362,-0.002406965009868145
1774472086832272400,9.5172724609375,0.0033654365688562393,0.0011595403775572777,-0.00022317290131468326
1774472086842290400,9.52729052734375,0.0028628981672227383,0.00040000680019147694,-0.0006000102148391306
1774472086852308200,9.53730810546875,0.003622964257374406,0.0018104169284924865,-0.0009555422002449632
1774472086862325200,9.5473251953125,0.003825897118076682,0.0020303940400481224,0.00021172130072955042
1774472086872343300,9.55734326171875,0.00358834327198565,0.002734001260250807,-0.0021225393284112215
1774472086882361000,9.567361083984375,0.0006178533658385277,0.0012412993237376213,-0.0011025486746802926
1774472086892379400,9.57737939453125,0.002538258908316493,0.00259418529458344,-0.0008202536264434457
1774472086902397400,9.5873974609375,0.0038932752795517445,0.0014295848086476326,-0.002272741636261344
1774472086912415200,9.597415283203125,0.0023126890882849693,0.00012197277828818187,-0.001145159243606031
1774472086922433300,9.607433349609375,0.003990747034549713,0.0014642059104517102,-0.0016263924771919847
1774472086932450300,9.6174501953125,0.0037950044497847557,0.00037151097785681486,-0.0024351945612579584
1774472086942468400,9.62746826171875,0.002930276095867157,0.000322775129461661,-0.0008860336965881288
1774472086952486400,9.637486328125,0.003936684690415859,0.0008833705214783549,-0.0013781858142465353
1774472086962504400,9.64750439453125,0.0032535837963223457,0.0003406183095648885,-0.0006780407857149839
1774472086972522200,9.657522216796876,0.0018492990639060736,-0.0006791060441173613,-0.0016085492679849267
1774472086982540300,9.667540283203126,0.003454119898378849,0.0010953581659123302,-0.0006250438746064901
1774472086992558300,9.677558349609376,0.004352404270321131,0.0012918994762003422,-0.001443166984245181
1774472087002575400,9.687575439453125,0.003909520339220762,0.0008524778531864285,-0.0007195860962383449
1774472087012593200,9.69759326171875,0.003963049966841936,0.0007773766992613673,-0.0009925601771101356
1774472087022611500,9.707611572265625,0.003011236200109124,0.002254898427054286,0.0004319647268857807
1774472087032629200,9.717629150390625,0.004790494218468666,0.0030770162120461464,0.00018482338055036962
1774472087042647300,9.727647216796875,0.0034416031558066607,0.0015134743880480528,-0.0006711165769957006
1774472087052665300,9.737665283203125,0.0025723471771925688,0.002892459277063608,-0.0017587515758350492
1774472087062683400,9.747683349609375,0.004580636974424124,0.0014080132823437452,-0.0023587618488818407
1774472087072700200,9.7577001953125,0.0013909690314903855,0.0012013519881293178,-0.001838912721723318
1774472087082718500,9.767718505859374,0.003326554549857974,0.0020242687314748764,-0.0010423612548038363
1774472087092736300,9.777736328125,0.003463174682110548,0.003022954100742936,0.0008263788768090308
1774472087102754300,9.78775439453125,0.0032349417451769114,0.0020719394087791443,-0.0007273092633113265
1774472087112772400,9.7977724609375,0.0033984598703682423,0.00043329631444066763,-0.0010391654213890433
1774472087122790400,9.807790283203126,0.0028943235520273447,-0.00020586235041264445,-0.002186455298215151
1774472087132808200,9.81780810546875,0.0031222901307046413,0.0013978932984173298,-0.0008562062866985798
1774472087142825500,9.827825439453125,0.0029465213883668184,0.00177952426020056,-0.0010487528052181005
1774472087152843300,9.83784326171875,0.001960352761670947,0.0025965820532292128,-0.0007669904152862728
1774472087162861300,9.847861328125,0.0037318875547498465,0.00148125016130507,-0.0018500980222597718
1774472087172879000,9.857879150390625,0.0010458233300596476,-0.0003832288784906268,-0.0018500980222597718
1774472087182897400,9.8678974609375,0.003754258155822754,-0.00012650014832615852,-0.0019502328941598535
1774472087192915200,9.877915283203125,0.0024503744207322598,-0.0001246359315700829,-0.0010894992155954242
1774472087202933200,9.887933349609375,0.004078098572790623,0.0003382214636076242,-0.001517202821560204
1774472087212950300,9.8979501953125,0.003238936420530081,0.002082591876387596,0.0004791026876773685
1774472087222968300,9.90796826171875,0.003073287894949317,0.0019196064677089453,-0.0013933659065514803
1774472087232986000,9.917986083984376,0.0044139232486486435,0.0013145363191142678,0.00017230652156285942
1774472087243004400,9.92800439453125,0.002861832967028022,0.0011771172285079956,-0.001478320686146617
1774472087253022200,9.938022216796876,0.0025989788118749857,0.0017696705181151628,-0.002597380895167589
1774472087263040300,9.948040283203126,0.00261895265430212,0.0015781891997903585,-0.0005635248962789774
1774472087273058300,9.958058349609376,0.001823732745833695,0.0010290454374626279,-0.0016487629618495703
1774472087283075300,9.968075439453125,0.00398621940985322,-0.0011142665753141046,-0.00224957219325006
1774472087293093000,9.978093017578125,0.002915096003562212,-0.0002812298189383,-0.0011576761025935411
1774472087303111400,9.988111328125,0.002142246812582016,0.00027537086862139404,-0.0021640846971422434
1774472087313129200,9.998129150390625,0.0013379721203818917,-0.0007672567153349519,-0.0004138552176300436
1774472087323147300,10.008147216796875,0.004482366610318422,-0.00047590688336640596,-0.00039414784987457097
1774472087333165300,10.018165283203125,0.0020791299175471067,0.0019153454340994358,-0.001430916483514011
1774472087343183400,10.028183349609375,0.0034967304673045874,0.0020327907986938953,-0.0007217166712507606
1774472087353200000,10.0382001953125,0.00412390474230051,0.0007001450285315514,-0.0008423578692600131
1774472087363218000,10.048218017578124,0.004536162130534649,-0.0010021475609391928,-0.001999235013499856
1774472087373236000,10.058236083984376,0.0027238810434937477,-0.0013755226973444223,-0.003929760307073593
1774472087383253800,10.068253662109376,0.0027502465527504683,0.0005909554311074317,-0.0022479742765426636
1774472087393271800,10.078271728515626,0.0023289343807846308,0.0005259743193164468,-0.002359294332563877
1774472087403289900,10.088289794921875,0.005453088786453009,0.002844256116077304,-0.0000828243064461276
1774472087413308000,10.098307861328125,0.0024887239560484886,0.004133225884288549,-0.0014061490073800087
1774472087423325000,10.108324951171875,0.00506959343329072,0.004320978652685881,0.0012799152173101902
1774472087433343000,10.118343017578125,0.0030154972337186337,0.005546565633267164,-0.0013933659065514803
1774472087443360800,10.12836083984375,0.0011142665753141046,0.005672266706824303,-0.0015092133544385433
1774472087453378800,10.13837890625,0.005341768264770508,-0.000969656917732209,-0.00023675501870457083
1774472087463396900,10.14839697265625,0.0030274814926087856,-0.0006303702248260379,-0.0033390712924301624
1774472087473415000,10.158414794921875,0.0015939018921926618,-0.003198722843080759,-0.001130245509557426
1774472087483432700,10.1684326171875,0.0025132251903414726,-0.002027997048571706,-0.0031467911321669817
1774472087493450000,10.178449951171874,0.0014740596525371075,-0.0033657029271125793,-0.0017608820926398039
1774472087503467800,10.1884677734375,0.003977164626121521,-0.00021411814668681473,-0.0003515372518450022
1774472087513485800,10.19848583984375,0.0033012544736266136,0.0020873856265097857,-0.0001680454588495195
1774472087523503900,10.20850390625,0.002198173198848963,0.0022418489679694176,-0.0019478360190987587
1774472087533522000,10.21852197265625,0.0019598202779889107,0.003983023576438427,-0.001201884588226676
1774472087543539700,10.228539794921875,0.004551342222839594,0.002923884429037571,-0.0008862999966368079
1774472087553557800,10.238557861328125,0.002978213131427765,0.0038461373187601566,-0.00015286543930415064
1774472087563574800,10.24857470703125,0.004003263544291258,0.0016471651615574956,-0.0017273263074457645
1774472087573592800,10.2585927734375,0.0027869981713593006,-0.00152359448838979,-0.0037553233560174704
1774472087583611000,10.26861083984375,0.003970507066696882,-0.0011347729014232755,-0.004514590837061405
1774472087593629000,10.27862890625,0.002701244316995144,-0.001686846255324781,-0.0014972290955483913
1774472087603647000,10.28864697265625,0.0033843449782580137,-0.00016777914424892515,-0.002261822810396552
1774472087613664800,10.298664794921875,0.0025515747256577015,0.0027017768006771803,0.0002948119363281876
1774472087623683000,10.30868310546875,0.003772634081542492,0.0029318740125745535,0.0005368932615965605
1774472087633699800,10.318699951171874,0.0032083101104944944,0.0029324067290872335,-0.0009041432058438659
1774472087643718000,10.3287177734375,0.0018730012234300375,0.0017979000695049763,-0.0009395632077939808
1774472087653736000,10.33873583984375,0.003931891173124313,0.0009177253232337534,-0.000529436394572258
1774472087663754000,10.34875390625,0.003311640815809369,0.002025866648182273,-0.0010428938549011946
1774472087673771800,10.358771728515626,0.0009733853512443602,-0.0010338390711694956,-0.0021699436474591494
1774472087683790000,10.3687900390625,0.0029523803386837244,0.0007070692372508347,-0.0011315771844238043
1774472087693807900,10.378807861328125,0.0021462414879351854,0.00045034053619019687,-0.0004420847399160266
1774472087703824600,10.38882470703125,0.002834135899320245,0.00022184131375979632,-0.0006828344776295125
1774472087713843000,10.398843017578125,0.004456533584743738,0.002040780382230878,-0.0015049523208290339
1774472087723861000,10.408861083984375,0.003930026665329933,0.0009480853332206607,-0.00207673292607069
1774472087733878800,10.418878662109375,0.003008040366694331,0.001166198286227882,-0.002124137245118618
1774472087743897000,10.42889697265625,0.004854676313698292,0.0005579322460107505,-0.0017528926255181432
1774472087753915000,10.438914794921875,0.0032117723021656275,-0.0004873584839515388,-0.0009347695158794522
1774472087763933000,10.448932861328124,0.0036538569256663322,0.00112438655924052,-0.0023390543647110462
1774472087773950000,10.458949951171874,0.0030479878187179565,0.0009185242815874517,-0.0002487392339389771
1774472087783968000,10.468968017578124,0.00376011710613966,0.0009345032158307731,-0.0014618091518059373
1774472087793985800,10.47898583984375,0.004130030050873756,0.0016117451013997197,-0.0005169195355847478
1774472087804003800,10.48900390625,0.0030011162161827087,0.0009901633020490408,-0.0016695356462150812
1774472087814022000,10.49902197265625,0.0020210728980600834,0.00009374327055411413,-0.0026027073618024588
1774472087824040000,10.5090400390625,0.003915645647794008,-0.0002668487431947142,-0.002118544653058052
1774472087834057700,10.5190576171875,0.003784085623919964,-0.0012181298807263374,-0.0023670175578445196
1774472087844075000,10.529074951171875,0.002293514320626855,-0.00037470675306394696,-0.000547279603779316
1774472087854092800,10.5390927734375,0.0033952640369534492,0.0016463662032037973,-0.0019078885670751333
1774472087864110800,10.54911083984375,0.0021382521372288465,0.0016226640436798334,-0.000014913702216290403
1774472087874129000,10.55912890625,0.004042944870889187,0.001187237212434411,-0.0011203918838873506
1774472087884147000,10.56914697265625,0.0046237800270318985,0.0013875069562345743,-0.0005858954391442239
1774472087894164700,10.579164794921875,0.0030778152868151665,0.002183525823056698,-0.0006450176006183028
1774472087904182800,10.589182861328124,0.0038535939529538155,0.0011946940794587135,-0.0011446266435086727
1774472087914199800,10.59919970703125,0.0040887510403990746,0.001210939371958375,-0.0013105415273457766
1774472087924217900,10.6092177734375,0.003984888084232807,0.00005832322858623229,-0.0012282498646527529
1774472087934236000,10.61923583984375,0.0035364115610718727,0.00033955302205868065,-0.003877029987052083
1774472087944254000,10.62925390625,0.003436276689171791,0.0009715211344882846,-0.001041562296450138
1774472087954271700,10.639271728515626,0.0033981935121119022,0.000003994741746282671,-0.001344630029052496
1774472087964289800,10.649289794921875,0.0022053637076169252,0.00033662354690022767,-0.002496180823072791
1774472087974307800,10.659307861328125,0.003828826593235135,0.001133174984715879,-0.0008138620178215206
1774472087984324900,10.669324951171875,0.00038988678716123104,0.0006559365428984165,-0.0009558085002936423
1774472087994343000,10.679343017578125,0.0026413232553750277,0.001240766723640263,-0.0006953513366170228
1774472088004361000,10.68936083984375,0.004394215997308493,0.0006828344776295125,-0.0012719257501885295
1774472088014378800,10.699378662109375,0.002689526416361332,0.0016231966437771916,0.0006114617572166026
1774472088024396800,10.709396728515625,0.003850131994113326,0.0017113472567871213,-0.0004822984628845006
1774472088034414800,10.719414794921875,0.004081028047949076,0.00021065604232717305,-0.0021076255943626165
1774472088044432000,10.729431884765624,0.003459978848695755,-0.0002205097407568246,-0.0008767126128077507
1774472088054450000,10.739449951171874,0.0010988202411681414,0.00017017599020618945,-0.0013840447645634413
1774472088064468000,10.749468017578126,0.0037555897142738104,-0.0002918824611697346,0.00046578687033616006
1774472088074485800,10.75948583984375,0.004069043789058924,0.00088976213010028,-0.0022770026698708534
1774472088084503800,10.76950390625,0.002275671111419797,-0.000036485307646216825,-0.0008609999786131084
1774472088094521900,10.77952197265625,0.003346261801198125,0.0008719189208932221,-0.0003081277245655656
1774472088104540000,10.789539794921875,0.004070907831192017,0.0009962886106222868,-0.0006138586322776973
1774472088114558000,10.799557861328125,0.00353428116068244,0.001186970854178071,-0.0006415555253624916
1774472088124575000,10.809574951171875,0.00264798104763031,0.0008892294717952609,-0.000024767397917457856
1774472088134592800,10.8195927734375,0.004144943784922361,0.0002620550512801856,-0.0016205335268750787
1774472088144610800,10.82961083984375,0.0037888791412115097,0.0005531385540962219,-0.0003326288133393973
1774472088154629000,10.839629150390625,0.0014444985426962376,0.001942509668879211,0.0006772418855689466
1774472088164647000,10.84964697265625,0.0033984598703682423,0.0015957661671563983,0.00029640982393175364
1774472088174665000,10.8596650390625,0.001799764228053391,0.0017691379180178046,-0.001100684516131878
1774472088184682000,10.869681884765624,0.002871153876185417,0.00044794369023293257,-0.001216798322275281
1774472088194699800,10.87969970703125,0.00276196445338428,0.0002740392810665071,-0.0028961875941604376
1774472088204717800,10.8897177734375,0.003427221905440092,-0.00008655273268232122,-0.0010863033821806312
1774472088214736000,10.89973583984375,0.0010823087068274617,0.00034408041392453015,-0.0009555422002449632
1774472088224754000,10.90975390625,0.003593669505789876,-0.0002311623829882592,-0.0016221314435824752
1774472088234772000,10.91977197265625,0.003081543603911996,0.0005616606795229018,-0.0016258598770946264
1774472088244789800,10.929789794921875,0.004425374791026115,0.0013291836949065328,-0.001603222917765379
1774472088254806800,10.939806884765625,0.002578738844022155,0.0012716593919321895,-0.0015808524331077933
1774472088264824800,10.949824951171875,0.005797435529530048,0.0003075950953643769,-0.002578738844022155
1774472088274843000,10.9598427734375,0.0026256104465574026,0.0016815199051052332,-0.0016732640797272325
1774472088284861000,10.96986083984375,0.0029912625905126333,0.0023105584550648928,-0.000070307454734575
1774472088294879000,10.97987890625,0.0026224146131426096,0.001582982949912548,-0.0005217132274992764
1774472088304896800,10.989896728515625,0.00261895265430212,0.0017736653098836541,-0.00009054747351910919
1774472088314914800,10.999914794921875,0.0027164241764694452,0.0010969560826197267,-0.0008383630774915218
1774472088324931800,11.009931884765624,0.0013539510546252131,0.000978711643256247,-0.0003424825263209641
1774472088334950000,11.019949951171874,0.0025989788118749857,0.001365402713418007,-0.0007579356315545738
1774472088344968000,11.029968017578126,0.0009488842915743589,0.0015214639715850353,-0.0018636800814419985
1774472088354986000,11.039986083984376,0.003451190423220396,0.0014080132823437452,-0.0026905916165560484
1774472088365003800,11.050003662109376,0.003195260651409626,0.0007685882737860084,-0.001085770782083273
1774472088375021800,11.060021728515625,0.0037238982040435076,0.0014788532862439752,-0.0013305152533575892
1774472088385040000,11.070039794921875,0.004285558592528105,0.0005648564547300339,-0.0031073763966560364
1774472088395057000,11.080056884765625,0.0038631814531981945,0.0005475459038279951,-0.00130920996889472
1774472088405075000,11.090074951171875,0.0041428133845329285,-0.001540904981084168,-0.001365402713418007
1774472088415093000,11.100093017578125,0.0035302862524986267,0.0011920308461412787,-0.001933987601660192
1774472088425110800,11.11011083984375,0.003915912006050348,0.0014202637830749154,0.00004474110755836591
1774472088435128800,11.12012890625,0.0030101709999144077,0.000949150591623038,0.0005281048361212015
1774472088445147000,11.13014697265625,0.003990480676293373,0.00202240445651114,-0.0020072245970368385
1774472088455165000,11.1401650390625,0.0031875374261289835,0.00028336033574305475,-0.0012751214671880007
1774472088465182000,11.150181884765624,0.003907123580574989,0.00012969593808520585,-0.0016498282784596086
1774472088475200000,11.160199951171874,0.0037497307639569044,0.00018269284919369966,-0.0014000238152220845
1774472088485217800,11.1702177734375,0.003707919269800186,0.0009334379574283957,-0.0013084110105410218
1774472088495235800,11.18023583984375,0.003925233148038387,0.000806138850748539,-0.001907355966977775
1774472088505254000,11.19025390625,0.003509779926389456,0.0012668657582253218,-0.002088450826704502
1774472088515272000,11.20027197265625,0.0041031320579349995,0.0009606021922081709,-0.0024780714884400368
1774472088525289700,11.210289794921875,0.003123355330899358,0.001255946815945208,-0.0011060107499361038
1774472088535307000,11.22030712890625,0.0023060310631990433,0.0006945523782633245,0.0002487392339389771
1774472088545324800,11.23032470703125,0.0032378712203353643,0.0006950850365683436,-0.0030868700705468655
1774472088555342800,11.2403427734375,0.003846669802442193,-0.0010615360224619508,-0.002430933527648449
1774472088565361000,11.25036083984375,0.0021901836153119802,-0.0006953513366170228,-0.0021401161793619394
1774472088575379000,11.26037890625,0.0033816818613559008,0.0007669904152862728,-0.0018953717080876231
1774472088585396700,11.270396728515625,0.0027079021092504263,0.0012809804175049067,-0.0023302659392356873
1774472088595414000,11.2804140625,0.002213619416579604,0.002117745578289032,-0.0012900352012366056
1774472088605431800,11.290431884765624,0.0038866172544658184,0.0018812569323927164,-0.0011033476330339909
1774472088615449900,11.300449951171874,0.0029409287963062525,0.002880475018173456,-0.001954493811354041
1774472088625468000,11.310468017578126,0.00361683894880116,0.0009691243176348507,-0.0007488809060305357
1774472088635486000,11.32048583984375,0.0035979305393993855,0.0010990865994244814,-0.0006495449924841523
1774472088645503700,11.330503662109376,0.00315957423299551,-0.0008444883860647678,-0.0018053569365292788
1774472088655521800,11.340521728515625,0.004740959499031305,-0.0019944412633776665,-0.001207477180287242
1774472088665538800,11.350538818359375,0.003091131104156375,0.0006500775925815105,-0.0014346449170261621
1774472088675556900,11.360556884765625,0.002094842493534088,0.0006921555614098907,0.0005512743373401463
1774472088685574700,11.37057470703125,0.004290885291993618,0.002412291243672371,-0.0009052084642462432
1774472088695593000,11.380593017578125,0.0052056810818612576,0.0027449200861155987,-0.0012152004055678844
1774472088705611000,11.390611083984375,0.004563592839986086,0.003605920122936368,-0.0006679208017885685
1774472088715628800,11.40062890625,0.004004595335572958,0.002257561543956399,0.00020719393796753138
1774472088725646800,11.410646728515625,0.004179564770311117,0.0033659692853689194,-0.0017259946325793862
1774472088735663900,11.420663818359374,0.003035204717889428,0.000050866376113845035,-0.0004756405542138964
1774472088745681700,11.430681640625,0.0029257487040013075,0.00041731735109351575,-0.0008492820779792964
1774472088755700000,11.440699951171876,0.0030634342692792416,-0.0020695424173027277,-0.0021054951939731836
1774472088765718000,11.450718017578126,0.0033252229914069176,-0.0009944243356585503,-0.0022804648615419865
1774472088775735800,11.46073583984375,0.0021635519806295633,-0.003043726785108447,-0.0021758025977760553
1774472088785753900,11.47075390625,0.0013198626693338156,-0.0015960324089974165,-0.0011787151452153921
1774472088795772000,11.48077197265625,0.0018604843644425273,-0.00044368262751959264,-0.0008681904873810709
1774472088805789000,11.490788818359375,0.0026786073576658964,0.004128698725253344,0.00008735168376006186
1774472088815807000,11.500806884765625,0.00401631323620677,0.004495948553085327,0.0005174521938897669
1774472088825825000,11.510824951171875,0.0028394623659551144,0.004550276789814234,0.000707868195604533
1774472088835842800,11.5208427734375,0.0031585090328007936,0.0030919299460947514,-0.00020825919636990875
1774472088845860900,11.53086083984375,0.0034266894217580557,0.0009387642494402826,-0.0004183826094958931
1774472088855879000,11.54087890625,0.00315930787473917,0.00004474110755836591,-0.002159290947020054
1774472088865896000,11.55089599609375,0.0044291033409535885,-0.0003081277245655656,-0.0012114719720557332
1774472088875914000,11.5609140625,0.00370072852820158,-0.0011803129455074668,-0.003135872073471546
1774472088885932000,11.57093212890625,0.001982190879061818,-0.0006229133578017354,-0.002555569401010871
1774472088895949800,11.58094970703125,0.0037979339249432087,0.0007749798824079335,-0.0011699266033247113
1774472088905967900,11.5909677734375,0.004056526813656092,0.001219461439177394,-0.0024578312877565622
1774472088915986000,11.60098583984375,0.002859169617295265,0.0002540655550546944,-0.0015696671325713396
1774472088926004000,11.61100390625,0.004228833597153425,0.0014796522445976734,-0.0001555285998620093
1774472088936020700,11.621020751953125,0.0027358653023838997,0.0018991001415997744,-0.0010391654213890433
1774472088946039000,11.6310390625,0.0028655612841248512,0.00006684534309897572,-0.0019952403381466866
1774472088956056800,11.641056884765625,0.002174471039324999,0.0005696501466445625,-0.0005299690528772771
1774472088966075000,11.651074951171875,0.00307568465359509,0.00048363005043938756,-0.001555552356876433
1774472088976093000,11.661093017578125,0.004339354578405619,0.001127582392655313,-0.001490571303293109
1774472088986111000,11.671111083984375,0.004728442523628473,-0.00006444849714171141,-0.0010596717474982142
1774472088996128800,11.681128662109375,0.0038394792936742306,0.0013371731620281935,-0.002490055514499545
1774472089006146000,11.69114599609375,0.003739877138286829,0.001341966912150383,-0.0008697884040884674
1774472089016163800,11.701163818359374,0.0037433390971273184,0.000928377965465188,-0.0007227819296531379
1774472089026182000,11.711181884765624,0.004203799646347761,0.003070092061534524,-0.0005941512063145638
1774472089036200000,11.721199951171876,0.0028964539524167776,0.0024351945612579584,-0.0010514160385355353
1774472089046218000,11.731218017578126,0.003370230318978429,0.0014117417158558965,-0.00019920444174204022
1774472089056235800,11.74123583984375,0.0027228158432990313,0.0011350392596796155,-0.0006375607335940003
1774472089066253800,11.75125390625,0.0013976269401609898,0.0015795208746567369,-0.0011459582019597292
1774472089076270800,11.761270751953125,0.0028040423057973385,0.0004522047529462725,-0.001891909632831812
1774472089086289000,11.771288818359375,0.002828543307259679,-0.0005334311863407493,-0.0008263788768090308
1774472089096306700,11.781306640625,0.003686880227178335,-0.001416002749465406,-0.0022008363157510757
1774472089106325000,11.791324951171875,0.004220843780785799,-0.0009022789890877903,-0.001936650718562305
1774472089116342800,11.8013427734375,0.004433896858245134,-0.0019044264918193221,-0.0013523531379178166
1774472089126360800,11.81136083984375,0.002118011936545372,0.0016831178218126297,-0.0023672839161008596
1774472089136377900,11.8213779296875,0.0024863271974027157,0.0033665020018815994,0.00011664645717246458
1774472089146396000,11.83139599609375,0.0035095135681331158,0.005374258849769831,0.0002002697146963328
1774472089156413700,11.84141357421875,0.0007451524725183845,0.00430207047611475,-0.0014884406700730324
1774472089166432000,11.851431884765624,0.002930542454123497,0.0012405004817992449,-0.0022184131667017937
1774472089176449800,11.86144970703125,0.002888730727136135,-0.0011773834703490138,-0.002778209513053298
