time,seconds_elapsed,z,y,x
1774470347457151500,0.0651513671875,-1.009651089796424,0.5240320574104785,-0.07989478996992111
1774470347467167500,0.07516748046875,-0.5217781410038471,0.8134278220809996,-0.04662789566218853
1774470347477184300,0.085184326171875,0.04322948539555072,1.0983096164584158,-0.2415583470880985
1774470347487200300,0.0952001953125,-0.2594359490841627,0.5319741024561226,-1.1079894450820982
1774470347497217500,0.105217529296875,-0.5901935055822134,1.130372687934339,-0.373769599750638
1774470347507233300,0.1152333984375,0.15024199939370153,1.4767688353300095,-0.5839898286364972
1774470347517250300,0.125250244140625,0.22001988449692725,1.220591741911322,-0.8757451620452106
1774470347527266300,0.135266357421875,-0.6521241843163966,1.2036768474675714,-0.3789640996538102
1774470347537282300,0.1452822265625,-1.3235235624670982,1.082330249299109,-0.10576149102374911
1774470347547299300,0.15529931640625,-1.5790882230758667,0.8621852771177887,0.13933029088750482
1774470347557315300,0.1653154296875,-1.4241659569114447,0.603344371317327,0.33531638884618875
1774470347567332400,0.175332275390625,-0.5879746604889631,0.6881529445528983,0.8289946629166602
1774470347577348400,0.185348388671875,0.2911515222966671,0.3794930919639766,0.7270620825313031
1774470347587364000,0.195364013671875,0.4380646695286035,0.10170534750074148,0.5587376062192022
1774470347597381400,0.20538134765625,0.3714730132460594,0.08735986515358089,0.5539028795391321
1774470347607397400,0.2153974609375,0.24640169546604154,0.050382425890117884,0.4889521223314106
1774470347617414100,0.2254140625,-0.33484511807262896,0.016818302201479673,0.5362050180241466
1774470347627430100,0.23543017578125,-1.16055593701303,0.1361782565973699,0.796408882740885
1774470347637447400,0.245447509765625,-1.9720073444545267,0.4888716044411063,1.0109995817959307
1774470347647463400,0.25546337890625,-2.125530265215039,0.44470483819544315,1.5751614050209521
1774470347657480200,0.265480224609375,-1.7510791129410266,0.5237174385033547,2.147099415205419
1774470347667496200,0.27549609375,-1.3071990351319311,0.6072549688898027,2.410881430669874
1774470347677512400,0.285512451171875,-0.9721610248357057,0.6208886497057974,2.862918073058128
1774470347687529200,0.295529296875,-0.49810266638398165,0.7141086390644311,2.9775781791999933
1774470347697545200,0.305545166015625,0.03007365122437477,0.7339303608655929,2.3019233355619013
1774470347707562200,0.315562255859375,0.6318003582119941,0.49966129400283094,1.737624295823276
1774470347717578500,0.32557861328125,0.420323845654726,0.45684375040903685,1.4878738744512199
1774470347727594500,0.335594482421875,0.12208382640182971,0.7379489488571882,1.161057456794381
1774470347737611300,0.345611328125,-0.0208703540712595,0.31769992200434205,1.1566886671256273
1774470347747627300,0.355627197265625,-0.7836328416675329,-0.5206505982786417,1.0032294592510909
1774470347757644300,0.365644287109375,-0.7750497222393751,-0.9940642290860414,0.7195122516736387
1774470347767660300,0.375660400390625,-0.4079471791625023,-0.6044876961335539,0.4519753406550735
1774470347777677300,0.38567724609375,-0.12164777307212352,-0.31031770279854537,0.06985822033043951
1774470347787693300,0.395693359375,0.13030980295538902,-0.02153729354739189,0.08544895349834114
1774470347797709300,0.405709228515625,0.5717442411780357,0.4904635498076677,-0.19066362429428846
1774470347807726300,0.415726318359375,0.963680196738243,0.8115867242589593,-0.46218087365329263
1774470347817742300,0.425742431640625,1.0671049153774976,1.0125225535795093,-0.8189269309539348
1774470347827759400,0.43575927734375,1.2339853303611277,0.9129045337468386,-0.9377657840851694
1774470347837775000,0.445775146484375,1.191772328531742,0.6255465585142373,-0.6977697909429669
1774470347847792400,0.45579248046875,0.8998533289939165,0.21931290527135133,-0.3081468615654856
1774470347857808400,0.465808349609375,0.89695585398674,-0.639191637507081,0.6013689065258949
1774470347867824400,0.475824462890625,0.9025579117774963,-1.8499594661489127,2.2862223469525573
1774470347877841200,0.485841064453125,1.060783895662427,-2.38381295261085,3.775693427467346
1774470347887857200,0.495857177734375,1.333596628192067,-0.8528957629859447,2.902199697610736
1774470347897875000,0.505875,1.2602987522691487,1.079978425475955,0.7250196169182658
1774470347907890700,0.515890625,0.59333297265172,0.9789394329294562,0.18115137078985571
1774470347917907700,0.52590771484375,-0.30129940682351586,0.03456219481527805,0.3020077012233436
1774470347927923700,0.535923828125,-1.5228548792004584,-0.589328705446422,-0.22739406652674077
1774470347937940700,0.545940673828125,-2.5359704302370547,-0.7340630473345517,-1.3136007188677787
1774470347947956700,0.555956787109375,-3.0886744553804397,-0.8373743687272072,-2.3026918357163666
1774470347957972700,0.56597265625,-3.081832626661658,-0.8092240867808461,-2.7547528818935154
1774470347967989800,0.57598974609375,-2.111380743831396,-0.02918488569110632,-2.2289023768842218
1774470347978005800,0.586005859375,-0.7846306205332279,0.5376268675208091,-1.7772279919371008
1774470347988022800,0.596022705078125,0.2853483889758587,1.4842860790923238,-1.646981317345798
1774470347998038800,0.606038818359375,1.0934814656496048,1.679415560221672,-0.9818336930662394
1774470348008055800,0.616055908203125,1.1680208660662172,1.9559224710941314,-0.590127162347734
1774470348018071600,0.626071533203125,0.9254600639373064,1.484872939069569,-0.8767825422689318
1774470348028087600,0.636087646484375,-0.01645779832601547,0.9425041377186775,-0.746841572625935
1774470348038104800,0.646104736328125,-0.33277941771447656,0.2287882973641157,-1.0778867138937116
1774470348048120800,0.656120849609375,-0.344677360779047,0.40536359241008757,-1.4958461685046553
1774470348058137600,0.6661376953125,-0.21016952161192892,0.6636974254712462,-1.8853467136114834
1774470348068153600,0.676153564453125,0.1159539453446865,0.9610232524886727,-2.4931334512904284
1774470348078171000,0.6861708984375,0.991899744528532,1.349990129110217,-2.640352595731616
1774470348088186600,0.6961865234375,2.2448270912468433,-0.19866759212762117,3.1761616001754995
1774470348098202600,0.70620263671875,4.080369032725692,-3.2335350539967416,13.429278187346458
1774470348108219600,0.7162197265625,6.842001737260818,-3.220656283201277,13.440814311361311
1774470348118236000,0.72623583984375,6.383201153695583,-0.10610153663307428,6.071762045651674
1774470348128252700,0.736252685546875,5.16733541739285,0.7480807590320706,3.772020876434445
1774470348138268700,0.7462685546875,4.01716760340333,1.044074752923846,2.5657509437337516
1774470348148285700,0.75628564453125,2.7721961841255425,1.7247770892098544,0.506897382736206
1774470348158302000,0.766302001953125,0.7370131293118,2.064470231835544,-0.8978273761242628
1774470348168317700,0.776317626953125,-2.218295642673969,0.46749067049920556,0.09105915806293487
1774470348178334700,0.786334716796875,-4.336843793916702,-0.3246408271834254,1.629873238417506
1774470348188350700,0.796350830078125,-5.687667451241612,-0.9596522563964128,1.6981740367054938
1774470348198367700,0.80636767578125,-4.243512599268556,-1.3401973416313528,1.4075044527068734
1774470348208383700,0.8163837890625,-3.618406185737252,0.47894437692761416,0.7776420768201351
1774470348218400800,0.82640087890625,-2.2956606219053266,2.4462393059074876,0.29323651187717914
1774470348228416800,0.836416748046875,-1.7478496295005082,1.7998381754130124,0.7879401834726333
1774470348238432800,0.846432861328125,-0.5107353534638881,0.7654571335077285,0.9113266169056295
1774470348248449800,0.85644970703125,0.6876660378187894,0.11435118632316589,-0.09665507837384939
1774470348258465800,0.8664658203125,0.5351935028940439,-0.3715063309937715,0.05896364562213421
1774470348268482600,0.876482666015625,-0.009303250396251678,-0.43773383013904094,0.19416005157530306
1774470348278498600,0.88649853515625,-0.7642875052064657,0.11044774914383887,-0.3363657517686486
1774470348288515800,0.896515869140625,-1.174461128246784,0.46087738983929155,0.019756255349516867
1774470348298531800,0.90653173828125,-0.9336422013491391,0.871043414095044,0.19517624288052318
1774470348308548600,0.916548583984375,-0.7935831577956676,0.47727322884500023,0.1527232948154211
1774470348318564600,0.926564697265625,-0.4286988752901554,-0.16462006883621214,0.3079784461960196
1774470348328580600,0.93658056640625,0.44012510918974873,-0.517244589227438,0.39541999828368424
1774470348338598000,0.946597900390625,1.3493477395534514,-0.7088502801448107,0.9271969707325101
1774470348348613600,0.956613525390625,1.4651649067759513,-0.48790451297461984,1.2951152141064404
1774470348358630700,0.966630615234375,-0.006075520521402359,-0.43866555803120133,0.46418344564735886
1774470348368646700,0.976646728515625,-1.0739777237564325,-0.9562257890790701,-1.0839625266760586
1774470348378663700,0.98666357421875,-0.1309334878116846,-1.2724538849651812,-1.980265177451074
1774470348388679700,0.9966796875,1.7794675875574348,-1.4084902488738298,-1.531570685097575
1774470348398695700,1.00669580078125,3.1095611760646102,-1.3341606918156146,-1.2902753728598355
1774470348408712700,1.016712646484375,3.48297304841876,-0.3213859170407057,-2.45214706864655
1774470348418728700,1.026728759765625,3.09934081082344,1.1048100843936204,-6.025754327714443
1774470348428745700,1.036745849609375,1.3614701390236614,-0.9992524453788996,-3.942285380898416
1774470348438761700,1.04676171875,-0.2046814455896616,-1.1890519636571406,-2.8906422385469077
1774470348448778800,1.05677880859375,-1.8599229340195655,0.5811836851745844,-3.3746322084262963
1774470348458794800,1.066794677734375,-2.895625579917431,0.0032768297135829924,-2.7176059312820433
1774470348468810800,1.076810791015625,-3.3881484003424642,-1.1586042184233665,-1.6264853495448828
1774470348478827800,1.086827880859375,-3.3829502471774813,-1.2730202866762876,-1.3649953905403613
1774470348488843800,1.09684375,-2.48898071552515,-0.38147009112536906,-1.0233172115772962
1774470348498860800,1.10686083984375,-1.997348706459999,1.2000047348260878,-0.1578600731819868
1774470348508876800,1.116876708984375,-2.236153370925784,2.8604309324175117,0.647097296065092
1774470348518893800,1.126893798828125,-2.8686329435735938,3.678260642719269,1.5087161714717745
1774470348528909600,1.13690966796875,-3.0246459275841713,4.0825212423235175,2.2019895277783275
1774470348538926800,1.1469267578125,-2.4042232879549266,3.9989971559405326,3.6992607606500383
1774470348548942800,1.15694287109375,-2.428139001071453,2.311107197362184,4.71838987288773
1774470348558958800,1.166958740234375,-1.634634753730893,0.6523615002036094,3.2014956556573506
1774470348568975600,1.1769755859375,0.6215159878239035,-0.6840694746315479,1.8648367172852158
1774470348578991600,1.18699169921875,0.49439562855958935,-0.13402619313001632,-0.04365443280935287
1774470348589009000,1.1970087890625,-0.3487935639262199,0.7333926007270812,-1.0275593791916966
1774470348599025000,1.20702490234375,-1.0870049631118774,0.4277835140109062,-0.8704156375855207
1774470348609041700,1.217041748046875,-1.925609165894985,0.21973580685853958,-1.6930846046119927
1774470348619057700,1.2270576171875,-2.0832479975417253,-0.9825310276806354,-2.3505644707426425
1774470348629073700,1.23707373046875,-1.294748718881607,-1.5159265412420033,-2.604438401785493
1774470348639090700,1.247090576171875,-0.6621054801046848,-1.1325760431975125,-2.934790007831156
1774470348649106700,1.257106689453125,-1.0818179158627985,-0.8284750229567289,-3.3122257288739085
1774470348659123700,1.267123779296875,0.06733224551677704,-0.11302022998034954,-2.686035611759126
1774470348669139700,1.2771396484375,1.9929712220281361,0.35594285115897656,-1.6113561694741247
1774470348679156700,1.28715673828125,3.3902699225410817,0.5502051940649747,-0.2968494416773319
1774470348689172700,1.2971728515625,4.422340641677379,0.776573570805788,-0.1507169234290719
1774470348699189800,1.307189697265625,4.880457626892626,0.8527882109582424,-0.1011640802308917
1774470348709205500,1.31720556640625,4.341562346871197,0.7849515230506658,-0.6065668404951692
1774470348719221800,1.3272216796875,1.663216120570898,1.3387918587476015,-0.5773451299250125
1774470348729238800,1.33723876953125,1.0974733117647468,1.2140151399999857,-0.6926780207619071
1774470348739254800,1.3472548828125,0.042028585173189636,1.3559101668089628,-0.20034078603684902
1774470348749271600,1.357271484375,-0.6279295081280172,1.7821628179907798,0.41189153287410735
1774470348759287800,1.367287841796875,0.033642303491383786,2.3236831858187914,1.3299050801977514
1774470348769304800,1.377304931640625,1.4229823000848292,3.057837418568134,1.5941554438263177
1774470348779320800,1.38732080078125,5.0809471737504,3.366595324704051,1.1430074208408594
1774470348789336600,1.397336669921875,6.5788546586990355,1.981912067875266,1.2357140538498759
1774470348799353900,1.407353759765625,3.7623505462914704,3.2843338056027886,-0.07666326070278882
1774470348809369900,1.417369873046875,1.2835682764366267,1.9180700025618076,-1.289653441569209
1774470348819386600,1.42738671875,-0.8050234202206135,0.47192251546680924,-2.804613183605671
1774470348829402600,1.437402587890625,-2.1984905797466636,1.2077455582112073,-2.8388837019979953
1774470348839420000,1.447419921875,-2.39541395855546,-0.09907236864864825,-1.3701166790768504
1774470348849436000,1.457435791015625,-2.110361922177672,0.9850316123247146,-0.0633732787579298
1774470348859452700,1.46745263671875,-2.9169539068892596,1.7074907311052083,0.5972403553538024
1774470348869468700,1.47746875,-5.080167421549558,0.6281196238726378,0.23020269420668482
1774470348879484700,1.487484619140625,-6.372903047043085,0.5567535927951336,0.8646449452295899
1774470348889501700,1.497501708984375,-6.203164904540777,1.6455775880277155,0.5823176576405763
1774470348899517400,1.507517333984375,-4.940129420784116,2.4637077425807714,0.08691811273545026
1774470348909534500,1.517534423828125,-2.337014668817818,2.168090473046899,-1.4177780094400048
1774470348919550700,1.52755078125,-0.8590957866698503,0.16608078903853893,-4.032002768963575
1774470348929567500,1.5375673828125,-0.23202830219864845,-2.137190892392397,-5.679863499492407
1774470348939583500,1.54758349609375,-0.01685878034234047,-2.406027122506499,-6.018530221679806
1774470348949600500,1.5576005859375,0.19842676910907028,-3.138452924028039,-4.596160500535369
1774470348959616800,1.56761669921875,0.6543772239401936,-3.138726480272412,-2.7635665952071546
1774470348969632500,1.577632568359375,1.9279054601386187,-3.2324761925935745,-1.8915549206018447
1774470348979649500,1.5876494140625,3.0478385871231555,-2.4382190810590982,-0.724209761840105
1774470348989665500,1.59766552734375,3.734987615330517,-2.454932899972796,0.5197235465615987
1774470348999682600,1.6076826171875,3.1658526798680424,-1.3487228856533764,2.597298759163916
1774470349009698600,1.617698486328125,1.2472650831729173,-0.4616641563028097,4.3384173268437385
1774470349019715600,1.627715576171875,-0.9825783739537,0.3579173661023378,4.312271078196168
1774470349029731600,1.637731689453125,-2.6197224801570176,1.2665233258724211,4.68311426910609
1774470349039747600,1.64774755859375,-2.7198312061160803,1.9366811795294283,5.339635519337654
1774470349049764600,1.6577646484375,-1.9392030992224811,1.7870768935173749,4.7655756946936245
1774470349059780600,1.667780517578125,-0.5197974885806441,1.774597935694456,3.1928964618772264
1774470349069797600,1.677797607421875,1.475111423511803,1.6783423780322073,1.428478851674497
1774470349079813400,1.6878134765625,3.1489237568989394,1.8385522292107344,0.5010452957071364
1774470349089830700,1.69783056640625,4.129811109025776,2.0003280145317315,0.7089709839150309
1774470349099846700,1.7078466796875,3.332687209883332,2.0512059688538313,1.6764526187628506
1774470349109863400,1.717863525390625,1.0912924311727286,1.286656597840786,1.044840914990753
1774470349119879400,1.72787939453125,-0.6810492500275374,0.7782692688077688,-1.046409917873144
1774470349129895400,1.7378955078125,-1.4675944720104337,-0.09630933367609977,-2.0349549451462923
1774470349139912700,1.74791259765625,-1.8104297120541333,-0.2273819376975298,-1.9869854256168007
1774470349149928400,1.757928466796875,-0.8767614994809031,-0.08894611143171786,-2.5522452732115983
1774470349159945500,1.767945556640625,-1.6441536927044391,-0.1866296560704708,-3.9574744744628667
1774470349169961500,1.77796142578125,-0.009995616574585437,-0.039517186874151226,-1.9232253394983707
1774470349179978500,1.787978515625,-0.04803483985066414,1.2682418202280998,0.35064269892424343
1774470349189994500,1.797994384765625,-1.25263099412024,1.996929019743204,1.6765379589587448
1774470349200011500,1.808011474609375,-0.21578765375465153,1.637812799245119,2.7723458217293024
1774470349210027500,1.818027587890625,-0.07444061621725559,1.5165397047042846,1.2760003254003822
1774470349220043800,1.828043701171875,-0.6475561457484961,1.8933213457524776,0.8169282314173877
1774470349230060500,1.838060546875,-1.9403852947443723,2.1633336339086293,2.326422401524335
1774470349240076500,1.84807666015625,-3.2648215881422162,2.641227040478587,4.48666318398416
1774470349250093600,1.858093505859375,-3.288608121921122,3.5975679803699254,5.355919130140543
1774470349260109600,1.868109619140625,-4.00515626309216,3.7166309976458547,4.96817127391994
1774470349270126600,1.878126708984375,-4.495785232594609,3.4249306092947718,2.858281353168189
1774470349280142600,1.888142578125,-2.339614329922199,2.482842651161551,0.11747618647590279
1774470349290159400,1.898159423828125,1.6307783705636858,1.5266478417426348,-0.9279929434157907
1774470349300175600,1.908175537109375,8.800729913425444,-0.8589584240257739,-3.7238568572461603
1774470349310191600,1.918191650390625,14.49422913956046,-4.809754735898971,-9.275810600662231
1774470349320208600,1.928208740234375,11.354786619973183,-4.165628564599156,-7.276605452680587
1774470349330224600,1.938224609375,5.58033929542303,-0.283411867955327,0.5276338812947273
1774470349340241700,1.94824169921875,0.9849760827451943,2.093465732434392,-0.055092357146739955
1774470349350257700,1.958257568359375,-0.6158657069772482,3.194039202171564,-2.3706901439264416
1774470349360274400,1.9682744140625,-0.4789923077225685,2.6630320450514553,-1.1838498649694025
1774470349370290400,1.97829052734375,-1.4284148465275763,1.203659750202298,-0.6633679012559354
1774470349380307700,1.9883076171875,-1.750701511800289,0.689669778856635,-0.40948038007915016
1774470349390323700,1.99832373046875,-0.9640554597914218,1.1347335134923457,-0.1154199845984578
1774470349400339700,2.008339599609375,-0.3384381741285324,0.9359516473352909,0.1362828860156238
1774470349410356500,2.0183564453125,-2.0308961712747813,1.059842230898142,-0.2643932061653584
1774470349420372500,2.02837255859375,-3.535721472787857,1.4068962576806545,-1.2428271007254719
1774470349430389800,2.0383896484375,-2.431852468636632,0.5748398691058159,-1.1723741659048943
1774470349440405500,2.048405517578125,-2.856287841263413,-0.7041869645088911,-0.3095266254860908
1774470349450422500,2.058422607421875,-1.65627433860898,-0.900572290918231,0.08681264306697994
1774470349460438500,2.0684384765625,-1.5376596496224402,-0.94425244269073,0.5304151095110923
1774470349470455600,2.07845556640625,-0.8711860374361277,-1.3091384787619114,0.23428669385099782
1774470349480471600,2.088471435546875,-1.8240812207877635,-1.090717261633277,-0.13576786743188277
1774470349490487600,2.098487548828125,-1.848150078639388,-1.1812123560726642,-0.3277233399013057
1774470349500504600,2.108504638671875,-1.3493921632170676,-1.2235329099297523,-0.12256902523604221
1774470349510520600,2.1185205078125,-0.8115858474761247,-0.6917413244336843,-0.8264835568785667
1774470349520537600,2.12853759765625,-1.0045260018676518,-0.3498193998426199,-0.8993167378991842
1774470349530553600,2.1385537109375,-0.4281552699327469,-0.7609598220884799,-0.76284797392264
1774470349540570600,2.148570556640625,0.16251228290200231,-0.8236199841409921,0.27172139362897724
1774470349550586400,2.15858642578125,0.23901567686796188,-1.1879641684204338,0.41473760648760943
1774470349560603600,2.168603759765625,0.2475245620161295,-1.2469926959723234,0.34183892248272896
1774470349570619600,2.17861962890625,0.6578156739562749,-1.237073359504342,0.5688785495486111
1774470349580635600,2.1886357421875,0.09441723631918429,-1.0175035568624735,0.5352439179070294
1774470349590652400,2.19865234375,0.03199614371955395,-0.7472305719435215,0.1968742789700627
1774470349600668700,2.208668701171875,0.665066667997837,-1.258455754750967,1.174580005386099
1774470349610685700,2.218685791015625,1.6385095493376254,-2.146893955761194,2.436598201858997
1774470349620701400,2.228701416015625,2.6178052483588456,-2.636417009848356,3.514380286334455
1774470349630718500,2.238718505859375,0.806437963193655,-1.8224860605508089,2.0214855149812996
1774470349640734700,2.248734619140625,0.20715806483626364,-1.2735048553228379,-0.2520469713440165
1774470349650751500,2.25875146484375,0.4012041346430778,-0.3107756756991148,-0.9797633165329694
1774470349660767500,2.268767578125,0.25987960119843484,1.1489917559474705,-2.8203026279076933
1774470349670783500,2.278783447265625,-0.014632336464524269,1.637025448259711,-3.4517259695008393
1774470349680800800,2.28880078125,-1.4066045812577008,2.3846213463842867,-4.249791825668513
1774470349690816800,2.298816650390625,-2.575168468159437,2.290277175301313,-4.208929946187138
1774470349700833500,2.30883349609375,-2.6691531582802535,0.5891004496484995,-2.2242542588174343
1774470349710849500,2.318849609375,-1.9458382994532584,1.3044102811962366,-0.9827347335591912
1774470349720866600,2.328866455078125,-1.6520283716022968,2.0863070928514,-3.7960993788972495
1774470349730882600,2.338882568359375,-1.874803107765317,1.4231249234259127,-1.7511701522253453
1774470349740899600,2.348899658203125,-3.346037105321884,1.4462117845028637,1.2851090761378408
1774470349750915600,2.35891552734375,-2.1957956415742634,-0.01587444548010826,0.2533016110476106
1774470349760932400,2.368932373046875,-1.55522862406075,-0.2244792019933462,0.44704621368981895
1774470349770948600,2.378948486328125,-0.649061289614439,0.03865267899930477,0.5517115800399333
1774470349780964600,2.388964599609375,0.7950526458263397,0.32722003002166744,0.34638372630551456
1774470349790981600,2.398981689453125,1.4224620756030082,0.2503150695174932,0.8528586458459496
1774470349800997400,2.408997314453125,1.565258435165882,0.10626081884801387,0.8710817733440548
1774470349811014700,2.4190146484375,1.308512455818057,0.06863222219944,0.2537557845558971
1774470349821030700,2.42903076171875,2.1189637463063002,0.17688041547238825,0.5904885430060327
1774470349831047400,2.43904736328125,2.58105635715425,0.04759820199906826,1.1915385197758674
1774470349841063400,2.4490634765625,3.1866362324386834,-1.2950953403621912,3.0179701030820607
1774470349851080700,2.459080810546875,3.532325400608778,-1.5076859516412018,3.4222605133026835
1774470349861096700,2.4690966796875,2.2713895194798708,-0.36849955039322374,1.2407619848892093
1774470349871112700,2.47911279296875,1.280612056979537,-2.9741584338843823,3.4038118334203955
1774470349881129500,2.48912939453125,4.684900860261917,-4.216819822654128,6.557054330301284
1774470349891145500,2.4991455078125,3.166865364041924,2.2326479931533334,0.9130326901711523
1774470349901162800,2.509162841796875,0.10549451065063475,1.721622716832161,-1.9283825761310756
1774470349911178500,2.519178466796875,-0.3740688749581575,-2.0595681390076876,2.96550926348269
1774470349921195500,2.529195556640625,-1.4634978503465652,-2.5944477536469694,3.2435408997043966
1774470349931211500,2.53921142578125,-1.4827467406958341,-1.0734873098909854,0.15471256893649696
1774470349941228500,2.549228515625,-1.8988181896030902,-0.48124213247597214,-0.5999031448222697
1774470349951244500,2.55924462890625,-2.817637500351667,0.41002106282711026,-1.056443089979142
1774470349961260500,2.569260498046875,-2.5159108080267907,0.7226999417990446,-2.082920665283501
1774470349971277600,2.579277587890625,-2.2384815216124054,0.9482815520763397,-2.569198746100068
1774470349981293300,2.589293212890625,-2.2678970011889934,1.8347639428436755,-3.2348966977387663
1774470349991310600,2.599310546875,-1.8324743706017732,2.0575050689980388,-3.1847993724003434
1774470350001326600,2.60932666015625,-1.521960560709238,2.320000405652821,-1.890614132620394
1774470350011343400,2.61934326171875,-0.8104320012658834,2.0729571974128485,-2.8244068483561278
1774470350021359400,2.629359375,0.2159095265686512,2.231803943544626,-3.3561817749783396
1774470350031376600,2.639376708984375,0.21669570851027964,2.6378639937862753,-2.7238237828835845
1774470350041392600,2.649392578125,0.4775760111838579,2.4344679118320345,-1.8163921275898813
1774470350051409400,2.659409423828125,0.4698410330176353,2.0819594190359116,-1.6106110501952469
1774470350061425400,2.66942529296875,0.02139993090331554,1.9994141145572064,-0.9835297563944011
1774470350071441700,2.679441650390625,-0.4861696520060301,1.3789078882977366,-1.0068757067989558
1774470350081458700,2.689458740234375,-0.4094961621701717,1.3306804484844208,-0.9846493350088595
1774470350091474400,2.699474365234375,-0.3591296645015478,1.6234721392035483,-0.6147474435370415
1774470350101491500,2.709491455078125,0.07300970663130282,1.81854872110188,-0.5230540061585605
1774470350111507700,2.7195078125,-0.001758241844177246,2.1162848824858664,-0.08696330358404665
1774470350121524500,2.7295244140625,-0.05019815536439418,2.221043187816441,0.1523750658996403
1774470350131540500,2.73954052734375,0.4267629387915134,2.151007820820808,0.35663784768581386
1774470350141557500,2.7495576171875,0.8420195641845464,1.7694883375957606,0.8531189772825688
1774470350151573800,2.75957373046875,0.7084416993439198,0.9257122851327061,1.1474935532789676
1774470350161589500,2.769589599609375,0.6421387968748807,-0.47464521842896934,0.9624588382497429
1774470350171606500,2.7796064453125,0.30647242554724213,-1.9070704696416854,-0.3658548811033368
1774470350181622500,2.78962255859375,0.7676713024258613,-3.5980543025821445,-3.5052778192073104
1774470350191639600,2.7996396484375,0.4828647652417421,-3.8101220590308307,-2.3925682137355206
1774470350201655600,2.809655517578125,-0.07050327676832675,-3.2017876243412493,-0.14990385348051785
1774470350211672600,2.819672607421875,-0.5350929651290178,-2.7526360358700153,1.1813747070275247
1774470350221688600,2.8296884765625,0.03493511978089809,-2.71236189314872,2.060577462180704
1774470350231705600,2.83970556640625,0.37905192406773563,-2.7824837693840263,2.0645221081532537
1774470350241721600,2.8497216796875,0.1723077007293701,-2.5720284165680405,1.7468620797678827
1774470350251737600,2.859737548828125,-0.2638280465632677,-1.9174428105741739,1.348287124584615
1774470350261754600,2.869754638671875,-0.22411972103118896,-0.5284235703676938,0.5382943915188312
1774470350271770400,2.879770263671875,-0.5453811349093913,0.7103279514819383,-0.1719141713671386
1774470350281787600,2.88978759765625,-1.2386819637447595,1.4176689961075781,-0.6560404809772968
1774470350291803600,2.8998037109375,-1.3039566922098398,2.0014771845668555,-0.6396598395407199
1774470350301820400,2.9098203125,-0.9105413117468356,2.0683844826698303,-0.13263868429437278
1774470350311836400,2.91983642578125,-0.7850941463917493,1.8142770351320503,-0.05354571222662925
1774470350321853700,2.929853759765625,-1.450812556296587,1.5498901856422422,-0.6001097733102738
1774470350331869700,2.93986962890625,-2.4476456655740737,0.9284650909721851,-1.0102030245907605
1774470350341886500,2.949886474609375,-4.020591732633114,0.3836123638510704,-1.1375815963998437
1774470350351902500,2.95990234375,-5.522317314565181,-0.020949849048256874,-0.94222429786399
1774470350361918500,2.96991845703125,-6.067772683754563,-0.4131213669300079,0.6906383316278457
1774470350371935500,2.979935546875,-4.924394676035642,-1.0524036053299903,1.8202004338316617
1774470350381951500,2.989951416015625,-2.9619401728242636,-1.4650643690109253,2.474419106209278
1774470350391968500,2.999968505859375,-1.014986605605483,-1.7020950095415115,1.9973093973629175
1774470350401984500,3.009984619140625,0.5335381369024514,-1.7777450015485285,1.130957355954498
1774470350412001500,3.02000146484375,2.0658593481063843,-1.7530121268302201,0.5663951352350414
1774470350422017500,3.030017578125,2.6059832931399343,-1.639896035259962,-0.15287629342004655
1774470350432034600,3.04003466796875,3.185084911343455,-1.256301791587472,-0.8064648512005805
1774470350442050600,3.050050537109375,3.5926065585702656,-0.4994400524675846,-0.6840912480719387
1774470350452066600,3.060066650390625,3.9180975728422403,0.4117570928394794,-0.7299414373598992
1774470350462083600,3.07008349609375,4.364351394045353,1.1831868710160254,-0.3471981114283204
1774470350472099600,3.080099609375,6.286825184524059,1.0605898343950508,-0.3131505881369114
1774470350482116400,3.090116455078125,8.01467598209083,0.2713403218895197,-0.8174871804744005
1774470350492132600,3.100132568359375,5.626545750802755,0.4294096539080143,0.7200744156010449
1774470350502149600,3.110149658203125,3.7420086000084876,0.8752244991719722,1.6203423167452216
1774470350512165600,3.12016552734375,2.5285370653659105,1.0207131665587426,1.1331089810304342
1774470350522182400,3.130182373046875,0.7690922751396894,1.1409861441463232,0.5086234028112143
1774470350532198700,3.14019873046875,-0.26863164745271206,0.9593354455322026,0.3793620129302144
1774470350542214700,3.150214599609375,-0.5449836600244045,0.8927864593476057,-0.1834026568479836
1774470350552231400,3.1602314453125,-0.9348656056642531,1.2094839263111352,-0.5785659769568592
1774470350562247400,3.170247314453125,-0.8307704404175281,1.0152233369708061,-0.2999696925897151
1774470350572264700,3.1802646484375,-0.2651929051756859,0.2540595167428255,1.0797880905356259
1774470350582280700,3.19028076171875,-1.4039730637103318,-0.3320283070862293,1.9630130138769746
1774470350592297500,3.20029736328125,-1.331448510247469,-0.8507359546035528,2.069786750683188
1774470350602313500,3.2103134765625,-1.076768815779686,-1.1749456968933343,1.9064494151338933
1774470350612330800,3.220330810546875,-1.081599304676056,-1.2180816587865353,1.5166260678134857
1774470350622346800,3.2303466796875,-1.090709662848711,-1.1054407835125923,1.0725772093087433
1774470350632362500,3.240362548828125,-0.6978279508709907,-0.8862924211531877,0.6384241602659225
1774470350642379500,3.250379638671875,0.06700023708343505,-0.7585282110273838,-0.3012345248937607
1774470350652395500,3.2603955078125,0.029196283867955208,-0.8824117803275585,-1.675634141986817
1774470350662412500,3.27041259765625,0.13028174590468405,-0.3784031047701835,-1.9229966453090308
1774470350672428500,3.280428466796875,-0.3250041075378656,0.22361761672794817,-2.694653802500665
1774470350682445600,3.290445556640625,-1.249800154608488,0.04085457295775413,-2.1670824650481344
1774470350692461600,3.300461669921875,-1.7940894026279448,0.6498498096436262,-0.02861757066454738
1774470350702478600,3.310478515625,-2.2237129915475844,1.397361536616087,0.772302761618793
1774470350712494600,3.32049462890625,-2.117413594254851,1.5166531019508838,0.6034491833986714
1774470350722510600,3.330510498046875,-1.66757665386796,0.772640323010087,-0.6943174585320055
1774470350732527600,3.340527587890625,-0.9870482128441334,0.7008604504346847,-0.7478948810711502
1774470350742543400,3.35054345703125,0.07190262217223643,0.7838117053657769,-0.5381677694644779
1774470350752560600,3.360560546875,2.2400123844414948,1.9388205296456813,-0.7975736887365579
1774470350762576600,3.37057666015625,1.6095792229294776,1.7951158230662345,-0.43080355595182623
1774470350772593400,3.380593505859375,-2.0181313822478053,0.2841758380651474,-0.6307242534130811
1774470350782609400,3.390609375,-0.21267419790923595,0.5596820474624633,-0.15353682142170144
1774470350792626700,3.400626708984375,1.3958265821337699,1.084364677736163,0.1927118437946774
1774470350802642700,3.410642578125,1.3902356302589178,0.3907990604847669,-0.7836115066185593
1774470350812658400,3.420658447265625,1.680523229202628,0.23479835143387318,-0.44201340715438125
1774470350822675500,3.430675537109375,2.160491688480973,0.33273616309463977,0.5653320360481738
1774470350832691700,3.440691650390625,1.8389906206279991,0.5998205811053514,1.4426422554530203
1774470350842708500,3.45070849609375,1.0651426753938198,0.9116261843740939,1.9145785071842372
1774470350852724500,3.460724365234375,0.5206915148109197,0.9160837483048438,2.1941472898453473
1774470350862741500,3.470741455078125,2.3202900362491605,0.6290706409871578,1.8504525103628635
1774470350872757800,3.4807578125,2.4223949044615027,0.2775058587819338,0.6458868242967873
1774470350882773800,3.490773681640625,1.9302596220493315,0.20947920126020908,0.010714213172718881
1774470350892790500,3.50079052734375,1.0426403362065553,0.11445698478519915,-0.9412013114918023
1774470350902806000,3.510805908203125,0.5757148983746767,-0.1864770958572626,-1.7340120966754853
1774470350912823000,3.520822998046875,0.7533674672633409,-0.4481219531625509,-1.94472566203624
1774470350922839000,3.530839111328125,1.11094697971344,-0.8059744373351335,-1.9297016959056257
1774470350932856000,3.54085595703125,0.9390250634312629,-1.0848118369817734,-1.8560902239888906
1774470350942872000,3.5508720703125,0.4469762902587652,-0.8789818058788776,-1.1694688729174434
1774470350952889000,3.56088916015625,0.49299277602434155,-0.7980494895547628,-0.1883180110162124
1774470350962905000,3.570905029296875,0.5042594354480505,-1.591243648032844,0.21431611989736557
1774470350972921000,3.580921142578125,0.6724059248447418,-2.460571490381658,-0.6243045956291258
1774470350982938000,3.590938232421875,0.04567454046010971,-2.215836266823113,0.33275830186121164
1774470350992954000,3.6009541015625,-0.4347621208518743,-1.2785273596599698,0.7937175978302955
1774470351002971100,3.61097119140625,-0.33411037405729294,-0.22874124335199594,1.0667138702332972
1774470351012987100,3.620987060546875,0.1605570571810007,0.5753752911567688,1.7466645113691686
1774470351023004200,3.631004150390625,-0.039543490359187125,0.9976404801376163,1.352419986605644
1774470351033020000,3.64102001953125,-0.6058055007338523,1.6812949442274867,0.42626109021659936
1774470351043037200,3.651037109375,-0.13118775483369827,2.0922721387356518,0.38002208427414297
1774470351053053200,3.66105322265625,0.842083861592412,2.4347587114721536,0.7020841470107436
1774470351063069200,3.671069091796875,1.844433103942871,2.4306276030167937,1.2410095299094914
1774470351073086000,3.6810859375,2.4152193137437106,2.2216662881508467,1.4794718106783926
1774470351083102000,3.69110205078125,-0.8782920700490474,1.2326174030087889,1.033536480839923
1774470351093119200,3.701119140625,-3.7409821795701976,1.1489400988254694,-0.9610717678055166
1774470351103135200,3.71113525390625,-3.126020727956295,1.3714951278232037,-1.0644116577055305
1774470351113152000,3.721152099609375,-2.548506086683273,1.2401479446440935,-0.6863985021010041
1774470351123168000,3.73116796875,-1.1611556564718484,0.20429222707636654,1.0386525086794047
1774470351133184000,3.74118408203125,-1.3851666564315557,-0.5861197168046608,1.4901549711257218
1774470351143201000,3.751200927734375,-2.1779636322855946,-0.26910507365074005,-0.662427843926847
1774470351153217000,3.761217041015625,-2.0568238087356088,-0.9504991550605744,-1.9937403067044912
1774470351163234000,3.771234130859375,-0.30370179179012774,-2.250373911719024,-2.2334793294109403
1774470351173250000,3.78125,0.5744529156148434,-3.6160382875621315,-0.6956334365013986
1774470351183267000,3.79126708984375,0.5174503409326077,-3.5230715423122048,0.4118251165743917
1774470351193283000,3.801282958984375,0.04995090260505676,-2.6693071797981855,0.8680518310636282
1774470351203300000,3.811300048828125,-0.5700257468223572,-2.0077052653014658,1.2780081580914555
1774470351213315800,3.82131591796875,-0.3370253847211599,-1.8109338621839879,1.3564748149544
1774470351223332000,3.83133203125,-1.7930279108762741,-1.2801438549458979,1.0958589353706687
1774470351233349000,3.84134912109375,-3.2704455655038354,-0.7991665108859538,1.3053735732704401
1774470351243365000,3.851365234375,-2.4132886379420757,-0.6619632951550185,1.3801682636223733
1774470351253382000,3.8613818359375,-2.0573282511264086,0.27051249276325107,1.6452216141968965
1774470351263398100,3.871398193359375,-1.4934896685063839,1.0932187961254267,0.9802988116491586
1774470351273415200,3.881415283203125,0.20511048465669154,1.7967679741874336,-0.5745819488219917
1774470351283431200,3.89143115234375,0.2815793918311596,1.702681284996867,-1.5146562290452419
1774470351293447000,3.901447021484375,-0.29716157636642454,0.7512741482459008,-1.720759816392511
1774470351303464200,3.911464111328125,-1.3451473652541637,0.9364257676530628,-0.7255594228833914
1774470351313480200,3.921480224609375,-2.317749119594693,0.45940512532964345,-0.404620336294733
1774470351323497000,3.9314970703125,-0.9037047437250614,-0.446840023593232,-1.2553010901123285
1774470351333513000,3.941512939453125,0.2250841821491718,-0.032562107039242984,-1.1995057723280043
1774470351343530000,3.951530029296875,0.5717629458785056,-0.06019665801580995,-1.1083676307447254
1774470351353546200,3.961546142578125,-0.6904518691450358,0.012448599217273294,-0.9011029637288301
1774470351363563000,3.97156298828125,-1.8698375943124292,0.2029223269626498,-0.3484821964221075
1774470351373579000,3.9815791015625,-1.2515338465332984,0.5173763989135622,-0.3468517091434449
1774470351383595000,3.991594970703125,-0.46523441600501536,0.5980415156688541,-0.8197285296604037
1774470351393612000,4.001612060546875,-0.029857378125190733,0.30846655850652605,-1.2915902548506855
1774470351403628000,4.0116279296875,0.18214169700145721,0.05345149917111266,-1.347605718191713
1774470351413645000,4.02164501953125,0.10752630873918533,-0.17936713598789647,-1.133066237867251
1774470351423661000,4.0316611328125,0.07128653610050678,-0.24898933733906595,-0.7455396962471306
1774470351433678000,4.041677978515625,-0.1547755511701107,-0.1942920439245179,-0.4855751201789826
1774470351443694000,4.051694091796875,-0.2440899113923311,-0.011334171701967715,-0.3536392138591036
1774470351453710000,4.0617099609375,-0.16280279028117656,0.6846716783083975,-0.729525476970151
1774470351463727000,4.07172705078125,0.5350386045932769,0.772956403221935,-0.6036723976952955
1774470351473742800,4.081742919921875,0.7295557990431785,0.3196740716215223,-0.41282640257142483
1774470351483760000,4.091760009765625,1.2451450222790241,-0.3799349174473434,0.03112544356593862
1774470351493776100,4.101776123046875,1.1318845538020132,-0.9525316107362508,0.4956218093536794
1774470351503793000,4.11179296875,0.3520668865084648,-0.6954195745550096,0.83728040683344
1774470351513809000,4.121808837890625,-0.12417349215745925,-0.04866115505546331,1.495826294760406
1774470351523826200,4.131826171875,-0.7270768417090178,-0.26465324534103274,1.852851680459082
1774470351533842200,4.14184228515625,-1.041143375647068,0.4658559089042246,1.1597105722300707
1774470351543858200,4.151858154296875,-0.3085837186127901,0.6855528450571,0.6485970331035554
1774470351553875000,4.161875,0.6691980687141418,0.2790145097792148,0.2707240166220814
1774470351563891200,4.17189111328125,1.2255080093950033,0.22754297347813843,0.13509827934093774
1774470351573908000,4.181907958984375,1.106821424216032,0.48405894346237177,-0.15370339189395307
1774470351583924000,4.191924072265625,0.8248428039342165,0.8201698436871171,-0.2695347337722778
1774470351593941000,4.20194091796875,0.6969879929155111,0.9388742567837238,-0.1672679529964924
1774470351603957200,4.211957275390625,0.4853805474549532,1.3118662962906062,-0.8133447469074279
1774470351613973200,4.22197314453125,1.1627665987998246,1.295067575572431,-1.3000053242355585
1774470351623990000,4.231989990234375,1.6427935102671385,1.0065006629414857,-1.2209351485215127
1774470351634006000,4.242006103515625,1.4141232863247393,0.47909006900861856,-0.7565124872907996
1774470351644023000,4.25202294921875,0.5297656326264143,0.14551979317739605,-0.18159655727408824
1774470351654039000,4.2620390625,-0.6796855604588985,0.22812340371459722,0.007156155364960432
1774470351664056000,4.27205615234375,-0.8258779922008513,0.6704590285606682,0.28507541725337504
1774470351674072000,4.282072021484375,-0.5357487986892462,0.9512465393617748,0.24560974137075245
1774470351684088000,4.292088134765625,-0.18664076198637483,0.856062848714739,-0.274431492837891
1774470351694105000,4.30210498046875,0.19856091688275337,0.7463381531484424,-0.5317655012067407
1774470351704121000,4.31212109375,0.3091068657040596,0.6522865352712571,-0.45266354211494325
1774470351714138000,4.32213818359375,0.2575280696362257,0.573049186296761,-0.47707825426217165
1774470351724154000,4.332154052734375,0.30251696591973304,0.3508943355977535,-0.6577043225362896
1774470351734171100,4.342171142578125,0.41354631434381006,0.1944108114659786,-0.669590794358775
1774470351744187100,4.352187255859375,0.5469798022776842,-0.3102677261769771,-0.5941753417599946
1774470351754204200,4.3622041015625,0.4884796825140714,-0.6938444341927766,-0.8030245014883577
1774470351764220000,4.372219970703125,0.5608680423766375,-0.4251508274197578,-0.48883536408394573
1774470351774236000,4.38223583984375,0.3604699731945991,-0.36496670009195803,-0.38233467206545174
1774470351784253200,4.392253173828125,0.19083704463243484,-0.477169183948636,-0.37167664605937895
1774470351794269200,4.402269287109375,0.023307810351252553,-0.6691448772221803,-0.09960925200432538
1774470351804286000,4.412285888671875,-0.02225625547170639,-0.9244038328826427,0.20590945301465688
1774470351814302000,4.422302001953125,-0.4456067554712295,-0.9932041051253676,0.47266252017915245
1774470351824319200,4.4323193359375,-0.4463526054024696,-0.8589483410231769,0.8039577637504786
1774470351834335000,4.4423349609375,-0.24028876554369924,-0.6627164516098797,1.0043724187411367
1774470351844352000,4.45235205078125,-0.3737041332989931,-0.6052496204167604,0.9295067089796065
1774470351854368000,4.462367919921875,-0.5883890865087509,-0.21027824268341064,0.6897794497761875
1774470351864384300,4.47238427734375,-1.2990204048514364,0.1114997424148023,0.3679876553483307
1774470351874401000,4.482401123046875,-1.5729747086316346,0.20585311971753834,0.37951018922924995
1774470351884417000,4.4924169921875,-0.8291577445238828,0.489304735161364,0.4297637280426919
1774470351894434000,4.50243408203125,0.06914017172157765,0.6144600779630244,0.08970292114838957
1774470351904450600,4.512450439453125,0.2361222935140133,0.3094048257373273,-0.023303499502316118
1774470351914467600,4.522467529296875,0.1463759716153145,0.29139599857702847,0.41329723495356735
1774470351924483600,4.532483642578125,-0.6764221747487783,0.4839074061624706,0.6836157395146787
1774470351934499600,4.54249951171875,-1.7388281186550854,0.49149815355241294,0.2946889757078141
1774470351944516600,4.5525166015625,-1.8366005106210708,0.24872955389171839,-0.39748401814140377
1774470351954532600,4.56253271484375,-1.5872680224001408,-0.9988117158740758,-1.616206532114744
1774470351964549600,4.572549560546875,0.7098381221383809,-2.465384735882282,-2.5491671809405085
1774470351974565600,4.582565673828125,3.2213971646964548,-1.0673416467428207,-0.5983649754695594
1774470351984582700,4.592582763671875,3.8311055180877447,0.05346124881356954,1.1871394080340862
1774470351994598700,4.6025986328125,3.4127515112012623,0.7137111641794442,1.755625231938064
1774470352004614700,4.61261474609375,2.5886346834540364,0.43251624162122604,2.0536703131407497
1774470352014631400,4.62263134765625,1.6786188568860292,-0.13380115220248698,2.3522841341421006
1774470352024647400,4.6326474609375,1.4684709625840187,-0.49473304382041094,2.206051662650704
1774470352034664700,4.642664794921875,1.439905962356925,-0.8379781798392534,1.6234320994541047
1774470352044680700,4.6526806640625,1.432386088246107,-0.8397121640250086,1.1846239180818199
1774470352054697500,4.662697509765625,1.6292074679851531,-0.8139042074210942,1.0815478667497633
1774470352064713500,4.67271337890625,1.8290064022302626,-1.0206995764248072,1.1634972511619328
1774470352074730800,4.682730712890625,1.468179286161065,-1.113557746733725,1.3130141511514781
1774470352084746500,4.69274658203125,0.4369406339347362,-1.3262646778687834,1.1648738002121448
1774470352094762500,4.702762451171875,-0.462700513613224,-0.7919130326263606,1.0659424474693835
1774470352104779500,4.712779541015625,-1.4686907428145408,-0.5148299293011427,0.8782261652059853
1774470352114795500,4.72279541015625,-2.822638085117936,-0.12908749461881816,-0.012550854015350341
1774470352124812500,4.7328125,-3.093457598003745,0.2786934611313045,-0.7464813610114157
1774470352134828500,4.74282861328125,-2.576734986823797,0.13349194012284277,-1.553483680089563
1774470352144845600,4.752845458984375,-2.0438392394781113,-0.040532245668210086,-2.2815515786625444
1774470352154861600,4.762861572265625,-1.612653808069229,0.1476263004699722,-2.1364581942036747
1774470352164878600,4.772878662109375,-0.5901432366997004,-0.4757324656764045,-3.152029613959789
1774470352174894600,4.78289453125,0.5505711047679186,0.699306864317134,-3.7284836402639745
1774470352184910600,4.79291064453125,0.7766168254256248,1.9896599055230617,-3.037928603005409
1774470352194927400,4.80292724609375,-0.048096214649081225,2.1747905552074314,-2.0498487090259787
1774470352204943600,4.812943603515625,-1.3536036434322596,1.1591697433516384,-0.2700146262437105
1774470352214960600,4.822960693359375,-1.6267618283987044,1.9982439017340539,-1.6321648564860223
1774470352224976600,4.8329765625,-2.1742139243632552,2.744934375451505,-2.532791507939994
1774470352234993400,4.842993408203125,-2.462742112419009,2.0982164340928198,-1.1906173132777214
1774470352245009700,4.853009765625,-1.7503040369153022,1.1843199666991828,-0.6379664796262979
1774470352255025700,4.863025634765625,-1.5114701463550329,0.9810704536087811,-0.8039987533479929
1774470352265042400,4.87304248046875,-0.9952385335624218,0.09982863037604837,-0.08619242880940436
1774470352275058400,4.883058349609375,-0.433832146525383,-0.8026552297845483,0.33838878202885386
1774470352285075700,4.89307568359375,0.17011749720871447,-0.8194401411730796,0.7937249043539166
1774470352295091700,4.903091796875,0.01596738446056843,-0.6454700601894408,1.286742230297625
1774470352305108500,4.9131083984375,-0.31004502333700656,-0.8691860957905649,1.4615107681825756
1774470352315124500,4.92312451171875,-0.6939198375165462,-1.4816276735380292,1.935085727031529
1774470352325141800,4.933141845703125,-0.3519043894231319,-0.30584340692870315,1.5321309493288398
1774470352335157800,4.94315771484375,-0.336383579686284,0.48308374175466595,1.2053808749064803
1774470352345173500,4.953173583984375,-0.3566232346385717,0.10788082126528024,0.5245055201411247
1774470352355190500,4.9631904296875,-0.08562193544507027,-0.028841917472332713,-0.5590183228567243
1774470352365206500,4.97320654296875,-0.5181979444295167,0.05078326177597046,-1.1704948549643157
1774470352375223600,4.9832236328125,-0.09681202250123024,-0.025269465813040733,-1.2640268328815698
1774470352385239600,4.993239501953125,0.032307109364867206,0.08395210253670811,-0.9153037038430571
1774470352395256600,5.003256591796875,0.14180734852552412,-0.1505346987299621,-0.5453866878673433
1774470352405272600,5.0132724609375,0.6489975767284631,-0.4575359704568982,-0.4121995759099722
1774470352415288600,5.02328857421875,0.8030114958763122,-0.5277439175404608,-0.2989662877008319
1774470352425305600,5.0333056640625,0.7455413036823272,-0.1708029952548444,-0.057498541505634784
1774470352435321600,5.043321533203125,0.667383128246665,-0.23991467153429982,-0.20532471192926166
1774470352445338400,5.05333837890625,0.4013327294588089,-0.5397657792456447,-0.5191904625982046
1774470352455354400,5.063354248046875,-0.07739595889151096,-0.11620748171433806,-0.3471662549853325
1774470352465371600,5.07337158203125,-0.2303478017657995,0.08957856411635876,-0.35057810925543303
1774470352475387600,5.0833876953125,-0.024760931769013405,0.10440379280447959,-0.40024142709076405
1774470352485404400,5.093404296875,0.2637526432394981,-0.13156973988860846,-0.2495242114007473
1774470352495420400,5.10342041015625,0.4263578651219606,-0.02555792736560106,0.25768238341510297
1774470352505436700,5.113436767578125,0.5146469739496707,-0.6124047528684139,0.6377621892258525
1774470352515453700,5.12345361328125,0.48404374589323995,-0.3571455049470067,0.8385568565100431
1774470352525469400,5.133469482421875,0.13131050443053244,-0.5423042116820812,0.9445482107669114
1774470352535486500,5.143486572265625,0.18418284744024277,-0.380696184143424,1.029610466502607
1774470352545502700,5.153502685546875,0.21579788288772106,-0.15651742640137672,1.4415420391261577
1774470352555519500,5.16351953125,0.22248656687140464,-0.18261399068832396,1.565027256758511
1774470352565535500,5.173535400390625,0.4968202253580093,-0.22610797223895787,1.5088079414084552
1774470352575551500,5.183551513671875,0.7394716283798217,-0.4212964900791645,1.3669868566185235
1774470352585568800,5.19356884765625,0.7304431032717228,-0.8106435981899499,1.1729071768030523
1774470352595584500,5.20358447265625,0.6383084249317645,-1.0248504124939442,1.148250582191348
1774470352605601500,5.2136015625,0.4964999073624611,-0.8769508845731615,1.1429144818603991
1774470352615617500,5.223617431640625,-0.020741174733638762,-0.16091332327276467,1.0895214759774505
1774470352625634600,5.233634521484375,-0.5947469311028719,1.4888611319229006,1.5370523313790558
1774470352635650600,5.243650634765625,-0.4092003940939903,-0.367352133923769,0.19830621146932242
1774470352645667600,5.25366748046875,0.009452303478121756,0.07016542311608791,-0.15885288361161945
1774470352655683600,5.26368359375,-0.12805939368009567,-0.10232377166002989,-0.39901363886147734
1774470352665699600,5.273699462890625,-0.16840952424705027,-0.49642976473569866,-0.5940646479271352
1774470352675716600,5.283716552734375,-0.5077215586006641,-0.5539078479751944,-0.44067061424329873
1774470352685732600,5.293732666015625,-0.9473878181070089,-1.0096204023972153,-0.2776224708989262
1774470352695749600,5.30374951171875,-0.07799450930655003,-0.8454644439414143,0.10313114252015948
1774470352705765400,5.313765380859375,0.2542196757405996,-0.05248743534535169,0.5893278286635876
1774470352715782700,5.32378271484375,-0.1755272472977638,0.43957565861344333,0.5295242250859737
1774470352725798700,5.333798583984375,-0.016977438285946844,0.5585489517793059,0.3681802553109824
1774470352735814700,5.343814697265625,0.7408101835072041,0.32070114964693786,0.435340797522664
1774470352745831400,5.35383154296875,1.5762328336447475,-0.1253270461067557,0.7168604219906032
1774470352755847400,5.363847412109375,2.316824405965209,-0.0945481692224741,1.1298768672414123
1774470352765864700,5.37386474609375,2.5869506758898497,-0.10930676241517066,1.4225326566211878
1774470352775880400,5.38388037109375,2.6602432911157607,-0.07312485744357108,1.8326358447737991
1774470352785897500,5.3938974609375,3.4268636231839653,0.10180179361253976,2.6045582287728783
1774470352795913500,5.40391357421875,4.424018804022669,0.05759498761743307,3.01694543620944
1774470352805930500,5.413930419921875,5.280560230034589,-0.1840831864580512,3.1687203442588445
1774470352815946500,5.423946533203125,5.500281423845887,-0.08106441827118396,3.3011654056772586
1774470352825962500,5.43396240234375,5.886582003867626,0.33559155252575873,3.3211996011853215
1774470352835979500,5.4439794921875,5.696441709327697,0.7219871173545718,3.0860557973146436
1774470352845995800,5.453995849609375,4.403861566656827,1.5176497117727994,2.0686223830789325
1774470352856012500,5.464012451171875,3.1479607570856807,2.019082983884215,1.0811826866991818
1774470352866028500,5.474028564453125,2.3753847314834595,1.8357893403686583,1.007326007849723
1774470352876045600,5.484045654296875,1.6675363218575716,1.8940498061574995,1.6202341801956295
1774470352886061600,5.4940615234375,1.3913567432433367,1.5826163972020149,1.7637258285462856
1774470352896077600,5.50407763671875,0.9712824884355068,1.3544294267319141,1.1813495725862682
1774470352906093800,5.51409375,0.2067541602104902,1.1883938650745898,0.5406383242964744
1774470352916109800,5.52410986328125,-2.0566922913104295,1.8865170725651084,-0.9481366637129336
1774470352926126600,5.534126708984375,-5.570367351984977,2.646795488260686,-2.931319701372087
1774470352936142600,5.544142578125,-7.311819973924756,2.88953807669729,-4.246017275565863
1774470352946159900,5.554159912109375,-9.590322540280223,1.6120006048575042,-5.08188007068634
1774470352956176000,5.56417578125,-8.364054652428626,0.7003909332267939,-3.2269659047394987
1774470352966192600,5.574192626953125,-5.361385578852891,2.3364988282501695,0.6811515413582324
1774470352976208600,5.584208740234375,-2.6529922970741984,2.2029003590129315,0.47721842991784214
1774470352986224600,5.594224609375,-1.4358505494862794,1.2873479411058126,-1.2105725983306765
1774470352996242000,5.604241943359375,-1.6830524554193018,1.4273561312548815,-1.2846869052030145
1774470353006257700,5.614257568359375,-2.1799317174881696,1.2397203668817878,-1.7121823960527776
1774470353016274700,5.624274658203125,-3.160519209885597,0.7680768875520676,-2.111719328135997
1774470353026290700,5.634290771484375,-3.137581401890516,0.6978793157320469,-1.9570213722467422
1774470353036307700,5.6443076171875,-2.5333710613936185,0.6208250098850577,-1.7232723837353288
1774470353046323700,5.65432373046875,-1.0155062455654145,-0.2968436512573622,-1.2188805540792644
1774470353056340700,5.6643408203125,0.7886012777298689,-1.5595483869560063,0.4401186794489622
1774470353066356700,5.674356689453125,0.7443249136298894,-2.515678752836585,1.6790233460336923
1774470353076372700,5.684372802734375,0.5102057766318321,-2.551442140135169,2.266793423861265
1774470353086389800,5.6943896484375,-0.0005459434449672699,-2.1145478295601903,2.247541318641603
1774470353096405800,5.70440576171875,-0.6509276680082082,-1.8659940706267952,1.3736866465181112
1774470353106422800,5.7144228515625,-1.3104945695459842,-1.2547896334588526,0.47254181640893217
1774470353116438500,5.7244384765625,-1.1506295862823723,-0.8790528983537107,-0.07431260592341422
1774470353126455800,5.734455810546875,0.21795418413877485,-0.5956207913279533,0.035173312450945377
1774470353136471800,5.744471923828125,1.3199609015494584,-0.9129121325314045,0.12704057202637195
1774470353146487800,5.75448779296875,0.8863193091601133,-0.9088730132084339,-0.07012099945247173
1774470353156504600,5.764504638671875,-0.15607435880899428,0.052797378077358,-0.20687720206826923
1774470353166520800,5.774520751953125,-0.2532078683495521,0.3982387089662254,-0.3632473289534449
1774470353176537900,5.784537841796875,0.1700911937236786,0.04394333275333047,-0.22649375668615102
1774470353186553600,5.7945537109375,0.2878384522259235,-0.5040452081754804,-0.26673575070351363
1774470353196570600,5.804570556640625,0.08037059078812599,-0.2088029094338417,0.5226075775653124
1774470353206587000,5.8145869140625,0.30155776549875735,0.27985534451752897,1.1124921633288263
1774470353216603600,5.824603759765625,0.3833791396170854,0.004208411475270986,1.0304635762006045
1774470353226619600,5.83461962890625,0.3066840224713087,-0.06423647145852446,1.0817755380257963
1774470353236635600,5.8446357421875,0.2461427522689104,0.04101005578041077,0.8999009675279259
1774470353246653000,5.85465283203125,0.37185587508380413,0.030466449934244154,0.4059928302243352
1774470353256669000,5.8646689453125,0.9211188198626041,0.06659574793577194,0.06437894866913557
1774470353266685700,5.874685791015625,1.1949217324733734,-0.028876550394296645,-0.27826602949947116
1774470353276701700,5.88470166015625,0.9345528864532708,-0.2812958987146616,-0.5114005393743515
1774470353286718700,5.89471875,0.7793786913543939,-0.17853548920303583,-0.711585550327599
1774470353296734700,5.904734619140625,0.8881061925768852,-0.1772635695710778,-1.0001964482307433
1774470353306751700,5.914751708984375,1.1078133578628302,-0.18080489543974398,-1.3550383524104952
1774470353316767700,5.924767822265625,1.1938877132505177,-0.1461439164251089,-1.7048133285894989
1774470353326783700,5.93478369140625,0.38657121365666386,-0.01705167256593704,-1.7130141707018016
1774470353336800800,5.94480078125,-1.0242729048669337,0.7545841495767235,-1.3301207687750458
1774470353346816800,5.954816650390625,-0.7926520144253969,0.3131985189318657,-1.06359427690804
1774470353356833800,5.964833740234375,-0.039406127715110775,-0.06440729798078537,-0.9937924264073371
1774470353366849500,5.974849609375,-0.321827231067419,-0.6137728263512253,-0.3806976454481482
1774470353376866800,5.98486669921875,-0.34264205555915833,-1.005924762749672,0.18212123873531819
1774470353386882800,5.9948828125,-0.6176192726463079,-0.44226855095922946,0.3167535810649395
1774470353396899600,6.004899658203125,-0.5032172329187393,-0.843376239490509,0.5044590496733784
1774470353406915600,6.01491552734375,-0.40636604745090005,-0.6160220665827393,0.3519581654369831
1774470353416931600,6.024931640625,-1.0057236872196198,-1.6462226079329847,-1.9203361939281225
1774470353426948900,6.034948974609375,-0.6242611948788166,-1.8651470984086393,-2.9966254094973204
1774470353436964900,6.04496484375,-0.12446166144907474,-0.6572083557128906,-2.5273151223555206
1774470353446981600,6.054981689453125,0.008568506380915641,-0.20309271509349344,-0.8138944166794418
1774470353456997600,6.06499755859375,0.2680588160008192,-1.6666709371998905,-0.32008360227048394
1774470353467015000,6.075014892578125,0.2987140665054321,-2.183849183192849,0.41533524358719587
1774470353477030700,6.08503076171875,0.4608429030478,-2.5757936143204567,1.1937719779163598
1774470353487046700,6.095046630859375,0.43833471864163875,-2.6213413135305044,2.069623376815021
1774470353497063700,6.105063720703125,0.9341589186996221,-2.347505959954858,2.5497984645813703
1774470353507080000,6.115079833984375,1.0910656366795302,-1.7927753974199294,2.7709122817948457
1774470353517096700,6.1250966796875,1.3315724288880824,-0.9504095040157436,2.7620041681960226
1774470353527112700,6.13511279296875,1.5309335562378168,0.4218865649268031,2.485797409313917
1774470353537129700,6.145129638671875,1.03228085475564,1.8233496916428207,1.9774848990827798
1774470353547145700,6.155145751953125,0.33941958638131614,1.0070493828654288,1.0245768562495707
1774470353557162800,6.165162841796875,-1.1234580862402914,0.3784533736526966,0.6145870653435588
1774470353567178800,6.1751787109375,-2.3888889407008884,0.8896426083639264,0.06921732861101627
1774470353577194800,6.18519482421875,-2.1101842275232077,0.5726438203662634,-0.12283756737858056
1774470353587211500,6.19521142578125,-1.2810124544739723,1.0293576607853174,0.1534437180444598
1774470353597227800,6.205227783203125,0.04751636893451214,1.626649015673995,0.4164905511021614
1774470353607244800,6.215244873046875,0.5106757322311402,1.2305723070472478,-0.5428928252249956
1774470353617260800,6.2252607421875,-0.3228746942937374,0.7844342211782932,-1.6015239267677068
1774470353627277600,6.235277587890625,-1.0483481924593447,1.780148263297975,-1.4853648142397402
1774470353637293800,6.2452939453125,-1.726238101673126,2.485800916445255,-1.6480755423232911
1774470353647309800,6.255309814453125,-2.051798089528084,2.238665353746712,-2.326583291174471
1774470353657326600,6.26532666015625,-1.4332079260230064,1.6902704239740967,-2.534647657200694
1774470353667342600,6.275342529296875,-0.8248919037729501,1.165446047142148,-2.5452999841183424
1774470353677359900,6.28535986328125,-0.877438668090105,0.6437710742518306,-2.871159831702709
1774470353687376000,6.2953759765625,-0.019404373171925542,-0.12945581647455692,-2.259956271317601
1774470353697392600,6.305392578125,1.0493079774022103,-1.216554595349729,-0.7592419122546911
1774470353707408600,6.31540869140625,1.4084183526813983,-1.1479647509872912,-0.07123802078366279
1774470353717426000,6.325426025390625,1.8110908063113689,-0.6866957314819098,0.3887202083840966
1774470353727441700,6.335441650390625,2.0834663164675233,-0.6767343094378709,0.17822773842811584
1774470353737457700,6.345457763671875,1.9616531237006187,-0.5712900676697492,-0.09133359109014272
1774470353747474700,6.355474609375,0.8085124313801526,0.3300765884965658,-0.8271341297417879
1774470353757490700,6.36549072265625,-0.8712444896250963,1.584680343994498,-1.613448465578258
1774470353767507700,6.3755078125,-1.9828566552489995,2.477035426187515,-2.4011501641198993
1774470353777523700,6.385523681640625,-2.3645862740933894,2.6669308060556647,-3.1222502695068717
1774470353787540700,6.395540771484375,-1.7400854252398013,2.7614257837861773,-2.8462366951093077
1774470353797556700,6.405556640625,-0.09122633132338523,1.076833697709441,-2.3734558092474938
1774470353807572700,6.41557275390625,0.6810989343881607,0.6896177564084529,-1.7940297813951969
1774470353817589800,6.42558984375,0.9893167422980069,1.3570353714466095,-0.9050476827666163
1774470353827605800,6.435605712890625,0.9830284558087586,0.9405342989504337,-0.41186201451867815
1774470353837622500,6.44562255859375,0.7019102517485618,0.6953273662269115,0.38047640391290183
1774470353847638500,6.455638427734375,0.3000479454576969,1.025102341428399,0.8372095335543155
1774470353857655800,6.46565576171875,-0.11849018582403659,0.9060667966812849,0.46758185591399665
1774470353867671800,6.475671875,-0.547108981615305,0.5787982513427734,0.13546616280525922
1774470353877688600,6.4856884765625,-0.5113274741381406,0.6388040994942188,0.46407735492438074
1774470353887704600,6.49570458984375,-0.2516600543856621,0.543600681233406,0.8043754777058959
1774470353897721000,6.50572119140625,0.023023732712864873,0.4047919300019741,1.1201847636580466
1774470353907738000,6.515738037109375,0.30347090564370155,0.2787900533735752,1.276046356499195
1774470353917754000,6.525754150390625,0.8253887473791838,-0.016342062991857528,1.2442477811783552
1774470353927771100,6.535771240234375,1.0260083503574133,-0.022039397850632667,1.270438161228597
1774470353937787100,6.545787109375,0.7231003392934798,0.18936054233908653,1.2927581295862793
1774470353950308000,6.55830810546875,0.3332487887918949,0.3325736660093069,1.2163824536532164
1774470353960324000,6.568323974609375,-0.03976151702404022,2.4272914443314075,0.30839915582612154
1774470353970341000,6.578341064453125,-0.00990180081129074,2.410534955319762,0.3675798051998019
1774470353980357000,6.588357177734375,0.5902794302999973,0.01642389605641365,-0.9741361243009566
1774470353990373000,6.598373046875,1.2329869669735432,0.9188537975400686,0.13101561313718557
1774470354000390100,6.60839013671875,1.3381973999857901,1.0584808794170617,0.19687866288423536
1774470354010406100,6.61840625,1.0982938343673945,1.594898955669999,0.24094576814770696
1774470354020423200,6.628423095703125,0.31680326542556286,1.568225468277931,-0.03748465813323855
1774470354030439200,6.638439208984375,0.45908290763795373,0.010134440523386001,0.6027982817418873
1774470354040456000,6.6484560546875,0.095885555306077,1.8010282619804143,1.507974705454707
1774470354050472000,6.658471923828125,-0.26818215011954305,-0.14465776952058076,-0.05188377036377787
1774470354060488000,6.668488037109375,-0.18988193586468696,0.22894261114299297,0.4586737423151731
1774470354070505200,6.678505126953125,-0.3633008127063513,0.1392389593422413,0.33828926717713476
1774470354080521200,6.688521240234375,-0.9302204102069139,0.6518272471964359,0.3541537757851183
1774470354090538000,6.6985380859375,-1.2565963906198738,0.06160948395580053,-0.6369092256583273
1774470354100554000,6.708553955078125,-0.5994628537088632,-0.5342985998809338,0.0996364322721958
1774470354110571300,6.7185712890625,-0.7817343145698309,0.5034507494136691,0.1670304909788072
1774470354120587000,6.7285869140625,-0.7433259657204151,-1.6603803126230834,0.03271379046961665
1774470354130603000,6.73860302734375,-1.257635086017847,0.7219412323862314,0.8515485861606895
1774470354140620000,6.7486201171875,-1.1553998694241046,-1.7439920772895217,-0.07115180380493402
1774470354150636300,6.75863623046875,-0.6457441278904676,-0.20258856496363878,0.9991763114027679
1774470354160653000,6.768653076171875,-0.49614276448786254,-0.3583826455265283,0.5274059177577495
1774470354170669000,6.7786689453125,-0.36267888141572474,-0.3995025914222002,0.20773849507272243
1774470354180686000,6.78868603515625,-0.35049978332221504,-0.23790099362432957,0.21301190543100237
1774470354190702000,6.7987021484375,-0.7197837620913982,-0.604649900957942,0.05781403719559312
1774470354200719000,6.808718994140625,-0.8901847524166107,-1.000676632963121,0.19455328867658972
1774470354210735000,6.818735107421875,-0.7097744092524051,-2.2800325524017215,-0.01977861331179738
1774470354220751000,6.828751220703125,-1.1573580177545546,-1.8917954513594506,-0.5524199475049972
1774470354230768000,6.83876806640625,-2.1870283977508542,0.5435290773019195,-0.5467230510376393
1774470354240784100,6.8487841796875,-1.9741221446514128,0.02621463770866394,-0.026614889072626827
1774470354250801200,6.85880126953125,0.018342881420254708,-0.5489709760949015,0.1763055381938815
1774470354260817200,6.868817138671875,0.23706804993152616,1.6317337715923785,0.8751569868937135
1774470354270834200,6.878834228515625,-0.415208110076189,2.9688685107827184,1.719953614576161
1774470354280850200,6.88885009765625,-0.3024661125153303,-0.10409750333428382,-0.0031812603846192358
1774470354290867200,6.8988671875,-0.8305787172377109,0.4441197317838669,0.5554731975957751
1774470354300883000,6.908883056640625,-0.5143927069276572,0.7227186464995146,0.4821212533980608
1774470354310899000,6.91889892578125,0.031878654819726945,0.4868675711423158,0.20486556998491287
1774470354320916200,6.928916259765625,0.45561669283211226,0.6136603058874607,0.3076226184956729
1774470354330932200,6.93893212890625,1.2288503055602311,0.4609826037794351,0.46784562141671776
1774470354340949000,6.948948974609375,1.724737049460411,0.6739034699261188,0.31842429075613615
1774470354350965000,6.958965087890625,1.4619243174195289,1.0732640225291252,-0.09077157329320908
1774470354360982300,6.968982177734375,0.798957252049446,1.6558108127504587,-0.3821766319595277
1774470354370998300,6.978998291015625,0.7292927641928195,1.9829215371787547,-0.5425093788653612
1774470354381014000,6.989013916015625,0.9156775055915116,1.7613222745358943,-0.47060909478068347
1774470354391031000,6.999031005859375,0.9545523029088974,2.1711977914124727,-0.017557868522405623
1774470354401047000,7.009047119140625,0.7976450004070996,2.652517665299773,0.736379945974797
1774470354411064000,7.01906396484375,1.0252128160655498,3.563144317242503,1.242361382909864
1774470354421080000,7.029080078125,1.3789303923904894,4.192451105073094,1.0973264506399631
1774470354431097000,7.03909716796875,0.9631307461619376,3.74237684879899,0.32676220325157046
1774470354441113000,7.049113037109375,0.2576139943540096,3.512162318024039,0.10222338002547621
1774470354451130000,7.059130126953125,0.2740314606696367,2.977878038929403,0.037541502887010574
1774470354461146000,7.06914599609375,-0.9237848242014646,2.760036959776282,-1.116366666674614
1774470354471162000,7.079162109375,-1.4795739558786154,3.5813843228101727,-2.293757710893452
1774470354481179000,7.089178955078125,-1.3154063069850206,3.517591649596393,-2.7240783421665427
1774470354491195100,7.099195068359375,-1.7437801881045103,2.4094600195646283,-4.165246287283301
1774470354501212200,7.109212158203125,-2.320502217695117,1.378155316364765,-4.840615153586864
1774470354511228200,7.119228271484375,-2.2185148383826014,0.7332689743474126,-4.812192484439909
1774470354521245000,7.129244873046875,-2.48030874876976,0.10598784712553024,-4.668272381544113
1774470354531261200,7.13926123046875,-1.7578490454673765,0.1624047308743,-4.6186026339679955
1774470354541278200,7.1492783203125,-0.41237317891120906,0.8700862595006823,-4.003996863923967
1774470354551294200,7.159294189453125,0.5243500373184681,2.544583944803476,-1.7953602993465958
1774470354561310000,7.16931005859375,1.0350070648491383,2.831696420842409,-0.6397644689589739
1774470354571327200,7.1793271484375,0.13184066578447817,1.9389929636031389,-1.5564173954539
1774470354581343200,7.18934326171875,-0.9462567682504653,2.2792264967158435,-2.304344717489928
1774470354591360000,7.199360107421875,-1.5947902345985174,2.1295558674693105,-2.764817179790139
1774470354601376000,7.2093759765625,-0.7782482260197401,1.6585279627546667,-2.6717238855510947
1774470354611393300,7.219393310546875,-0.13747136514782904,1.241461949852109,-2.376338378946483
1774470354621409300,7.2294091796875,0.12457973487079142,0.40265316440761084,-2.0628829626441
1774470354631426000,7.239426025390625,0.37947044174075123,-0.017202186952531336,-1.3915833916060625
1774470354641442000,7.249442138671875,0.22974574421942232,-0.722650549699366,-0.575533404327929
1774470354651459300,7.259459228515625,0.34966800867319103,-1.4458631171956657,0.4308249275334179
1774470354661475000,7.26947509765625,0.7455395501166582,-2.2577289506569502,1.3471416078113019
1774470354671491000,7.279490966796875,1.2880576968103647,-2.2812840137675403,1.5404866897419094
1774470354681508000,7.289508056640625,2.3300796088576314,-2.4215277662381527,1.5570470716595648
1774470354691524000,7.299524169921875,2.7931583081334828,-2.354349542239308,1.7986945583358407
1774470354701541000,7.309541015625,1.4306418749272822,-2.0122133903756736,2.2661131865121424
1774470354711557000,7.31955712890625,-0.8642974469661712,-1.6573907754182815,1.7773051488265394
1774470354721574100,7.32957421875,-2.7419869238227603,-1.225193536618352,1.3281851245373486
1774470354731590100,7.339590087890625,-3.0058827749252317,-1.1256269547119735,1.5446899866506456
1774470354741607200,7.349607177734375,-2.1672253806501627,-1.209467559698224,2.010087045871466
1774470354751623200,7.359623046875,-1.6645412316948174,-1.214941314934194,2.2076712266765535
1774470354761640200,7.36964013671875,-1.9002257183134554,-1.3269482762187719,2.230284478892386
1774470354771656000,7.379656005859375,-2.5193963120549916,-1.3800795624256132,2.29420896179229
1774470354781673200,7.389673095703125,-2.491664840042591,-0.9604907530471682,2.5022774194717408
1774470354791689200,7.399689208984375,-1.887242318099737,-0.367743763589859,2.7721587747246024
1774470354801705200,7.409705322265625,-2.16670807877779,-0.5683405702143908,2.093827551484108
1774470354811722000,7.419721923828125,-2.400924830931425,-0.7442875042289495,0.9636264207243919
1774470354821738000,7.429738037109375,-2.4470512068122625,-0.038867198532819745,0.051007572051137685
1774470354831755300,7.43975537109375,-2.0703478916972875,0.3750374277293682,-1.1473618166580795
1774470354841771000,7.44977099609375,-1.316338034877181,0.4040142236277461,-1.7690674818351864
1774470354851788000,7.4597880859375,-1.7092419586867094,0.5321136570572853,-2.1696014621317383
1774470354861804000,7.469803955078125,-2.624378781530261,0.26355828971117734,-2.4773814631462097
1774470354871821000,7.479821044921875,-2.657035434985161,-0.2613058346092701,-2.2312641375795006
1774470354881837000,7.489837158203125,-1.6606196743369102,-0.48812926164120435,-1.6112465716198086
1774470354891854000,7.49985400390625,-0.5546054748505354,-0.49395343775004147,-1.3852309538394212
1774470354901870600,7.50987060546875,0.3746095577061176,-0.39461218903213735,-1.6118004061102866
1774470354911887600,7.5198876953125,1.063859065324068,-0.34407296514511104,-1.816969050695002
1774470354921903600,7.529903564453125,0.8811211559951305,0.032062194693088526,-1.5219859874114394
1774470354931919600,7.539919677734375,0.3164133893251419,0.13378390880674124,-1.2506303218223154
1774470354941936400,7.549936279296875,0.3225204740285873,-0.44908115358352657,-1.3467599150173366
1774470354951952400,7.559952392578125,0.17615736189484596,-0.7472130362868309,-0.8926062804751098
1774470354961969700,7.5699697265625,0.14113047217726707,-0.9855389773249625,0.024000761051476
1774470354971985700,7.579985595703125,1.0009756159096956,-0.5749746014013886,0.653519584197551
1774470354982002400,7.59000244140625,1.997572578343749,-1.306041389529407,1.2023879036355762
1774470354992018400,7.600018310546875,2.3334458704203365,-1.452265385453403,1.877631901450455
1774470355002035700,7.61003564453125,2.6007237651765345,-1.596348277695477,2.2564764663778245
1774470355012051500,7.620051513671875,2.436175592532754,-1.2669818832948803,2.4556316958919164
1774470355022068500,7.630068359375,1.1258037725836039,-1.109387475311756,1.958515702457726
1774470355032084500,7.64008447265625,0.9276713102459907,-1.1051917771875857,1.2749319655165074
1774470355042101500,7.6501015625,1.3773545213758944,-0.7673249732062221,1.2818965438321233
1774470355052117500,7.660117431640625,1.76463125295341,-0.052125616295635696,1.3460421221368013
1774470355062134500,7.670134521484375,1.8934937797099352,-0.3619488135755062,0.9881870076157152
1774470355072150500,7.680150634765625,1.89074301969707,-0.027938100500404833,1.2356155619114637
1774470355082167600,7.69016748046875,2.1529069324404,-0.44699353365451094,1.3870114075154065
1774470355092183600,7.70018359375,1.3720780422776937,0.7996466956183313,1.352262604086846
1774470355102200600,7.71020068359375,0.13390578162074088,1.4758789007529616,0.015762071146816013
1774470355112216600,7.720216552734375,-1.6173475188434123,1.123421553622186,-1.7385682986751199
1774470355122233600,7.730233642578125,-3.8638872592270372,0.9172904937461018,-3.281395998585224
1774470355132249600,7.74024951171875,-4.90686837169528,1.0204767274543642,-2.6067881797820327
1774470355142266600,7.7502666015625,-4.3369554375976325,0.809759508831799,-1.7907994211718439
1774470355152282400,7.760282470703125,-3.9058272893339394,0.4473725960999727,-1.0317980396747588
1774470355162299600,7.770299560546875,-2.8398861570388076,0.07999912712723016,-0.263729043168202
1774470355172315600,7.780315673828125,-1.4885767620235681,-0.3304278861522674,-0.0043454087931662794
1774470355182331600,7.79033154296875,-0.45459553309082984,-0.10315934570133685,0.054125557941198346
1774470355192348400,7.800348388671875,-0.6595850217163562,0.2012473794877529,-0.3882357858680188
1774470355202364400,7.810364501953125,-0.9984481432586908,0.9549375028342008,-0.5733256651505828
1774470355212381700,7.820381591796875,-1.1038695886731147,1.217412673483789,-0.499883120059967
1774470355222397400,7.8303974609375,-1.104697271668911,1.9214368486464022,-0.4165514875091612
1774470355232414500,7.84041455078125,-0.9272551306605339,2.2391434926524756,-0.8245664712108671
1774470355242430500,7.850430419921875,-0.2908627684831619,2.0624001475632188,-0.28565467844605447
1774470355252447500,7.860447509765625,0.21836744111478326,2.195166696020961,0.02477496029436588
1774470355262463500,7.87046337890625,0.7733131077051162,2.143072351646423,-0.03251885241940617
1774470355272480500,7.88048046875,0.9322060310661793,2.0261936926722526,0.16653072476312517
1774470355282496500,7.89049658203125,1.171785187035799,1.2030214522987603,0.3820417535334825
1774470355292513500,7.900513427734375,1.1226643055140972,0.9612690439432859,-0.07450184488520026
1774470355302529500,7.910529541015625,1.0494739816188812,1.1415899552583695,-0.8601623929880559
1774470355312546600,7.920546630859375,1.1109399654507637,0.34215047264993187,-0.5698446911670267
1774470355322562600,7.9305625,0.2842746222645044,0.20672785672545432,-0.30301570922210813
1774470355332579600,7.94057958984375,0.5575462044775485,-0.18325404215753077,-0.04602715329006314
1774470355342595600,7.950595703125,2.762753232997656,-1.0292974550306797,1.6340464324489234
1774470355352612600,7.960612548828125,3.789566469997167,-1.803475655132532,2.2160842502348124
1774470355362628400,7.97062841796875,2.116099004524946,-2.2146879735708236,0.5381674041382968
1774470355372645600,7.980645751953125,1.2814818255513907,-1.9108423893958328,0.7038637239038944
1774470355382661600,7.99066162109375,1.315357207146287,-1.8239315831840037,1.4048798032917083
1774470355392678400,8.000678466796876,3.1282366504400967,-2.6190882739067076,2.657148539970815
1774470355402694400,8.0106943359375,3.723467565667629,-3.130606302180886,2.4886124667346476
1774470355412711700,8.020711669921875,4.071311866044998,-2.6791712789475914,1.6033360907562075
1774470355422727700,8.030727783203124,2.673349440926313,-1.2520873887628317,-0.014224924707412719
1774470355432744400,8.040744384765626,0.26690906144380566,0.18598668199181556,-0.4993498899661004
1774470355442760400,8.050760498046875,-1.0016349566012621,-0.08775777842998504,0.11911796233355998
1774470355452777700,8.06077783203125,-2.0390110886693,0.29553134481608867,-0.06837123317569493
1774470355462793500,8.07079345703125,0.12478665561974048,0.06228782160878181,0.40458033307790753
1774470355472810500,8.080810546875,1.3963175805211065,0.6094003103554249,-0.6534469573527574
1774470355482826500,8.090826416015625,3.9002538731157776,0.5892050790667533,0.009486498008668421
1774470355492843500,8.100843505859375,4.481192059096694,0.15669979723095892,0.5594127290017903
1774470355502859500,8.110859619140625,3.615526246386766,-0.013876549661159514,0.6070977325014769
1774470355512876500,8.12087646484375,2.6324457681298252,0.025698504880070683,1.2885739757694303
1774470355522892500,8.130892578125,1.0729904662847518,-0.0872059897661209,1.0669712059952319
1774470355532909600,8.14090966796875,0.6628256110727787,-0.14596680629253386,0.9102253776654601
1774470355542925600,8.150925537109375,-1.8945020799696444,0.20473405255973337,0.804885326924175
1774470355552942600,8.160942626953124,-5.35142883298397,0.7877285865485668,2.0956139965094627
1774470355562958600,8.17095849609375,-3.5129806486696005,-0.4628407988667488,3.1396301511138676
1774470355572975600,8.1809755859375,1.263081076464057,-1.9820096830308436,1.5927341788515448
1774470355582991600,8.19099169921875,2.3020769186884165,-1.6992635855078697,3.0155846692502495
1774470355593008600,8.201008544921875,1.1381541355907916,-1.9353940623283385,2.584741767668724
1774470355603024400,8.2110244140625,0.06932020446360111,-1.8585685968011616,2.1489576102927326
1774470355613041700,8.221041748046876,-0.3577133679628372,-1.466935423579812,1.5494751751005649
1774470355623057700,8.2310576171875,-0.027072715842723846,-1.1410305678099393,0.8777773985251783
1774470355633074400,8.241074462890625,0.6080453886151314,-0.9200520674139261,0.6703538876857608
1774470355643090400,8.25109033203125,0.6380477281689644,-1.0432534996688365,0.16886720488667487
1774470355653107700,8.261107666015626,0.7176409048438072,-1.2682634475380181,-0.10817348406892269
1774470355663124500,8.27112451171875,0.7454992181062698,-1.4025661195218562,-0.255014844706282
1774470355673140500,8.281140380859375,0.6104086106151342,-1.363363989946246,-0.24532679624352602
1774470355683157500,8.291157470703125,0.9046826488465071,-1.1564613611757755,-0.01625340746087022
1774470355693173800,8.301173828125,1.2358780122399329,-1.0190005174219607,0.2512247682409361
1774470355703190500,8.3111904296875,1.512972952133417,-0.9579372691720723,0.40426432593129574
1774470355713206500,8.32120654296875,1.8181950853586195,-1.04580201510787,0.2827799267273396
1774470355723223600,8.3312236328125,1.639444784361124,-1.3329223821923135,0.07943528269939124
1774470355733239600,8.341239501953124,1.0790765082001685,-1.1798673712044954,-0.3193472508199513
1774470355743256600,8.351256591796876,0.20964871260821819,-0.3398404421418905,-0.6058953709743916
1774470355753272600,8.3612724609375,-0.4395329885154962,0.20163404071778057,-0.9043130848817527
1774470355763289300,8.371289306640625,-0.7069985147982836,0.3317880685895681,-1.1855422019705175
1774470355773305600,8.3813056640625,-0.4841162266075611,0.46051147913634777,-1.5781741769708693
1774470355783322600,8.391322509765626,-0.269491479152441,0.8116700186282396,-2.0302274782329794
1774470355793338600,8.401338623046875,-0.0018348142117261886,1.2792571352392434,-2.20534117629379
1774470355803355400,8.41135546875,-0.07507716055512428,1.2284426015421748,-2.467830375468731
1774470355813371600,8.42137158203125,-0.8666080619961023,1.442606745748222,-2.7310136943876744
1774470355823388700,8.431388671875,-1.663205014654994,1.6273425508961081,-2.481822952724993
1774470355833404400,8.441404296875,-3.0805303118914362,2.031143131773174,-1.1499163965117185
1774470355843421400,8.45142138671875,-2.6774861023396253,3.023422815530002,-0.4698712454928085
1774470355853437700,8.461437744140625,-2.4312656086593867,5.579490569639206,-1.6040169126272201
1774470355863454500,8.471454345703124,-4.745258590590954,4.353054047222435,-1.4817252886936068
1774470355873470500,8.481470458984376,-4.418828249642253,2.6858447653621433,-2.4461279544875025
1774470355883487500,8.491487548828125,-2.7315912020146844,2.3112732015788553,-2.375481177595258
1774470355893503700,8.501503662109375,-1.556151584124565,1.5880758316516874,-1.9364777659118175
1774470355903519700,8.511519775390624,-2.098843918341398,2.3264371607020498,-2.1726973823204636
1774470355913535700,8.52153564453125,-2.44394096583724,0.4224246173262596,-1.0320552293062208
1774470355923552800,8.531552734375,-3.315989173060655,-1.1899778463304043,1.901115945151448
1774470355933568800,8.54156884765625,-3.4570699608772992,-1.1709937443971634,2.6484654672995207
1774470355943585800,8.551585693359375,-1.603903515380621,-0.30803251447081564,1.7642841930814086
1774470355953601800,8.561601806640626,0.3894856397986412,0.9591700258374214,-0.3124669897869229
1774470355963618800,8.571618896484376,2.0963982787549496,1.2745400435894727,-2.485463647314906
1774470355973635800,8.5816357421875,2.7913720092386005,0.6840531080186366,-1.5414029278039931
1774470355983651800,8.59165185546875,3.9561411800324913,-0.010057868155837058,0.7463033740960061
1774470355993668900,8.6016689453125,2.291217671021819,-1.0499550431340932,1.4988113019205629
1774470356003684900,8.611684814453126,2.4120330849230287,-0.24039222591817377,2.3854992982625958
1774470356013702000,8.621701904296875,2.351481877848506,0.2420078444212675,2.9064433265298604
1774470356023718000,8.6317177734375,1.5636761344105004,0.2887754408150911,3.004358926358819
1774470356033735000,8.64173486328125,2.059793179935217,0.7636562215656042,3.257061767795682
1774470356043750700,8.651750732421876,1.8010984046071767,0.37766602266728877,2.7875176718980073
1774470356053768000,8.661767822265626,1.2930764017552137,-0.27877485580444333,1.710980619047582
1774470356063784000,8.671783935546875,0.7723129907518624,-0.6857897225528955,0.5024572448642924
1774470356073800700,8.68180078125,0.3895037599772215,-0.7460287949383259,-0.28260833302009847
1774470356083816700,8.691816650390624,-0.020779753178358076,-0.8559247554183006,-1.1406602731928228
1774470356093834000,8.701833984375,0.6905623437821865,-1.4760171401798725,-1.584565923834592
1774470356103850000,8.71185009765625,1.8749381323218344,-1.6986135971665381,-1.7748026644863186
1774470356113866800,8.72186669921875,2.714265973204374,-1.8607640610188245,-2.1971527552716434
1774470356123882800,8.7318828125,2.5611107167124745,-2.1875427770137787,-2.3593927971035242
1774470356133899800,8.741899658203126,2.17077342852056,-2.099286401411891,-2.3201278314247724
1774470356143915800,8.751915771484375,3.421038278031349,-2.667749136701226,-3.886474061827361
1774470356153932800,8.761932861328125,1.9306459910184144,-3.050472442758083,-4.65939992378056
1774470356163949800,8.77194970703125,-1.9308283618479967,-2.2634528812617063,-3.023141368240118
1774470356173965600,8.781965576171874,-2.9664871686041354,-2.0253858834207055,-2.4549159488379955
1774470356183982800,8.79198291015625,-3.3531250177562235,-2.7120015354037283,-4.066519955593347
1774470356193998800,8.801998779296875,-3.203636467078328,-3.37487741535902,-5.36500786100328
1774470356204015600,8.812015625,-2.742785965245962,-2.0407108783245085,-3.9603798405155537
1774470356214031600,8.822031494140624,-2.34248433240056,-1.1076023454606532,-2.0563363174796105
1774470356224049000,8.832048828125,-1.571060399442911,-0.9871189399927854,-1.715046261051297
1774470356234065000,8.84206494140625,-0.8256757476270198,-0.8819722198665142,-2.1879589565992354
1774470356244081700,8.85208154296875,1.0891583417534827,-0.971660674098134,-1.92226160903275
1774470356254097700,8.86209765625,2.6586504689663646,-0.6833984435021877,-1.135930322061479
1774470356264115000,8.872114990234374,1.9559931982427834,-0.07281506084203719,0.7519647608585656
1774470356274131000,8.882130859375,1.3602362133145331,0.08842296434044837,0.77950969732292
1774470356284147700,8.892147705078125,1.3464151932328938,-0.2331546758800745,1.4313430089339614
1774470356294163700,8.902163818359375,1.0037234533131123,-0.4173620732396841,1.9933879861354826
1774470356304180700,8.9121806640625,0.6480535738766193,-0.10043372012972832,2.2892045776337384
1774470356314196700,8.92219677734375,0.6018862814635038,-0.1345493402212858,2.4996520394042134
1774470356324213800,8.9322138671875,0.35593934402763844,-0.4265571870863437,2.4983576156795024
1774470356334229800,8.942229736328125,-0.06459902116060257,-0.4256517626792192,2.538871704636514
1774470356344246800,8.952246826171875,-0.2234241399824619,-0.14514379947185516,2.735598391829431
1774470356354263800,8.962263916015624,-0.35894320201873775,-0.23814473925232885,2.9900083294451236
1774470356364279800,8.97227978515625,-0.37778117347955703,-0.27852760304510593,3.126825906859338
1774470356374296800,8.982296875,-0.4374456608474254,-0.3336848421216011,3.294636003908515
1774470356384312800,8.992312744140625,-0.5040156898200512,-0.47711014723777767,3.3313194286614656
1774470356394329900,9.002329833984374,-0.451568294224143,-0.6740946085840464,3.023464024323225
1774470356404345900,9.012345947265626,-0.3614204057872295,-0.8572627260237932,2.5401319338306783
1774470356414363000,9.02236279296875,-0.050860418665409086,-1.1009604232281447,2.238454925866425
1774470356424379000,9.03237890625,0.11193360378742218,-1.6878671622246504,1.899696287611872
1774470356434396000,9.04239599609375,-0.1260883858680725,-1.7303800237834452,1.361985248938948
1774470356444411600,9.05241162109375,-0.19301146606206893,-1.3946207134753466,1.0202911417543887
1774470356454429000,9.062428955078126,-0.08654021933376789,-1.2707967654079197,0.9781944597810506
1774470356464445000,9.07244482421875,0.04311375006139278,-1.052782960036397,0.9374697968132794
1774470356474461700,9.082461669921875,0.1323410165220499,-0.825915986123681,0.8286054444033653
1774470356484477700,9.092477783203124,0.2911287259429693,-0.5577355895698071,0.7171632043294608
1774470356494495000,9.102494873046876,0.5309995583355427,-0.16452070011496542,0.5955979219090193
1774470356504511000,9.112510986328125,0.7700573207795619,0.05497603729069232,0.6863632846571505
1774470356514527700,9.12252783203125,0.6258259599775076,0.36495267156660555,-0.0948182183355093
1774470356524544800,9.132544677734375,-0.2878869675427675,0.30196342369019985,-3.545344456657767
1774470356534561000,9.14256103515625,1.3205997839748858,0.31960604788661,-5.242688472279906
1774470356544577800,9.152577880859376,1.8140110776722431,1.018459250152111,-3.1080747368991375
1774470356554593800,9.16259375,2.7218577435076234,1.635091849848628,-1.4431123571828006
1774470356564610800,9.17261083984375,4.086073381847143,2.0946184096008538,-0.38331031216457484
1774470356574626800,9.182626708984374,1.9119325227200983,1.8363702089965341,-1.1681057678706943
1774470356584643800,9.192643798828126,1.3595336180031299,2.147295522299409,-1.0496449542716144
1774470356594659800,9.202659912109375,2.679496273118257,1.8659014239072798,-1.258434273571521
1774470356604676600,9.212676513671875,2.5481460211992264,2.014804868173599,-1.4983419308431445
1774470356614692900,9.22269287109375,2.489247257506847,2.1397557744443416,-1.1260668074339628
1774470356624710000,9.2327099609375,2.5937545106858013,2.4572955374509093,-0.5356644814066589
1774470356634726000,9.242725830078125,2.2798200786948204,2.8961440508335827,-0.15810761820226907
1774470356644742700,9.25274267578125,1.3298019120842217,2.665423908624053,-0.022311785051226614
1774470356654760000,9.262760009765625,1.0384288559913635,3.1253888597935435,-0.6351259955033659
1774470356664776000,9.27277587890625,1.0750035596728325,4.229443741905689,-0.8712250542722642
1774470356674792700,9.282792724609376,0.5159001888811588,3.9677076991856097,-0.32517785666957494
1774470356684808700,9.29280859375,-0.5691115545868873,3.241196090143919,0.3689535777710378
1774470356694826000,9.302825927734375,-1.3046049269855022,3.0197791983306406,0.06454831388667226
1774470356704841700,9.312841796875,-1.751235180285573,2.6687124287754296,0.14880349102318285
1774470356714858800,9.322858642578124,-1.8182330792814492,2.0591186416745186,0.168068747985363
1774470356724874800,9.332874755859375,-1.637525798997283,1.3514128553897142,0.31371611306518316
1774470356734891800,9.342891845703125,-1.4241490057766437,1.0382155055016278,0.0008536942198872566
1774470356744907800,9.35290771484375,-0.8043915520578623,1.3148375671863555,-0.2792505104921758
1774470356754924800,9.3629248046875,-0.5085363821148872,1.5403730002343654,-0.22204452219232915
1774470356764941600,9.372941650390626,-0.8737538420975208,1.6230886928439139,0.44294557343795893
1774470356774957800,9.382957763671875,-1.637346350777149,1.8416531178355215,0.8422663785524666
1774470356784974800,9.392974853515625,-1.6237737524986267,2.498632340967655,1.2510066077888011
1774470356794990800,9.402990966796875,-0.4537316097378731,2.5190122811734676,1.1810062390413134
1774470356805007600,9.413007568359374,0.2630570621907711,2.2877830203980207,1.0791712007462977
1774470356815023900,9.42302392578125,0.17869769402742386,2.2422733151108023,1.4955258505091071
1774470356825041000,9.433041015625,-0.11784838078916073,1.6419208190858363,1.3095824231371282
1774470356835057000,9.443056884765625,-0.9059376173436641,0.948309024605155,0.8837324344720691
1774470356845073700,9.45307373046875,-0.7938631437808275,-0.14565233351588247,0.7833660804901271
1774470356855090000,9.46308984375,-1.206761223348975,-0.6821095727354287,0.8165310487933456
1774470356865107000,9.47310693359375,-3.4105683219432827,-0.7945487879574299,-0.19277612293623386
1774470356875123700,9.483123779296875,-3.9267771383821963,-1.376853586116433,-0.9915487391337752
1774470356885139700,9.4931396484375,-2.1379320661485193,-1.2531681697368622,-0.8835862309344112
1774470356895156700,9.50315673828125,0.49417234119772907,-1.339171213454008,-0.944337344495207
1774470356905173500,9.513173583984376,2.16389185231328,-0.8794079223364591,-1.9035799971774219
1774470356915190500,9.5231904296875,1.3732406563162802,-0.06525777733027935,-2.1233711874850094
1774470356925206500,9.53320654296875,-1.0269380324229598,-0.08793138143122195,-1.6441671367079018
1774470356935223300,9.543223388671874,-0.6846759160920978,1.0354022016465663,-1.9115793253682554
1774470356945239600,9.553239501953126,1.094674474826455,0.9489327094614505,-0.8667629602968693
1774470356955256600,9.563256591796875,0.7839630965352058,0.40455812124609947,-0.38770116753466427
1774470356965272300,9.573272216796875,0.6629486529305577,0.6769055743515491,-0.8731465238541364
1774470356975289300,9.583289306640625,1.4710241541981697,1.517273864197731,-0.06397267855633981
1774470356985306600,9.593306640625,2.0492156718194483,0.3131272072613239,-0.36243261503707613
1774470356995322400,9.603322265625,0.1610930637538433,0.533611786660552,1.344553491014242
1774470357005339400,9.61333935546875,-0.47514264655709265,-0.4268646456003189,0.9490487370565533
1774470357015355400,9.62335546875,-1.5682935650780796,-0.9186509684443473,1.2951584687262774
1774470357025372400,9.633372314453124,-2.189494495603442,-1.683544622850418,0.9028158320613205
1774470357035388400,9.643388427734376,-3.2406670978337524,-1.9453613295912742,0.6315177418783307
1774470357045405400,9.653405517578125,-3.083043756017089,-1.7640484846293925,0.8755018548086285
1774470357055421400,9.66342138671875,-2.4019343002349136,-1.6498118645966051,1.2693320996828377
1774470357065438500,9.6734384765625,-2.1106746413886546,-1.6592758585125207,1.2044937168084084
1774470357075454500,9.683454345703124,-1.230066695612669,-1.5770038180172443,1.0078754584260283
1774470357085471500,9.693471435546876,-0.4260053984224796,-1.3963935683667659,0.8676758373580873
1774470357095487200,9.7034873046875,0.5308601498648524,-0.8894435786604881,0.7898357879608869
1774470357105504500,9.71350439453125,0.9877356105864047,-0.9547954640150069,0.20357268063016234
1774470357115521500,9.723521484375,-0.3994821331560611,0.04957213242053985,1.2154595666546373
1774470357125537300,9.733537353515626,-0.7535138899967074,0.8293027059525251,2.150993207773566
1774470357135554300,9.74355419921875,-1.4926193154126406,0.7509399478554725,2.194625428751111
1774470357145570600,9.753570556640625,-1.380464470089972,0.4134498682320118,1.824515666682273
1774470357155587300,9.76358740234375,-0.823122263751924,0.3563105154275894,1.0797176556479184
1774470357165603300,9.773603271484374,-0.8669315948620439,0.6316179873824119,0.36861009809561074
1774470357175620400,9.783620361328126,-1.1563827429816127,1.2261433846890926,-0.24035350134298203
1774470357185636600,9.79363671875,-1.3846876407429576,1.8681793057113885,-0.41298970337435603
1774470357195653400,9.8036533203125,-0.8808695193216204,1.803869038364291,-0.6565675735913217
1774470357205669400,9.81366943359375,-0.06406944432854653,1.3105536062568426,-0.31411154212355613
1774470357215686400,9.823686279296876,0.6801750975415111,1.2942249872684477,0.4807585867427289
1774470357225702400,9.833702392578125,1.3509277022212742,0.8918377803206443,0.8929571397393942
1774470357235719400,9.843719482421875,1.850306087629497,0.3728179981142282,1.1580164816632865
1774470357245735400,9.8537353515625,1.651447649104893,-0.4570446798086166,1.3320491064891218
1774470357255752400,9.86375244140625,1.1572644942522048,-1.2158172209858893,1.261268181823194
1774470357265768400,9.8737685546875,0.6974807448685169,-1.0702981584608555,0.6172470783330499
1774470357275785500,9.883785400390625,-0.05970335807353258,-1.4799451272785662,0.43325610020309685
1774470357285802200,9.89380224609375,-2.9051936187297103,-2.520971014025807,-1.005967432847619
1774470357295818200,9.903818359375,-5.206897612452507,-2.111001973646879,-1.5220888632640242
1774470357305835500,9.91383544921875,-5.7973792873263355,-1.3335627259224652,-0.24236674086153506
1774470357315851500,9.9238515625,-3.8685365463376042,-0.41709319317042826,1.2195543616876006
1774470357325868300,9.933868408203125,-1.0477845672272146,0.0963426514238119,1.714400948885083
1774470357335884300,9.94388427734375,1.1058949570208787,-0.6044862348288297,0.42294016563296316
1774470357345901600,9.953901611328124,3.3187545461207626,-1.128957268178463,1.466448224584758
1774470357355917600,9.96391748046875,6.043336746156215,-2.734052039170265,0.39574353114962574
1774470357365934300,9.973934326171875,4.108828234490752,-3.2555233061820266,-1.4840592845991254
1774470357375950300,9.983950439453125,-0.09039090341255068,-1.8694173230737448,-1.1389221973538397
1774470357385967600,9.993967529296874,-2.882211971592903,-0.38302433483004567,-1.0672691660284996
1774470357395983400,10.0039833984375,-3.870135505966842,1.3035451887995004,-0.8316945695251226
1774470357406000400,10.01400048828125,-2.7316403018534183,2.587942609536648,-1.0205506694734097
1774470357416016400,10.024016357421875,-0.8856868564754724,2.7590292440384623,-0.665182403331995
1774470357426033400,10.034033447265625,0.335055838213861,2.0619120717853305,-0.03761515264511108
1774470357436049400,10.04404931640625,0.9055319591522216,1.3413368670552968,0.1782923280969262
1774470357446066400,10.05406640625,0.537222378373146,0.8746271178007126,0.5324146858304739
1774470357456082400,10.06408251953125,0.47633477895110843,-0.12410451857447624,-0.5537172938391566
1774470357466099500,10.074099365234375,-0.012522212442755698,-0.5644301187723875,-0.32579788826406
1774470357476115500,10.084115478515624,-0.5297402059242129,-0.7992845843076706,-0.3521566106185317
1774470357486132500,10.094132568359376,-0.4086383762970566,-0.9458148697018622,-0.5060998026177287
1774470357496148200,10.104148193359375,-0.08875994120985269,-0.8884797020643949,-0.2503334819570184
1774470357506165500,10.11416552734375,-0.08367401624768972,-0.579423689764738,-0.08257803770452737
1774470357516182500,10.1241826171875,-0.23063830914497374,-0.3956669587820768,0.28710487725436684
1774470357526198300,10.1341982421875,-0.3911518194451928,-0.3367038976818323,0.5176581384643912
1774470357536215600,10.144215576171876,-0.028995500598847864,-0.37138065878748894,0.4523898397400975
1774470357546231600,10.1542314453125,0.7770365121424198,-0.6285913330376148,0.7891957364916801
1774470357556248300,10.164248291015625,1.2663204967766999,-0.8315648056656122,1.2947519337520002
1774470357566264300,10.174264404296874,0.7035512969538569,-0.39438568679988384,1.548965764273703
1774470357576281600,10.184281494140626,-0.14140110581219195,0.2900485294908285,1.394026839235425
1774470357586297600,10.194297607421875,-0.6006900574162602,0.5068412686347961,0.9427551898702978
1774470357596314400,10.204314453125,-0.3062076371312141,-0.03074409783184528,0.9874950798287987
1774470357606330400,10.214330322265624,0.38496348619908094,-0.5307113890439271,0.9335013315737247
1774470357616347600,10.22434765625,0.691906159606576,-0.6236024387091398,0.03440145129561424
1774470357626363400,10.23436328125,0.7379013103231787,-0.598497223547101,-0.5987757482275367
1774470357636380400,10.24438037109375,0.4529170784845948,-0.6067156013160944,-1.0229834495782852
1774470357646396400,10.254396484375,-0.11331453675180674,-0.3796674256175756,-1.0774988836199044
1774470357656413400,10.264413330078124,-0.46576311605423687,-0.27267420084178445,-0.9654533438906073
1774470357666429400,10.274429443359375,-0.12254559869468211,-0.2364525483816862,-0.9976236751332879
1774470357676446500,10.284446533203125,-0.64297933935225,0.49603813506960864,-1.3281404086127877
1774470357686462500,10.29446240234375,-1.3201245676785707,1.3084031502246856,-1.328347037100792
1774470357696479200,10.304479248046874,-1.022078901953995,1.5843074190288782,-1.1736974503979085
1774470357706495500,10.31449560546875,-0.310922682954371,1.2952917397171257,-1.1341890313521026
1774470357716512500,10.324512451171875,0.8654831496194004,0.7965706491738558,-0.589395925463736
1774470357726528500,10.334528564453125,1.4268760926529764,0.453545147255063,0.141734867811203
1774470357736545300,10.344545166015624,1.2985901967406273,0.15101239924430845,0.3398646998003125
1774470357746561500,10.3545615234375,0.3511208378300071,0.05821545760333538,0.05181085125803947
1774470357756578600,10.36457861328125,-0.828618523080647,-0.02844634228348732,-0.11460282299667596
1774470357766594300,10.37459423828125,-1.1483598877847194,-0.3121393652677536,-0.22842004857361314
1774470357776611300,10.384611328125,-0.7780483195334672,-0.49697804626822467,-0.4279772830173373
1774470357786627600,10.394627685546874,-0.15082476771771908,-0.4717968432605266,-0.21004092679619787
1774470357796644400,10.404644287109376,-0.04728782087564468,-0.20321371112465858,0.07147562893182038
1774470357806660400,10.414660400390625,-0.3858545898199081,0.06726268741190433,0.21178250976651905
1774470357816677400,10.424677490234375,-0.30116292096227404,0.031929508224129675,0.41195349219441413
1774470357826693600,10.434693603515624,0.14502309570163488,-0.1745569409608841,0.6219871124669909
1774470357836710400,10.44471044921875,0.4348457074820995,-0.30959669504761694,0.5999675883606076
1774470357846726400,10.454726318359375,0.024648119044303893,-0.1513940920382738,0.4323857471093535
1774470357856743400,10.464743408203125,-1.0890151338905096,0.16249708533287047,0.17439765874594448
1774470357866759400,10.474759521484375,-1.8572317952394484,0.44614217752218244,-0.2443728199869394
1774470357876776400,10.4847763671875,-0.6539210046052932,0.4651280330210924,-0.8105176337227225
1774470357886792400,10.49479248046875,0.22300708361417054,0.36112346866726874,-0.0705427319958806
1774470357896809200,10.504809326171875,0.5590884654834867,0.36325755808651444,0.8056964971765875
1774470357906825000,10.514824951171875,1.2930474679216741,0.17633622559309003,1.4507389065384864
1774470357916842200,10.52484228515625,2.194968250839412,-0.031600422400236125,1.6982675602078436
1774470357926858200,10.534858154296876,2.631134977792203,-0.1870043346017599,1.3710314558342098
1774470357936875000,10.544875,2.195968075531721,-0.44735213783383365,0.7660796493202447
1774470357946891000,10.55489111328125,1.036883964636922,-0.72895607958436,0.25719898381233214
1774470357956908300,10.564908203125,-0.36823359293341634,-0.9095061234802008,-0.3418076505616307
1774470357966924300,10.57492431640625,-1.0177084317848086,-0.8741881418615579,-0.818808492206037
1774470357976941000,10.584941162109375,-0.7731409660086035,-0.6046083999037742,-0.6795330002456903
1774470357986957000,10.59495703125,-0.07572451854795217,-0.22854279817044734,-0.565199349579215
1774470357996974300,10.604974365234375,0.8097299904763698,0.14875322214066983,-0.2653814134851098
1774470358006990000,10.614989990234376,1.0926067286416887,0.3048760962665081,0.029734336267411707
1774470358017007000,10.625007080078126,0.3125701579004526,0.36622049954533575,-0.13786416385769842
1774470358027023000,10.635023193359375,-0.8317334402307868,0.3687450495868921,-0.4331020786851644
1774470358037040000,10.6450400390625,-0.9053115943998098,0.27458383385539054,-0.8275532319366932
1774470358047056100,10.65505615234375,-0.5762170026779174,0.2525046885162592,-0.8477502167910337
1774470358057073200,10.6650732421875,-0.15307868412435055,0.10206453620195388,-0.988247944022715
1774470358067089200,10.675089111328125,-0.018339958810806273,0.12731821992397307,-1.2670172468692062
1774470358077106200,10.685106201171875,-0.6275345174610615,0.2728805370688438,-1.5152791832491754
1774470358087122200,10.6951220703125,-1.9430401931673287,0.38118776705265045,-1.6078423161342739
1774470358097139200,10.70513916015625,-2.5128911679446695,0.5812275243163109,-1.3339745215937495
1774470358107155200,10.7151552734375,-1.9958131674557924,0.9417658865720033,-1.4760712084546683
1774470358117172200,10.725172119140625,-1.493551043304801,1.2448270423710346,-1.410248490718007
1774470358127188200,10.735188232421875,-1.4428399699822068,1.3657096762895584,-1.499084419773519
1774470358137205200,10.745205322265624,-1.2033189739406107,1.5286989290535449,-1.418148596318066
1774470358147221000,10.755220947265625,-0.8664718683958053,1.5801993991881609,-1.2264163564115762
1774470358157238300,10.76523828125,0.04905892220139503,1.3208973056167364,-0.8574240540653467
1774470358167254300,10.775254150390625,1.2076944125458597,0.7246329556882382,-0.15454641858935356
1774470358177271000,10.78527099609375,1.1189859092622996,-0.06874912657737732,0.09955489146858452
1774470358187287000,10.795287109375,0.8130226022809743,-0.8667962780445814,0.0861979817673564
1774470358197304300,10.80530419921875,0.7082870933040976,-1.3743290360748768,0.3357698317021131
1774470358207320300,10.8153203125,0.8551660460054874,-1.5361819782853126,0.8980807663634419
1774470358217337000,10.825337158203125,1.623737219880521,-1.4557184485167265,1.61200878816396
1774470358227353000,10.83535302734375,1.7390692339345812,-1.179651682627201,2.10212250162065
1774470358237370400,10.845370361328126,0.7981915283739567,-0.6135270348966121,1.7546639856904744
1774470358247386000,10.85538623046875,-0.5462736998349428,0.05168810166120529,1.0483172127991913
1774470358257403100,10.865403076171875,-0.8160840356782079,0.54407823561728,0.3130330992370844
1774470358267419100,10.875419189453124,0.1694154864192009,0.7645558007538318,0.08299129468053579
1774470358277436200,10.885436279296876,0.6306584947004914,0.6605769553631544,-0.163965696580708
1774470358287452200,10.8954521484375,1.0410311474442482,0.36653555684387684,-0.6378685722097754
1774470358297469200,10.90546923828125,0.2988473374962807,0.12765490453243256,-0.9969275095626712
1774470358307485200,10.915485107421874,-1.0176590396851302,0.05800619876682758,-0.9110036685615778
1774470358317502200,10.925502197265626,-0.647462914507091,0.006655950757861137,-0.6512506163522601
1774470358327518200,10.935518310546875,0.4454074335068464,-0.10819967795610427,0.0356689870133996
1774470358337535200,10.94553515625,0.38526539175510405,-0.23259762651920318,0.6507575721383094
1774470358347551200,10.95555126953125,-0.07494739669561386,-0.2186713924974203,0.7031918159916997
1774470358357568300,10.965568359375,-0.5375765986382961,-0.10893500649332999,0.3338599064275622
1774470358367584300,10.975584228515626,-0.8163102456495165,0.053932081195712085,-0.13326339206397533
1774470358377601000,10.98560107421875,-0.6936372211828827,0.28643267708122727,-0.4244610915899277
1774470358387617000,10.995616943359375,-0.07004325804114342,0.48969548804461954,-0.6304977511808276
1774470358397634300,11.00563427734375,0.6740165749117731,0.3563713057041168,-0.6137468151271342
1774470358407650300,11.015650390625,0.5329460162281989,0.10921323891282081,-0.3616746728092432
1774470358417667000,11.0256669921875,0.04831307227015495,-0.07061842758059501,-0.3379731869652867
1774470358427683000,11.03568310546875,-0.2495870475038886,-0.11304302633404731,-0.4024015277341008
1774470358437700400,11.045700439453125,-0.02381166822016239,0.004022679644823074,-0.1052618709385395
1774470358447716400,11.05571630859375,0.26391952423900367,0.1285410397171974,0.17817454693615437
1774470358457733000,11.065733154296876,0.7568354356348515,0.0799906515598297,0.19612024573236703
1774470358467749000,11.0757490234375,-0.14581658416688442,-0.12179039641320705,0.2397057049587369
1774470358477766400,11.085766357421875,-0.4002729912728071,-0.20180092171728609,-0.11225567534863948
1774470358487782100,11.0957822265625,0.025292262166738508,-0.11299509553909301,-0.1911702221095562
1774470358497799200,11.105799072265626,-0.20356676234602927,0.10775018062293529,-0.06367138492166996
1774470358507815200,11.115815185546875,-0.4533890799105167,0.3268687323659658,-0.12023176879435776
1774470358517832200,11.125832275390625,-0.29263123946040864,0.5038555308222771,-0.19720365705490112
1774470358527848200,11.13584814453125,0.11304857929199934,0.54788288859725,-0.3150800948947668
1774470358537865200,11.145865234375,1.0341983788147568,0.46907238673269747,-0.16284341455250978
1774470358547881200,11.155881103515625,1.3714029194951056,0.22808394848704336,0.2910167900010943
1774470358557898200,11.165898193359375,0.8664160465553402,-0.10233224722743034,0.3877382116094231
1774470358567914200,11.175914306640625,0.047258010259270664,-0.4075719161093235,0.06399667135328053
1774470358577931300,11.18593115234375,-0.26652093890905376,-0.5572106889128685,-0.270787656442821
1774470358587947000,11.195947021484375,-0.17396657385230063,-0.5016273333787917,-0.1946639094442129
1774470358597964300,11.20596435546875,-0.2418181670680642,-0.41495442757606504,0.06353928297460079
1774470358607980300,11.215980224609375,-0.5442021542578935,-0.24122926126420496,-0.11565671596378087
1774470358617997000,11.2259970703125,-0.7000330596998333,0.0628980624616146,-0.486897089497745
1774470358628013000,11.236012939453126,-0.5141568523451686,0.46577042257785795,-0.6395791755199433
1774470358638030300,11.2460302734375,-0.4226785920873284,0.8479986385941505,-0.41099429177343844
1774470358648046300,11.25604638671875,-0.705307785232365,0.9182213448554277,-0.2975450227260589
1774470358658063000,11.26606298828125,-0.9094561468586325,0.7492693842947482,-0.45353930203616616
1774470358668079000,11.2760791015625,-0.9002966888472438,0.5898761101961135,-0.6652633596137165
1774470358678096400,11.286096435546876,-0.7656140776351094,0.588482025489211,-0.5020534498363733
1774470358688112400,11.2961123046875,-0.8924828002259134,0.5356324788331985,-0.3889341433957219
1774470358698129200,11.306129150390625,-1.0663961825862527,0.46632338028550147,-0.4720578322842717
1774470358708145200,11.316145263671874,-1.2039800681978463,0.3536071016877889,-0.5681769040852784
1774470358718162200,11.326162109375,-0.9804892927199601,0.14743454075753687,-0.5701961349532008
1774470358728178200,11.33617822265625,-0.2377121930539608,-0.0666886869162321,-0.3481763088107109
1774470358738195200,11.3461953125,0.7935334734350442,-0.28245617466568945,0.1881181410625577
1774470358748211200,11.356211181640624,1.1281325077921152,-0.5448907210439443,0.5184162633553147
1774470358758228000,11.36622802734375,0.9700076461941003,-0.7903788087964058,0.5743520855888724
1774470358768244200,11.376244140625,0.6703121674358844,-0.9483411733090877,0.5776622330501675
1774470358778261200,11.38626123046875,0.4777776712357998,-0.8939537495613098,0.5187877270162106
1774470358788277200,11.39627734375,0.38928690235614777,-0.6508452504217624,0.40148938132524487
1774470358798294000,11.4062939453125,0.09944880074560641,-0.30802725377380846,0.20887305206060408
1774470358808310300,11.416310302734376,-0.4266939652085304,0.028984686943888664,-0.2167711118340492
1774470358818327300,11.426327392578125,-1.4611121242538094,0.29363690937161446,-0.9206368815645575
1774470358828343000,11.436343017578125,-2.2179420069307088,0.5195335769474506,-1.553665612527728
1774470358838360000,11.446360107421874,-0.37398821093738077,0.7433031693667173,-1.1114023222655056
1774470358848376300,11.456376220703126,0.8705293270930647,1.0613000284910201,0.43187019880264993
1774470358858393000,11.46639306640625,2.214674237306416,0.8555266960114241,0.9504761395111679
1774470358868409000,11.4764091796875,2.147117535383999,0.1666390074431896,0.7405547474414109
1774470358878426000,11.486426025390625,1.3989125654503702,-0.5524217010706662,0.4003539475545287
1774470358888442400,11.4964423828125,1.180464752575755,-1.0616074870049952,0.5372980739578604
1774470358898459100,11.506459228515626,1.1567702809944749,-1.2144476861983537,1.2211334475725888
1774470358908476000,11.516475830078125,0.8130781318604946,-1.1859054823249577,1.377060799126327
1774470358918492000,11.526491943359375,0.06796206785291432,-1.036878119418025,0.8892083085998892
1774470358928509000,11.536509033203124,-0.6737132080510259,-0.7189005495160817,0.08758417542874812
1774470358938525000,11.54652490234375,-0.30145050573199983,-0.10416472335159778,-0.6062716569408774
1774470358948542000,11.5565419921875,-0.5883835335507989,0.5439975715965032,-1.0519830418303608
1774470358958558000,11.566557861328125,-1.594512878961861,1.1817734970867633,-1.3618266973763704
1774470358968575000,11.576574951171875,-2.9985847268715498,1.683134288483858,-2.2708616962134838
1774470358978591000,11.586591064453126,-3.898246624946594,1.946834909275174,-2.157955740262568
1774470358988608000,11.59660791015625,-3.0300857805505395,2.15397076227963,-1.5931798767924308
1774470358998623700,11.606623779296875,-1.4783298010364174,2.0270196221023795,-0.9233893951430916
1774470359008641000,11.61664111328125,-0.29257307953238487,1.6116531065940856,-0.5541261669009924
1774470359018657000,11.626656982421874,0.7613046900033951,0.9060971918195485,-0.1912006172478199
1774470359028673800,11.636673828125,1.0087126399025321,0.039780806246399875,0.1430541337162256
1774470359038689800,11.646689697265625,0.6888949950918555,-0.8524766607910395,0.2018611274719238
1774470359048707000,11.65670703125,0.5103124518766999,-1.3891910896420478,0.36287089685648677
1774470359058723000,11.66672314453125,0.5334615645349026,-1.5271493615239857,0.5931929796591401
1774470359068739800,11.67673974609375,0.7459402398720383,-1.2984312067866324,0.703931528443098
1774470359078755800,11.686755859375,1.5082234195187687,-0.977913889274001,0.5713859292596578
1774470359088773000,11.696773193359375,1.677539244955778,-0.7467851662635803,0.5548711400493979
1774470359098788900,11.706788818359374,1.4328712414145468,-0.5898427924484014,0.36144144857525823
1774470359108806000,11.716805908203124,0.805469994944334,-0.36476211743056774,0.09664426471889019
1774470359118822000,11.72682177734375,0.2124430195018649,-0.0794336021989584,-0.2068649271085858
1774470359128839000,11.7368388671875,-0.26942835078835486,0.17922317920625208,-0.3879655906245112
1774470359138855000,11.74685498046875,-0.4426765472382307,0.4196627513974905,-0.437750489012897
1774470359148872000,11.756871826171874,-0.4970774149894714,0.6082715985864401,-0.3935664793714881
1774470359158888000,11.766887939453126,-0.5248790296286344,0.6542810700893402,-0.5002390938907861
1774470359168905000,11.776905029296875,-0.2849596819192171,0.5867693763524293,-0.4939046301722526
1774470359178921000,11.7869208984375,-0.274709798322618,0.4752192189246416,-0.2678375744655728
1774470359188938000,11.79693798828125,-0.3810924899846315,0.33557050973773,-0.08953121784329414
1774470359198954000,11.8069541015625,-0.2580979784786701,0.2434364159196615,-0.10537351461946963
1774470359208971000,11.816970947265625,-0.12714315561801195,0.1355079561203718,-0.107849549344182
1774470359218987000,11.826987060546875,-0.2126408801615238,-0.04414309310913086,-0.1162307164594531
1774470359229004000,11.837004150390625,-0.23137129959464073,-0.18491876049935815,-0.22354572053551672
1774470359239019800,11.847019775390624,-0.045238194869458674,-0.41797348313629623,-0.25487813964933154
1774470359249037000,11.857037109375,0.3319295228868723,-0.587668955540657,-0.052989831909537315
1774470359259053000,11.867052978515625,0.5101432327896356,-0.7317635382205248,0.1515519129484892
1774470359269069800,11.87706982421875,0.5467597297862172,-0.8140618822008371,0.2951750787243247
1774470359279085800,11.8870859375,0.5180135277733207,-0.7416624164223671,0.3457075806096196
1774470359289103000,11.89710302734375,0.40979631416052575,-0.5528220985651016,0.28770898062735795
1774470359299119000,11.907119140625,0.24681758279055355,-0.2612655025988817,0.288536955884099
1774470359309136000,11.917135986328125,0.23295915330797431,0.049320203486084936,0.1903311409369111
1774470359319151900,11.92715185546875,0.22889526486992834,0.18498773408234118,-0.05557751031517982
1774470359329169200,11.937169189453124,0.17857085277736187,0.012550854015350341,-0.24961452003270387
1774470359339185000,11.947184814453125,0.14618600200116633,-0.23696868121027945,-0.28412410787791015
1774470359349201000,11.957200927734375,0.10613222403228283,-0.3151303637772798,-0.2102557385906577
1774470359359218000,11.967218017578125,0.025157237610220907,-0.20964871260821819,-0.10340922880917787
1774470359369234000,11.97723388671875,-0.21331921781450508,0.03933773865401745,-0.07695435260385275
1774470359379251000,11.9872509765625,-0.42528263710588216,0.25920272485017776,-0.2132557971894741
1774470359389267000,11.997266845703125,-0.7474000832915305,0.421605117636919,-0.31869419373869895
1774470359399284000,12.007283935546875,-0.7126666235625744,0.4961673144072294,-0.4319605074346065
1774470359409300000,12.017300048828124,-0.48448330635428427,0.4375315855652094,-0.42990503620952364
1774470359419317000,12.02731689453125,-0.2330763499468565,0.24058920979499815,-0.28353023363798857
1774470359429333000,12.0373330078125,0.10981558872014284,0.014887772530317306,-0.07761310877352952
1774470359439350000,12.04735009765625,0.25576573613882064,-0.20457740069329738,0.09373889866620301
1774470359449365800,12.05736572265625,0.2966974659860134,-0.30288872184157367,0.10926175422966479
1774470359459383000,12.067383056640624,0.37373715878576036,-0.24937866545021534,0.06401552218422293
1774470359469399000,12.07739892578125,0.3962210855334997,-0.08065992912352085,0.08343275483772158
1774470359479415800,12.087415771484375,0.0611772300183773,0.09131576317250728,0.05813245549499988
1774470359489431800,12.097431884765625,-0.14362024316638708,0.3001402999162674,-0.023878595976531504
1774470359499449000,12.107448974609374,-0.36339842786192894,0.4170651361197233,-0.17947408522740005
1774470359509465000,12.117465087890626,-0.21887743646353483,0.4610445630997419,-0.18130086226314304
1774470359519481900,12.12748193359375,0.029798341414332387,0.4421259276181459,-0.0842449480034411
1774470359529497900,12.137497802734375,-0.3089037443473935,0.31144436874091624,-0.13660320401117204
1774470359539515100,12.14751513671875,-0.4939326872229576,0.23799217903912065,-0.36079409058243034
1774470359549531000,12.15753076171875,-0.262551743017137,0.1910252606809139,-0.3879490778811276
1774470359559548000,12.1675478515625,0.019608079050481318,0.16332652189433575,-0.08073693988248705
1774470359569564000,12.17756396484375,-0.0004033201038837433,0.15445815578401087,0.09161036220490931
1774470359579581000,12.187580810546875,-0.1287678342103958,0.1064689086407423,-0.05944777587726712
1774470359589597000,12.197596923828126,-0.15855623875260352,0.07776070055067538,-0.17535890499353407
1774470359599614000,12.207614013671876,-0.22927491183727977,0.11782499991357326,-0.15638926997706293
1774470359609630000,12.2176298828125,-0.31174101359993217,0.18396540529727934,-0.11543854316845535
1774470359619647000,12.22764697265625,-0.3041714551284909,0.2728331907957792,-0.0915738295868039
1774470359629663000,12.2376630859375,-0.1420920106858015,0.36999826451838014,-0.05699146876633167
1774470359639680000,12.247679931640626,-0.0032639702320098876,0.3678787881463766,-0.012738777802884578
1774470359649696000,12.257696044921875,-0.03766629831045866,0.1954834091335535,-0.028180677084624767
1774470359659713000,12.267713134765625,-0.08160217840969562,0.002508183428645134,-0.0627738515600562
1774470359669729000,12.27772900390625,-0.1973582630947232,-0.11510814217031001,-0.031578795090317725
1774470359679745000,12.2877451171875,-0.1781187250956893,-0.11346329757273196,0.05507540601193905
1774470359689761800,12.29776171875,-0.09665829324424266,-0.09133329882919788,0.15769611479192971
1774470359699779000,12.307779052734375,-0.1517857217043638,-0.0938420667797327,0.18934592929184435
1774470359709795000,12.317795166015625,-0.21596593293100594,-0.07179039396941661,0.09579261632561684
1774470359719811000,12.32781103515625,-0.13177958324700592,-0.01612929702401161,-0.0020367665246129036
1774470359729827800,12.337827880859376,-0.015180325736105442,0.03231938432455063,0.01967033063173294
1774470359739843800,12.34784375,0.04698123914450407,0.029628245544433593,0.015842589037120342
1774470359749861000,12.357861083984375,0.14332418282926082,0.006077858608961105,-0.0369368149921298
1774470359759876900,12.367876953125,0.20270166994929312,-0.08559621648192405,-0.11959376315176486
1774470359769894000,12.377893798828126,0.1964177673742175,-0.2410579963505268,-0.23391396981477736
1774470359779910000,12.387909912109375,0.12176993814706802,-0.3911965353697538,-0.21478636775761842
1774470359789927000,12.397927001953125,0.049232525202631945,-0.46360418445467944,-0.09767302324473857
1774470359799943000,12.40794287109375,0.1670487572878599,-0.47318683631420133,-0.0006406359910964965
1774470359809960000,12.4179599609375,0.4855307695806026,-0.3881108443140983,0.0669876698628068
1774470359819976000,12.427975830078125,0.7399649648547172,-0.19497955126464367,0.15695903268903494
1774470359829993000,12.437992919921875,0.886153889465332,0.05229951155781746,0.2815837757453322
1774470359840009000,12.448009033203125,0.7760039542242885,0.1869739394634962,0.31285335875600573
1774470359850026000,12.45802587890625,0.454311747713387,0.16793956864774226,0.11403554450273513
1774470359860042000,12.4680419921875,0.16532061832100153,0.10861819562911987,-0.11840835275948047
1774470359870059000,12.47805908203125,-0.15896131242215633,0.0031441432446241376,-0.2624915372624993
1774470359880075000,12.488074951171875,-0.2745692208081484,-0.06349193670153618,-0.2998918781131506
1774470359890091800,12.498091796875,-0.29448914228677747,-0.08789747916162013,-0.2633963771477342
1774470359900107800,12.508107666015626,-0.37676878156661986,-0.09550327799022197,-0.18429332207739352
1774470359910124300,12.518124267578125,-0.4726350476503372,-0.07909867115616798,-0.19138240355551242
1774470359920140300,12.528140380859375,-0.7397907773315906,-0.10318740275204182,-0.24837708719223736
1774470359930157300,12.5381572265625,-1.0452341520920396,-0.18616437664628027,-0.3424789739519358
1774470359940173300,12.54817333984375,-1.221058628770709,-0.17098551221489905,-0.3786187933474779
1774470359950190300,12.5581904296875,-0.9322077846318483,0.07517477571070194,-0.25554040295034647
1774470359960206300,12.568206298828125,-0.5287763293281197,0.3916723361879587,-0.09198796334564685
1774470359970223400,12.578223388671875,-0.2822092141672969,0.5920820958077907,-0.113239425688982
1774470359980239400,12.5882392578125,0.02743102776110172,0.6825672533750534,-0.18364362599700687
