time,seconds_elapsed,z,y,x
1773256914103116000,0.082115966796875,-0.03601297814548016,-0.1472138837441802,-0.060974035596475004
1773256914113142000,0.09214208984375,-0.16390169143378733,-0.2377041558779776,-0.03751013963436708
1773256914123168000,0.10216796875,-0.19695698881745338,-0.238819569773972,-0.012894205826614052
1773256914133194000,0.112194091796875,-0.0664881959080696,-0.14360314590111373,-0.018765070621389896
1773256914143220000,0.122219970703125,0.08280395541489124,0.009192921889573335,-0.028221392687503247
1773256914153246000,0.132245849609375,0.17095453255474566,0.12787468476295472,0.00022005422515794634
1773256914163272200,0.142272216796875,0.19590251132845876,0.14265592817887662,0.030290125252958384
1773256914173298200,0.152298095703125,0.16084814908206463,0.0931919323079288,0.022267452719155697
1773256914183324200,0.16232421875,0.06396423038840293,0.0414355877161026,0.022632103046774862
1773256914193350100,0.17235009765625,-0.01270166066288948,-0.007843260846287012,0.024072730309143663
1773256914203376000,0.182376220703125,-0.035437808606028555,-0.06153729550242424,-0.012678718178719281
1773256914213402000,0.192402099609375,-0.01673719978928566,-0.09436360643580555,-0.04363837672369554
1773256914223428000,0.202427978515625,0.009379238241910934,-0.1041162080347538,-0.03583343859380111
1773256914233454000,0.2124541015625,0.026023499050736427,-0.056920887748152016,-0.027746523451060056
1773256914243480000,0.22247998046875,0.049748658031225204,0.041208062570542096,0.01651667064009234
1773256914253506000,0.232506103515625,0.0824918207257986,0.05735474912077188,0.026614359349664298
1773256914263532000,0.242531982421875,0.08724573725461959,0.04447437089011073,0.005237590126227587
1773256914273558000,0.25255810546875,0.08718845410943031,0.027923341322690247,-0.012981171724013984
1773256914283584000,0.262583984375,0.0466466003626585,-0.014222878880798815,-0.015008932958263903
1773256914293610000,0.27260986328125,-0.0034703064590692516,-0.03756634506732225,-0.00956871466571465
1773256914303636000,0.282635986328125,-0.010433131209015846,-0.052811698863655325,-0.007649637970328331
1773256914313662000,0.292661865234375,-0.005020458510518073,-0.04246814563423395,-0.013711915417667477
1773256914323688000,0.30268798828125,0.037517537489533424,-0.015679799690842627,-0.0031156660688109695
1773256914333714000,0.3127138671875,0.06250935540497303,0.019051906472444532,-0.0040460970530286425
1773256914343740000,0.322739990234375,0.07451251240968704,0.029884266132116317,0.0031688027618452905
1773256914353766000,0.332765869140625,0.06041793608367443,0.02637713479399681,0.005053977187629789
1773256914363792000,0.3427919921875,0.04017828113138675,0.010258797555416822,0.0033300212055444715
1773256914373817900,0.35281787109375,0.020012860459089277,0.001408551623672247,-0.010370258573256432
1773256914383844000,0.362843994140625,0.02636193722486496,-0.005562164171785116,-0.010540591905172914
1773256914393870000,0.3728701171875,0.030556466305255887,-0.014837065256386995,-0.0064217584094963965
1773256914403896000,0.38289599609375,0.030144378373026845,-0.013326222302019596,-0.014876228222995995
1773256914413922000,0.392922119140625,0.030443653580546376,0.0005785305403172969,-0.007693805905617773
1773256914423948000,0.402947998046875,0.04057400245070457,0.019322247846424577,-0.0041850123333744705
1773256914433974000,0.41297412109375,0.049558103895187375,0.016544161435216663,-0.002271525128558278
1773256914444000000,0.423,0.05202946244478225,0.016493308030813933,-0.001197155629005283
1773256914454026000,0.43302587890625,0.05627192232012748,0.006565203734487295,-0.007616868211887776
1773256914464052000,0.443052001953125,0.05022679693698883,0.004365647863596678,-0.0037045536063611507
1773256914474081800,0.453081787109375,0.03204290547072887,-0.007998889799416065,-0.004085442682728171
1773256914484107800,0.463107666015625,0.027416414713859555,-0.007009294240176677,-0.004067085042130202
1773256914494133800,0.4731337890625,0.027782909938693045,-0.011490969698876141,0.008197298448346555
1773256914504159700,0.48315966796875,0.04171498917937279,0.00012274959683418273,0.0042371443794108924
1773256914514185700,0.493185791015625,0.0578267505466938,0.010651742395758628,0.0047652051078155636
1773256914524212000,0.5032119140625,0.054853287693858145,0.0047639995314180845,0.004800568682141602
1773256914534238000,0.513238037109375,0.05050912100970745,0.014429653499275445,-0.003686451694089919
1773256914544264000,0.523263916015625,0.042079730838537215,0.005791296752542257,0.0013972082457505166
1773256914554290000,0.5332900390625,0.040406244668364524,-0.0030165713422000404,-0.0015756152862682938
1773256914564316000,0.54331591796875,0.038355741879343985,-0.0045199616424739355,-0.0016895057232119142
1773256914574342000,0.553341796875,0.03820610427558422,-0.0021340894192457198,-0.002816025535110384
1773256914584367900,0.563367919921875,0.030031565648317337,0.0079025898180902,-0.006977547395043074
1773256914594393900,0.573393798828125,0.03930442090630531,0.010913900463283062,-0.0030933811717666682
1773256914604419600,0.583419677734375,0.04380348589122295,0.00926890973523259,0.0024858985316008326
1773256914614445600,0.593445556640625,0.05271101496815681,0.01838233664780855,0.005756408102251589
1773256914624471600,0.603471435546875,0.041626141852140426,0.021447861698269843,0.0034080183451995253
1773256914634497800,0.613497802734375,0.037814474609494206,0.013288082248717546,-0.0023672223216854036
1773256914644523800,0.623523681640625,0.03895253872871399,0.007606675611436366,-0.005632836521510034
1773256914654549800,0.6335498046875,0.02953822917342186,0.008971972615271806,-0.007094250843580812
1773256914664575700,0.64357568359375,0.04130699290037155,0.002500584644079208,0.0006211823719553649
1773256914674601000,0.65360107421875,0.03636953649818897,0.0027335166171193123,-0.004197817016020417
1773256914684627000,0.663626953125,0.03976385511159897,0.008524374978244304,-0.0070184273947030305
1773256914694652700,0.673652587890625,0.044994156980514524,0.013808306730538606,0.0009903992768377065
1773256914704678700,0.6836787109375,0.04014554790556431,0.014335691605508327,0.006597991759236902
1773256914714704600,0.69370458984375,0.043884734433889384,0.00973404302895069,0.004375603002030402
1773256914724730600,0.703730712890625,0.04141512944996357,0.003311316505074501,-0.00037668782528489826
1773256914734756600,0.713756591796875,0.033464462706446645,0.006604366701096296,-0.0023501433227211235
1773256914744782600,0.723782470703125,0.03506839077174664,0.004418108703196049,-0.004564111311454326
1773256914754808600,0.73380859375,0.03553133210837841,0.002691869432479143,-0.0132729212122038
1773256914764834800,0.743834716796875,0.04805120646357536,0.008598170866817235,0.0003987169940024614
1773256914774860800,0.75386083984375,0.030168343770503998,0.010996756441146135,0.004757277529686689
1773256914784886800,0.76388671875,0.029781974801421165,0.002532002695649862,0.0019093042200431227
1773256914794912800,0.773912841796875,0.044157706156373024,0.008132599181681872,-0.001395820006262511
1773256914804938800,0.783938720703125,0.033173955327272416,0.011166267789155243,-0.0037136136956512924
1773256914814964700,0.79396484375,0.03822656254172325,0.007760112607479095,-0.007480765943136066
1773256914824990700,0.80399072265625,0.03445347374379635,-0.0043399289004504675,-0.007049352255929261
1773256914835016700,0.8140166015625,0.04311433458328247,0.007473404620587825,-0.003922214945033193
1773256914845042700,0.824042724609375,0.04255611617863178,-0.0005557341866195202,-0.002768624463118613
1773256914855068700,0.834068603515625,0.038134792605042454,0.0062111295998096465,-0.004114504380431026
1773256914865094700,0.8440947265625,0.04803717793822288,0.005889350299537181,-0.0011805150214582681
1773256914875121000,0.854120849609375,0.04248421998620033,0.00998611809387803,-0.0016615034714341163
1773256914885147000,0.86414697265625,0.04053308591842651,0.007490648016333579,-0.0075448258889839045
1773256914895172900,0.8741728515625,0.04128887272179126,0.007913695733994246,-0.004600607396941632
1773256914905198800,0.88419873046875,0.03764204065203666,0.003135667677223682,-0.00722702864408493
1773256914915224800,0.894224853515625,0.0346428588360548,0.003481850766390562,-0.003413662634696811
1773256914925250800,0.904250732421875,0.04690729712545871,0.0018583412177860736,-0.005421988516114652
1773256914935276800,0.91427685546875,0.03753448862433433,0.0020005261674523353,-0.0020576449158601464
1773256914945302800,0.924302734375,0.032787001836299894,-0.005440583618730306,-0.006181958304252475
1773256914955328800,0.934328857421875,0.048237084424495695,0.0003371229998767376,-0.008317034104187042
1773256914965354800,0.944354736328125,0.038653263521194456,0.00458513583317399,-0.004148954639304429
1773256914975380700,0.954380615234375,0.04207096301019191,0.010566109938919543,-0.0021199512960389257
1773256914985407000,0.964406982421875,0.036168460968136786,0.009882365458458662,-0.009263849967624992
1773256914995433000,0.974432861328125,0.0500625462859869,0.0016221943743526934,-0.002374437513761222
1773256915005459000,0.984458984375,0.03910217633247375,-0.003995060985535383,-0.0006037197805009781
1773256915015485000,0.99448486328125,0.0334229616522789,0.006296908187121152,-0.008525708418805152
1773256915025511000,1.004510986328125,0.038653263521194456,0.00915434344485402,-0.005520571786072105
1773256915035536600,1.01453662109375,0.04268704908192158,0.0071019409596920005,-0.0062205002163536844
1773256915045562600,1.024562744140625,0.043158758246898646,0.009821575181931257,-0.0030745851397514343
1773256915055588600,1.034588623046875,0.03448269983828067,0.010550912369787693,-0.0007083126661367714
1773256915065614600,1.044614501953125,0.03583352992534637,0.007123276008665561,0.000413768432661891
1773256915075640600,1.054640625,0.033847909066081046,0.004467646933346986,-0.0009755853001959621
1773256915085666600,1.06466650390625,0.03982289182245731,0.006619418139755725,-0.008312175265979022
1773256915095692800,1.07469287109375,0.03432370988428592,0.007320698276907205,-0.006475169097166508
1773256915105718800,1.08471875,0.042294834893941875,0.007408814951777458,0.006883640300203114
1773256915115744800,1.094744873046875,0.03228665109872818,-0.002110562413185835,-0.0032639702320098876
1773256915125770800,1.104770751953125,0.035920623686909674,0.0011051847629249096,-0.005038523890171199
1773256915135796700,1.114796630859375,0.038627544558048246,-0.0025743805326521397,-0.0075393094636499874
1773256915145822700,1.12482275390625,0.04490238704383373,0.0010552081413567065,-0.00314699278883636
1773256915155848700,1.1348486328125,0.048074002817273136,-0.0007524258024990558,-0.0034710188451223074
1773256915165874700,1.144874755859375,0.04044423859119415,0.0034571547165513036,-0.013620273345150053
1773256915175900700,1.154900634765625,0.0361024099946022,0.006598229221254586,-0.002632394330203533
1773256915185926700,1.1649267578125,0.034630583876371385,0.008376052548736333,-0.004179934299457818
1773256915195953000,1.174952880859375,0.03655482993721962,0.0053441375069320195,-0.010040442097000777
1773256915205979000,1.184978759765625,0.03519932367503643,0.0008884732723236083,-0.003229994897171855
1773256915216004900,1.1950048828125,0.041185996869206425,0.005410042349994182,-0.00060454176440835
1773256915226030800,1.20503076171875,0.05180266795158386,0.005160451503098011,-0.0057976351617835455
1773256915236056800,1.215056884765625,0.0413309582978487,0.0024395021066069603,-0.008417864130157977
1773256915246082800,1.225082763671875,0.036842999228835105,0.00903714680597186,-0.007836502311937511
1773256915256108800,1.23510888671875,0.03656301324367523,-0.0004962590843439102,-0.001423803991731256
1773256915266134800,1.245134765625,0.034032033461332316,-0.0038543373405933376,-0.007979783240146934
1773256915276160800,1.255160888671875,0.0327039997279644,0.003389788568764925,-0.0007158018528483807
1773256915286186800,1.265186767578125,0.039434184765815734,0.0033877427421510216,-0.01311718266122043
1773256915296212700,1.275212646484375,0.04465747237205505,0.0052488604389131065,-0.009892156200110911
1773256915306239000,1.285239013671875,0.04408113378882408,0.00421133408471942,-0.0061231955880299204
1773256915316265000,1.295264892578125,0.04497252967059612,0.0036401100680232045,-0.003181607444491237
1773256915326291000,1.305291015625,0.03809679868221283,0.005089724354445934,0.0015676877081394194
1773256915336317000,1.31531689453125,0.03990297132134437,0.002646861246973276,-0.005550802527554333
1773256915346343000,1.325343017578125,0.043158173725008964,-0.0013153203822672366,-0.006863346430845558
1773256915356369000,1.335368896484375,0.034949732828140255,0.004533844037353992,-0.003701904991548508
1773256915366395000,1.345394775390625,0.04171615822315216,0.002143441769480705,-0.003218761117104441
1773256915376420900,1.3554208984375,0.03978197529017925,0.004930149878561496,-0.011722823959682136
1773256915386446600,1.365446533203125,0.04176993423700332,-0.0005117489144206047,-0.005130841816123575
1773256915396472600,1.37547265625,0.04460544992387294,0.004466039498150348,-0.006476374673563987
1773256915406498600,1.38549853515625,0.047587096083164214,0.008857990846782923,-0.007569266210496425
1773256915416524800,1.39552490234375,0.035785014608502384,0.009043430416285992,-0.004794394669681787
1773256915426550800,1.40555078125,0.03604863398075103,-0.001383709443360567,-0.007891885760985314
1773256915436576800,1.41557666015625,0.027382512444257736,-0.003092413057386875,-0.003076064710784703
1773256915446602800,1.425602783203125,0.03758475750684738,0.0018270692966878414,-0.001720503649674356
1773256915456628700,1.435628662109375,0.04759995556473732,0.001262275020778179,-0.009192191237211227
1773256915466654700,1.44565478515625,0.04325169722735882,0.0029500819772481915,-0.011022402339056133
1773256915476676400,1.45567626953125,0.037568390893936154,-0.005439414574950933,-0.005754745868127793
1773256915486702300,1.465702392578125,0.04370937786698341,-0.0006629939533770084,-0.00413565676631406
1773256915496728300,1.475728271484375,0.04581482571363449,0.004816460371017456,-0.002635371738579124
1773256915506754300,1.48575439453125,0.04430442115068436,0.00547463201880455,-0.0060341655977070325
1773256915516780300,1.4957802734375,0.03531856614053249,0.0002602583713829517,-0.006446162198390812
1773256915526806300,1.50580615234375,0.03577040156126022,0.0071196227468550205,-0.01381981450524181
1773256915536832300,1.515832275390625,0.033684827458858486,0.003358662778139114,-0.01213761530565098
1773256915546858200,1.525858154296875,0.038811084431409834,0.005250175613164902,-0.003583466243650764
1773256915556884200,1.53588427734375,0.0395312153995037,0.007797668138891458,-0.0029641287689097223
1773256915566909400,1.545909423828125,0.03968728274405002,0.002090250277519226,-0.00332744565596804
1773256915576936400,1.5559365234375,0.04116846121251583,0.0070933192618191235,0.000902830591239035
1773256915586962400,1.56596240234375,0.04640519282221794,0.009787088390439748,-0.006009981004521251
1773256915596987400,1.5759873046875,0.03877893572747707,0.008092267171293497,-0.0010475728241726755
1773256915607014400,1.586014404296875,0.049424248382449146,-0.0026804712556302546,-0.005909351907949894
1773256915617039400,1.596039306640625,0.03837561562359333,0.009459317740797996,-0.005439341509714722
1773256915627065300,1.6060654296875,0.032706337815523144,-0.007988806796818971,-0.005868672837689519
1773256915637092400,1.61609228515625,0.03331540962457657,0.003192074039578438,-0.0014371566636487841
1773256915647117300,1.626117431640625,0.03868599674701691,0.002226151616871357,-0.009271814078371972
1773256915657143300,1.636143310546875,0.041681086909770966,0.0019175240591168402,-0.007462243905756622
1773256915667170300,1.64617041015625,0.039430093112587924,-0.0052162733435630795,-0.002583477154560387
1773256915677195300,1.6561953125,0.0468991138190031,0.00502542694658041,-0.006343395943660289
1773256915687221200,1.66622119140625,0.042705753782391546,0.009528145193308591,-0.0006937909504398703
1773256915697247500,1.67624755859375,0.040914194190502164,-0.0026402853757143017,-0.0026391345982439813
1773256915707273500,1.6862734375,0.0411959337413311,0.000590074847638607,0.007649510106164961
1773256915717299500,1.696299560546875,0.03806348093450069,0.002633709504455328,-0.0010194609745405613
1773256915727325400,1.706325439453125,0.032092005309462546,0.0006464812099933624,-0.009635496291611343
1773256915737351400,1.716351318359375,0.039402620583772655,0.004652063589543104,-0.009061331399157643
1773256915747377400,1.72637744140625,0.033577275431156156,-0.0012299801863729953,-0.001802190583758056
1773256915757403400,1.7364033203125,0.03957388549745083,-0.00008621697872877121,0.005580649676546454
1773256915767429400,1.746429443359375,0.03450198906064033,0.002657674901932478,-0.0060412711919285355
1773256915777455400,1.756455322265625,0.038707039535045625,0.007394055774062871,-0.010485592048615216
1773256915787481300,1.7664814453125,0.03703998310565948,0.014392097967863083,-0.002699431684426963
1773256915797507300,1.77650732421875,0.0407645565867424,0.004728635957092046,0.005809234268032014
1773256915807533600,1.786533447265625,0.042561961397528644,0.002641454419493675,0.001590995518490672
1773256915817560300,1.796560302734375,0.046156771019101143,-0.0009679682493209838,-0.010686868508066981
1773256915827585500,1.80658544921875,0.05213175377547741,0.0022374036632478236,-0.009008432168141007
1773256915837611500,1.816611572265625,0.043426469272375104,0.0013154665127396582,0.004074683826696127
1773256915847637500,1.826637451171875,0.029049568873643874,0.0034748365037143227,-0.0059419755359180265
1773256915857663500,1.83666357421875,0.043727498045563695,-0.0006277765095233917,-0.006471643699519336
1773256915867689500,1.846689453125,0.03760930742621422,-0.003543663956224918,-0.007563932448253035
1773256915877715500,1.856715576171875,0.0391524452149868,0.0030954817973077296,-0.0024286336527206
1773256915887742200,1.8667421875,0.04423661661148071,0.005485737934708595,-0.00046785497376695273
1773256915897767400,1.876767333984375,0.039159459477663035,-0.0007128244444727898,-0.004095799679961055
1773256915907794400,1.88679443359375,0.034660979014635086,-0.004090338053554296,-0.009414364354219287
1773256915917819400,1.8968193359375,0.04798164835870266,0.00200271812453866,-0.0034331345201469954
1773256915927846400,1.906846435546875,0.044560441738367075,0.006372749902307987,-0.013805402387399225
1773256915937872400,1.916872314453125,0.03480710948705673,-0.00530512067079544,-0.008287369618285446
1773256915947897300,1.9268974609375,0.04409282422661781,0.0017291618801653385,-0.03343923693364486
1773256915957924400,1.93692431640625,0.06172025085389614,0.008141951531916856,0.01603334410255775
1773256915967950300,1.946950439453125,0.024705986711382865,0.005221826301515102,0.008134772872459143
1773256915977976300,1.956976318359375,0.007944821524620055,-0.004556932651996613,-0.03995592535128817
1773256915988002300,1.967002197265625,0.07599427540004253,0.0008944646216928958,-0.017373780659772454
1773256915998028500,1.977028564453125,0.07086158868670463,0.0034935412041842934,0.024428484944254158
1773256916008054500,1.987054443359375,0.014904723665118217,-0.0035898411855101583,0.014190711910557001
1773256916018080500,1.99708056640625,0.011177227574586867,-0.009381284068524837,0.0024835969766601918
1773256916028106500,2.0071064453125,0.04156885870695114,-0.008754676602780818,-0.006738879800960421
1773256916038132500,2.017132568359375,0.05538111096024513,0.012450462380796671,-0.03276095407959074
1773256916048158500,2.027158447265625,0.08979659078121185,0.020238193647563456,-0.011956724047102034
1773256916058184400,2.037184326171875,0.05686287395060062,0.005340338114649057,-0.008856931400857864
1773256916068210400,2.04721044921875,-0.002865326303243637,-0.0163857560031116,-0.006161810565367341
1773256916078236400,2.057236328125,0.007009586501121521,-0.008286328438669442,-0.006394066684972495
1773256916088262400,2.067262451171875,0.03900689926445484,0.01012552656456828,-0.01090336080295965
1773256916098288400,2.077288330078125,0.06669862378835678,0.024157705178856848,-0.01741330895256251
1773256916108314600,2.087314697265625,0.05861643961966037,0.013389058405160904,-0.007705003153067082
1773256916118340600,2.097340576171875,0.03461713987290859,-0.011302461389452218,-0.003879837108030915
1773256916128366600,2.10736669921875,0.003557400220632553,-0.010547259107977151,0.005087459332123398
1773256916138392600,2.117392578125,0.01158405480980873,-0.0002183189257979393,0.017145415263995527
1773256916148418300,2.127418212890625,0.03756722185015678,0.005889350299537181,-0.020221443442162125
1773256916158444300,2.1374443359375,0.051880993884801864,0.023078093248605727,-0.043853626909572625
1773256916168470300,2.14747021484375,0.07108838317990303,0.008618775263428687,-0.013248992347344755
1773256916178496300,2.157496337890625,0.06784311764836311,-0.015630553721636534,0.014048910553380846
1773256916188522200,2.167522216796875,0.013913959062099456,-0.025991788738220927,-0.004532510596793144
1773256916198548200,2.17754833984375,0.02056055746972561,-0.015046470223367213,-0.018372911232337353
1773256916208574200,2.18757421875,0.03939560632109642,0.009953677129000424,-0.009922642669919877
1773256916218600400,2.197600341796875,0.04417115015983581,0.015265081410109996,0.002267725736275315
1773256916228626400,2.20762646484375,0.04843173021376133,-0.008157149101048708,-0.021798081641737372
1773256916238652400,2.21765234375,0.06264554900527,-0.007035597725212573,-0.021259115926828234
1773256916248678400,2.227678466796875,0.05267068295776844,0.018070055828243493,-0.017457148094289002
1773256916258704400,2.237704345703125,0.03609948738515377,0.02273746311739087,-0.0150419949776493
1773256916268730400,2.24773046875,0.03310848887562751,-0.0031892975606024263,-0.001500175429880619
1773256916278756400,2.25775634765625,0.04584872798323631,-0.01621069169715047,-0.015074582072999327
1773256916288782300,2.2677822265625,0.035437224084138866,-0.007785831570625305,-0.01984053609948605
1773256916298808300,2.277808349609375,0.0269745161652565,0.004482698372006416,-0.008311682075634598
1773256916308834300,2.287834228515625,0.03703998310565948,0.011849427747726439,0.02859939568703994
1773256916318860300,2.2978603515625,0.02406710428595543,-0.0013249649934470654,-0.00291422521257773
1773256916328886500,2.307886474609375,0.03025309944450855,-0.015106237586587667,0.005354896362964064
1773256916338912500,2.31791259765625,0.034061259555816646,-0.008544979374855757,-0.020298454201128333
1773256916348938500,2.3279384765625,0.04941255794465541,-0.0005528115771710872,-0.029686715999711302
1773256916358964500,2.337964599609375,0.050824178308248515,0.01632379668280482,-0.008391725041903554
1773256916368990500,2.347990478515625,0.0288175136834383,-0.007659428711980581,0.0001894764238037169
1773256916379016400,2.358016357421875,0.047504093974828715,-0.022612667693942785,-0.0012051380060613154
1773256916389042400,2.36804248046875,0.05115384865403175,-0.003843962077051401,-0.05582454387880861
1773256916399068400,2.378068359375,0.05071370367109775,0.05529635528624057,-0.02917133208978921
1773256916409094400,2.388094482421875,0.059925184130668635,0.03188566908240318,0.03889786766571924
1773256916419120400,2.398120361328125,0.04205459639728069,-0.029007775558531283,-0.01025634987000376
1773256916429146400,2.408146484375,0.04046761946678162,-0.010032441453635693,0.004308930973988026
1773256916439172600,2.418172607421875,0.016830138769745824,0.004237637569755316,0.007496146175358444
1773256916449198600,2.428198486328125,0.020098785176873205,-0.015144816031306981,-0.04381762401442975
1773256916459224600,2.438224609375,0.0811497584670782,0.0032137013494968414,-0.02604797590486705
1773256916469250600,2.44825048828125,0.043430560925602914,0.016915478965640066,0.034964382408000524
1773256916479276500,2.458276611328125,-0.00038812253475189204,-0.016420096664130687,0.04541755175804719
1773256916489302300,2.46830224609375,0.029860885256528854,-0.05567687903642654,0.008429883361514658
1773256916499328300,2.478328369140625,0.029552257698774335,-0.008032353677600622,-0.06826485019177198
1773256916509354200,2.488354248046875,0.04808393968939781,0.07178834814280272,-0.03948195116398856
1773256916519380200,2.498380126953125,0.07225216626226902,0.04252484425753355,-0.021830906199105084
1773256916529406200,2.50840625,0.07270692429244519,-0.005425678310543298,-0.02458564826734364
1773256916539432200,2.51843212890625,0.03580839548408985,-0.0140884388461709,0.002057480519078672
1773256916549458400,2.52845849609375,0.0050362406015396115,-0.0014738719448447227,0.01316105833556503
1773256916559484400,2.538484375,0.01729483367204666,-0.010244330638647079,-0.008825257620960474
1773256916569510400,2.548510498046875,0.0495136802315712,-0.01115706156939268,-0.00696003000466153
1773256916579536400,2.558536376953125,0.03979834190309047,-0.009399404247105121,-0.00936888124467805
1773256916589562400,2.568562255859375,0.0443850851714611,-0.01780512128174305,-0.03271063039815053
1773256916599588400,2.57858837890625,0.06006897651553154,-0.004551964215934276,-0.024278043622896074
1773256916609614300,2.5886142578125,0.03110416331589222,0.022120646393299102,0.00792783385720104
1773256916619640300,2.598640380859375,0.0034071780949831007,0.021730039640516043,0.001091375433281064
1773256916629666300,2.608666259765625,0.055525487866997715,-0.0017591186270117759,-0.007334306677151471
1773256916639692300,2.6186923828125,0.06831658037900924,0.010562456677109002,-0.011455861852876842
1773256916649718300,2.62871826171875,0.047836686930060386,0.0219768540084362,-0.017541191382240504
1773256916659744500,2.63874462890625,0.035900165420770645,0.0037500001832842826,-0.0015532938566058874
1773256916669770500,2.6487705078125,0.040455344507098194,-0.026680355524271726,0.00985379695110023
1773256916679796500,2.65879638671875,0.017460253366827962,-0.033889556250721216,0.03372815514393151
1773256916689822500,2.668822509765625,-0.0020744681864976883,-0.02703048413619399,0.023353658786974846
1773256916699848400,2.678848388671875,0.023432313513755798,-0.01896715079843998,-0.015002411885932087
1773256916709874400,2.68887451171875,0.05672843391597271,0.02622808171212673,-0.005124448607955127
1773256916719900400,2.698900390625,0.043298458978533745,0.019779197833687066,-0.022443357275333253
1773256916729926400,2.708926513671875,0.07864742025732993,-0.008914981731027364,-0.0266133547026664
1773256916739952400,2.718952392578125,0.06414309408664703,-0.0007233458384871482,0.03527428860738873
1773256916749978400,2.728978271484375,-0.014454641810059546,0.0065912149585783475,-0.01122051872704178
1773256916760004400,2.73900439453125,0.01518120251893997,-0.002741846054047346,-0.024286701853387056
1773256916770030600,2.749030517578125,0.0856985078126192,-0.005021189162880182,0.0027508696107193826
1773256916780056600,2.759056640625,0.03221767751574516,-0.009064034812897442,-0.0003908076821826398
1773256916790082600,2.76908251953125,0.028364509218931196,-0.009077624946832657,-0.03502184821628034
1773256916800108500,2.779108642578125,0.05715279680788517,-0.008264993389695881,0.00009770648712292312
1773256916810134500,2.789134521484375,0.03131868284940719,0.003651362114399671,0.0109944914188236
1773256916820160500,2.799160400390625,0.02284136188328266,0.002329611991345882,-0.0034851569683291015
1773256916830186200,2.809186279296875,0.06254384219646454,-0.02037453337833285,-0.013077142911776899
1773256916840212200,2.819212158203125,0.05640051713585853,0.022852467799186704,-0.029317791355773806
1773256916850238200,2.82923828125,0.021092472389340398,0.0195087103292346,-0.0011726605085656046
1773256916860264200,2.83926416015625,0.050535424494743346,-0.02321852463260293,-0.01892409710800275
1773256916870290400,2.84929052734375,0.05207505515217781,0.015617401979118584,-0.027852522842492906
1773256916880316400,2.85931640625,0.020657003581523895,0.035776392910629506,-0.033549857701268046
1773256916890343400,2.869343505859375,0.09032558309137821,-0.05039046306610107,0.04814301293287426
1773256916900369400,2.879369384765625,0.05672492678463459,-0.07753945901542901,0.029572825562767684
1773256916910395400,2.8893955078125,-0.06847615485489368,0.005702449425309896,-0.048811632909439504
1773256916920421400,2.89942138671875,0.07224281391203403,0.0490823030769825,-0.007304623924940824
1773256916930447400,2.909447265625,0.09640694883167743,0.011319120263308287,-0.005422700902167708
1773256916940473300,2.919473388671875,0.008328267884254455,-0.006474456711113453,-0.01931819272581488
1773256916950499300,2.929499267578125,0.05877250696420669,0.014688596696406602,0.00531153214527294
1773256916960525600,2.939525634765625,0.04368482794761658,0.0072090545959770675,0.0299887859525159
1773256916970551600,2.949551513671875,-0.006687514939904213,-0.03857829858884215,-0.011048450095765293
1773256916980577500,2.95957763671875,0.043832127463817594,-0.025982582518458364,-0.025921609578840432
1773256916990603500,2.969603515625,0.0625718992471695,0.02744315659031272,-0.02135826545236632
1773256917000629500,2.97962939453125,0.012990414476394653,0.023185937537252902,-0.001458509978931397
1773256917010655500,2.989655517578125,0.017017185774445533,-0.03965513404011726,0.006716722768079489
1773256917020681500,2.999681396484375,0.06709259154200553,-0.04350684103220701,-0.03826198091497644
1773256917030707500,3.00970751953125,0.05878478192389011,0.058881812557578087,-0.033143852449953555
1773256917040733400,3.0197333984375,0.014985972207784653,0.05835384316071868,0.019038608599454162
1773256917050759400,3.029759521484375,0.029634090763330456,-0.029370763652026653,-0.02355440552346408
1773256917060785400,3.039785400390625,0.10181728344261645,-0.0379608973428607,-0.022754633447900414
1773256917070811400,3.049811279296875,0.03993044385015964,0.01613368093818426,-0.030917335506901143
1773256917080837400,3.05983740234375,-0.00871931302845478,0.026479718385636807,-0.01723528550453484
1773256917090863400,3.06986328125,0.05923544830083847,-0.018855799378454684,0.03204281413918361
1773256917100889300,3.079889404296875,0.025306875213980673,-0.03592909925431013,-0.0184346513569355
1773256917110915300,3.089915283203125,-0.004196867167949677,-0.013435089503973721,-0.04408619355643168
1773256917120941300,3.09994140625,0.024110358905792235,0.05014408708959817,-0.025592779483273626
1773256917130967300,3.10996728515625,-0.0007587094128131866,0.1300315705358982,-0.03152341164126992
1773256917140993300,3.1199931640625,0.3785176710605621,-0.1423931855894625,-0.07801641061110422
1773256917151019300,3.130019287109375,-0.0744791946619749,-0.12499006923735141,-0.10772323781708255
1773256917161045200,3.140045166015625,-0.2065676977276802,-0.06196604230850935,0.058112746147532014
1773256917171071200,3.1500712890625,-0.06252572201788426,-0.007672434324026108,0.09834465716229751
1773256917181097500,3.160097412109375,0.06325286724865437,-0.0016771394319832324,0.025500224095303562
1773256917191123500,3.17012353515625,0.18181261117756364,-0.00027180267870426176,-0.02192720618043095
1773256917201149400,3.1801494140625,0.1584831735163927,0.0075460314653813835,-0.04173150192275643
1773256917211175400,3.190175537109375,0.03502162902057171,0.01957359225898981,-0.025663196104671805
1773256917221201400,3.200201416015625,-0.026182489004731177,-0.013585603890568017,-0.002085592368710786
1773256917231227400,3.210227294921875,-0.00973930372595787,-0.06463058534264564,0.012056914752256124
1773256917241253400,3.22025341796875,0.008864274457097053,-0.0890779211178422,0.02516469026431441
1773256917251279400,3.230279296875,-0.012531564792990684,-0.06130187931135297,0.015017097998410462
1773256917261305300,3.240305419921875,-0.007514028891921043,0.029190730910003182,-0.02991272504162043
1773256917271331300,3.250331298828125,0.14321955341100692,0.11291618508398532,0.0048286987980827685
1773256917281357300,3.260357421875,0.07581424265801906,0.2859042692929506,0.021450035389047113
1773256917291383600,3.270383544921875,0.1756061577528715,0.34632308215945956,0.1102993536490947
1773256917301409500,3.280409423828125,0.2747708808600902,0.11343845539242028,-0.019930990861915052
1773256917311435500,3.290435546875,0.19110767826735972,-0.12167495333999395,-0.175895021164231
1773256917321461500,3.30046142578125,-0.037657822743058206,-0.18996815284341573,-0.07383770015435293
1773256917331487500,3.310487548828125,-0.30397125638127326,-0.1395017019316554,0.030678759244363755
1773256917341513500,3.320513427734375,-0.22097499326467512,-0.13132263325974344,0.0001885813746601343
1773256917351539500,3.33053955078125,0.0014981296032667158,-0.13118570900708437,-0.08392366189351305
1773256917361565400,3.3405654296875,0.06472469336688517,-0.0507801930360496,-0.07039811762711033
1773256917371591400,3.35059130859375,0.1187643265902996,0.0547246928781271,0.06976334512121975
1773256917381618400,3.360618408203125,0.2528261755555868,0.10188801059126854,0.05953074145298451
1773256917391644400,3.37064453125,0.12632628627717493,0.11704349414706229,-0.06154264753097668
1773256917401670400,3.38067041015625,-0.04860533321499824,0.0729440940491855,-0.0027286577789112925
1773256917411696400,3.3906962890625,-0.06611410189867019,-0.04836582537069917,0.06750323643581942
1773256917421722400,3.400722412109375,0.12550970919728277,-0.18028087156563996,-0.04033500606305897
1773256917431748400,3.410748291015625,0.24675533120930193,-0.1688125520899892,-0.157951295129396
1773256917441774300,3.4207744140625,-0.1682294915050268,-0.038668022698909045,-0.08888446263866498
1773256917451800300,3.43080029296875,-0.26579846985340116,0.010423340467363595,0.07735796496868133
1773256917461826300,3.440826416015625,-0.04222118513584137,-0.0330645036034286,0.09900321240257472
1773256917471852300,3.450852294921875,0.15130992088615894,0.02970452565103769,-0.03611852087918669
1773256917481878300,3.460878173828125,0.25973990046679973,0.12621727294474838,-0.07123732666391878
1773256917491904500,3.470904541015625,0.2685731952637434,0.13435440217107533,0.015451653490774332
1773256917501930500,3.480930419921875,0.04722703059911727,0.21604425886422393,0.00039409561781212683
1773256917511956500,3.49095654296875,-0.019459902751445768,0.06786693691536784,-0.01891052524037659
1773256917521982500,3.500982421875,-0.09396130924522876,-0.08891746985912323,0.058473944142740215
1773256917532008400,3.511008544921875,0.10523907458484172,-0.18955285004079342,0.0387119531721808
1773256917542034400,3.521034423828125,0.05020049345195293,-0.10179507161080836,-0.04645920629808679
1773256917552060400,3.531060302734375,-0.16320026516616343,0.10905410282835364,0.01156049127113074
1773256917562086400,3.54108642578125,-0.021733108380436895,0.08271423130482435,0.031861502755526454
1773256917572112400,3.5511123046875,0.3013315555274486,-0.13173121406063437,-0.07965573878334835
1773256917582138400,3.561138427734375,0.16261165162324903,-0.10828881754428148,-0.26212418352114036
1773256917592164600,3.57116455078125,-0.2536152801066637,-0.047881402854621405,-0.07424558683549985
1773256917602190600,3.581190673828125,-0.05830021327733993,0.03639189446046948,0.27664957074616103
1773256917612216600,3.591216552734375,0.19378128139078615,0.10746215746179222,0.11927656869506463
1773256917622242600,3.60124267578125,0.1026391212195158,0.060169514280557626,-0.28326157276444136
1773256917632268500,3.6112685546875,0.1267728610008955,-0.004257365183532238,-0.16581011887099592
1773256917642294500,3.62129443359375,0.09236205735504627,-0.00897767170369625,0.12283440730711445
1773256917652320500,3.631320556640625,-0.08773673564195632,-0.0528783343590796,0.060945211360789835
1773256917662346200,3.64134619140625,-0.08275485557615757,-0.09799056476131081,-0.07507407354889437
1773256917672372200,3.651372314453125,0.048669630622863766,-0.07372121590152382,-0.06105526587283239
1773256917682398200,3.661398193359375,0.05910276183187961,-0.0134207687176764,-0.019396902251522987
1773256917692424200,3.671424072265625,0.027101941937208173,0.04433072463572025,-0.013237466306332497
1773256917702450400,3.681450439453125,0.06738426796495914,0.06826002788618206,-0.02239290572972968
1773256917712476400,3.691476318359375,0.06799275525212288,0.027600831370055673,0.008063114142045379
1773256917722502400,3.70150244140625,0.06361936247348784,0.005685644420981407,0.024429489591252056
1773256917732528400,3.7115283203125,0.10173194324672222,0.014535598091781139,-0.004989825910236686
1773256917742555400,3.721555419921875,0.1027390744626522,0.04386442229822278,-0.04970147615494206
1773256917752581400,3.731581298828125,0.2804378205806017,0.1418409585341811,-0.04407642108108848
1773256917762607400,3.741607421875,1.025357777494192,0.11381138035804032,-0.08621381865730508
1773256917772633300,3.75163330078125,-0.3174421478509903,-0.179164580886811,-0.41222094749156385
1773256917782659300,3.761659423828125,-0.6992711354166269,-0.2916572798617184,-0.22019595344988627
1773256917792685600,3.771685546875,-0.16714637244343758,-0.30203385857790704,0.07845482029467821
1773256917802711600,3.781711669921875,-0.09034428779184818,-0.20469284376651048,0.1379151999251917
1773256917812737500,3.791737548828125,-0.11017711550891399,-0.11579685508683323,0.10203406799845396
1773256917822763500,3.801763427734375,0.021726678639650342,-0.07676935142576694,0.08543072372190653
1773256917832789500,3.81178955078125,0.10619710596203803,-0.01013268695771694,0.08496694213505834
1773256917842815500,3.8218154296875,0.12994272320866584,0.08271525421813129,-0.017941314882040024
1773256917852841500,3.831841552734375,0.19471534737050533,0.15002514177262782,-0.07039729564320296
1773256917862867500,3.841867431640625,0.24987375549077986,0.07695486406050622,-0.09856193490847945
1773256917872893400,3.8518935546875,0.2600502815902233,-0.03827018248774111,-0.0503711007785052
1773256917882919400,3.86191943359375,0.18457798423767088,-0.04074585188627243,0.04482435337156057
1773256917892945400,3.8719453125,-0.008421791386604309,0.01626943614706397,0.06810710234679282
1773256917902971400,3.881971435546875,-0.11459727003872394,0.0350127881269902,-0.03926602512467652
1773256917912997400,3.891997314453125,-0.04782675005793571,-0.006819470756500959,-0.06470675585139543
1773256917923023400,3.9020234375,-0.05570785869657993,-0.07005005310811102,0.021520452010445296
1773256917933049300,3.91204931640625,-0.0006096563309431075,-0.10705321133472025,0.043033451366797086
1773256917943075300,3.922075439453125,0.06702361795902252,-0.059989919929951424,0.009439845855347812
1773256917953101300,3.932101318359375,0.0631944150596857,-0.08008081406131386,0.009819894681498407
1773256917963127300,3.942127197265625,0.05265256277918815,-0.07286722942069172,-0.01989683286398649
1773256917973153300,3.9521533203125,-0.0009188684105873108,0.0044344753161072725,-0.06386577498260886
1773256917983179300,3.96217919921875,-0.016726093873381614,0.011830503851547837,-0.07205448826570063
1773256917993205200,3.972205322265625,0.12646890961825846,-0.0774522921886295,-0.06844711142349988
1773256918003231200,3.982231201171875,0.03668459379673004,-0.18756101863645017,-0.09955912925228476
1773256918013257500,3.992257568359375,-0.11521686324179171,-0.23575733265914023,-0.05178104064166546
1773256918023283500,4.002283447265625,-0.11141571739315986,-0.27248437735810876,-0.049649252777360375
1773256918033309400,4.012309326171875,-0.06979892789125441,-0.18429741373062133,-0.0070619377428665754
1773256918043335400,4.02233544921875,-0.029829905596375463,-0.02822992305383086,0.061227681563980875
1773256918053361400,4.032361328125,-0.05037409645318985,0.10668708143606781,0.12290500659160315
1773256918063387400,4.042387451171875,-0.02404138532280922,0.1618991194397211,0.0565299156691879
1773256918073413400,4.052413330078125,0.17638298734426497,0.09930522755645214,-0.05228610408697277
1773256918083439400,4.062439453125,0.30216800635159013,0.00024206512756645677,-0.06857128579244018
1773256918093465300,4.07246533203125,0.23835984330773352,-0.010756079553067684,-0.024045148182474076
1773256918103491300,4.0824912109375,0.15895605172514915,-0.007461056595668196,0.04347396167591214
1773256918113517300,4.092517333984375,0.11291969221532344,-0.04987593767270446,0.05828012033738195
1773256918123543600,4.10254345703125,-0.03459843517243862,-0.03965791051909327,0.07329466105252504
1773256918133569500,4.112569580078125,-0.14543898302614688,-0.07679353601895272,0.06060954966563731
1773256918143595500,4.122595458984375,-0.10997370189130305,-0.09214877993054688,0.019334997730143366
1773256918153621500,4.13262158203125,-0.009531213933229445,-0.056317003570869564,-0.017588592454232273
1773256918163647500,4.1426474609375,0.1257972939670086,-0.010242430942505598,-0.027802747150324283
1773256918173673500,4.152673583984375,0.18799217659533024,-0.020974252837151288,-0.025402554140798745
1773256918183699500,4.162699462890625,0.10871756435036659,-0.07696655449829995,-0.00006875438727438449
1773256918193725400,4.172725341796875,-0.04986848501861095,-0.07146561899445951,-0.012025514966994524
1773256918203751400,4.18275146484375,-0.015622516545653341,-0.03818053144291043,-0.02672218537200242
1773256918213777400,4.19277734375,0.026176059263944625,-0.06520911588296294,-0.01297229429781437
1773256918223803400,4.202803466796875,-0.062437459212541575,-0.10711312482841312,0.018909758055396377
1773256918233829400,4.212829345703125,-0.008772504520416259,-0.1128282876048237,0.08326225710902363
1773256918243855400,4.22285546875,0.09384323582351208,-0.12149126733615993,0.0018638211105018853
1773256918253881300,4.23288134765625,0.024815292304754256,-0.055047129765525456,-0.004515139336884021
1773256918263908400,4.242908447265625,-0.03059036857485771,0.09361958313547074,-0.04750511688813567
1773256918273934300,4.252934326171875,0.13767887041866778,0.05623341694064438,-0.046791707921773194
1773256918283960300,4.262960205078125,0.15296645592153071,-0.07144786414206028,0.009760967568494379
1773256918293986300,4.272986328125,0.04060089045763016,-0.08882431168295443,-0.006066716160438954
1773256918304012300,4.28301220703125,0.047559039032459255,-0.0556536442913115,-0.10802457711752503
1773256918314038500,4.29303857421875,0.11008008487522601,-0.018885829190537332,-0.012336919003725052
1773256918324064500,4.303064453125,-0.052530397704243656,0.10134667025618255,0.14270148435365407
1773256918334090500,4.313090576171875,-0.06339665963351726,0.07703224014565348,0.016242073216103017
1773256918344116500,4.323116455078125,0.05237257679402828,-0.004212722324207425,-0.08126549380123614
1773256918354142500,4.333142578125,0.06971066508591174,-0.053172202739119524,-0.10816968467663973
1773256918364168400,4.34316845703125,0.15791852537095546,-0.06356916665621101,0.06476571949701757
1773256918374194400,4.3531943359375,0.07757014641463757,-0.010758052314445377,0.08424838206954299
1773256918384220400,4.363220458984375,0.0034901802033185957,0.04018142293654382,-0.028154611061606556
1773256918394246400,4.373246337890625,0.0007703998506069183,0.04203947189338505,0.004992584122903645
1773256918404272400,4.3832724609375,0.02294891391098499,-0.006869228182360529,0.08822375197391956
1773256918414298400,4.39329833984375,0.03913023338317871,-0.03873356221579015,0.068699113423191
1773256918424324600,4.40332470703125,0.06727203976213932,-0.10540003730021416,0.06377879081889987
1773256918434350600,4.4133505859375,-0.007634440401196479,-0.09121792882122098,0.019881069039274005
1773256918444376600,4.42337646484375,-0.02845978628695011,0.03367861691378057,-0.03914997926326468
1773256918454402600,4.433402587890625,-0.0019224924951791761,0.10999540226645767,-0.04324566934537142
1773256918464428500,4.443428466796875,-0.013221300622820854,0.11344897678643465,0.007546323726326226
1773256918474454500,4.45345458984375,0.11236205833256244,0.14804171287044882,0.08173990637995303
1773256918484484000,4.463484130859375,0.3122100924164057,0.19651786674782631,0.043685403336351736
1773256918494510000,4.473510009765625,0.34663609363138675,0.15226853678524493,0.0481880485178437
1773256918504536300,4.483536376953125,0.1882324150919914,0.10824753568582236,0.0927376857344061
1773256918514562300,4.493562255859375,-0.010766893208026885,0.07099887826554477,-0.009477131958701647
1773256918524588300,4.50358837890625,-0.18063947574496267,0.10651961591467261,-0.0408585458799731
1773256918534615300,4.513615234375,-0.1861030018478632,-0.007415171627327799,0.07609604157435242
1773256918544641300,4.523641357421875,-0.17442600805759428,-0.10920666304156183,0.1701075238039717
1773256918554667300,4.533667236328125,-0.09464403081238269,-0.09349602982103825,0.047399729418056084
1773256918564693200,4.543693359375,0.04580079718828201,-0.15846753755584359,-0.10404317933116107
1773256918574719200,4.55371923828125,0.055181788995862006,-0.20783537957593798,-0.093150239457516
1773256918584745200,4.5637451171875,0.09017010026872158,-0.10476765768080949,-0.03705561449963134
1773256918594771500,4.573771484375,0.07360299634933472,-0.05976049508824944,-0.053163526242319493
1773256918604797400,4.58379736328125,0.027521628654003143,-0.08357406300455332,-0.08796546636391431
1773256918614823400,4.593823486328125,0.02188449954986572,-0.09236220348551868,-0.057681049332534894
1773256918624849400,4.603849365234375,0.07689794624149798,-0.07410773100107908,-0.03893471081107855
1773256918634875400,4.61387548828125,0.12754267632961272,-0.05126987624913454,-0.024426393451867624
1773256918644901400,4.6239013671875,0.06205050572156906,-0.0606033756531775,-0.07887674463433213
1773256918654927400,4.63392724609375,0.02672784792780876,-0.09373962931856512,-0.03641495567564852
1773256918664953300,4.643953369140625,0.02417640987932682,-0.1318617085725069,0.017136895172466755
1773256918674979300,4.653979248046875,-0.0009258826732635498,-0.0930529622286558,0.018419376155990173
1773256918685005300,4.66400537109375,-0.00857902777493,-0.11136354881450533,-0.011469385771441739
1773256918695031000,4.674031005859375,0.001381225225329399,-0.14435710607357322,-0.044098121456243096
1773256918705057300,4.684057373046875,0.00649286915063858,-0.0503670091252774,-0.0259329050077009
1773256918715083300,4.694083251953125,0.06385200218558311,0.07310366852506994,-0.004014315958565566
1773256918725109200,4.704109130859375,0.17353402765393255,0.1284991733368486,-0.0029752027187729254
1773256918735135200,4.71413525390625,0.17253800235390662,0.09475954695083201,-0.07506760727548971
1773256918745161200,4.7241611328125,0.12857669555246828,-0.03580634965747594,-0.10720516875972971
1773256918755187200,4.734187255859375,0.038349896660447115,-0.16533837317340075,-0.012285086068499367
1773256918765213200,4.744213134765625,-0.05542261201441288,-0.1357650726865977,0.08514808912193401
1773256918775240200,4.754240234375,-0.006994973453879356,-0.02524082424044609,0.0002712141610594699
1773256918785266200,4.76426611328125,0.07182137362957,-0.14723178472705184,-0.0030872748017325645
1773256918795292400,4.77429248046875,-0.04416881207227707,-0.17087825244814156,0.10595443804627284
1773256918805318400,4.784318359375,0.1211345628529787,-0.010808759588375688,0.015093716031732037
1773256918815344400,4.794344482421875,0.12530629557967185,-0.02651025965437293,-0.05979415989583358
1773256918825370400,4.804370361328125,0.07024667165875434,0.005923252569139004,-0.02282156577084679
1773256918835396400,4.814396240234375,0.09589724574387073,0.09940876099616289,0.014929017856158315
1773256918845422300,4.82442236328125,0.096238022005558,0.09188077664412557,-0.07188241506784689
1773256918855448300,4.8344482421875,0.02151683528125286,-0.0639046091556549,-0.03994184202700853
1773256918865474300,4.844474365234375,-0.029624738413095472,-0.14719707873985172,-0.0021771522428374736
1773256918875500300,4.854500244140625,-0.05780804584622383,-0.15713358553834259,-0.002363098702416755
1773256918885526300,4.8645263671875,0.028701778349280355,-0.25776275517493485,0.04639796393041033
1773256918895552300,4.87455224609375,0.08060030789077281,-0.1900030049610883,0.002741142801148817
1773256918905578500,4.88457861328125,-0.06576280424296856,-0.03326280265450477,0.050710397469159216
1773256918915604500,4.8946044921875,0.09039747928380966,0.08412592473365366,0.14446339772595093
1773256918925630200,4.904630126953125,-0.023159926313161848,0.02397679565399885,0.2074561710000038
1773256918935656200,4.91465625,0.25722411825358865,0.07508775501437485,0.21318351740455255
1773256918945682200,4.92468212890625,0.04540975204408169,0.1370470022559166,0.404211061374098
1773256918955708200,4.934708251953125,0.3301981690496206,0.3550854306120425,0.3840049433652311
1773256918965734100,4.944734130859375,0.5094336232155561,0.3776698220595717,-0.040452568028122186
1773256918975760100,4.954760009765625,0.10686755256950854,0.019555618210881948,-0.3111030810225755
1773256918985786000,4.9647861328125,-0.12138941439688206,-0.21919030180498955,-0.28774648135984315
1773256918995812000,4.97481201171875,-0.28716274492144583,-0.2654795400973409,-0.18865274112960323
1773256919005839400,4.98483935546875,-0.2793827585697174,-0.34203875590376553,-0.12974250619513913
1773256919015865300,4.994865234375,-0.24270167190432548,-0.43617564091160893,-0.1594205456980504
1773256919025891300,5.004891357421875,-0.24694062464833258,-0.61000857844688,-0.19890901793437077
1773256919035917300,5.014917236328125,-0.28992811798155305,-0.5097282222479581,-0.0657512782019563
1773256919045943300,5.024943359375,-0.4396352798461914,-0.15430179617851972,0.2166772230055183
1773256919055969300,5.03496923828125,-0.2633177589535713,0.017511033705994487,0.48038624629899856
1773256919065995300,5.044995361328125,0.2595060917109251,0.061921545579656956,0.6805845551252365
1773256919076021200,5.055021240234375,0.4289554803997278,0.31101226093396545,0.7419634451955557
1773256919086047200,5.065047119140625,0.20882979744076727,0.7874503541290759,0.7381818808302283
1773256919096073500,5.075073486328125,0.6556967821061611,1.046880823320523,0.45140773336756973
1773256919106099500,5.085099365234375,0.1692278548926115,0.890759848890826,0.39233905646838246
1773256919116125400,5.09512548828125,0.3460726145297289,0.9034913201700896,0.46973216581568117
1773256919126151400,5.1051513671875,0.28209318657219407,0.8501516519095749,0.21616240535117684
1773256919136177400,5.115177490234375,0.02443769116401672,0.28110008388161656,-0.16397461053952575
1773256919146203400,5.125203369140625,0.08250292664170265,-0.3866931595358997,-0.6800778477121144
1773256919156229400,5.1352294921875,0.4490899214118719,-1.2276578809052705,-1.4771838458716868
1773256919166255400,5.14525537109375,0.26387889996767044,-1.8333397552594541,-1.8667931120499968
1773256919176281000,5.155281005859375,-0.22217092505097388,-1.8062185240998863,-1.2742952750481664
1773256919186307000,5.16530712890625,0.4924246207475662,-0.8027585440285503,-0.7646596995197236
1773256919196333000,5.1753330078125,0.6994599359869956,-0.05830890804044902,-0.7564227631807326
1773256919206359300,5.185359375,-0.02747369785904884,0.07403408124297857,-0.6627692047104239
1773256919216385300,5.19538525390625,-1.193960193964839,-0.04964461313486099,0.13881602122243494
1773256919226412300,5.205412353515625,-1.648005107435584,-0.3169976920191198,1.210070567092672
1773256919236438300,5.215438232421875,-0.6265349850296974,-0.032135479125007985,1.1553398097999392
1773256919246464300,5.22546435546875,0.17712416110038756,0.19294183489196,0.5232367423143237
1773256919256490200,5.235490234375,0.6921276934027671,0.2805995139483362,-0.04731198720252141
1773256919266516200,5.24551611328125,0.8283253853529691,0.5219496251132338,-0.1497633307649754
1773256919276542200,5.255542236328125,0.5788228012621403,0.5382064209744334,0.03446611402966082
1773256919286568200,5.265568115234375,0.3412082233637571,0.5351527324922383,0.08416238428652285
1773256919296594400,5.275594482421875,0.1665600969880819,0.3880301802933216,0.10477485460657626
1773256919306620400,5.285620361328125,-0.12492109565436839,0.26609518777765334,0.05104030527696013
1773256919316646400,5.295646484375,-0.2869552396506071,0.19951880212947726,0.05137804933134466
1773256919326672400,5.30567236328125,0.27834230960607526,0.0881227392848581,-0.06669895258191973
1773256919336698400,5.315698486328125,0.2995657148987055,-0.35401232148781414,-0.2595392267955467
1773256919346724400,5.325724365234375,-0.24707564920485017,-0.6227310627020896,-0.2521497010661289
1773256919356750300,5.335750244140625,-0.3813385737001896,-0.3247726368695497,-0.06322862785654142
1773256919366776300,5.3457763671875,-0.125565238776803,0.06786934806816279,0.10625177702503279
1773256919376802300,5.35580224609375,0.16973931154608726,0.15688538293093443,-0.06753041670368984
1773256919386828300,5.365828369140625,0.2710083134561777,-0.01312690033763647,-0.22104473403263836
1773256919396854300,5.375854248046875,0.21049626934826374,-0.15082666741386055,-0.07051317710783332
1773256919406880300,5.38588037109375,-0.06131751527190208,-0.07057721878737211,0.06683558457363396
1773256919416906200,5.39590625,-0.2828764459043741,0.05738572878092527,0.0461723887133412
1773256919426932200,5.40593212890625,-0.3263935160696506,0.08143588193207979,0.025084428102336822
1773256919436959200,5.415959228515625,-0.00857727420926094,-0.009869505976885557,0.061371967139188195
1773256919446985200,5.425985107421875,0.3331757235556841,-0.08783347401469946,0.08110739889638498
1773256919457011200,5.43601123046875,0.4938526077240705,-0.04685030624121427,0.0016390907102264464
1773256919467037200,5.446037109375,0.34483635073304175,-0.08453618603497744,-0.15414138145241885
1773256919477063200,5.456063232421875,-0.16065584138035774,-0.16555837259963155,-0.2568901735914871
1773256919487085800,5.4660859375,-0.45685178758502004,-0.1522420871697366,-0.020797234036121517
1773256919497111800,5.47611181640625,-0.26481413499116896,-0.008248480646312237,0.22590823014946654
1773256919507137800,5.4861376953125,0.13572773635089397,0.13743147152885793,0.149722304634843
1773256919517163800,5.496163818359375,0.44075522378683085,0.18145444538965821,-0.09534468989502638
1773256919527189800,5.506189697265625,0.44295945583283897,0.08537804368659853,-0.175433047941979
1773256919537215700,5.5162158203125,0.12965455391705036,-0.03286605842188001,-0.026520306124351918
1773256919547241700,5.52624169921875,-0.22783494216203687,-0.13258198567107318,0.02916957852412015
1773256919557267700,5.536267822265625,-0.29105624522864815,-0.18329291286319493,-0.035460714557580646
1773256919567294000,5.5462939453125,-0.035518472626805304,-0.14995485301539302,-0.01076773345824331
1773256919577320000,5.55631982421875,0.08234744381904602,0.01345364807397127,0.01460979583915323
1773256919587346000,5.566345947265625,0.11481529670357704,0.05195800464376807,-0.11245591062847524
1773256919597372000,5.576371826171875,0.24295593892633913,-0.00030292846933007236,-0.07159885345268995
1773256919607398000,5.58639794921875,0.19885610043704507,0.03504500989615917,0.08459224533746018
1773256919617424000,5.596423828125,-0.04560615139901638,0.024831366656720637,0.018465959810651838
1773256919627450600,5.60645068359375,-0.1278612407594919,-0.06341594885587692,-0.08104964082716032
1773256919637476600,5.6164765625,0.04425122965872288,-0.09557868131399154,-0.0018706892427057026
1773256919647502600,5.626502685546875,0.07086217320859432,-0.08116232568770647,-0.03647644920507446
1773256919657528800,5.63652880859375,0.04300269090235233,-0.024146745393425224,-0.06198626311263069
1773256919667554800,5.646554931640625,0.09197218125462532,-0.002338818211108446,-0.01979994836077094
1773256919677580800,5.656580810546875,0.07894435737729072,-0.0010094693034887314,-0.0021457615907303986
1773256919687606800,5.666606689453125,0.007815057665109634,-0.011609919903427362,-0.008714490722864865
1773256919697632800,5.6766328125,0.013269231417775154,-0.007015431720018387,0.004684687217511236
1773256919707658800,5.68665869140625,0.057495326635241505,-0.029263065493851898,-0.02570935506764799
1773256919717684700,5.696684814453125,0.07289981651604176,-0.04081862486153841,-0.054559693308454005
1773256919727710700,5.706710693359375,0.05915829141139984,-0.04979249717295169,-0.03020834698732942
1773256919737736700,5.71673681640625,0.019258827221393583,-0.0401380952514708,-0.016062606729660183
1773256919747762700,5.7267626953125,0.010725976675748825,-0.03875979263558984,-0.010853311116155236
1773256919757788700,5.73678857421875,0.04481996945738792,-0.026289164249598977,-0.020803079255018384
1773256919767815000,5.74681494140625,0.07041209135353564,-0.010426263076812029,-0.01821611323542893
1773256919777841000,5.7568408203125,0.0676648384720087,-0.008557108204066752,-0.01168800837462768
1773256919787867000,5.766866943359375,0.04940203655064106,-0.03737111475616693,-0.01530831776363775
1773256919797892900,5.776892822265625,0.030970892325043676,-0.04958922968581318,-0.02170700582480058
1773256919807918800,5.7869189453125,0.005759294179081917,-0.04574497534781694,-0.022876506261900065
1773256919817945600,5.796945556640625,0.03670096040964126,-0.03500847727805376,-0.01579734338959679
1773256919827971600,5.8069716796875,0.04977262342870235,-0.03716960083469748,-0.022500476023741067
1773256919837997600,5.81699755859375,0.058711132165789603,-0.025197277359664438,-0.036992435903195287
1773256919848023800,5.82702392578125,0.06146130765676498,-0.0140546827070415,-0.009847495074477046
1773256919858049800,5.8370498046875,0.0404243648469448,-0.016577771443873644,-0.010806841625925153
1773256919868075800,5.84707568359375,0.007573065602779388,-0.029319325725734233,-0.026010146378818898
1773256919878101800,5.857101806640625,0.04136602961122989,-0.042892216265201566,-0.01621982485167682
1773256919888127700,5.867127685546875,0.047668929147720335,-0.03417217258438468,-0.036576055388338864
1773256919898153700,5.87715380859375,0.055903089007735246,-0.027448271156847476,-0.02475990885570645
1773256919908179700,5.8871796875,0.05228139137923717,-0.03291705795675516,-0.01530298400139436
1773256919918205700,5.897205810546875,0.036654783180356025,-0.03918532457128167,-0.025809216979239134
1773256919928231700,5.907231689453125,0.03919979148805141,-0.027932839803397655,-0.025220895697269586
1773256919938257700,5.917257568359375,0.05583236185908317,-0.006829699889570474,-0.022074158636759964
1773256919948283600,5.92728369140625,0.06308043329119682,-0.018862229119241236,0.01381042562238872
1773256919958310000,5.937309814453125,0.05264671756029129,-0.04130436255186796,0.0015961100850254296
1773256919968336000,5.9473359375,0.025322072783112524,-0.04631970649585128,-0.03089289518538862
1773256919978361900,5.95736181640625,0.0241553670912981,-0.039472032558172936,-0.041101003733184184
1773256919988388900,5.967388916015625,0.04628536583483219,-0.04831497196629643,-0.02975123260328546
1773256919998414800,5.977414794921875,0.06259703368842602,-0.03259089474231004,-0.01596667207451537
1773256920008440800,5.98744091796875,0.06132043788135051,-0.013171762392669916,-0.10471174450879916
1773256920018466800,5.997466796875,0.12673077542483807,0.008059387814998627,-0.08966421483950689
1773256920028492800,6.007492919921875,0.12562427548766136,0.01966419315189123,0.12828838013038038
1773256920038518800,6.017518798828125,-0.09193886350691317,-0.04139642474949359,0.05753642583061009
1773256920048544800,6.027544677734375,-0.07770634001493454,-0.0852927034907043,-0.07403362458525226
1773256920058570800,6.03757080078125,0.055797875067591665,-0.04703618420213461,-0.07701693297866731
1773256920068596700,6.0475966796875,0.11315700810253619,-0.029354104778170582,-0.16111834432557223
1773256920078622700,6.057622802734375,0.23404431819617746,0.028139614421874282,0.05285296245580539
1773256920088648700,6.067648681640625,0.0510644168049097,0.08715075244754553,0.5519827251315117
1773256920098674700,6.0776748046875,-0.5157464596241712,-0.1531729382790625,0.139869274868723
1773256920108700700,6.08770068359375,-0.1275824238181114,-0.2847111139856279,-0.3074949369953945
1773256920118726700,6.0977265625,0.4072176958441734,-0.1111155654028058,-0.34900855838377026
1773256920128752600,6.107752685546875,0.38792613539695736,0.1512827406182885,-0.17295825532628223
1773256920138778600,6.117778564453125,0.0548071104645729,0.11338234129101038,-0.14565828833263367
1773256920148804600,6.1278046875,0.01847732145488262,-0.008110095088928937,-0.27387493666736407
1773256920158830800,6.137830810546875,0.1392477271705866,0.1767201103441417,0.1731679890868254
1773256920168857900,6.14785791015625,-0.100913612601161,0.09136106361895799,0.4695598779886961
1773256920178883800,6.1578837890625,-0.18181378022134304,-0.2780360201358795,-0.03569211216066032
1773256920188909800,6.167909912109375,0.10265782591998576,-0.2686651113308966,-0.0005288461796939373
1773256920198935800,6.177935791015625,0.04801671967208385,0.03814399882480502,-0.1436359156595543
1773256920208961800,6.1879619140625,0.03428688500523567,0.06819456143453717,-0.2452365789431147
1773256920218987800,6.19798779296875,0.08319441603720187,-0.11980170681402086,-0.05421477059461176
1773256920229013800,6.208013671875,0.004103343665599822,-0.10370090523213148,0.16917060828004032
1773256920239039700,6.218039794921875,0.03631751405000686,0.01655629026442766,0.06985507852528244
1773256920249066000,6.22806591796875,0.1301367844760418,0.1275154960617423,-0.08464541856311261
1773256920259092000,6.238092041015625,0.08395254092812537,0.07641951507478952,-0.06955479867076501
1773256920269118000,6.248117919921875,0.003215454915165901,-0.11164748032242058,-0.03152750329449772
1773256920279144000,6.25814404296875,0.03212590757906437,-0.1731109799362719,-0.010388908474799246
1773256920289169700,6.268169677734375,0.03969078987538814,-0.06748597477376461,-0.04528303865818307
1773256920299195600,6.278195556640625,-0.0044505496680736535,0.0018850830942392348,-0.07042031119260937
1773256920309221600,6.2882216796875,0.0009627075523138045,-0.02956321748420596,0.004169321573898196
1773256920319247600,6.29824755859375,0.058573769521713254,-0.04810264438986778,0.029796021593082693
1773256920329275000,6.30827490234375,0.10817863516807555,0.013245412150770425,-0.03697413306152448
1773256920339300900,6.31830078125,0.09322013548910617,0.04402838068827986,-0.046323560687061394
1773256920349326800,6.328326904296875,0.0438362191170454,-0.02179740578830242,-0.01323963999710977
1773256920359352800,6.338352783203125,-0.021971593311429023,-0.09955766794756055,-0.02024120758855715
1773256920369378800,6.34837890625,-0.026693945658206937,-0.09185776109471917,-0.044001291751954705
1773256920379404800,6.35840478515625,0.052204234489798544,-0.030354952383786438,-0.03772160869427025
1773256920389430800,6.3684306640625,0.08402034546732902,0.0041873686872422695,-0.02800287283230573
1773256920399456800,6.378456787109375,0.054204468396306035,-0.016262860275804994,-0.02780979794561863
1773256920409482800,6.388482666015625,0.05778817210197448,-0.01762070462554693,-0.007020966411661356
1773256920419508700,6.3985087890625,0.03447860818505287,-0.021763357388228176,-0.021985804499872027
1773256920429534700,6.40853466796875,0.016139233896136283,-0.02745572381094098,-0.03351787339411676
1773256920439561000,6.41856103515625,0.02506079149842262,-0.0524807133436203,-0.025915636495780197
1773256920449587000,6.4285869140625,0.04711129526495933,-0.06373188293725252,-0.02358571397718042
1773256920459613000,6.438613037109375,0.042494156858325,-0.031371435949951405,-0.022368282745126634
1773256920469639000,6.448638916015625,0.04300970516502857,-0.002011924344301224,-0.02634482169328257
1773256920479665000,6.458664794921875,0.0614472791314125,-0.022593086210638283,-0.025177896805759516
1773256920489692400,6.4686923828125,0.05704641382396221,-0.04211597119569778,-0.010734287846367806
1773256920499718700,6.47871875,0.05002104523181915,-0.035152708054333924,-0.023242453497461974
1773256920509744600,6.48874462890625,0.05569383017122745,-0.0251477391295135,-0.0348558622659184
1773256920519770600,6.4987705078125,0.041869302958250046,-0.04056830336228013,-0.03458099084729328
1773256920529796600,6.508796630859375,0.03358779682517052,-0.054402475186437364,-0.028988395004626362
1773256920539822600,6.518822509765625,0.03828443020880222,-0.03639189446046948,-0.017434881463553757
1773256920549848600,6.5288486328125,0.04740414073169231,-0.014934095890074968,-0.018800854320824144
1773256920559874600,6.53887451171875,0.05357376927733421,-0.013096505199372768,-0.030398444465640932
1773256920569900500,6.548900634765625,0.06613456016480922,-0.020838643758744,-0.0319198818792589
1773256920579926500,6.558926513671875,0.05974865851998329,-0.034669600712507964,-0.014775617392733692
1773256920589952500,6.568952392578125,0.03132745067775249,-0.038931057549268004,-0.024794085119944066
1773256920599978800,6.578978759765625,0.030465865412354468,-0.03200330411270261,-0.03155503062224015
1773256920610004700,6.589004638671875,0.04036591265797615,-0.0400914796307683,-0.025350604757852852
1773256920620030700,6.59903076171875,0.042456162935495374,-0.0349716523990035,-0.019362744253594428
1773256920630056700,6.609056640625,0.05138415027856826,-0.019055705864727497,-0.021737474028300494
1773256920640083500,6.61908349609375,0.051608606684207914,-0.027251725671440363,-0.02870910313921049
1773256920650109400,6.629109375,0.05210778837800026,-0.03423135542571545,-0.020682649479433893
1773256920660135400,6.639135498046875,0.04184884469211101,-0.030520518209040164,-0.02350380784738809
1773256920670161400,6.649161376953125,0.03674538407325744,-0.03547492574602365,-0.02186674469746649
1773256920680187400,6.6591875,0.044379824474453926,-0.029967560501396654,-0.029158015950489787
1773256920690213600,6.669213623046875,0.04948913031220436,-0.03371186159625649,-0.014172865726612508
1773256920700239600,6.679239501953125,0.05755260978043079,-0.03765095461085439,-0.024367694667726755
1773256920710265600,6.689265625,0.0459884287148714,-0.036046149762719866,-0.022118162175267932
1773256920720291600,6.69929150390625,0.05133271235227584,-0.018864713337272406,-0.028807467213459313
1773256920730317600,6.709317626953125,0.04480827901959419,-0.02454144379943609,-0.02469548358367756
1773256920740343600,6.719343505859375,0.04790332242548465,-0.025876637925952673,-0.023777144896052777
1773256920750369500,6.72936962890625,0.04860474869310855,-0.02868818821534514,-0.027202132642362264
1773256920760395500,6.7393955078125,0.0435182392090559,-0.02270809089243412,-0.023926398907322434
1773256920770421500,6.74942138671875,0.04319967477917671,-0.023307810351252553,-0.02403762246314436
1773256920780447500,6.759447509765625,0.04346680128276348,-0.03088569825962186,-0.026547340261749923
1773256920790474800,6.769474853515625,0.04778641804754734,-0.02492401337623596,-0.02360927751585841
1773256920800500700,6.779500732421875,0.04955401224195957,-0.02010448426529765,-0.018991298859007657
1773256920810526700,6.789526611328125,0.03828326116502285,-0.018736849173903464,-0.02259502243939787
1773256920820552700,6.799552734375,0.048423546907305715,-0.027167116127908227,-0.02049867121465504
1773256920830578700,6.80957861328125,0.04930208330750465,-0.02986410012692213,-0.022205237670522182
1773256920840604400,6.8196044921875,0.045696752291917796,-0.026182050613313912,-0.023225009172316638
1773256920850630400,6.82963037109375,0.04449029911160469,-0.02566153387054801,-0.029382271426729858
1773256920860656400,6.839656494140625,0.04387772017121315,-0.027074907799810168,-0.013705686606280505
1773256920870682400,6.849682373046875,0.041164369559288025,-0.023806115262210367,-0.019721165769826618
1773256920880708400,6.859708251953125,0.03483808914721012,-0.018888678734749555,-0.02638031313177198
1773256920890734600,6.869734619140625,0.04481470876038074,-0.025585692155361175,-0.02178348686080426
1773256920900760600,6.879760498046875,0.045075990045070645,-0.03255290081948042,-0.023824947826843707
1773256920910786600,6.88978662109375,0.04324585200846195,-0.02378784895315766,-0.020910978342592715
1773256920920812500,6.8998125,0.03996142351031303,-0.022489187444746494,-0.02556514255767688
1773256920930839600,6.909839599609375,0.03621405367553234,-0.031149463762342927,-0.021364713459461927
1773256920940865500,6.919865478515625,0.04186638034880161,-0.028525837260484695,-0.019476799087319523
1773256920950891500,6.9298916015625,0.03960778776705265,-0.02065583453774452,-0.016999942378699777
1773256920960917500,6.93991748046875,0.03747311382591724,-0.025629385166615247,-0.019305753369349987
1773256920970943500,6.949943603515625,0.039244215151667594,-0.02681041164472699,-0.011911222671251743
1773256920980969700,6.9599697265625,0.04790215338170528,-0.028926527015864848,-0.0208703540712595
1773256920990995700,6.96999560546875,0.041723172485828394,-0.0271345290325582,-0.023033468655589966
1773256921001021700,6.980021728515625,0.03019523177742958,-0.025030834751576185,-0.020548319042660294
1773256921011047700,6.990047607421875,0.04198737637996673,-0.024969459953159093,-0.022366894505638626
1773256921021073700,7.00007373046875,0.051530865272879596,-0.016796382630616426,-0.016600421667098998
1773256921031099600,7.010099609375,0.04177051875889301,-0.025077742633223533,-0.016509546779561787
1773256921041125600,7.020125732421875,0.04023673332035541,-0.019286592011153698,-0.027839736426156014
1773256921051151600,7.030151611328125,0.044430677878856656,-0.02139335503205657,-0.026455223265197128
1773256921061177600,7.040177490234375,0.03393909448087215,-0.020081834042072293,-0.019521021821536123
1773256921071204600,7.05020458984375,0.041402854490280146,-0.02353460484445095,-0.013020827880967407
1773256921081230600,7.060230712890625,0.05097673852145672,-0.025033903491497037,-0.014965696604736149
1773256921091256600,7.070256591796875,0.046015316721796984,-0.019623568880558013,-0.013680844425968825
1773256921101282600,7.080282470703125,0.04134615586698055,-0.022562398811429737,-0.010893588327616452
1773256921111308500,7.09030859375,0.04490180252194404,-0.024255320334434508,-0.015094930741284042
1773256921121334500,7.10033447265625,0.03889057940840721,-0.021695552849024535,-0.015723474435787647
1773256921131360500,7.110360595703125,0.04080021242201328,-0.026397885321080682,-0.01742417740644887
1773256921141386500,7.120386474609375,0.05215981082618236,-0.02284516127556562,-0.0180232027455233
1773256921151412500,7.13041259765625,0.048717561417818064,-0.019098960484564304,-0.025217479897476733
1773256921161438500,7.1404384765625,0.05305412931740284,-0.021613281393051145,-0.021837938728090374
1773256921171464700,7.150464599609375,0.051717327755689615,-0.026912702975422143,-0.01769252775274217
1773256921181490700,7.16049072265625,0.050503860312700266,-0.025004239005595445,-0.016486933088954537
1773256921191516700,7.1705166015625,0.0449210917443037,-0.02721986922845244,-0.01724697594232857
1773256921201542700,7.180542724609375,0.045181788507103915,-0.026827801170945166,-0.030059768829494713
1773256921211568600,7.190568603515625,0.03872282162606716,-0.02383110357299447,-0.022893092070519924
1773256921221595600,7.200595703125,0.0331657720208168,-0.026993805387616157,-0.029068492769822478
1773256921231621400,7.210621337890625,0.038054713106155394,-0.018741233088076112,-0.02455947264647111
1773256921241647400,7.2206474609375,0.03877425955235958,-0.019882804338634014,-0.011423128627054392
1773256921251673300,7.23067333984375,0.04398527219891548,-0.024645780956745147,-0.029753607223462313
1773256921261699600,7.240699462890625,0.0503892940223217,-0.021610358783602714,-0.016725765079818666
1773256921271725600,7.2507255859375,0.0533563271343708,-0.029828298161178827,-0.0119534543777816
1773256921281751600,7.26075146484375,0.034189854371547694,-0.02645779881477356,-0.016195877720508723
1773256921291777500,7.270777587890625,0.042537411478161806,-0.011287117689847945,-0.021612715137470512
1773256921301803500,7.280803466796875,0.04730944818556308,-0.021498715102672577,-0.029077991250529883
1773256921311829500,7.29082958984375,0.03383388054072857,-0.023696663538366556,-0.015669808019790798
1773256921321855500,7.30085546875,0.039812370428442954,-0.017084113530814647,-0.020332429535966364
1773256921331881500,7.310881591796875,0.03622399054765701,-0.01366656017228961,-0.02057487825602293
1773256921341907500,7.320907470703125,0.03860825533568859,-0.021981676314026116,-0.02012264097649604
1773256921351934700,7.330934814453125,0.041593993148207664,-0.023574060072004795,-0.0261212238041684
1773256921361960700,7.340960693359375,0.03844575825035572,-0.02876505284383893,-0.017933551700692624
1773256921371986700,7.350986572265625,0.05084872822761535,-0.019959522836655377,-0.019629943822417405
1773256921382012700,7.3610126953125,0.05546294402480125,-0.018306494932621716,-0.01682962731309235
1773256921392038700,7.37103857421875,0.031195933252573013,-0.01964475779905915,-0.0114343258745037
1773256921402064600,7.381064697265625,0.047640872097015376,-0.019114011923223734,-0.020224347785301505
1773256921412090600,7.391090576171875,0.044345337682962414,-0.01805982669517398,-0.023545729026664047
1773256921422116600,7.40111669921875,0.0446247391462326,-0.014913345362991094,-0.024095252668205648
1773256921432142600,7.411142578125,0.045191140857338906,-0.01888926325663924,-0.014739632763899863
1773256921442168600,7.42116845703125,0.03931201969087124,-0.017847645249217746,-0.019154946721810846
1773256921452194600,7.431194580078125,0.04185410538911819,-0.014520254392176865,-0.023659619463607666
1773256921462220500,7.441220458984375,0.040948096460103986,-0.020002777456492184,-0.01974107604669407
1773256921472246500,7.45124658203125,0.04662789566218853,-0.018471768496930597,-0.02398315232954919
1773256921482272500,7.4612724609375,0.034794250005483626,-0.019599603483080864,-0.0228467139118351
1773256921492298200,7.47129833984375,0.03598784370422363,-0.018086860832571983,-0.02381470042746514
1773256921502324200,7.48132421875,0.04749415710270405,-0.017972732933610677,-0.029375969550106674
1773256921512350200,7.49135009765625,0.042543256697058676,-0.020721885511279105,-0.018649152624141425
1773256921522376000,7.5013759765625,0.039673254218697544,-0.01874094082713127,-0.016209193859808145
1773256921532402000,7.51140185546875,0.02350011805295944,-0.016258476361632346,-0.026540618260018526
1773256921542428200,7.52142822265625,0.03679214582443237,-0.015954671109467744,-0.020235983424168078
1773256921552454100,7.5314541015625,0.04590191947519779,-0.021704759068787098,-0.011858031179290265
1773256921562480000,7.541480224609375,0.039462241816520686,-0.023495734138786792,-0.016843582773208618
1773256921572506000,7.551506103515625,0.05367898321747779,-0.01679389841258526,-0.011003058317769317
1773256921582532000,7.561531982421875,0.04214227468073368,-0.019559709864109754,-0.016943627347890285
1773256921592558000,7.57155810546875,0.051392333585023875,-0.022526596845686434,-0.020414536595158277
1773256921602584000,7.581583984375,0.04270750734806061,-0.02503331896960735,-0.016178159400727598
1773256921612610000,7.591610107421875,0.03939794440865516,-0.021790829917043446,-0.015867193755414337
1773256921622637000,7.601636962890625,0.04295826723873615,-0.02459828855320811,-0.021048742845468222
1773256921632663300,7.611663330078125,0.03666764266192913,-0.022458938436955213,-0.018219638633076102
1773256921642689300,7.621689208984375,0.049645782178640366,-0.02427680151388049,-0.022836813572328536
1773256921652715300,7.63171533203125,0.040948096460103986,-0.015908786141127347,-0.017921751665044575
1773256921662741200,7.6417412109375,0.04332476246356964,-0.016681085687875748,-0.013622830628417432
1773256921672767200,7.651767333984375,0.039404374149441715,-0.024119126734137533,-0.01979002975495532
1773256921682793200,7.661793212890625,0.04357143070101738,-0.021716011115163563,-0.019925127376709133
1773256921692819200,7.671819091796875,0.0486509259223938,-0.014928689062595367,-0.017509481069725007
1773256921702845200,7.68184521484375,0.04355097243487835,-0.022479542833566665,-0.021361936980485916
1773256921712871200,7.69187109375,0.037242812201380725,-0.028914690447598694,-0.01826762422695756
1773256921722897200,7.701897216796875,0.03990647845268249,-0.026319705518335103,-0.015488277440425007
1773256921732923100,7.711923095703125,0.03946925607919693,-0.019213819035887716,-0.009861213072575628
1773256921742949000,7.72194921875,0.04304711456596851,-0.018692279379814863,-0.01000725221345201
1773256921752976100,7.73197607421875,0.03391571360528469,-0.01646042867451906,-0.026637703692633657
1773256921763002000,7.742002197265625,0.04930149878561496,-0.017775164534896613,-0.016134849981963635
1773256921773028000,7.752028076171875,0.04090893349349498,-0.019330869544297455,-0.007589724476635456
1773256921783054000,7.76205419921875,0.0421019426703453,-0.015576485446840524,-0.010761084521748124
1773256921793080000,7.772080078125,0.0438753820836544,-0.023511662360280752,-0.021173373872134832
1773256921803106000,7.78210595703125,0.049713586717844004,-0.016788053193688392,-0.01853254050714895
1773256921813132000,7.792132080078125,0.04687047224640846,-0.01560103536620736,-0.016810813014768063
1773256921823158300,7.802158203125,0.036819033831357956,-0.017811112631112336,-0.01940468369917944
1773256921833184300,7.812184326171875,0.04114098868370056,-0.029356296735256908,-0.016257599578797816
1773256921843210200,7.822210205078125,0.046370121508836744,-0.014657617036253213,-0.015524335134495049
1773256921853236200,7.832236328125,0.04306231213510036,-0.020368395898491144,-0.01801629808070138
1773256921863262200,7.84226220703125,0.044404958915710446,-0.020027473506331443,-0.017361505700089038
1773256921873288200,7.8522880859375,0.044838089635968206,-0.021115414873510596,-0.01989635793995112
1773256921883315200,7.862315185546875,0.043477322676777834,-0.013679711914807557,-0.016320928872283546
1773256921893341200,7.872341064453125,0.047369069418311115,-0.01952390789836645,-0.017811295294202865
1773256921903367200,7.8823671875,0.04211830928325653,-0.022279051825404166,-0.017505243286024777
1773256921913393200,7.89239306640625,0.050915363723039626,-0.028798662852495906,-0.02733151290938258
1773256921923419100,7.902419189453125,0.042049920222163195,-0.02046484201028943,-0.021894107628427445
1773256921933445000,7.912445068359375,0.044734044739604,-0.008583703950047492,-0.01110069173965603
1773256921943471000,7.92247119140625,0.04682020336389541,-0.01854629503786564,-0.01858034343793988
1773256921953497000,7.9324970703125,0.045026890206336975,-0.025013152964413164,-0.011734605729021132
1773256921963523000,7.942523193359375,0.03291793473958969,-0.026002017871290445,-0.022444270590785888
1773256921973549000,7.952549072265625,0.03453881393969059,-0.009793225870281457,-0.01510369856962934
1773256921983575000,7.962574951171875,0.05459609806239605,-0.014290098898112773,-0.013542988591548054
1773256921993601000,7.97260107421875,0.03901858970224857,-0.01796849514991045,-0.013106204609479755
1773256922003628300,7.982628173828125,0.031219314128160473,-0.015608488020300864,-0.008516009008698165
1773256922013654300,7.992654296875,0.047530397459864614,-0.020998656626045702,-0.011080817995406687
1773256922023680300,8.00268017578125,0.04857435355484485,-0.01632452733516693,-0.014124405208695678
1773256922033706200,8.012706298828125,0.03315758871436119,-0.02467895257398486,-0.026098975439742204
1773256922043732200,8.022732177734374,0.04034837700128555,-0.012328443436324596,-0.013143413081020116
1773256922053758200,8.03275830078125,0.05081716404557228,-0.014968582681566476,-0.013355357064958662
1773256922063784200,8.0427841796875,0.05006546889543533,-0.01914499158337712,-0.02361263851672411
1773256922073810200,8.05281005859375,0.034924013864994045,-0.018041268125176427,-0.01588809041297063
1773256922083836200,8.062836181640625,0.03851239374577999,-0.012048895842581987,-0.01297804818516597
1773256922093862100,8.072862060546875,0.036846506360173226,-0.014451134678721427,-0.012671192459389566
1773256922103888100,8.08288818359375,0.051639586344361305,-0.011331102962046861,-0.01898748120041564
1773256922113914400,8.092914306640624,0.03561316517293453,-0.017093904272466896,-0.01486121331695467
1773256922123940400,8.1029404296875,0.04368482794761658,-0.017916911093145606,-0.015854772665258497
1773256922133967000,8.112967041015626,0.04873334350883961,-0.020336831716448067,-0.013734382977802306
1773256922143993000,8.1229931640625,0.038407764327526094,-0.01915624362975359,-0.019280436265002934
1773256922154019000,8.13301904296875,0.03825520411431789,-0.022271599171310663,-0.018723752230312675
1773256922164045000,8.143045166015625,0.0336059170037508,-0.021743337513506412,-0.02732024259669706
1773256922174071000,8.153071044921875,0.042401217877864834,-0.01358136610686779,-0.010706614388152956
1773256922184097000,8.163096923828125,0.03356090881824493,-0.020395283905416724,-0.016295520436391233
1773256922194123300,8.173123291015624,0.04028641768097877,-0.027089228586107492,-0.023060959450714288
1773256922204149200,8.183149169921874,0.0411696302562952,-0.020553689337521792,-0.016140603869315234
1773256922214175200,8.19317529296875,0.0297977568924427,-0.017435557316988707,-0.016308873108308763
1773256922224201200,8.203201171875,0.0530032759130001,-0.017685732685774565,-0.020081103389710187
1773256922234227200,8.213227294921875,0.036515666970610615,-0.022580811250954864,-0.01856772141838446
1773256922244253200,8.223253173828125,0.03979191216230392,-0.017232143699377773,-0.016788546384032814
1773256922254280200,8.2332802734375,0.04635200133025646,-0.0180937289647758,-0.017229860410746187
1773256922264306200,8.24330615234375,0.041703298741579055,-0.01907543347850442,-0.016435349032189697
1773256922274332200,8.253332275390624,0.04212298545837402,-0.02500745387598872,-0.019888887019548565
1773256922284358100,8.263358154296874,0.04958265381455421,-0.020524901634454727,-0.018453301258478313
1773256922294384000,8.273384033203126,0.044350598379969595,-0.01755582269579172,-0.01584852558756247
1773256922304410000,8.28341015625,0.03746843765079975,-0.023234014462679625,-0.02089758913805708
1773256922314436000,8.29343603515625,0.04387655112743377,-0.017053864523023366,-0.004371566147729754
1773256922324462000,8.303462158203125,0.04940671272575855,-0.01522095000743866,-0.017937844283320008
1773256922334488000,8.313488037109375,0.04071311866044998,-0.030855449251830577,-0.011941252483334391
1773256922344514000,8.32351416015625,0.03426701126098632,-0.018073562959581613,-0.00895390723561868
1773256922354540000,8.3335400390625,0.04022913453578949,-0.0191164961412549,-0.020699125690199435
1773256922364566000,8.34356591796875,0.04752513676285743,-0.01871361442878842,-0.01367251498904079
1773256922374593300,8.35359326171875,0.04871113167703151,-0.014010405173897742,-0.012257150032091884
1773256922384619300,8.363619384765625,0.04481412423849106,-0.02054842864051461,-0.013590316598303615
1773256922394645200,8.373645263671875,0.050344285836815834,-0.006440408311039209,-0.008777016298752277
1773256922404671200,8.383671142578125,0.03491816864609718,-0.018163871591538188,-0.014049513341579585
1773256922414697200,8.393697265625,0.04296645054519176,-0.014335545475035905,-0.01922207540757954
1773256922424723200,8.40372314453125,0.03801379657387733,-0.0037231121763586996,-0.010950634010788052
1773256922434749200,8.413749267578124,0.04817395606040954,-0.013184329613298178,-0.007595387032441794
1773256922444775200,8.423775146484376,0.04623217434287071,-0.020674685368686913,-0.021323194138985126
1773256922454801200,8.43380126953125,0.03784486974775791,-0.022713643850386142,-0.011913104101084171
1773256922464827100,8.4438271484375,0.04321136521697044,-0.020482085406035185,-0.017275343520287423
1773256922474853000,8.45385302734375,0.044401451784372326,-0.013988339472562073,-0.012989829954504966
1773256922484883700,8.4638837890625,0.043346389773488044,-0.020986966188251972,-0.006588182751275599
1773256922494910700,8.47391064453125,0.03826280289888382,-0.014285714983940124,-0.012698263129405677
1773256922504936700,8.483936767578125,0.0427513464897871,-0.02041252730116248,-0.007027304820902645
1773256922514962700,8.493962646484375,0.0425812506198883,-0.017882570432126522,-0.01700427149394527
1773256922524988700,8.50398876953125,0.05513152011334896,-0.01762055849507451,-0.018782807207480073
1773256922535014700,8.5140146484375,0.04597615375518799,-0.006664864716678857,-0.01541302024712786
1773256922545040600,8.52404052734375,0.04477379222810268,-0.014414455930143594,-0.020335881868377325
1773256922555066600,8.534066650390624,0.04042144223749637,-0.013129384555667638,-0.022260127929225562
1773256922565092900,8.5440927734375,0.036084289816021915,-0.011181173097342251,-0.012830547739565372
1773256922575118800,8.554118896484376,0.04207388561964035,-0.010473170958459376,-0.01708102652458474
1773256922585144800,8.564144775390625,0.05013911865353584,-0.010227233373373746,-0.024794706174451855
1773256922595170800,8.5741708984375,0.04563303940594196,-0.012057079149037598,-0.023723277550656348
1773256922605197600,8.584197509765625,0.04172200344204902,-0.007737170123308897,-0.0112253775652498
1773256922615223600,8.5942236328125,0.038869536620378495,-0.013328852650523184,-0.018329291286319493
1773256922625249500,8.60424951171875,0.037811552000045774,-0.010857494100928306,-0.02014160140529275
1773256922635275500,8.614275634765624,0.03420388289690018,-0.02737476752921939,-0.019371457283012566
1773256922645301500,8.624301513671876,0.03926350437402725,-0.015524170737713575,-0.011338610415067523
1773256922655327700,8.63432763671875,0.04373743491768837,-0.013329583302885294,-0.016683094981871545
1773256922665353700,8.644353759765625,0.0417927305907011,-0.017532295689731834,-0.013476426161359994
1773256922675379700,8.654379638671875,0.041350247520208355,-0.015643267072737214,-0.014571418323833494
1773256922685405700,8.66440576171875,0.04163432515859604,-0.009426146123558281,-0.015029720017965882
1773256922695431700,8.674431640625,0.05119651875197887,-0.011856442010402679,-0.020632270999066532
1773256922705457700,8.684457763671874,0.05103519071042537,-0.015948825890570877,-0.01403192288596183
1773256922715483600,8.694483642578126,0.03741933781206608,-0.019545389077812433,-0.00971676310058683
1773256922725510700,8.7045107421875,0.03696750239133834,-0.012944675638526677,-0.009962116163782776
1773256922735536600,8.71453662109375,0.0444376921415329,-0.01584960329979658,-0.012406769369542598
1773256922745563000,8.72456298828125,0.04801204349696636,-0.015424217494577168,-0.012471559967752545
1773256922755588900,8.7345888671875,0.03948386912643909,-0.019769553222507237,-0.012503836535848677
1773256922765614800,8.74461474609375,0.03708148415982723,-0.019843056850135325,-0.021470712850894778
1773256922775640800,8.754640869140625,0.04545885188281536,-0.009925912339240311,-0.015350823464803397
1773256922785666800,8.764666748046874,0.042615152889490124,-0.010655249527096749,-0.011703900063503534
1773256922795692800,8.77469287109375,0.045022798553109165,-0.01627820397540927,-0.019268727560900152
1773256922805718800,8.78471875,0.05086626388430595,-0.010330401486903429,-0.016497326618805527
1773256922815744500,8.79474462890625,0.04247603667974472,-0.01532835590466857,-0.011553349144291132
1773256922825770500,8.8047705078125,0.03365150971114635,-0.010580576855689286,-0.014306428978405892
1773256922835797800,8.8147978515625,0.03379588661789894,-0.009950462258607148,-0.014568166920822113
1773256922845823700,8.82482373046875,0.04547054232060909,-0.012820318606495856,-0.01227048443770036
1773256922855849700,8.834849609375,0.046370121508836744,-0.010150514875352382,-0.01683286044979468
1773256922865875700,8.844875732421874,0.033334698846936225,-0.013317454473674297,-0.018221008606255053
1773256922875901700,8.854901611328126,0.03931961847543716,-0.016025105997174976,-0.008066749137546866
1773256922885927700,8.864927734375,0.04858136781752109,-0.01861746057793498,-0.014292345654126256
1773256922895953700,8.87495361328125,0.04110299476087093,-0.017136282109469176,-0.017970230449270454
1773256922905979600,8.884979736328125,0.0482715712159872,-0.014056144011765718,-0.011592439045663922
1773256922916005600,8.895005615234375,0.04092822271585464,-0.019827713150531053,-0.012860504486411808
1773256922926031600,8.905031494140625,0.043781274059414864,-0.015560995616763829,-0.0155034202106297
1773256922936057900,8.915057861328124,0.041839492341876026,-0.02051554928421974,-0.008372983808815479
1773256922946083800,8.925083740234374,0.04047054207623005,-0.01615750020518899,-0.014783070046827195
1773256922956110600,8.935110595703126,0.04387888921499252,-0.012018792965263127,-0.012505352639500051
1773256922966136600,8.945136474609376,0.04565232862830162,-0.010964899998158216,-0.009210969002917409
1773256922976162600,8.95516259765625,0.04127659776210785,-0.01494052563086152,-0.008797346700727939
1773256922986188500,8.9651884765625,0.03990121775567532,-0.0177636202275753,-0.023402849957253783
1773256922996214500,8.975214599609375,0.038998715957999225,-0.023279314909130332,-0.021823106485139576
1773256923006240500,8.985240478515625,0.04077449345886707,-0.014174655824899672,-0.011556746677774935
1773256923016266500,8.9952666015625,0.03417933297753334,-0.013799538902193306,-0.010491145006567238
1773256923026292700,9.005292724609374,0.035223873594403265,-0.013943769678473472,-0.015166899998951702
1773256923036318700,9.015318603515626,0.04403612560331821,-0.016983868026733396,-0.01613110538860783
1773256923046344700,9.0253447265625,0.0462760134845972,-0.01472206057459116,-0.012747180305048823
1773256923056370700,9.03537060546875,0.03340074982047081,-0.01079392734542489,-0.010739676407538354
1773256923066397700,9.045397705078125,0.029191023170948027,-0.018151012109965083,-0.011379928806144744
1773256923076423700,9.055423583984375,0.048017888715863224,-0.01722819817662239,-0.01622691217958927
1773256923086449700,9.06544970703125,0.03903787892460823,-0.009423954166471958,-0.02302031691307202
1773256923096475600,9.0754755859375,0.037521044620871545,-0.011079758549481629,-0.019857067109178752
1773256923106501600,9.085501708984374,0.04902852706313133,-0.010249737466126679,-0.009410126570519059
1773256923116527900,9.09552783203125,0.03958440689146518,-0.01345262516066432,-0.019233108258247374
1773256923126553900,9.105553955078125,0.0404769718170166,-0.0038569676890969273,-0.020000567233096806
1773256923136579800,9.115579833984375,0.04300912064313888,-0.00857099059894681,-0.011285893847141414
1773256923146605800,9.125605712890625,0.03968552917838097,-0.017954028233140705,-0.014389211891032755
1773256923156631800,9.1356318359375,0.0417711032807827,-0.010704349365830422,-0.019180483021866528
1773256923166657800,9.14565771484375,0.04385024764239788,-0.007907850515097379,-0.01929112205579877
1773256923176684500,9.1556845703125,0.02963175267577171,-0.016583032140880822,-0.019030169564671812
1773256923186710500,9.16571044921875,0.03007832739949226,-0.012076514501869678,-0.014696031084191053
1773256923196736500,9.175736572265626,0.04069558300375938,-0.002629033329337835,-0.01252511678589508
1773256923206762800,9.1857626953125,0.04084697417318821,-0.01029328434690833,-0.006410542895738035
1773256923216788700,9.195788818359375,0.03755728497803211,-0.018691402596980333,-0.01672430377509445
1773256923226814700,9.205814697265625,0.05086684840619564,-0.015205021785944699,-0.020658556217793375
1773256923236840700,9.2158408203125,0.03962473890185356,-0.013422376152873039,-0.010376944042369723
1773256923246866700,9.22586669921875,0.03348199836313724,-0.027466975857317447,-0.014632866187486797
1773256923256892700,9.235892578125,0.033165187498927114,-0.016881868956983088,-0.00961772317290306
1773256923266918700,9.245918701171876,0.043514147555828095,-0.018069325175881383,-0.015176709006913005
1773256923276944600,9.255944580078125,0.03890051628053188,-0.015402297923713922,-0.01891503701871261
1773256923286972000,9.265971923828126,0.045644145321846005,-0.017265169186145065,-0.009936378934327512
1773256923296998000,9.275997802734375,0.03873509658575058,-0.023374445846676827,-0.01994949463298544
1773256923307024000,9.28602392578125,0.03080255002081394,-0.00988835680782795,-0.01655040851291269
1773256923317049900,9.2960498046875,0.0360153162330389,-0.01989844029918313,-0.014867131601087748
1773256923327075800,9.306075927734375,0.030166590204834937,-0.020865677896142003,-0.015262085735425352
1773256923337101800,9.316101806640624,0.04455985721647739,-0.018944500575214622,-0.014059212751686572
1773256923347127600,9.32612744140625,0.04426934983730316,-0.007629618095606565,-0.012427465097699314
1773256923357153500,9.336153564453125,0.03438625372648239,-0.009384060547500848,-0.023158848600927737
1773256923367179500,9.346179443359375,0.028560324051976203,-0.016786591888964177,-0.006988013990130275
1773256923377205500,9.35620556640625,0.04142798893153667,-0.016933160752803086,-0.004427515852358192
1773256923387231500,9.3662314453125,0.04579027579426765,-0.015884090091288088,-0.011227039799373596
1773256923397257700,9.3762578125,0.0463853190779686,-0.01333016782477498,-0.01440577943334356
1773256923407284700,9.38628466796875,0.040672786650061604,-0.016428864492475985,-0.009680431411881
1773256923417310700,9.396310791015624,0.04515548502206802,-0.019379384861141442,-0.014470953624043614
1773256923427336700,9.406336669921876,0.03752338270843029,-0.010392506937682629,-0.020042196151427924
1773256923437362700,9.41636279296875,0.041267829933762545,-0.014291267941892146,-0.013574461442045866
1773256923447388700,9.426388671875,0.04188040887415409,-0.016799743631482122,-0.008672624342516064
1773256923457414700,9.43641455078125,0.03557575577199459,-0.016980068634450434,-0.013159067307878285
1773256923467440600,9.446440673828125,0.04977788412570953,-0.012836100697517394,-0.02356459812391549
1773256923477466600,9.456466552734375,0.04779986205101013,-0.009916121597588062,-0.012933642787858843
1773256923487492600,9.46649267578125,0.04058744645416736,-0.0067241936884820455,-0.01675071685798466
1773256923497518600,9.4765185546875,0.03818564600944519,-0.016538023955374955,-0.014126231839600949
1773256923507544800,9.486544921875,0.043866029733419416,-0.012759528329968451,-0.010085833874996751
1773256923517571600,9.496571533203126,0.044622985580563546,-0.008025193284451962,-0.007121906035486608
1773256923527597600,9.50659765625,0.039838089391589164,-0.012534633532911538,-0.012103749568667261
1773256923537623600,9.51662353515625,0.04837503159046173,-0.026214929969608784,-0.01411360982004553
1773256923547649500,9.5266494140625,0.03774316293895244,-0.018975772496312857,-0.012643025810830294
1773256923557675500,9.536675537109375,0.04058627741038799,-0.0083535484559834,-0.015778035900928078
1773256923567701500,9.546701416015624,0.04013970268666744,-0.009271393953263759,-0.01636590052517131
1773256923577727500,9.5567275390625,0.047318216013908385,-0.017784663015604017,-0.016110829785559326
1773256923587753500,9.56675341796875,0.034008652585744856,-0.012150748781859875,-0.01420536149041727
1773256923597779700,9.57677978515625,0.038030163186788556,-0.01260404550731182,-0.009359127035643905
1773256923607805700,9.5868056640625,0.04206044161617756,-0.012088935592025517,-0.021478530831169337
1773256923617831700,9.596831787109375,0.03068330755531788,-0.00863411896303296,-0.021796035815123467
1773256923627857700,9.606857666015625,0.03993745811283588,-0.009055705375969409,-0.013517689753510058
1773256923637884700,9.616884765625,0.04293196375370025,-0.010554711762070654,-0.008492938660364598
1773256923647910700,9.62691064453125,0.04456687147915363,-0.013777765461802483,-0.009330394131504
1773256923657936600,9.6369365234375,0.04172434152960777,-0.016922785489261148,-0.01817163477288559
1773256923667962600,9.646962646484376,0.03874386441409588,-0.01119607840552926,-0.014857121663726866
1773256923677988900,9.65698876953125,0.03542202651500702,-0.01579290467649698,-0.015959347284585236
1773256923688014800,9.667014892578125,0.035547698721289635,-0.013248188629746437,-0.018374390803370624
1773256923698040800,9.677040771484375,0.05005903915464878,-0.013379706054925918,-0.010392415606137365
1773256923708066800,9.68706689453125,0.03718903618752956,-0.01653217873647809,-0.01266980421990156
1773256923718092800,9.6970927734375,0.04106850796937942,-0.018841916983574628,-0.016012063852511346
1773256923728118800,9.707118896484374,0.046602761220932,-0.0117640875518322,-0.014863752333912997
1773256923738144500,9.71714453125,0.03911445129215717,-0.02130553061813116,-0.008352178482804447
1773256923748171500,9.727171630859376,0.040622517767548556,-0.017342472206056118,-0.011385518296714872
1773256923758197500,9.737197509765625,0.044803602844476695,-0.013679711914807557,-0.016855127080529927
1773256923768223700,9.7472236328125,0.03612169921696186,-0.00946589361205697,-0.008332670064736158
1773256923778249700,9.757249755859375,0.03731178578436375,-0.013930617935955524,-0.011173574312776326
1773256923788275700,9.767275634765625,0.03744564129710197,-0.015040332743525503,-0.018645645492803304
1773256923798301700,9.7773017578125,0.045669279763102526,-0.01125993742197752,-0.015012038230802863
1773256923808327700,9.78732763671875,0.053018473482131956,-0.014521861827373504,-0.005728022257983684
1773256923818353700,9.797353759765626,0.044942719054222105,-0.015161182644218205,-0.010156725420430302
1773256923828379600,9.807379638671875,0.03730243343412876,-0.015985796900093555,-0.01516525603113696
1773256923838405600,9.817405517578125,0.03685293610095978,-0.013288812901079654,-0.010834734279848634
1773256923848431600,9.827431640625,0.03234101163446903,-0.007035597725212573,-0.009646510875970125
1773256923858459000,9.837458984375,0.03830956465005875,-0.01890095369443297,-0.014798596409521997
1773256923868484600,9.847484619140625,0.03725859429240227,-0.022783348085731268,-0.02142786008985713
1773256923878510600,9.857510498046874,0.04578735318481922,-0.01052314758002758,-0.015491985501162707
1773256923888536600,9.86753662109375,0.042026539346575735,-0.008440203826129436,-0.013826262512337416
1773256923898562600,9.8775625,0.044236032089591024,-0.017165362073481082,-0.019006258966121823
1773256923908588500,9.887588623046875,0.05386836830973625,-0.01815875702500343,-0.04157000948442146
1773256923918614500,9.897614501953125,0.568604774108529,0.11193433443978427,-0.00412921789237298
1773256923928640500,9.907640625,5.525013714042306,2.0091990109905598,1.572050871784985
1773256923938666500,9.91766650390625,-0.991931308710575,0.3929455709941685,0.47271633272562175
1773256923948692500,9.9276923828125,-4.351419431757927,-1.6102528844073414,0.0416965219409205
1773256923958718500,9.937718505859374,-1.4081401202619075,-2.023118961402029,0.9334664063908159
1773256923968745700,9.947745849609374,0.4325982208162546,-1.5846794672116635,0.9463524106446654
1773256923978771700,9.957771728515626,-0.19919395408928392,-1.1551442872278392,0.6992897670518606
1773256923988797700,9.967797607421875,-0.47021863415837284,-1.2683826900035142,0.5026777192145586
1773256923998823700,9.97782373046875,0.20426585052609442,-1.8458976235374807,-0.596012640189752
1773256924008849700,9.987849609375,1.0193442162930966,-1.0875054599799214,-1.3984215670630336
1773256924018875600,9.997875732421875,1.0663538047492505,0.7306957628585398,-1.587961996013671
1773256924028901600,10.007901611328125,0.5303706127822398,2.353028084377199,-1.7527479229360818
1773256924038927600,10.017927734375,-0.025161329263448714,3.183453218488395,-1.0425189017839729
1773256924048953600,10.02795361328125,-0.9477911382108927,2.1822521232597527,0.45449013648759573
1773256924058979800,10.037979736328126,-1.2219453484773635,0.11553118988797068,1.5350297395102679
1773256924069005800,10.048005859375,-0.6765162827730179,-1.126441193704307,1.2510711974576114
1773256924079031800,10.05803173828125,-0.6947521966874599,-0.9188720638491212,0.7980342189203947
1773256924089058600,10.06805859375,-0.8529097915112972,-0.5066803789846599,1.0438076264202594
1773256924099084500,10.07808447265625,-1.4903332503020763,-0.46336774535030123,1.473913592029363
1773256924109110500,10.088110595703125,-2.6632331205815074,-0.5172673855811357,1.1424136927314101
1773256924119136500,10.098136474609374,-4.969357853356003,0.07159414074495435,-0.5183509065015242
1773256924129162500,10.10816259765625,-2.7107664406508207,0.8423962885424494,0.0225155639950186
1773256924139188700,10.118188720703126,-0.24339082321226596,0.8814630282353609,1.0433840672459453
1773256924149214700,10.128214599609375,0.21893033569455145,0.39727395558729767,1.5153266756527124
1773256924159240700,10.13824072265625,0.24761224029958245,-0.37418000718243416,1.516644187992066
1773256924169266700,10.1482666015625,0.6430062273591757,-0.9726415748942643,1.04626364127025
1773256924179292700,10.158292724609375,1.7509528562128542,-1.2731421594902872,0.3015520664103329
1773256924189318700,10.168318603515624,3.8862534048140045,-1.3164612228654324,-0.4819295302182436
1773256924199345700,10.178345703125,4.9987277402251955,-0.6686294750459492,-0.4962238669000566
1773256924209371600,10.18837158203125,-0.9463836095005274,0.21820746478009967,0.6862664001539349
1773256924219397600,10.198397705078126,-5.735718073183298,1.366310126400739,1.6656246430173516
1773256924229423900,10.208423828125,-3.066562576815486,2.9935160453051326,1.6344325091570615
1773256924239449900,10.218449951171875,-1.7401169894218445,3.6952018406480547,-0.09171645292788744
1773256924249475800,10.228475830078125,-1.2153308987736702,3.2087434348285195,-0.5124295901611448
1773256924259501600,10.23850146484375,-0.1418050104379654,2.2413642374418674,-0.21821780351102352
1773256924269527600,10.248527587890624,3.2244495380043983,-0.19080197331905363,0.30268501596301794
1773256924279553500,10.258553466796876,8.238764138939976,-3.771948395720124,1.3560717871114611
1773256924289579500,10.26857958984375,-0.08756196359694003,-4.282906159763038,-2.012196439240873
1773256924299605500,10.27860546875,-4.027348221156001,-3.1384044087111946,-5.938228019952773
1773256924309631500,10.288631591796875,-1.0652309381991625,-3.1242227386236188,-7.49911540042758
1773256924319658800,10.29865869140625,0.9927139835208654,-4.087777847677469,-8.253652495992183
1773256924329684700,10.308684814453125,2.103491451886296,-5.191438177514076,-8.788897436812519
1773256924339710700,10.318710693359375,1.8496224892795086,-4.674781909568607,-8.482728962647915
1773256924349736700,10.32873681640625,-0.017331658551096914,-2.930523290297389,-4.776832417245209
1773256924359762700,10.3387626953125,-0.024286884516477585,-2.442809769850224,-2.7584546590209005
1773256924369788700,10.34878857421875,-0.8712737157195806,-3.454712291835248,-3.8281326397567987
1773256924379814700,10.358814697265625,-2.3393185618460177,-5.496251729938388,-1.4853063620507716
1773256924389840600,10.368840576171875,-1.2968155882835388,-5.223287606239318,1.6230933690190315
1773256924399866600,10.37886669921875,-0.29541444043815135,-4.000380426992476,3.0966236608192323
1773256924409892600,10.388892578125,1.8410680114239453,-3.279298441784084,4.14513376584202
1773256924419918600,10.398918701171874,2.7529776889145374,-2.042697229836136,4.227956133696437
1773256924429945600,10.408945556640624,2.7439059091866014,-1.7466494599305091,4.720445636373758
1773256924439971600,10.4189716796875,1.8809101924687623,-1.0708093228533864,5.729426864084601
1773256924449997600,10.42899755859375,1.6788380525946616,-0.0714312052682042,6.34088878314495
1773256924460023600,10.4390234375,2.0553835467994213,1.0377075559794902,5.276636919111013
1773256924470049500,10.449049560546875,0.9114297850191593,2.844141768656671,3.7652816313073036
1773256924480075500,10.459075439453125,-0.11087094299197196,2.8049025219410657,2.571455585116148
1773256924490100700,10.469100830078125,-0.21438100182712078,2.9970301909059285,2.1481930556610225
1773256924500126700,10.479126708984374,-1.7380168022722005,4.51558941873908,0.8028700415790081
1773256924510153000,10.489153076171876,-3.183585612696409,5.745663713136315,0.7698838639087975
1773256924520179000,10.499178955078126,-3.962199164897203,6.567037964177131,1.616059524859488
1773256924530205000,10.509204833984375,-4.071079226332903,7.278751232537627,1.683123182567954
1773256924540231000,10.51923095703125,-3.8040404010295865,7.55957776017487,1.3965014126554132
1773256924550258000,10.5292578125,-2.805049236935377,7.783395283389091,1.23618678592816
1773256924560284000,10.539283935546875,-1.3656401181846856,7.998042827197909,1.100924182870984
1773256924570310000,10.549309814453125,-0.2858499087572098,7.9102002930939195,0.9413760104715824
1773256924580335900,10.5593359375,0.910522022524476,7.977221572965383,0.766246091928333
1773256924590361900,10.56936181640625,1.4340940612077713,7.893353787711262,-0.36592809247002006
1773256924600388000,10.57938818359375,0.780270087236166,7.212391631445288,-0.7978469527199864
1773256924610414000,10.5894140625,0.02285655945241451,6.188247321394085,-0.8573698396600782
1773256924620440000,10.599440185546875,0.4431768979758024,4.531313642093539,-2.1466106087751684
1773256924630466000,10.609466064453125,1.2584224370032548,3.127364543780684,-3.4746909577637908
1773256924640492000,10.619491943359375,1.616033513635397,2.592884742113948,-4.118794040448964
1773256924650518000,10.62951806640625,1.0806897886157034,2.008583801701665,-3.874061447238922
1773256924660544800,10.639544677734374,-0.0053021980613470075,1.4026666572868822,-2.8035195431500672
1773256924670570800,10.64957080078125,-1.2133043613821268,1.8645067546784877,-1.934424925035238
1773256924680596700,10.6595966796875,-2.7028081751227377,1.2995476435959339,-1.2123778941869734
1773256924690623000,10.669623046875,-3.0944390102565285,-0.3478343635052442,-1.553870779711008
1773256924700649000,10.67964892578125,-2.9218647675454616,-1.986356187802553,-1.99722566460222
1773256924710675000,10.689675048828125,-2.748643459102511,-3.6556986822992563,-2.8747362288847564
1773256924720701000,10.699700927734375,-2.0259400101721288,-4.237396746736764,-3.4178596479952335
1773256924730727000,10.709726806640624,-1.1571405756115913,-3.1053602172434327,-3.699513274106383
1773256924740753000,10.7197529296875,-0.2677805835813284,-2.7282664415061473,-3.9675592306256293
1773256924750779000,10.72977880859375,0.31750469169318674,-2.4805592163994907,-3.213436853341758
1773256924760804900,10.739804931640625,0.4075549649745226,-1.8868691008731722,-1.947778619866073
1773256924770830800,10.749830810546875,0.6632026276916265,-1.6565455567657947,-0.587512303674221
1773256924780858000,10.759858154296875,0.8115817558228969,-1.4951923807710408,0.1377019590333104
1773256924790884000,10.769884033203125,0.7721697828888893,-1.7920400688827036,0.3234790899276733
1773256924800910000,10.77991015625,1.7523235600441693,-2.56859844211936,0.6670806381687522
1773256924810936000,10.78993603515625,2.3789620054483414,-2.1828090264901516,0.8652297593802213
1773256924820962000,10.799962158203124,2.591994515275955,-1.2319617155790328,0.8256739940613508
1773256924830988000,10.809988037109376,2.107697671404481,-0.9050766166001558,1.0575061891660094
1773256924841014000,10.820013916015625,0.396336236345768,-1.100039362860471,1.4555299402073025
1773256924851040000,10.8300400390625,-1.846954731374979,-1.2612212739415467,1.477767198717594
1773256924861066000,10.84006591796875,-3.058650488516688,-2.5138743337631224,1.376754509656131
1773256924871092000,10.850092041015625,-3.240548439890146,-2.8928859258204698,0.9944532284036278
1773256924881118000,10.860117919921874,-3.1070857258617877,-2.028635094475001,0.8754743822798132
1773256924891145000,10.87014501953125,-2.6718478041917084,-1.8080378484815358,0.6521139551833272
1773256924901171000,10.8801708984375,-1.864565791389346,-1.5359489001818,0.15605185471624136
1773256924911197000,10.890197021484376,-0.8086492095023393,-1.0991485515005885,-0.5670313873119652
1773256924921223000,10.900222900390625,0.0729150140851736,-0.5679087546683848,-1.0175291296951472
1773256924931249000,10.910248779296875,0.9010007454633713,-0.32929771307855843,-1.1081909590035677
1773256924941275000,10.92027490234375,1.7619003666847943,0.03719795014634728,-1.648847988000512
1773256924951300900,10.93030078125,2.702145911821723,0.23032186360694468,-2.1244687734633683
1773256924961326800,10.940326904296874,2.3742788160681725,-0.9259761967658996,-3.9811303675994276
1773256924971353000,10.95035302734375,1.79644853297472,-1.7205960041329265,-0.8377627835229039
1773256924981379000,10.960379150390626,2.1851988442361354,-1.1754544501330704,-0.5116036607310176
1773256924991405000,10.970405029296876,1.6821557988405227,-0.8461864015404135,-0.4861369187802076
1773256925001431000,10.98043115234375,1.3053396710008383,1.0413901900149882,0.7840776628255843
1773256925011458000,10.9904580078125,1.67425306289196,1.856889265412092,0.6242015736460685
1773256925021483800,11.00048388671875,1.8410253413259983,2.4101652452245355,0.897002615737915
1773256925031509800,11.010509765625,1.0872545539587735,1.6660773552209138,1.2205132698476313
1773256925041535700,11.02053564453125,0.42860067561268805,1.4854162521660328,1.6060010721817612
1773256925051561700,11.030561767578124,0.5995499474704266,2.291086007466167,1.2291218159779906
1773256925061588000,11.040587890625,1.892382603597641,1.071356435342133,-0.7744514640852809
1773256925071614000,11.050614013671876,-0.4420411719441414,-0.1608345589481294,-0.28533932888656854
1773256925081640000,11.060639892578125,-1.2373282110482453,0.29764307627305386,0.4672261743441224
1773256925091666000,11.070666015625,-1.6882541157156228,2.176295991334319,0.18054098380655048
1773256925101692000,11.08069189453125,-4.224682811114191,3.5146067885667085,2.250952296128869
1773256925111718000,11.0907177734375,-3.37385216396451,4.815068332137167,3.7237735628768798
1773256925121744000,11.100743896484374,-1.1418231794923543,-1.5282525004602967,4.348644121825695
1773256925131771000,11.11077099609375,-1.6881781278699635,-6.155073950588703,1.7861022032663225
1773256925141796900,11.120796875,-1.5212427678287028,-3.1500387324035164,-1.0663847844094037
1773256925151823000,11.130822998046876,0.07827741790115833,0.14525588154420255,-1.4522159933537244
1773256925161849000,11.14084912109375,0.7431073545336723,-0.14301365557536483,-1.020212523560226
1773256925171875000,11.150875,0.9122440240114926,-2.080262113598734,-0.698515640874207
1773256925181901000,11.160901123046875,1.4580805014729499,-2.512548345856368,-0.2670098914697766
1773256925191927000,11.170927001953125,1.8391975413769484,-1.9361181388191877,0.11647095495611429
1773256925201953000,11.180953125,2.2273761902302502,-1.2492550879463553,0.5883206974476576
1773256925211979000,11.19097900390625,1.0926894384890795,0.8733360550768673,1.1511460113719105
1773256925222005000,11.2010048828125,-0.5260650245428085,2.2372459884680804,0.9002072569981217
1773256925232031000,11.211031005859375,-0.793946145889163,2.2013082675158975,-0.27574177171885966
1773256925242057000,11.221056884765625,-0.6099766489386558,1.8694199534222482,-0.6947033891096711
1773256925252084000,11.231083984375,-0.04366787681281566,1.0283867699265479,-0.5104404621705413
1773256925262110000,11.24110986328125,0.5411199703335762,-0.641966289852187,0.23727760102897882
1773256925272136000,11.251135986328125,0.5591349349737167,-1.7735595325574278,1.0870002869367599
1773256925282162000,11.261161865234374,0.4871913962692022,-2.061597160617262,2.087031899994612
1773256925292188000,11.27118798828125,0.6294371362119913,-2.5041128182053565,2.702708806401491
1773256925302214000,11.2812138671875,0.7862906626999377,-2.637399591144919,2.7821190277248617
1773256925312239900,11.291239990234375,0.19932313342690466,-2.0913164454460142,2.203608945673704
1773256925322265900,11.301265869140625,-1.0869950262397527,-0.5960859246216714,0.8533125270932912
1773256925332291800,11.311291748046875,-2.8847493811160323,0.4717606029033661,-0.4642141330465674
1773256925342318000,11.321318115234375,-3.9554339085459707,0.27177812878489493,-1.6060101322710514
1773256925352344000,11.331343994140624,-3.836164555042982,-0.7581646384119987,-1.8479801288999615
1773256925362370000,11.3413701171875,-1.5308271732538938,-0.31258447868674993,-2.4733085146188736
1773256925372397000,11.35139697265625,1.1793991691708563,0.23456045102477072,-2.996877922953665
1773256925382423000,11.361423095703126,2.044827665993571,0.19616759200543163,-2.73312849458456
1773256925392449000,11.371448974609375,1.078244149029255,-0.19172230303436516,-2.6982036039367316
1773256925402475000,11.38147509765625,0.14728724124133585,-0.36410686839222905,-2.1927548125736416
1773256925412500700,11.391500732421875,-1.3966688781768082,0.03871200797110796,-1.7922816225536167
1773256925422526700,11.401526611328125,-2.2695278172612188,-0.1640580510392785,-2.002509450224042
1773256925432553000,11.411552978515624,-1.0685603748828172,-0.5334788079306483,-3.0065657887533304
1773256925442579000,11.421578857421874,0.42225218336880205,-0.5712190482601524,-2.223270654607564
1773256925452605000,11.43160498046875,1.5007511839419603,-0.5261179237738252,-0.46470542369484896
1773256925462631000,11.441630859375,1.416557819995284,-0.3268938668072223,0.19302111067324876
1773256925472657000,11.451656982421875,0.5447632952719926,0.6304124109849334,2.0453676180891693
1773256925482683000,11.461682861328125,0.3584545417189598,1.741102493327856,1.5770171158902346
1773256925492707000,11.47170703125,-0.46590135548114775,0.5650631559789181,-0.7476816767118871
1773256925502733000,11.481733154296874,-1.4740601608932018,-2.9106653281390664,-0.4267328359141946
1773256925512759000,11.491759033203126,-1.9788871670961379,-5.608097070920467,0.33875133173093197
1773256925522785000,11.501784912109375,-1.8066285662055015,-2.552152041970193,0.572825314413011
1773256925532811000,11.51181103515625,0.3328454686880111,2.8452614203363655,1.4215692184165118
1773256925542837200,11.521837158203125,3.079794398832321,5.0134103455722325,2.133586730420589
1773256925552863200,11.53186328125,2.5928812349826096,2.9573057910218834,2.899541584317386
1773256925562889200,11.54188916015625,1.1318266861349344,-0.2772518840208649,3.266009628883004
1773256925572915200,11.551915283203124,-0.7923883950531482,-0.9165990043506026,1.4423422495931386
1773256925582941000,11.56194091796875,-1.4752590152889489,-0.09173603441119194,-0.7919999802574514
1773256925592967000,11.571966796875,-0.5637099878042936,0.41881607144027944,-1.3157936988674104
1773256925602994000,11.581993896484375,-0.09952712667882442,1.239833764128387,-0.4697808272629976
1773256925613020000,11.59202001953125,0.1955313399285078,1.4941259205833077,0.36202275559455155
1773256925623046000,11.6020458984375,0.3869312791407108,1.2120409173175692,0.9721804601885378
1773256925633072000,11.612072021484375,0.38539515561461446,0.4329907272651791,0.5571098588868976
1773256925643098000,11.62209814453125,-0.03167231859266758,-0.3956704659134149,-0.22676482871249318
1773256925653124000,11.6321240234375,-0.38252281504869456,-0.4611088605076074,-0.3641613750584423
1773256925663150000,11.642150146484376,-1.133134846124053,-0.03437923946380615,0.2668282512925565
1773256925673176000,11.652176025390625,-1.6138701981216668,-0.7943933051347732,0.7139050793163478
1773256925683202000,11.6622021484375,-1.59702310821712,-1.5111141725242137,0.7163096562400459
1773256925693228000,11.67222802734375,-1.6368325560361145,-0.9754954299554228,0.12093231827914715
1773256925703254000,11.68225390625,-0.3669412150353193,-0.42785190307199955,-0.9172314570352434
1773256925713280000,11.692280029296874,0.8419470834702253,-0.3683730014041066,-2.0524144678607583
1773256925723307000,11.70230712890625,0.9673492406398058,-0.4963704357638955,-1.5078478642046451
1773256925733333000,11.7123330078125,-0.21582009471952915,-0.4269537851884961,0.14085107071399688
1773256925743359000,11.72235888671875,-2.558391520881653,-0.07754588875621557,1.623528837826848
1773256925753385000,11.732385009765625,0.5901964281916618,0.7391679692581296,1.7709475964933632
1773256925763411000,11.742410888671875,3.0106325998008248,0.997222400856018,-0.10300970809757709
1773256925773437000,11.75243701171875,3.038995939975977,0.3542076979294419,-1.1270850445657967
1773256925783463000,11.762462890625,0.8919996928840875,0.17858371225893496,0.03393091117441654
1773256925793489000,11.772489013671875,-2.4956641388118266,0.10477905585765838,1.9592904862225053
1773256925803515000,11.782514892578124,-3.8901223552018402,-0.6158446641892195,2.6412837391018864
1773256925813540900,11.792540771484376,-3.3967426256865263,-0.6632863604523241,2.5847014356583355
1773256925823566800,11.80256689453125,-1.464993641862273,-0.1337121587447822,1.3426660698324442
1773256925833593000,11.812593017578125,1.4650176072597503,0.5861411614514886,-0.08256371691823006
1773256925843620000,11.8226201171875,3.3703222362726923,1.5473866783887147,-0.7613730790644884
1773256925853646000,11.83264599609375,3.716978788170218,3.282149155040085,-0.0012432780593633651
1773256925863672000,11.842672119140625,2.66397487885952,3.7047757246792314,0.5293973838359117
1773256925873698000,11.852697998046875,4.436022545549274,3.16226751485765,-0.460772175899148
1773256925883724000,11.86272412109375,5.66462033765316,3.989310751445591,0.4888610830470919
1773256925893750000,11.87275,2.3827099598050117,3.88634605153352,0.8049307735010981
1773256925903776000,11.88277587890625,3.3098715669631957,4.109010605320334,0.10520984849035739
1773256925913802000,11.892802001953125,2.323277527627349,1.7209535853989422,-2.7629721364453435
1773256925923828200,11.902828125,-0.9973591789782047,-1.3104264727458357,-2.7907445249900222
1773256925933854200,11.912854248046875,-2.010669960325956,-2.13337557188794,-1.242593584230542
1773256925943880200,11.922880126953125,-3.9738545313775537,-2.8073835251018404,-0.5637038503244519
1773256925953906200,11.93290625,-4.363837014782429,-3.0929990405812857,0.1741951219111681
1773256925963932200,11.94293212890625,-4.284047438752651,-2.8807079967707394,0.6939741980522871
1773256925973959000,11.952958984375,-3.4721307518869637,-2.320383413621038,1.0307865245446561
1773256925983985000,11.96298486328125,-1.8348738329589367,-1.6358448601730167,0.852628636482358
1773256925994011000,11.973010986328125,0.3481470827162266,-0.5505941933825612,0.3778045543551445
1773256926004037000,11.983037109375,0.42341129027605057,-1.1964826981797814,-0.8708312326490879
1773256926014063000,11.99306298828125,1.84788529022336,-1.4042659091770648,-1.0033855996608734
1773256926024089000,12.003089111328125,1.7116712316602467,-0.2365282439664006,0.5629048089012503
1773256926034115000,12.013114990234374,-0.0970095908999443,-0.22931670515239239,0.6949480115205049
1773256926044141000,12.02314111328125,-0.7767202858000993,-0.29892654021233317,0.5257426607206463
1773256926054167000,12.0331669921875,-0.3577677284985781,-0.8377548924773931,0.43396570977717636
1773256926064193000,12.043193115234375,0.7014625079810619,0.03948313847407699,1.05808311227113
1773256926074219000,12.053218994140625,0.9775444714397191,0.8387067863747477,0.9647636080607771
1773256926084245000,12.063244873046875,0.923424174195528,0.45021234957054257,0.6384805666282772
1773256926094272300,12.073272216796875,2.4017922614157197,-0.30766192759275435,-0.09507306987941265
1773256926104298200,12.08329833984375,2.8554385309576986,-0.5406618513025343,-1.525660584270954
1773256926114324000,12.093323974609374,1.3980331522673368,-0.14473580319285392,-1.3853142482087015
1773256926124350000,12.103349853515626,-0.4293324970185756,0.14389058454036713,-0.4286471451029181
1773256926134376000,12.1133759765625,-0.4816407764047384,-0.24255963308513162,1.019539154343307
1773256926144402000,12.12340185546875,-2.0955817016750573,-0.7366710378758609,0.8229296637892722
1773256926154428000,12.133427978515625,-2.6256816808223724,-0.6943083984427154,-0.01705254934877157
1773256926164454000,12.143453857421875,-1.4478203887432812,-1.114073441170901,-0.2916445665106177
1773256926174480000,12.15347998046875,-1.0722118831276892,-0.4584690135233104,0.1878793638706207
1773256926184505900,12.163505859375,-0.33775194543004033,0.03125350865870714,0.5213076008826494
1773256926194531800,12.17353173828125,0.869583278414607,0.16705241054967046,0.22990181156396863
1773256926204559000,12.18355908203125,2.3930776245623826,0.9509529632426797,-0.1758775220401585
1773256926214585000,12.193585205078126,1.60181618771255,1.0401420896500349,-0.477434995277971
