time,seconds_elapsed,z,y,x
1773257640132663000,0.0596630859375,0.8484417061865329,-0.25911095491349695,0.15306056394577025
1773257640142675000,0.069675048828125,0.6078665249168872,-0.14593641115427017,0.05955985794961452
1773257640152687900,0.07968798828125,0.31040099716782565,-0.08626315595805645,0.07140490178316831
1773257640162700000,0.089699951171875,-0.0018231237739324568,-0.05823825395703315,0.050075698028504846
1773257640172712000,0.0997119140625,-0.09134323570132255,-0.059769701308012006,-0.10942542035877705
1773257640182724900,0.109724853515625,-0.014379823008179663,-0.15139292299449442,-0.3177750330671668
1773257640192736800,0.11973681640625,0.05267068295776844,-0.379396207460761,-0.43031390927135943
1773257640202750000,0.12975,0.08294014901518822,-0.40049218698143957,-0.3812774911627173
1773257640212761900,0.139761962890625,0.14291209489703177,-0.1742851382821798,-0.18035452132374047
1773257640222773800,0.149773681640625,0.06818155582249164,0.08415303193628787,0.08467413320094347
1773257640232787000,0.159786865234375,-0.14281389521956442,0.11369009206593036,0.28899200617522
1773257640242798800,0.169798828125,-0.3197060011297464,0.02454933484494686,0.12393939114063977
1773257640252812000,0.17981201171875,-0.40401626945436,-0.11154255864322185,-0.12839081759154797
1773257640262824200,0.18982421875,-0.4140624471724033,-0.16247662706673144,-0.26834830046668645
1773257640272836400,0.19983642578125,-0.42229894511997695,-0.3297147694468498,-0.2365485561020672
1773257640282849300,0.209849365234375,-0.6896580884188414,-0.6134855338424444,0.05220350383743644
1773257640292861400,0.219861328125,-0.8517448393851518,-0.5559054515331984,0.13126140459179877
1773257640302873300,0.229873291015625,-0.6892085910856723,-0.29299568885862826,0.05923223343044519
1773257640312886500,0.239886474609375,-0.3060579995274544,-0.01698854420185089,-0.08304887008666992
1773257640322898400,0.2498984375,-0.06466331856846809,0.18076631699502468,-0.18557751666903494
1773257640332911600,0.25991162109375,-0.1446504629969597,0.3638298050165176,-0.07231397945210337
1773257640342923500,0.269923583984375,-0.2959346649199724,0.4743722467064857,0.011807049910724163
1773257640352935400,0.279935302734375,-0.19955226600766182,0.40571781267523765,-0.11915712530016899
1773257640362948400,0.2899482421875,0.13126257363557814,0.3002180413275957,-0.4470471635378897
1773257640372960300,0.299960205078125,0.45224575509428977,0.17273966240584848,-0.6156374511793256
1773257640382973400,0.309973388671875,0.6624900955080986,0.02481120065152645,-0.5852936047114432
1773257640392985300,0.3199853515625,0.5078957461237907,-0.33231822994351384,-0.5299427427589893
1773257640402997500,0.32999755859375,0.22459026115238664,-0.7093161440908908,-0.6009482699610292
1773257640413010400,0.340010498046875,0.19153437924683092,-0.8104337548315524,-0.8515675831221043
1773257640423022600,0.350022705078125,0.2059089415580034,-0.5446726943790913,-1.1292919069603085
1773257640433035300,0.36003515625,0.11777882268428802,-0.274459915214777,-1.2252993350803851
1773257640443047200,0.370047119140625,0.009324293184280396,-0.01549625981748104,-0.9966790877595544
1773257640453059300,0.380059326171875,-0.09497545472383499,0.3953443026989698,-0.5492091687649489
1773257640463072300,0.390072265625,-0.2793348277747631,0.19400749136209486,-0.7378402277857065
1773257640473084400,0.40008447265625,-0.1940975077331066,0.13680033401846886,-1.215105565585196
1773257640483096300,0.410096435546875,-0.1287853698670864,0.08562368901073932,-1.4063552826717496
1773257640493109500,0.420109619140625,-0.25701602846086025,-0.017758359530568122,-1.4546800453796982
1773257640503121400,0.430121337890625,-0.42447044394016265,0.29775018990933894,-1.1878528170004485
1773257640513134600,0.440134521484375,-0.6664683514893055,0.5816828668683767,-0.7724263879984616
1773257640523146500,0.450146484375,-0.7275058807760476,0.7588947062522172,-0.8931900717124343
1773257640533158400,0.460158447265625,-0.5534487060308456,0.7704355064421892,-1.0472136354714632
1773257640543171300,0.47017138671875,-0.6709422820329666,1.1768266883343457,-2.0803198351353407
1773257640553183200,0.480183349609375,-0.5112386268109083,1.0985393335610627,-2.822563558577001
1773257640563196400,0.490196533203125,1.3737842616736888,1.5303925812289119,-1.2296902635157108
1773257640573208300,0.500208251953125,2.611361479046941,1.7878014083996414,-0.2735062677517533
1773257640583220500,0.510220458984375,1.9868302350550888,1.4927382656171917,-1.0785352409303188
1773257640593233400,0.5202333984375,2.229291668462753,1.2195566997751592,-1.2832467893972992
1773257640603245600,0.53024560546875,3.066574851775169,1.231340368810296,-0.8601829973846673
1773257640613257500,0.540257568359375,4.119028725987673,1.2359350031241774,-0.3484221002653241
1773257640623270400,0.5502705078125,4.656261625754833,1.0991109959691763,0.1821545564830303
1773257640633282300,0.5602822265625,3.192373314785957,0.3833344236925244,0.3793776488907635
1773257640643295200,0.570295166015625,-1.2749708362221717,0.9938900415629148,0.8261683534495532
1773257640653307400,0.580307373046875,-4.783229132544994,-0.3646992813274264,5.971589606806636
1773257640663319300,0.5903193359375,-7.301597270596027,-4.228408845899999,12.599206835108994
1773257640673332500,0.60033251953125,-4.813037410831451,-2.181315865322947,5.632645821243524
1773257640683344400,0.610344482421875,-1.374984869635105,2.172870108538866,-1.7687400034464895
1773257640693357600,0.620357666015625,-0.4239467123270034,2.0955688421934844,-1.9152545067496596
1773257640703369500,0.630369384765625,0.05688683934807777,0.30339345649331806,-0.14234613157734274
1773257640713381400,0.64038134765625,0.2048036106646061,-0.4438365309283137,0.359155383464694
1773257640723394300,0.650394287109375,0.33830373409390446,-0.40046237636506554,-0.18505919188335537
1773257640733406200,0.66040625,0.34086218640506266,-0.4928101129338145,-0.27260522725880143
1773257640743419400,0.67041943359375,0.2770370722264051,-0.47039077585488553,-0.15505422198101879
1773257640753431300,0.680431396484375,0.09763970549702644,-0.3941629839599132,0.09698752519860863
1773257640763443500,0.690443359375,-0.23558453337550161,-0.38994185913354157,0.30287673914283514
1773257640773456400,0.700456298828125,-0.6151303784400224,-0.39788025091737506,0.430186921890825
1773257640783468500,0.710468505859375,-0.6863327433884143,-0.26089199311137196,0.45972895045652984
1773257640793480400,0.72048046875,-0.5631412480056286,-0.08381547054499387,0.5787286932379007
1773257640803493400,0.730493408203125,-0.4013701388597488,-0.02851473134458065,0.5338140312343835
1773257640813505500,0.740505615234375,-0.36703590758144855,-0.024266718511283397,0.3094492494009435
1773257640823518200,0.750518310546875,-0.5908516772300004,-0.04265899203121662,0.05197495577856898
1773257640833530400,0.7605302734375,-0.9527917229771613,-0.07190525252074002,-0.17883527586720882
1773257640843542300,0.770542236328125,-1.2185019300252198,-0.07854863605797291,-0.3346023953579366
1773257640853555500,0.780555419921875,-1.2065835286945104,0.09217880974262953,-0.4020140627864748
1773257640863567400,0.7905673828125,-1.0191536621570587,0.3642480304285884,-0.49413759867791085
1773257640873580500,0.80058056640625,-0.8867530244022608,0.5106894684955477,-0.5445017947915941
1773257640883592400,0.810592529296875,-0.7201566870570182,0.5113406258806587,-0.37858006877228617
1773257640893604400,0.820604248046875,-1.0370148975402116,0.572189354597032,0.08440813007536344
1773257640903617300,0.8306171875,-1.4161334571033715,0.7177198152989148,0.27640511273210866
1773257640913629200,0.840629150390625,-1.4958751023381947,0.87024904884696,0.3144710961509496
1773257640923642400,0.850642333984375,-1.3719798426002263,0.9835735224708915,0.44584586145672944
1773257640933654300,0.860654296875,-1.0804840369105337,1.1355258329138158,0.2830344860102981
1773257640943666400,0.87066650390625,-1.0069289713561533,1.176966096805036,-0.11878566163927316
1773257640953679400,0.880679443359375,-0.904486834013462,1.0562325159683823,-0.4118393642954528
1773257640963691500,0.89069140625,-0.45539691260159015,0.8832727810710668,-0.9415488828204571
1773257640973703400,0.900703369140625,-0.025399229672551153,0.8974766629904508,-1.2551682575128973
1773257640983716600,0.910716552734375,-0.14605039292275904,0.22290245419591664,-1.380716837415844
1773257640993728500,0.920728515625,-0.8137152607202529,-0.6042217386737465,-1.115818092881143
1773257641003741400,0.930741455078125,-1.2320587462127208,-0.05649024124592542,-0.4248208648130297
1773257641013753300,0.94075341796875,-1.1136445482343436,0.45900458170473574,-0.12416793919950724
1773257641023765200,0.95076513671875,-0.8963006049484014,0.6491410768523812,0.647375236223638
1773257641033778400,0.9607783203125,-0.7203232757955789,0.8384379063054919,1.1731835095264016
1773257641043790300,0.970790283203125,-0.21865911753773687,0.8262418570771813,1.1748919208794832
1773257641053803500,0.980803466796875,0.22629414246082305,0.6745245244339108,0.8847526443652808
1773257641063815400,0.9908154296875,0.3169832981675863,0.48031800336837766,0.463466091158241
1773257641073827600,1.00082763671875,0.1696796903133392,0.39600890408754347,0.10576017584949732
1773257641083840300,1.01084033203125,0.04194879793524742,0.28623101702928544,-0.22483736778125166
1773257641093852200,1.02085205078125,0.27120821994245053,-0.055875031957030294,-0.33992622072920203
1773257641103865300,1.030865234375,0.47439036688506603,-0.4545394189894199,-0.24987711649164557
1773257641113877200,1.040877197265625,0.5831044241040945,-0.1812432868570089,0.01342164550051093
1773257641123889400,1.050889404296875,0.37694180004596706,0.1079454109340906,0.4539540203168988
1773257641133902300,1.06090234375,0.1888555154263973,0.19409984582066533,0.946620194735378
1773257641143914500,1.07091455078125,0.37303544025719165,0.3081932579904795,0.85970705043599
1773257641153927400,1.080927490234375,0.6102642337083816,0.13830956953763962,0.5187884576685726
1773257641163939600,1.090939697265625,0.8740466875642537,-0.13609013992249966,0.24790464737489817
1773257641173951500,1.100951416015625,0.932553237068653,-0.3355880453944206,-0.04130187833383679
1773257641183964400,1.11096435546875,0.4889642511606216,-0.7656459340780973,-0.4734216679833829
1773257641193976300,1.120976318359375,0.8775918128252029,-0.7298492290318012,-0.6156551329664885
1773257641203989500,1.130989501953125,1.207003799933195,-0.12029518941938877,0.2078491158403456
1773257641214001400,1.14100146484375,0.9312240342915058,-0.20155191539227962,0.3033931642323732
1773257641224013300,1.151013427734375,0.030440730971097944,-0.8658768251121044,0.5283616110473871
1773257641234026500,1.161026611328125,0.10166472322940825,0.05364274286031723,0.5138191448234022
1773257641244038400,1.171038330078125,-0.14428104516267776,0.29053426718115805,0.48335371780246494
1773257641254051300,1.18105126953125,-0.5506511842668056,0.45231940485239025,0.7251350599914789
1773257641264063500,1.1910634765625,-0.37947044174075123,0.5775970588594674,0.9655674717895686
1773257641274075400,1.201075439453125,-0.023429975426197052,0.1569400357276201,0.7475703252919018
1773257641284088600,1.211088623046875,0.7857593323022126,-0.3661088558644056,0.23937135843783616
1773257641294100500,1.2211005859375,1.5841121887177227,-0.5345639728188515,0.07862170129418372
1773257641304113700,1.23111376953125,1.5702520056694744,-0.5794716205596924,0.0665090925656259
1773257641314125600,1.24112548828125,1.1506196494102476,-0.5412450580179691,0.03532119648903608
1773257641324137500,1.251137451171875,0.8781640597552061,-0.4281669603705406,-0.04028846350759267
1773257641334150700,1.261150634765625,0.6713894412785768,-0.2882324199795723,-0.10375570415928959
1773257641344162600,1.27116259765625,0.37498423623740673,-0.08427578153312205,0.0778363961353898
1773257641354175500,1.281175537109375,-0.0064221420019865035,0.3128694331079721,0.20555559807568788
1773257641364187400,1.2911875,-0.06180968270301818,0.4065595241963863,0.06059943013042211
1773257641374199600,1.301199462890625,0.16040917314291,0.1482388428777456,-0.17078355990201233
1773257641384212500,1.31121240234375,0.42113925369083877,-0.13568389720916746,-0.40626258707642554
1773257641394224400,1.321224365234375,0.7301876672059298,-0.4154454259634018,-0.6463143289938569
1773257641404237600,1.331237548828125,0.7821300358891486,-0.5902537113368511,-0.6888276289440691
1773257641414249500,1.34124951171875,0.6281120250880717,-0.4980757783770561,-0.8046895120911299
1773257641424261600,1.35126171875,0.5160492419630289,-0.37608430643379687,-0.6394459045290947
1773257641434274600,1.361274658203125,0.160077164709568,-0.21999358101189134,-0.5172860902816057
1773257641444286500,1.371286376953125,-0.12006781040430069,-0.011015315011143684,-0.4381685682944953
1773257641454299400,1.38129931640625,-0.1345931793630123,0.24308979443907736,-0.3724206693597138
1773257641464311600,1.3913115234375,-0.0894891322672367,0.4180401186317205,-0.25854908324703574
1773257641474323500,1.401323486328125,-0.6326029067665339,0.3330798619657755,0.16900252170413732
1773257641484336600,1.411336669921875,-0.7568745986014604,0.2580038704544306,-0.05250131774023175
1773257641494348500,1.4213486328125,-0.9394161085754632,0.09925941565334796,-0.2811965299934149
1773257641504361700,1.43136181640625,-1.088085744085908,0.08634674258828162,-0.3392519747294485
1773257641514373600,1.44137353515625,-0.7375158181369305,-0.1496650762885809,-0.7064085860811173
1773257641524386300,1.45138623046875,-0.3808978441953659,-0.4532850350141525,-1.3567065778836607
1773257641534398500,1.4613984375,-0.5794131683707237,-0.49577685378491876,-1.5414073117181657
1773257641544410400,1.471410400390625,-0.569473958158493,-0.361141588845849,-1.3958281895689666
1773257641554423600,1.481423583984375,-0.40731589552164077,-0.2929717234611511,-0.5329544917955994
1773257641564435500,1.491435546875,-0.1236532676756382,-0.0371744231402874,0.7161532966345548
1773257641574448600,1.50144873046875,0.10137363132834434,0.27074937025904655,1.5113674166329205
1773257641584460500,1.51146044921875,0.23760113389492032,0.4035053973227739,1.7721283307105302
1773257641594472400,1.521472412109375,0.4353898973613977,0.4083569290071726,1.3415847043365239
1773257641604485600,1.531485595703125,0.4298164811432361,0.28117431816160676,0.47701793890967964
1773257641614497500,1.54149755859375,0.2417810499280691,0.1543961964637041,-0.29836233045831323
1773257641624510500,1.551510498046875,-0.056226914134621615,0.05122340675890445,-0.77569328083992
1773257641634522400,1.5615224609375,-0.39367373913824555,-0.051993222087621686,-1.0091491316236556
1773257641644534500,1.571534423828125,-0.5643617297112942,-0.13436930747926235,-1.0510831703811883
1773257641654547500,1.58154736328125,-0.561059181034565,-0.04703823002874851,-0.8994162527509033
1773257641664559600,1.5915595703125,-0.5193032753229141,0.1661082615673542,-0.4510300956942141
1773257641674572500,1.601572509765625,-0.5792553474605083,0.44497722539603707,-0.16667261745184658
1773257641684584700,1.611584716796875,-0.8382581658244133,0.7575520594716072,-0.31467136796340345
1773257641694596600,1.6215966796875,-1.1377765344500541,0.8451262980282306,-0.6823042185246944
1773257641704609500,1.631609619140625,-1.2468167548835276,0.7630939115077257,-0.9368711002677679
1773257641714621400,1.641621337890625,-1.211860007792711,0.5944646070301532,-1.2153738611325622
1773257641724634400,1.65163427734375,-1.2059265260905028,0.5372849222153425,-1.453649241027236
1773257641734646500,1.661646484375,-1.267241703274846,0.7184253332197665,-1.6219932988226413
1773257641744659500,1.671659423828125,-1.1438690061062573,0.9689648591428994,-1.5023413757428525
1773257641754671600,1.681671630859375,-1.0446464153319597,1.2782295457571744,-1.6356639506481587
1773257641764683500,1.69168359375,-1.2256839504837989,1.5332599533587694,-1.9419792859375475
1773257641774696700,1.70169677734375,-1.342287884169817,1.5406132387310265,-1.8975972695060073
1773257641784708600,1.71170849609375,-1.2792916220307349,1.4775234530895947,-1.864795216231048
1773257641794721500,1.721721435546875,-1.149323179858923,1.560776905837655,-2.0015011499643323
1773257641804733400,1.7317333984375,-1.0641384667873381,1.2067255675137043,-2.0191011040627953
1773257641814745300,1.741745361328125,-1.2767068662345409,-1.2558844429582356,-1.5539216331154106
1773257641824758500,1.751758544921875,-1.1201450161695479,-0.2863981902897358,-1.0713693678889422
1773257641834770400,1.7617705078125,-0.8608908533930778,1.1758207261621951,-0.1688934535727836
1773257641844783600,1.77178369140625,-0.7049924356728792,1.7910756077647207,0.6638099459350109
1773257641854795500,1.78179541015625,-0.7621393872618675,1.9532909535467624,1.1224045585993676
1773257641864807700,1.7918076171875,-0.5074392345279455,1.9555711734384298,1.631358216278255
1773257641874820400,1.8018203125,1.209361176714301,1.680890893471241,1.676434644714743
1773257641884832500,1.81183251953125,3.2210514199987053,0.954142553064227,1.840149143013358
1773257641894845400,1.821845458984375,3.731832073909044,0.9225134890913963,1.9528366339080034
1773257641904857600,1.831857666015625,1.3201029403686522,1.6576000342547892,1.7665379633575677
1773257641914869500,1.841869384765625,-1.0273504126161337,0.9259656753718852,2.5037732109874486
1773257641924882400,1.85188232421875,-1.2432272059589624,0.13394669815301893,2.222341849324852
1773257641934894600,1.86189453125,-1.2565280015587805,-0.4779729015469551,1.3362179166063666
1773257641944907500,1.871907470703125,-0.15202888281047344,0.7574579514473676,1.443680512459576
1773257641954919700,1.881919677734375,1.1794961998045443,1.8392828815728426,1.4337562075555323
1773257641964932400,1.891932373046875,1.8948259050965308,1.7805933767169713,1.2915212812677026
1773257641974944500,1.901944580078125,1.4151856548592447,0.8947276565432548,1.480658243983984
1773257641984956400,1.911956298828125,0.9054255761682987,0.06743219875991344,1.4117638637170196
1773257641994969600,1.921969482421875,0.9908844300061463,-0.0900426744967699,1.1341459959279745
1773257642004981500,1.9319814453125,1.4805138670772313,-0.1790180120229721,0.45446818038411435
1773257642014994700,1.94199462890625,2.4252894568592307,-0.09458791671097277,0.3806811692373827
1773257642025006600,1.952006591796875,2.9164772292882204,-0.03534253153800964,0.5923199962168931
1773257642035018500,1.9620185546875,2.4251094241172075,-0.3604787410229444,0.6919928149767219
1773257642045031400,1.972031494140625,1.677940226972103,-1.00473467618227,0.5796102618454024
1773257642055043600,1.982043701171875,1.0583061073720454,-0.08001227886974811,0.6879007233574986
1773257642065056500,1.992056396484375,0.2271639110326767,1.431052793815732,1.407186911190301
1773257642075068400,2.002068359375,-0.6273696822881698,1.4123288041234014,1.0140634994111954
1773257642085080600,2.01208056640625,-0.928482042106986,1.027298974689841,0.21020064740255473
1773257642095093500,2.022093505859375,-1.7268191164314746,-0.2629091781526804,-0.6848958424530923
1773257642105105400,2.03210546875,-1.80450499818027,-0.550937599992752,-0.8109332287862896
1773257642115118600,2.04211865234375,-1.735628445830941,0.539910010021925,-1.1105632410928605
1773257642125130500,2.052130615234375,-2.337772501447797,0.9065525343716144,-1.35820426909551
1773257642135142700,2.062142578125,-2.713988325306773,0.6268845291197299,-1.0130778493747115
1773257642145155300,2.0721552734375,-2.4247896906435487,0.6470633937954903,-0.8620569745630026
1773257642155167500,2.08216748046875,-1.9410972424060104,0.5780377883642912,-0.783086021439731
1773257642165180400,2.092180419921875,-1.230068449178338,-0.05924421612918376,-0.7856985420256852
1773257642175192600,2.102192626953125,-0.7116080544203519,-0.4856435823053121,-0.8486324064530432
1773257642185205500,2.11220556640625,-0.4611743269592523,-0.5409089579313993,-0.8758613357707857
1773257642195217700,2.1222177734375,0.03763677995502949,-0.9287415698260069,-1.5523820024579762
1773257642205229600,2.1322294921875,0.4218278204768896,-1.4200263728886842,-2.463721771106124
1773257642215242800,2.14224267578125,0.13230243807733058,-1.689520190128684,-3.074981153331697
1773257642225254700,2.152254638671875,-0.15277093334943057,-1.4465198275387285,-2.784524919822812
1773257642235267300,2.162267333984375,-0.015148469293117523,-1.1847270861953496,-1.4780674968384206
1773257642245279500,2.172279541015625,-0.016330372554063798,-0.6036638125300408,-0.29362741089090705
1773257642255291400,2.18229150390625,-0.18237141410410404,-0.09437339717745781,0.38483123812153935
1773257642265304000,2.192303955078125,-0.1156581772685051,-0.2848842785954475,0.789775874467194
1773257642275316200,2.202316162109375,-0.015647650986909865,-0.26935060937702654,0.9896779768258332
1773257642285329200,2.2123291015625,0.004792202712595462,-0.11201134519875049,1.3531741659738123
1773257642295341300,2.22234130859375,0.203343474984169,-0.12485796729028224,2.0209683592393994
1773257642305354200,2.232354248046875,0.18963789797574282,0.8861573965966701,3.087203798305988
1773257642315366100,2.2423662109375,0.23047785788625477,2.95092368876934,5.197831093421578
1773257642325378300,2.25237841796875,-0.09580752163380384,2.680977451586723,5.7979310759902
1773257642335391000,2.262390869140625,-0.2995809124678373,3.345952934169769,5.666965439474582
1773257642345403100,2.272403076171875,-0.3962542571507394,4.320703390976786,4.224855245071649
1773257642355416000,2.282416015625,-0.14484671622142195,2.9400819767594335,1.0758727437227964
1773257642365428200,2.29242822265625,0.6969296868570148,0.576646626266837,-1.7732815923988818
1773257642375440100,2.302440185546875,0.7235241176635027,-0.3068447659909725,-3.672945292915404
1773257642385453300,2.312453369140625,-0.0004888064302504062,-0.6004302374362945,-3.8741318821266293
1773257642395465200,2.32246533203125,1.0896610305786132,-3.107880091109872,-4.230437721379101
1773257642405478100,2.33247802734375,0.5245452676296234,-2.7675743695437904,-3.0577719521164894
1773257642415490000,2.342489990234375,-0.4615887529790401,-1.4706629196703433,-1.726894519755244
1773257642425503200,2.352503173828125,-0.6859153947591782,-0.9907686946719885,-0.8433525663539767
1773257642435515100,2.36251513671875,0.022429273951053617,-0.743342916855216,-0.6740066380396484
1773257642445527000,2.372527099609375,1.2721096015721558,-0.4830173254549503,-1.2338853771179914
1773257642455540200,2.382540283203125,1.4110311655282974,-0.3592980068057775,-1.4314362401753664
1773257642465552100,2.39255224609375,1.0284382078528405,-0.3425695748448372,-1.227019290740788
1773257642475565300,2.4025654296875,0.7016793656021356,-0.12337561977803706,-1.1092167949199676
1773257642485577200,2.4125771484375,0.6829442699939012,0.13588906439244747,-0.4965957689523697
1773257642495590100,2.422590087890625,0.9852946471750735,-0.11319266393780708,0.19656243654191494
1773257642505602000,2.43260205078125,1.0867723964650182,0.17597499106526374,1.0475932824388146
1773257642515615200,2.442615234375,0.6042699617296456,1.1637427503556013,2.271834340637922
1773257642525627100,2.452627197265625,0.9956921225488186,0.036031098324060436,2.5894173582643267
1773257642535639000,2.46263916015625,1.7976187457978725,-1.16251408534348,1.8053759357959032
1773257642545652200,2.47265234375,2.0824024866282937,-0.5121650940060615,1.1920771566972135
1773257642555664100,2.4826640625,1.9635949054181574,-0.410053211531043,0.7046756248086691
1773257642565677000,2.492677001953125,1.362905140262842,-2.7301047628492117,-1.2924174994550646
1773257642575689000,2.50268896484375,0.2767886138906702,-3.524445461013913,-2.765906144070625
1773257642585702100,2.5127021484375,0.7258242112994193,-0.8268535592347384,-2.1635496147468687
1773257642595714000,2.522714111328125,0.9207564162909984,1.4861831448853016,-1.1988209318690002
1773257642605727200,2.532727294921875,0.5514963663866743,2.1378145772486925,0.50682460976094
1773257642615739100,2.5427392578125,-0.08576808418380096,2.1565999417394397,1.7556243551552295
1773257642625752300,2.55275244140625,-0.7269219434082508,1.818546967536211,0.8798058356128633
1773257642635764200,2.56276416015625,-2.2211749975025654,2.6780413981348277,0.9312922772221267
1773257642645776100,2.572776123046875,-1.8905694166958331,3.299900208047032,0.7342636114079505
1773257642655789000,2.5827890625,-2.5882746179699896,3.6989825282305477,0.05546601276472211
1773257642665801000,2.592801025390625,-2.7109844673156736,3.088272888842225,-0.4553925286874175
1773257642675814100,2.602814208984375,-0.63283379291296,2.1032178956419227,-0.71231576429829
1773257642685826000,2.612825927734375,0.009374562066793442,1.0960504393547772,-1.2685577543094753
1773257642695839200,2.622839111328125,-0.7344868257045746,0.223681329613924,-0.6917743499204516
1773257642705851100,2.63285107421875,-0.8470131346881389,-0.1941629741847515,0.5516118459925056
1773257642715864000,2.642864013671875,-1.301703360325098,-0.000668108519911766,2.1458903316766023
1773257642725876000,2.6528759765625,-0.09316124490872026,0.9905085824310779,3.242934165982902
1773257642735888100,2.66288818359375,2.595916657155752,-0.26685820803940297,3.809016728137433
1773257642745901000,2.672901123046875,3.058077072542906,0.07419979319870472,1.1590597071059048
1773257642755913200,2.682913330078125,1.312416623649746,0.5845996310979128,0.7042775654017925
1773257642765926100,2.692926025390625,0.7709925558030605,0.6176677879631519,0.5276061895702034
1773257642775938000,2.70293798828125,0.7275204938232899,-0.4938491005927324,-0.9994523518651723
1773257642785951200,2.712951171875,-0.576889202851057,-2.84732302904129,-1.5580293606951832
1773257642795963100,2.722963134765625,-1.462098651073128,-3.3827941798329353,-1.7915224747493863
1773257642805976000,2.73297607421875,0.14067074571102856,-2.583197460836172,-3.2906180004388093
1773257642815988000,2.742988037109375,1.402240979220718,-1.6609084281504154,-3.6086703891426324
1773257642826001200,2.753001220703125,0.8596202489353716,-1.0665233160972594,-2.5386755975425244
1773257642836013000,2.763012939453125,-0.4829037820778787,-0.6149731420516967,-1.2677153121359646
1773257642846026200,2.773026123046875,-0.4152735034625977,0.20027356601953505,0.18166264478024094
1773257642856038100,2.7830380859375,-0.6011386049013584,1.6383277630299329,1.6382254716992377
1773257642866050300,2.79305029296875,-1.5215490572988986,2.9274077886253593,2.3369958179868755
1773257642876063200,2.803063232421875,-1.8656746294140814,3.490353221797943,1.6481939080059527
1773257642886075100,2.8130751953125,-1.4816004932701587,1.951519852221012,-3.602658289246261
1773257642896088000,2.823088134765625,1.3300982646822928,0.90363284753263,-4.869492288503051
1773257642906100000,2.833099853515625,-0.3353197498470545,-0.20012392841577528,-3.37521351544559
1773257642916113200,2.843113037109375,-1.0898948393344878,-0.6974392438143492,-0.34085272445697334
1773257642926125000,2.853125,0.2307224802970886,-1.2562369096577166,0.7875050069257616
1773257642936138200,2.86313818359375,0.966300608369708,-1.2448264578491448,-0.05321505550015718
1773257642946150100,2.873150146484375,1.2622785279095172,-1.1797282549947499,0.09018208296746015
1773257642956163000,2.8831630859375,2.0789637443512676,-0.6806213800042867,2.7325983332306145
1773257642966175000,2.893175048828125,3.288113324141502,0.7480746215522289,5.493713735893368
1773257642976188200,2.903188232421875,2.5433856749296186,2.231849536252022,6.972351287704706
1773257642986200000,2.913199951171875,-1.3468348799496888,2.892776620227098,5.8535296290934085
1773257642996212200,2.923212158203125,-4.341197897472977,2.5200761110126972,-0.06671491733603178
1773257643006225200,2.93322509765625,-2.36730722348988,1.867264528954029,-3.7246640819758174
1773257643016237300,2.9432373046875,-1.509867971855402,1.3712141189247369,-3.586221825969219
1773257643026250200,2.953250244140625,-1.1024586989618836,1.2219991244912147,-1.6546183880954979
1773257643036262100,2.96326220703125,-1.8113965112596748,1.0995587397366762,0.21910832260996102
1773257643046275000,2.973275146484375,-0.8850023813426494,-0.8738350906401872,0.7735711010541766
1773257643056287000,2.983286865234375,1.6074679298639296,-4.626366253706813,0.5426060441728681
1773257643066300200,2.993300048828125,3.4031256047219034,-5.060879368233681,-1.5261375541329383
1773257643076312000,3.00331201171875,2.2298726832211018,-3.5049902344375847,-2.739393400198221
1773257643086325200,3.0133251953125,-1.5596780046850443,-2.5741771190345286,-1.045783602668345
1773257643096337200,3.023337158203125,-2.8216747930437327,-2.401025953218341,0.34432927799373864
1773257643106350000,3.03335009765625,-1.301128775307536,-2.669529005855322,0.30447416440211234
1773257643116362000,3.043362060546875,-0.2110989114165306,-3.0842829424232243,0.07843596946373581
1773257643126375200,3.053375244140625,-0.12781981277056037,-2.951793457341194,0.013656184908747673
1773257643136387000,3.063386962890625,-0.11620930834524333,-2.2660352989703414,-0.2602968036971986
1773257643146399200,3.073399169921875,-0.3919955037277192,-1.1828823351114988,-0.31793942984864115
1773257643156412200,3.083412109375,-0.33657764095366,-0.4440642022043466,-0.19551022407524288
1773257643166424000,3.093424072265625,0.44071313821077346,0.5509510439962149,-0.09568557575456797
1773257643176437200,3.103437255859375,1.1188077031511812,1.9855062929749487,-0.11978446341827512
1773257643186449200,3.11344921875,-0.5374858516149222,1.3403174608796835,0.503041072634235
1773257643196462000,3.123462158203125,-1.1500672031592578,1.1524521255344151,-0.30968166991733015
1773257643206474000,3.133473876953125,-0.9258623611278831,1.01079616817832,-1.030201125872135
1773257643216487200,3.143487060546875,-0.6797035345070064,0.5494949999690055,-0.372481751897186
1773257643226499000,3.1534990234375,1.2480866286888719,0.5073486336350441,0.18707893420793115
1773257643236512300,3.16351220703125,1.7509300598591564,-0.13586626803874968,0.049366672976315015
1773257643246524200,3.173524169921875,1.5190965495802462,-0.4085498212307691,0.46308132962435483
1773257643256537000,3.183537109375,1.0478361512839793,-0.4300444446802139,0.11502068308256566
1773257643266549000,3.193549072265625,0.5078789411194622,-0.4719558332145214,-0.08637070798575877
1773257643276561000,3.203560791015625,0.30288112305700776,-0.5633154355287552,-0.42753399622924626
1773257643286573800,3.21357373046875,-0.1743226938135922,0.34783728611469267,-1.011270361561328
1773257643296585700,3.223585693359375,-0.5776216087788343,1.5282494317203759,-0.2564562756862491
1773257643306599000,3.233598876953125,-0.8876112486667931,1.9999638573944567,-0.21164536631815134
1773257643316610800,3.24361083984375,0.1012491281658411,1.577875340154767,-0.2209141299229115
1773257643326624000,3.2536240234375,0.20448519236519933,0.9152911366224289,-0.006156769064068794
1773257643336636000,3.263635986328125,-0.7757990793019532,0.054468087768554684,-0.13038447562679648
1773257643346648800,3.27364892578125,-0.6893237418979405,-0.41072833431363104,0.17195947181358934
1773257643356660700,3.28366064453125,0.3423638962049037,-0.7466425429224968,0.10191431407630443
1773257643366674000,3.293673828125,0.645767508766055,-0.7234411155551671,-0.2054436621338129
1773257643376685800,3.303685791015625,0.3991279128909111,-0.38383214408159255,-0.396963209137693
1773257643386699000,3.313698974609375,0.19087635372951625,-0.1981184338122606,-0.4015902113512158
1773257643396711000,3.3237109375,0.2445873395204544,-0.03586100245416164,-0.4580917046435177
1773257643406724000,3.33372412109375,0.0543716416567564,0.26793255927264686,-0.869985283344239
1773257643416736000,3.343736083984375,-0.12835983793139458,0.34596038632690906,-0.5278279425621032
1773257643426749000,3.3537490234375,-0.48834699604511256,0.10287059188783168,-0.9516958174992353
1773257643436760800,3.3637607421875,-0.3911848449319601,-0.1531108328282833,-0.7305212830744683
1773257643446774000,3.37377392578125,-0.5177179788928479,-0.5331628738492727,0.4759212297141552
1773257643456786000,3.383785888671875,-0.2968669773340225,-0.9795517196089029,0.7365710846327245
1773257643466797800,3.3937978515625,-0.07265095632150768,-1.0640811836421489,0.3848424901679158
1773257643476811000,3.40381103515625,-0.886329246032238,-0.3987462200969457,0.7248236559547484
1773257643486823000,3.413822998046875,-0.3525109770141542,-0.06319324601590633,0.5076793268941343
1773257643496835800,3.4238359375,0.047674189844727516,0.3804951086133718,0.7448916076019406
1773257643506847700,3.43384765625,0.6147440094709395,0.7960808198302983,0.670466919606179
1773257643516861000,3.44386083984375,1.2040344287335871,0.9554600654035806,0.13843268446065485
1773257643526872800,3.453872802734375,0.5894252976886928,0.5535650258868933,-0.0008383505202829838
1773257643536886000,3.463885986328125,-0.6192033269673586,-0.09015899435281753,-0.13962035987526178
1773257643546898000,3.47389794921875,-0.7211797464944422,-0.9049263944745063,-0.3380699253380298
1773257643556911000,3.4839111328125,-0.78684595849514,-1.2808955500960348,-0.2970974250890314
1773257643566923000,3.493923095703125,-0.975330887043476,-1.2851251504898071,-0.5598446906782686
1773257643576936000,3.50393603515625,-0.5732037923365831,-0.8713216465145349,-0.13046192477717994
1773257643586947800,3.51394775390625,0.9244622850716113,-0.07874094375967979,-0.21958047016635535
1773257643596959700,3.523959716796875,1.5891238793998956,0.5136047714203595,-0.48890360701456664
1773257643606973000,3.533972900390625,0.7567845822304486,0.4815677111685276,-0.4491029270239174
1773257643616984800,3.54398486328125,-0.4479164937183261,0.17048516147732734,-0.07405643920525908
1773257643626998000,3.553998046875,-0.22868249890208242,-0.1322808107674122,-0.4231085079371929
1773257643637010000,3.564010009765625,0.05112812969088554,-0.8317804942429066,-0.4328961808495223
1773257643647022800,3.57402294921875,-0.17206176314428448,-1.4773445893913506,-0.30382761012688275
1773257643657034800,3.58403466796875,-0.39480420447289943,-0.9785381586521863,0.5920905713751912
1773257643667048000,3.5940478515625,-0.6140303082436323,-0.5329308186590671,0.6486842729955912
1773257643677059800,3.604059814453125,-0.3208684690378606,-0.438567358353734,0.3603570143394172
1773257643687073000,3.614072998046875,-0.25801439184844494,0.022600538864731786,0.3986735932521522
1773257643697085000,3.6240849609375,0.16350597011446952,0.14288345332443714,0.4716938212774694
1773257643707098000,3.63409814453125,0.5960286414764822,0.03714636608958244,0.5018938753604889
1773257643717110000,3.644110107421875,0.6959200714230537,0.3095493487745523,0.15863018077164887
1773257643727122700,3.654122802734375,1.9915012956060467,-0.5526952573150397,0.08412512101605533
1773257643737134800,3.664134765625,0.9157412184774875,0.35137948876619335,0.26673691974729297
1773257643747146800,3.674146728515625,0.0981815572887659,0.8773258553653955,0.08700126097425818
1773257643757160000,3.684159912109375,-0.4195001081816852,0.8441554071694612,0.019093845918029546
1773257643767171800,3.694171875,-0.4597941246472299,0.8632885621845722,0.06170490715429187
1773257643777185000,3.70418505859375,-0.7256867025248706,0.19034020102620125,0.44672012354061
1773257643787197000,3.714197021484375,-0.6530645339064299,-0.22135843962430954,0.1560657371111214
1773257643797209900,3.7242099609375,-0.5803663774423301,-0.8001613671422004,-0.8397631635598838
1773257643807222000,3.734221923828125,-1.799168167196959,-0.1685433797597885,-0.37521629142761226
1773257643817235000,3.74423486328125,-0.5967243686556816,-0.5999228724360466,-0.4771586625546217
1773257643827246800,3.754246826171875,-0.5004959912613034,0.2823410238534212,0.570293603978306
1773257643837260000,3.764260009765625,0.5714820831105113,0.5235439816325903,0.13432692964226006
1773257643847272000,3.77427197265625,1.361368432214856,-0.7285299631267785,1.4143974270910025
1773257643857284900,3.784284912109375,0.5822568673640489,-0.541271361503005,1.8596147448532283
1773257643867297000,3.794297119140625,2.5456056890666483,-0.8101485081493854,1.0854247081831097
1773257643877309000,3.804308837890625,2.7456179738014934,-0.1893137805879116,0.9520413430012762
1773257643887321900,3.81432177734375,1.5969073728829621,0.1433282744824886,1.6619648053355514
1773257643897333800,3.824333740234375,1.0321697955965996,0.08456511986851692,1.2685766051404177
1773257643907347000,3.834346923828125,-0.2557715813577175,-0.7106354099959135,0.4627200950965285
1773257643917358800,3.84435888671875,-0.03596621639430523,-0.6718284172177315,-0.641555590159446
1773257643927372000,3.8543720703125,1.3666583553165197,0.4048568119317293,-0.2591167270671576
1773257643937384000,3.864384033203125,0.9131336663275956,0.7160662028729915,0.12088219552710652
1773257643947397000,3.874397216796875,-1.5493486261114477,1.0494342341303824,0.41013372942134735
1773257643957409000,3.884408935546875,-0.9919792395055294,-0.03212999923229217,-0.6315779476329684
1773257643967422000,3.894421875,-0.01894347766190767,-0.2948281649827957,-0.9525012155979872
1773257643977433900,3.904433837890625,0.2904170705422759,0.4326005589038133,-0.891954100176692
1773257643987445800,3.91444580078125,0.4324509213000536,1.0433511148244141,-1.4482318921536206
1773257643997459000,3.924458984375,-0.18464549651592968,1.5727151809126139,-2.1996568470470605
1773257644007470800,3.934470947265625,-0.43508068528175353,1.471094296824932,-1.2273124284684658
1773257644017484000,3.944484130859375,-0.7331962013721466,1.13562081772089,-1.000029274970293
1773257644027496000,3.954495849609375,-0.9496730064347386,0.7488853534132242,-0.9594504502139986
1773257644037508900,3.9645087890625,-0.8948010140404105,0.4449976836621761,-0.3399045568866655
1773257644047520800,3.974520751953125,-0.7403381820812821,0.021801497441530225,-0.23638649740815162
1773257644057534000,3.984533935546875,-0.9333359118789434,-0.17037585588395596,0.03015804157219827
1773257644067545900,3.9945458984375,-0.810996064889431,-0.09886661694347858,0.7153720831289887
1773257644077557800,4.004557861328125,-0.7372872700780629,-0.21596271806061268,0.6882343392260373
1773257644087571000,4.014571044921875,-0.592031242403388,-0.7131359946399927,0.706297892248258
1773257644097582800,4.024582763671875,-0.1852969461619854,-1.262821548745036,0.9641337126594036
1773257644107596000,4.034595947265625,-0.08529343414306641,-1.905631376749277,1.1794529451847076
1773257644117608000,4.04460791015625,-0.13100275365561245,-1.6730062777012586,0.6395320484425873
1773257644127620900,4.054620849609375,-0.6540028376698493,-0.7537766325861215,0.15331137863537295
1773257644137632800,4.0646328125,-0.6289815013989806,-0.9379559728950262,0.22414235298810525
1773257644147646000,4.07464599609375,-0.49330140358209607,-1.8443331506997345,0.017474007897544653
1773257644157657900,4.084657958984375,0.4667313765645027,-0.39609716689288615,-0.9367420670606196
1773257644167671000,4.094671142578125,0.06608429128229618,0.27248247766196726,-0.36151568285524843
1773257644177683000,4.104682861328125,-0.3849140940994024,0.38885026450455185,-0.5225683780660852
1773257644187694800,4.11469482421875,-0.21116671595573425,1.0199386750549078,-1.1010638836026192
1773257644197707800,4.124707763671875,0.8654434021309018,1.2216191852629184,-0.5309908635724335
1773257644207719700,4.1347197265625,0.20500994689166543,1.2390905445456504,0.7519771088834851
1773257644217732900,4.14473291015625,-0.7114443882912397,1.0060188707739115,-0.4679029776271432
1773257644227744800,4.154744873046875,0.1563891238465905,0.53708443120718,-0.28733795535787937
1773257644237758000,4.164758056640625,0.24888620575815437,0.4404278915286064,0.4503640330009162
1773257644247769900,4.174769775390625,-0.10548691186606883,0.09258359115123749,0.45478718320541084
1773257644257783000,4.184782958984375,-0.8478174368083476,-0.03649637774825096,0.3272005946688354
1773257644267795500,4.19479541015625,-0.8148495254471898,-0.054471594899892804,0.3876495104126632
1773257644277807400,4.204807373046875,-0.5621931535005569,-0.21835516615509987,0.3489201129153371
1773257644287820500,4.214820556640625,-0.26410774028748274,-0.411461324763298,0.43580505403354763
1773257644297832400,4.22483251953125,-0.4632752447612583,-0.3908434841483831,0.57724722250849
1773257644307845600,4.234845703125,-0.7972358350843191,-0.24657003777027128,0.788348325882107
1773257644317857500,4.244857421875,-0.7872801121287047,-0.40438919441998,0.885554316136986
1773257644327870700,4.25487060546875,-0.6029612172186374,-0.7237532502442597,0.1095379408225417
1773257644337882600,4.264882568359375,-0.18347674499750136,-0.5285311223953962,-0.4693833523780107
1773257644347895600,4.2748955078125,-0.27804756444320083,-0.07574234646558761,-0.7433322493307292
1773257644357907500,4.284907470703125,-0.3989619086742401,0.1330120476514101,-0.6679863548368216
1773257644367919400,4.29491943359375,0.22932605750262736,0.4555085562825203,-0.010304536393284797
1773257644377932500,4.3049326171875,0.27928397437036034,0.44248307049274443,0.19818331574201584
1773257644387944400,4.3149443359375,0.1329682085096836,0.6448311046987771,-0.11290069525390863
1773257644397957600,4.32495751953125,0.5916798716824502,0.7906371674716473,0.1972521723717451
1773257644407969500,4.334969482421875,1.0396090056866407,1.4828256511509417,1.8563827771946786
1773257644417982500,4.344982421875,1.0417840116381645,0.8984960691660642,1.3837977061659097
1773257644427994400,4.354994384765625,0.271897371250391,0.10276245533823966,0.6509083787858486
1773257644438006500,4.365006591796875,-0.4949217347929254,-0.5067886616647244,0.3341384311079979
1773257644448019500,4.37501953125,-0.4422217892080545,-0.31084581832587715,0.2064665754407644
1773257644458031400,4.38503125,-0.11096267639603465,-0.043347558817267415,0.4002627621397376
1773257644468044500,4.39504443359375,-0.33809096812605854,-0.12091127549111842,0.12849749283641576
1773257644478056400,4.405056396484375,-0.3701747901290655,0.0961772317290306,-0.4703033898323774
1773257644488069600,4.415069580078125,-0.2247013568440452,0.3989274218827486,-0.2248553418293595
1773257644498081500,4.42508154296875,0.04969787769205868,0.5099626155257225,0.47090223250836133
1773257644508093700,4.43509375,0.17917820755336433,0.3956453314721584,0.7473673500657081
1773257644518106400,4.4451064453125,-0.10067746575772761,1.096494675990939,-0.09467880986481904
1773257644528118500,4.455118408203125,-0.023168694141507146,1.6277216133415697,-0.5940557339683175
1773257644538131500,4.46513134765625,0.18433248504400251,0.12526362548172473,0.43736733491420743
1773257644548143600,4.4751435546875,-0.09910634398348629,0.29391981796622274,-0.576430353167653
1773257644558156500,4.485156494140625,-0.6296201646286994,0.5098591551512479,-0.908953458033502
1773257644568168400,4.49516845703125,-0.20024609349071978,0.10864099198281764,-0.3724254916653037
1773257644578180600,4.5051806640625,-0.2671697582066059,0.097597619920969,-0.1401207106128335
1773257644588193500,4.515193603515625,-0.1473603064775467,0.30606676735579963,-0.34233342800140376
1773257644598205400,4.525205322265625,-0.3728232588112354,0.14090601577162742,0.09336392787396908
1773257644608218400,4.53521826171875,-0.6356951736934483,0.1868131959438324,0.04897358200550079
1773257644618230500,4.54523046875,-0.519914246828109,0.10216507396697998,-0.3537850886031985
1773257644628243500,4.555243408203125,-0.11048004397824406,0.10335983670949936,-0.30087212132215496
1773257644638255600,4.565255615234375,0.013334697869420051,-0.032358547291159626,-0.2265525011360645
1773257644648267500,4.575267578125,0.08685235402286053,-0.20455928051471708,-0.41797348313629623
1773257644658280700,4.58528076171875,-0.004767214401811361,-0.2725023514062166,-0.4093136452101171
1773257644668292600,4.595292724609375,-0.16903247845098376,-0.1953390322268009,-0.26776772409975524
1773257644678305500,4.605305419921875,-0.11336334432959556,0.038953123250603676,-0.10144538139030337
1773257644688317400,4.6153173828125,-0.01778232492804527,0.03134790894389152,-0.09140811763107776
1773257644698330400,4.625330322265625,-0.2772112597495317,-0.09711071318686008,-0.04702960833087563
1773257644708342500,4.635342529296875,-0.38412440502643586,-0.29024785145521165,-0.17260215363129972
1773257644718354400,4.6453544921875,0.3612929800152778,-1.1080980200231074,-0.4163368218451738
1773257644728367600,4.65536767578125,1.1922155422545968,-1.2496949406683444,-0.35470468766614793
1773257644738379500,4.665379638671875,0.9967574136927724,-0.2985316956758499,-0.03637757367417216
1773257644748392700,4.675392822265625,0.07458323955833912,-0.1483352889895439,-0.17360577771589158
1773257644758404600,4.685404541015625,0.5658692116647959,0.06518295852839946,-0.1756992428638041
1773257644768417500,4.69541748046875,0.41201574377566574,-0.4461591286569834,0.18808599235862491
1773257644778429400,4.705429443359375,0.09492109418809414,-0.6160585992008447,-0.1013308150999248
1773257644788441300,4.71544140625,0.2682166369110346,-1.044837553989887,-0.28609190081954
1773257644798454500,4.72545458984375,-0.01671703378409147,-1.7236130138665438,-0.22357553115189074
1773257644808466400,4.735466552734375,-0.2911734418675303,-1.8753017049372196,0.1413055364832282
1773257644818479600,4.745479736328125,-0.3691939623981714,-1.1507488287478684,0.14186894251964985
1773257644828491500,4.755491455078125,-0.34250118578374383,-0.14722820453047752,0.3146137194920331
1773257644838504400,4.76550439453125,-0.13869886111617089,0.5982458791345358,0.24354221438169477
1773257644848516400,4.775516357421875,0.287557881718874,0.9354770155608654,-0.1596949604589492
1773257644858528500,4.785528564453125,0.650676323595643,0.7832306906074286,-0.39160328953973944
1773257644868541400,4.79554150390625,0.3486626310229301,0.5485340459823608,-0.41242300940230486
1773257644878553600,4.8055537109375,0.1915592214271426,0.28626024312376974,-0.3046852498695254
1773257644888566500,4.81556640625,0.20546850431412458,-0.01693067653477192,-0.8727646118644624
1773257644898578400,4.825578369140625,-0.16633973223567008,0.017292495584487914,-0.5711730171613395
1773257644908591600,4.835591552734375,0.2838748092919588,0.308031929948926,-0.22930099612660704
1773257644918603500,4.845603515625,-0.049288054782152174,0.5584960525482893,0.23495465624043715
1773257644928615700,4.85561572265625,-0.029118834717571734,0.18310791168510912,0.24810064487103373
1773257644938628400,4.86562841796875,0.13553162925690412,-0.26582652690410613,0.18091990012153983
1773257644948640500,4.875640625,0.19589549706578255,-0.41896658582687374,0.05761646879687905
1773257644958653400,4.8856533203125,0.14690321035981177,-0.34391514423489566,-0.3581096007388085
1773257644968665600,4.89566552734375,-0.17515753720253704,0.06279109495580196,-0.3026214492075145
1773257644978677500,4.905677490234375,-0.2592883573070168,0.47009354647397994,-0.06292874986082315
1773257644988690700,4.915690673828125,0.29717268228232857,0.3416723337441683,-0.08857011772617697
1773257644998702600,4.92570263671875,0.7372773332059382,0.648348757430911,0.062467562089860436
1773257645008715500,4.935715576171875,-0.10552373674511908,0.8740063555538654,0.8204988564457744
1773257645018727400,4.9457275390625,-0.6402326709926128,0.5275719219744205,0.7937631174724549
1773257645028740400,4.955740234375,-0.15320289502590895,-0.20369652620553969,0.3575979248896241
1773257645038752500,4.96575244140625,0.2725245632380247,-0.786523302412033,0.24892675696425137
1773257645048764400,4.975764404296875,0.19019173246622084,-0.7835761430442333,-0.08343801553472877
1773257645058777600,4.985777587890625,0.18148381761461496,-0.28692075285911556,0.1390123109795153
1773257645068789500,4.99578955078125,0.5564081403583288,0.41206045970022676,0.04340769150666892
1773257645078802700,5.005802734375,-0.21020693101286886,0.8059364434123039,-0.47378640964254737
1773257645088814600,5.015814697265625,-1.2502733250781892,0.08528992701172829,-0.025240385849028824
1773257645098826500,5.025826416015625,-0.24825229176878927,-0.889773833528161,-0.2268568178448826
1773257645108839400,5.03583935546875,-0.5580348647773266,-1.0793886428892612,-0.27266528688296676
1773257645118851300,5.045851318359375,-0.8135612392023205,-0.6668301705390215,-0.578157980677858
1773257645128864500,5.055864501953125,-0.6165110191434622,-0.17551380329430102,-0.8757502035465091
1773257645138876400,5.06587646484375,-0.304061272752285,0.22005144867897034,-0.7323877345334738
1773257645148889600,5.0758896484375,-0.009473054005205631,0.20884908666312693,-0.5276913836356252
1773257645158901500,5.085901611328125,-0.25666063915193077,0.012647884649038314,-0.8676124897982924
1773257645168913700,5.09591357421875,0.28101825081706044,0.2798340094685554,-1.1508541157532484
1773257645178926600,5.105926513671875,0.700164284864068,0.7185492518603801,-0.6531482666671276
1773257645188938500,5.1159384765625,-0.12371873412728308,0.6268401054561138,-0.24588673168122768
1773257645198951400,5.125951416015625,-0.028114918372035023,0.10109949056208133,-0.17752682361714542
1773257645208963600,5.135963623046875,0.5156554203398526,0.0009808277308940886,0.20412001231461763
1773257645218975500,5.1459755859375,0.5452538552679121,0.27120938898622987,0.868543560103327
1773257645228988400,5.155988525390625,0.5663796454049647,0.03614975626766682,1.0821685559313743
1773257645239000600,5.16600048828125,-0.16027648667395114,-0.5863491051137447,0.16604323350712655
1773257645249013500,5.176013427734375,0.16601064641177654,-0.7936562230318784,0.5905203994490206
1773257645259025700,5.186025634765625,-0.03514101761654019,-1.5155769971519708,0.2560040018741041
1773257645269038300,5.196038330078125,0.09663198975920677,-1.6142910538822413,-0.9202263280022889
1773257645279050200,5.20605029296875,0.916597396915406,-0.20237433769106863,-0.7671327385697513
1773257645289062400,5.2160625,0.9517360764443874,1.6051923861473798,-0.06112988374531269
1773257645299075300,5.226075439453125,0.5113580154068768,1.5596084465801714,0.6097929629348218
1773257645309087500,5.23608740234375,-0.03830488847494125,0.7395797649294138,0.7525067587807774
1773257645319100400,5.246100341796875,-0.7216625615753233,0.16260346831679343,0.7538971902258693
1773257645329112600,5.256112548828125,-0.14872925674319265,0.11811550729274749,0.07215367432385683
1773257645339124500,5.26612451171875,0.11714578547775745,0.16666823353767393,0.04428279384076595
1773257645349137700,5.2761376953125,-0.18525953676104545,0.3873609027296305,0.38105208490900694
1773257645359149600,5.286149658203125,0.042390550353378055,0.3254518513053655,0.28739706513397395
1773257645369162200,5.296162353515625,0.14481003747284413,0.21541443652808664,0.555858543651551
1773257645379174400,5.30617431640625,0.07412029822170733,-0.10013736753165721,0.5655847687002271
1773257645389186300,5.316186279296875,0.13384732943177222,-0.32072482278347014,0.34987785203158855
1773257645399199500,5.326199462890625,0.06542451219931245,-0.26307518236935135,0.18713161424323915
1773257645409211400,5.33621142578125,-0.04606894660517573,-0.1358919870018959,-0.01091463111564517
1773257645419224600,5.346224609375,0.12824001094400883,-0.20843349159955976,-0.39994719338454304
1773257645429236500,5.356236572265625,0.037409400939941405,-0.20773615698516368,-0.6266830151982605
1773257645439248400,5.366248291015625,-0.6972168332353234,-0.005986088672280311,-0.6276669847343117
1773257645449261300,5.37626123046875,-1.2853794175118207,0.15354805520176887,-0.5109357714068145
1773257645459273200,5.386273193359375,-0.9386457087248563,0.04465396524071693,-0.44113779336363074
1773257645469286400,5.396286376953125,-0.36547727996259927,0.13661796318888664,-0.3062108520016074
1773257645479298300,5.40629833984375,-0.6621253538489341,0.3035200054824352,-0.665310632821545
1773257645489311500,5.4163115234375,-0.8660005976222455,0.3049070759266615,-1.0072934207543731
1773257645499323400,5.426323486328125,-0.5240764810740948,0.2297252859532833,-1.0554396120250225
1773257645509335600,5.43633544921875,-0.4682100708149373,0.22391806097924707,-0.885694674455747
1773257645519348500,5.446348388671875,-0.29956673781201243,0.35875673953592774,-0.9335289502330124
1773257645529360600,5.456360595703125,-0.2179024539515376,0.5856026706606149,-1.059650361587852
1773257645539373300,5.466373291015625,-0.21034663174450396,0.5875351000279188,-0.9565798632137477
1773257645549385500,5.476385498046875,-0.22067323383912443,0.44454993989467617,-0.6359677070245147
1773257645559397400,5.4863974609375,-0.2531178519785404,0.3698205698639154,-0.413936190444231
1773257645569410300,5.496410400390625,-0.14746727398335932,0.2584942843198776,-0.26859621081314977
1773257645579422500,5.50642236328125,0.05165303034782409,0.260696178278327,-0.03296433116458356
1773257645589435400,5.516435302734375,0.08785071741044521,0.14989596243500708,0.2502295831911266
1773257645599447600,5.526447509765625,-0.11509966660290956,-0.20419044720232485,0.5099135522196069
1773257645609459500,5.53645947265625,-0.06017477497756481,-0.5961854394733905,0.6567762479059398
1773257645619472400,5.546472412109375,0.2762584890693426,-0.9178975197285413,-0.007837561757862568
1773257645629484300,5.556484375,-0.2123991803601384,-0.9429892908871174,-0.30155223080711435
1773257645639497500,5.56649755859375,-0.2032821001857519,-0.943918680691719,-0.053566133960150177
1773257645649509400,5.57650927734375,-0.29459011844322086,-0.6111258189737796,0.15523768878914415
1773257645659521300,5.586521240234375,-0.1576554905205965,-0.25313012693822384,0.19807280457224696
1773257645669534500,5.596534423828125,0.27677462189793584,0.04679857605397701,0.025149109102692455
1773257645679546400,5.60654638671875,0.3865766204841435,0.5941653318226338,0.010683708436600863
1773257645689559600,5.6165595703125,-0.1303460433125496,0.6554810935288667,0.6998711471363902
1773257645699571500,5.626571533203125,-0.29457550539597865,0.3576075695008039,0.9076995124496519
1773257645709583600,5.63658349609375,0.1562210738033056,0.10784019699394702,0.36578240038901566
1773257645719596300,5.64659619140625,-0.045505029112100595,-0.27337621163129805,0.4647846264109015
1773257645729608400,5.6566083984375,0.7292202834784984,-0.6093097094625234,0.7102478719830513
1773257645739621400,5.666621337890625,1.340182144062221,-0.1657932042688131,0.3222619692228734
1773257645749633500,5.676633544921875,0.4334650667786598,0.19984628051817416,0.2612387607224285
1773257645759645400,5.6866455078125,-0.04122282174825668,0.2986924391955137,0.2165449018627405
1773257645769658400,5.696658447265625,0.20107085387706755,0.5723930604755878,-0.343857714959234
1773257645779670500,5.70667041015625,0.03848082956373691,0.5368108749628067,-0.4282292119517922
1773257645789683500,5.716683349609375,-0.4654354915350675,0.5548632490038872,0.48961453176289793
1773257645799695600,5.726695556640625,-0.31200740945115685,0.7666781997352838,0.2580181912407279
1773257645809707500,5.73670751953125,-0.7742575489483773,0.7750543984144925,0.1483791281312704
1773257645819720400,5.746720458984375,-0.8896100212685764,0.6892284648299217,0.5336810525044798
1773257645829732400,5.756732421875,-0.5110987799488008,0.511630840998888,0.6742889621123671
1773257645839745500,5.76674560546875,-0.6204249777168035,0.5170493589162827,0.6288190043136477
1773257645849757400,5.77675732421875,-0.6950787982933223,0.3874555952757597,0.8007606482096016
1773257645859769300,5.786769287109375,-0.42179260303303595,0.005741758522391319,0.36867724504768845
1773257645869782500,5.796782470703125,-0.49846755417361854,-0.20788813267648218,0.3174541305497289
1773257645879794400,5.80679443359375,-0.5025917944967746,-0.06921440600156784,0.5266396095603704
1773257645889807400,5.816807373046875,-0.1867566434510052,-0.12859247764348983,0.5234475355207919
1773257645899819300,5.8268193359375,0.12748948483765124,-0.6888005948066711,0.43687487522214646
1773257645909831400,5.83683154296875,1.4372704992868006,-1.959229695945978,0.9508926113575696
1773257645919844400,5.84684423828125,0.9863393339224159,-1.545998438900709,0.6617571050584315
1773257645929856500,5.8568564453125,0.03715162678658962,-0.21236966200470922,0.05583616125136614
1773257645939869400,5.866869384765625,0.07794190233647823,0.604064210024476,0.2674906607240438
1773257645949881600,5.876881591796875,0.0044179625727236264,0.7410872468829155,0.48107758956402535
1773257645959893500,5.8868935546875,-0.018690525814145802,0.7442810744881629,0.3169420893743634
1773257645969906400,5.896906494140625,0.01556362596526742,0.28701778349280355,-0.11611907277852296
1773257645979918600,5.906918701171875,0.11194953200891614,0.037729134413599964,-0.03655599898099899
1773257645989931300,5.91693115234375,0.05575856597051024,0.19185703532993792,-0.2330664130747318
1773257645999943400,5.926943359375,0.20146774424016475,0.18602993661165237,0.06690759036391973
1773257646009955300,5.936955322265625,0.350175373673439,-0.17098025151789187,-0.3793485689267516
1773257646019968500,5.946968505859375,0.44395898826420305,0.019355857855081558,-0.2925172576919198
1773257646029980400,5.95698046875,0.279280028847605,0.23847674768567084,-0.6186228967308998
1773257646039993600,5.96699365234375,0.19454890476241707,0.20603753637373445,-0.4467812060780823
1773257646050005500,5.977005615234375,0.35448256934806704,0.25255554192066193,-0.024993425350636242
1773257646060017400,5.987017333984375,0.26817294389978047,0.19515315426588056,0.39333910035639996
1773257646070030300,5.9970302734375,-0.2641945417881012,0.14672843831479548,0.15000336833223699
1773257646080042200,6.007042236328125,-0.4777274023532867,0.03049976768195629,0.091698625010252
1773257646090055400,6.017055419921875,0.2240099770464003,-0.4252665627539158,0.40323096429556604
1773257646100067300,6.0270673828125,0.4671194990992546,-0.7869114249467849,-0.274284558647871
1773257646110079500,6.03707958984375,0.09291633023694157,-0.6906652196347713,-0.6198733351834118
1773257646120092400,6.047092529296875,-0.21412717319652436,-0.5540846658468246,-0.7918557494811713
1773257646130104600,6.0571044921875,-0.5102705124311149,-0.5268985527575015,-0.6740811645805835
1773257646140117500,6.067117431640625,-0.6027635026894509,-0.6669207714319229,-0.7701347699299455
1773257646150129400,6.07712939453125,-0.5312175850003957,-0.5707131445646285,-0.8709463834613561
1773257646160141600,6.0871416015625,-0.17815978775843977,-0.485278256124258,-0.5631738351009786
1773257646170154200,6.097154296875,0.15289514425098896,-0.40462008056640625,-0.20772928885295985
1773257646180166400,6.10716650390625,0.0772159261494875,-0.35593817498385905,-0.2509137660630047
1773257646190179300,6.117179443359375,-0.08762991426661611,-0.2389525485038757,-0.001971300072968006
1773257646200191500,6.12719140625,-0.18073124568164348,-0.2011293060660362,0.1853248570822179
1773257646210203400,6.137203369140625,-0.055428895624727005,-0.0861433289706707,0.11650807209610939
1773257646220216600,6.147216552734375,-0.006706658031791448,0.3348369347661733,0.1681504349194467
1773257646230228500,6.157228515625,0.04763678044378757,0.5964788694620132,0.10561594507321714
1773257646240241400,6.167241455078125,-0.08989844372048973,0.7060141799360513,0.016369681651145218
1773257646250253300,6.17725341796875,-0.37575405156612396,0.9511036237597464,-0.08933554914072156
1773257646260265500,6.187265380859375,0.10850786712244152,0.9757295309722422,-0.7861763886705041
1773257646270278100,6.197278076171875,0.6042858899511396,1.3272726858675479,0.5114335648611188
1773257646280290000,6.2072900390625,0.3953028016448021,1.7919623274713754,0.5733449543729424
1773257646290303200,6.21730322265625,0.6315371772311628,1.518657427510619,0.15209113439172506
1773257646300315100,6.227315185546875,0.9527994678921997,1.5623013389259577,0.3030626171037555
1773257646310327000,6.2373271484375,0.7616739617072046,1.6942530638694762,0.44466786718592044
1773257646320340200,6.24734033203125,-0.17543138570785521,0.9787591079264879,-0.1403827225498855
1773257646330352000,6.25735205078125,-0.6860344910942018,0.27056641490757466,-0.12217179694622754
1773257646340364300,6.2673642578125,-0.8144372913844883,0.22383038269579408,0.10882394733428954
1773257646350377000,6.277376953125,-0.628806290962547,0.526353193834424,0.22088848402500152
1773257646360389000,6.28738916015625,-0.25570026968717574,0.766067958882451,0.22093056960105895
1773257646370402000,6.297402099609375,-0.23958894671127198,1.085739473220706,0.2469225044697523
1773257646380414200,6.307414306640625,-0.5977823532760143,1.578906436768174,0.13822349868938327
1773257646390426000,6.317426025390625,-0.13615619089603423,1.0937895086854696,-0.4461114901229739
1773257646400439300,6.327439208984375,-0.23023075125738976,0.619215601927042,0.8814031878069043
1773257646410451200,6.337451171875,-0.6257584476992487,0.2953898905187845,-0.055160600077360865
1773257646420464000,6.347464111328125,-0.30605792646221813,-0.1019675055682659,-0.20814663748219608
1773257646430476300,6.357476318359375,-0.4189654167830944,-0.8413315819203853,-0.30436946191862224
1773257646440488200,6.36748828125,-0.08893317888490855,-1.1648878287374973,-0.2986823561929166
1773257646450501000,6.377501220703125,0.20005678146369754,-0.968227192518115,-0.2635923381112516
1773257646460513000,6.387512939453125,0.09578896306380628,-0.638010903289914,-0.22371683931872247
1773257646470526200,6.397526123046875,0.169057174500823,-0.9095528852313757,-0.8270952590361237
1773257646480538000,6.4075380859375,-0.5418464579772204,-0.6102519587486982,-0.3800162390552461
1773257646490550000,6.417550048828125,-0.3956622826069593,-0.7531798357367515,-0.38176922020241616
1773257646500563200,6.427563232421875,0.22778401569239795,-0.6506827533364296,-0.3659824530057609
1773257646510575000,6.4375751953125,0.44368828156404194,-0.23061025209426878,-0.17131109090745447
1773257646520588000,6.447588134765625,0.26339842297434807,-0.57281800788939,-0.12048194416314363
1773257646530600200,6.45760009765625,0.5295044244069605,-1.3447685950696469,-0.20031009863764046
1773257646540612000,6.467612060546875,0.6962221961747854,-1.5794167243778705,-0.21292904945313929
1773257646550625000,6.477625,-0.14889935261309145,-1.3333721717864275,-0.11255129729434847
1773257646560637200,6.48763720703125,-0.5429226358413696,-0.9980494993299245,0.20892288255169986
1773257646570649000,6.497649169921875,-0.3887181625574827,-0.9056775051027536,0.5350184385880827
1773257646580662300,6.507662353515625,-0.39387890632152556,-1.0136468814343214,0.39350715039968487
1773257646590674200,6.517674072265625,-0.4778081394392997,-0.6880196735620498,0.3014442221216857
1773257646600687000,6.52768701171875,-0.24959552307128904,-0.34579964280724523,0.08087211056947707
1773257646610699300,6.53769921875,0.31427571970932183,-0.27314415644109247,0.5464449647486209
1773257646620711200,6.547711181640625,0.7651357195336371,0.338241190251708,0.407832028350234
1773257646630724000,6.55772412109375,0.9112842390686273,0.6483622014343738,0.25414763341769575
1773257646640736000,6.567736083984375,0.5633973051259293,0.5470037676751613,0.5358271246224642
1773257646650749200,6.577749267578125,0.02902618799805641,0.2214776820898056,0.6800508866399526
1773257646660761000,6.587760986328125,-1.9394658418118953,0.15374153194725512,0.4203348054401576
1773257646670773000,6.59777294921875,-1.3535674030750988,0.5235287840634584,-0.27014994306117296
1773257646680786200,6.6077861328125,0.14561609315872193,-0.686889208227396,0.03389247886016965
1773257646690798000,6.617798095703125,-0.17666825229274108,-0.21541735913753507,0.8137034241519868
1773257646700811300,6.627811279296875,-1.277114862513542,2.2541981461822984,0.1754164803996682
1773257646710823200,6.6378232421875,-0.30041210259497164,0.5123702611893415,0.40814942373633384
1773257646720835300,6.64783544921875,-0.3191623957723379,-0.8780266971111297,-0.4625105439990759
1773257646730848000,6.657847900390625,0.13460019362568854,-1.7415736179709433,-0.2972308422103524
1773257646740860200,6.667860107421875,0.34383331117033955,-1.7385504707574844,-0.605153466565907
1773257646750872000,6.6778720703125,0.5222749846100807,-1.7107722369939087,-0.2835325717255473
1773257646760885200,6.68788525390625,0.6655506521224975,-1.3474036197483539,0.32867461274415255
1773257646770897200,6.697897216796875,0.3772106801152229,-0.8962941752076149,-0.5004869311720133
1773257646780910300,6.707910400390625,-0.029677327116858214,-0.8953776448845863,-0.7800505992665886
1773257646790922200,6.717922119140625,0.31767829469442366,-0.5234282462984323,-0.6086112058043479
1773257646800934100,6.72793408203125,0.5037783739328384,-0.44461949799954886,-0.7582789124414324
1773257646810947000,6.737947021484375,0.6939549088299274,-0.565365353795886,-0.45249943759441374
1773257646820959000,6.747958984375,0.1389981363236904,-0.6296756211429834,-0.3436138232007622
1773257646830972200,6.75797216796875,-0.6079098160693421,-0.3171189072459936,-0.3604560907997191
1773257646840984000,6.767984130859375,-0.7155214284718037,-0.1344324358433485,0.11927651389613747
1773257646850996200,6.777996337890625,-1.3564333139002323,-0.737337538960576,0.16509879226386545
1773257646861009200,6.788009033203125,-1.579656378352642,-0.13411504045724867,-0.4881438746884465
1773257646871021000,6.79802099609375,3.5404163526058197,0.4262012132555246,-1.1547982502691447
1773257646881034200,6.8080341796875,-3.6342110731124877,0.7991805394113063,1.7084993236258625
1773257646891046100,6.818046142578125,-3.029099984383583,0.7831897740751504,2.277957645823806
1773257646901058300,6.828058349609375,0.051682402572780846,0.4854799161761999,-0.22030264696106314
1773257646911071000,6.838071044921875,-0.911839023407176,0.9082289431512355,0.930999870146811
1773257646921083100,6.848083251953125,-0.7820505409121513,1.2561644289433955,0.26874928248301144
1773257646931096000,6.858095947265625,-1.150457225390151,1.864401540738344,0.01743424214273691
1773257646941108200,6.868108154296875,-0.6321102278787643,1.7307371666580438,-0.08644260417819023
1773257646951120100,6.8781201171875,-0.2437712008319795,0.8379355097413063,-0.5855640922158957
1773257646961133300,6.88813330078125,0.11747735551968216,0.362549702078104,-0.3435562477946281
1773257646971145200,6.898145263671875,1.7509247991621493,0.005679799202084541,-0.24912001451402901
1773257646981157000,6.9081572265625,1.715265602890402,0.7772235591471195,-0.6567799011677503
1773257646991170000,6.918170166015625,2.596849554091692,0.4131032467514276,-0.697488051392138
1773257647001182000,6.928181884765625,2.3790986374400553,0.23716098891198634,-0.8187798506334424
1773257647011195100,6.938195068359375,2.277011012623459,0.08660743935108184,-1.2133161979503928
1773257647021207000,6.94820703125,1.990217685536295,-0.015438392150402068,-0.4684598077923059
1773257647031219200,6.95821923828125,1.5221243729688225,0.03158580935299396,-0.5291057074129581
1773257647041232100,6.968232177734375,1.0165198065221308,0.03482756775319576,-0.4482999400779605
1773257647051244300,6.978244384765625,0.2186437738381326,-0.05917874967753887,-0.43568449639379975
1773257647061256200,6.988256103515625,-0.3466553828537464,-0.2601326991766691,-0.09614625206887721
1773257647071269000,6.99826904296875,-0.23130115696787834,-0.2243617130935192,0.11548632783293723
1773257647081281300,7.00828125,-0.48109556361213324,-0.1955482910633087,0.1817790011689067
1773257647091294000,7.0182939453125,-1.6813726856388151,-0.20649112536013126,0.43140038933381436
1773257647101306000,7.02830615234375,-4.206038316398859,0.1689227344661951,1.055658077081293
1773257647111318000,7.038318115234375,-1.971261640653759,0.2734890243560076,0.24620544224157928
1773257647121331200,7.048331298828125,-0.4807458733916282,0.004513093510270119,0.5608306329756975
1773257647131343000,7.058343017578125,0.28605010750442744,0.12565174801647663,0.5872206272512674
1773257647141356300,7.068356201171875,0.22441315101981163,-0.05468611443340778,-0.08589578395038842
1773257647151368200,7.0783681640625,1.568701269096136,-0.32860885403156276,-0.38381183194592594
1773257647161380000,7.088380126953125,2.8298306269705296,-0.6852022780537604,-0.44995691350474953
1773257647171393300,7.098393310546875,2.7887328929066655,-0.7234422845989466,-1.012253235118836
1773257647181405200,7.1084052734375,2.6505589324474332,-0.263933845025301,-0.6725267747454344
1773257647191417300,7.118417236328125,2.1431705513238906,0.15085633189976214,-0.6606650720380246
1773257647201430000,7.128429931640625,1.7651332111261784,-0.027996844950318334,-0.6865485780961811
1773257647211442200,7.138442138671875,0.4938882635593414,0.09236439544260501,-0.816666657871753
1773257647221455000,7.148455078125,-0.5817291171628981,0.11091828926503658,-0.5609773479700089
1773257647231467300,7.15846728515625,-0.49290166367478666,-0.2813128498494625,-0.6825465028479695
1773257647241479200,7.168479248046875,-0.5649802269358187,-0.4445645529419183,-0.11046367736533283
1773257647251492400,7.178492431640625,-1.82481538028121,-0.4727788400352001,-0.0008190612979233265
1773257647261504300,7.188504150390625,-2.745749491226673,-1.4413883098691702,0.4422660667411983
1773257647271518000,7.19851806640625,-2.0731214480638505,-0.7195300795912742,0.18080343413501976
1773257647281529900,7.20852978515625,-0.853469763481617,0.7056085217446089,-0.45615094583928584
1773257647291541800,7.218541748046875,0.6975017876565456,0.6152192257672547,-0.10880553489476441
1773257647301555000,7.228554931640625,1.318200906139612,0.5708563524276018,0.32646512000113725
1773257647311566800,7.23856689453125,0.5990110182881355,0.31614860090911384,0.31839199592173095
1773257647321579000,7.2485791015625,0.2650748317539692,-0.046644846796989436,-0.4591198786474764
1773257647331592000,7.258592041015625,0.10411971516609192,0.16127835719287395,-0.0010369418323040009
1773257647341604000,7.26860400390625,0.25286181312454864,0.30902970881462094,0.7335501293763518
1773257647351616800,7.27861669921875,-0.13818097472190857,0.3224731277555227,0.30353724887818095
1773257647361629000,7.28862890625,-0.15957095048679037,0.6412742890000342,0.07650500140115618
1773257647371640800,7.298640869140625,-0.689285747975111,0.6106219611048698,-0.7416323135450482
1773257647381653800,7.30865380859375,-1.1709423064708708,0.04820142858922481,-0.6353812854386865
1773257647391666000,7.318666015625,-5.069774622350931,-0.5713157866328954,0.13881576549410818
1773257647401677800,7.328677734375,-1.4815478863000868,-0.9561182370513677,1.6083242544323204
1773257647411691000,7.33869091796875,-1.2265946355879307,-0.4805985738754272,2.04075018742159
1773257647421703000,7.348702880859375,0.4490554346203804,-0.4242418958812952,0.5804185460209846
1773257647431715800,7.3587158203125,1.2720622552990912,-0.2513070031642914,-0.7636842786163092
1773257647441728000,7.36872802734375,1.3019827617883681,0.08432838850319385,0.4438898685507476
1773257647451740000,7.378739990234375,1.8826362856090069,0.21411972054243086,0.4539667336679995
1773257647461752800,7.3887529296875,0.6623193420510739,-0.22375088771879673,-0.13768471563756465
1773257647471764700,7.3987646484375,-1.9457716639578342,-0.22895605514645576,0.22831614980772136
1773257647481777000,7.40877685546875,-2.2303484840393066,-0.03989887966811657,-0.3095189536362886
1773257647491789800,7.418789794921875,-1.9876327836096286,0.038428807115554804,0.023527736712247133
1773257647501802000,7.428802001953125,-0.24747246650271115,0.022811551266908644,-0.5781077848605811
1773257647511815000,7.43881494140625,0.3484638205152005,0.34885318515896796,-0.26844167783856393
1773257647521827000,7.4488271484375,0.014296236377954482,1.5151841984421013,0.48588352854102845
1773257647531839000,7.4588388671875,0.1097640777286142,1.8687609049916267,-0.4695249528057873
1773257647541852000,7.468851806640625,-0.8860708873569965,1.471966988006234,-0.537538458584994
1773257647551863800,7.47886376953125,-0.8589001179672777,0.6986252387285232,0.34119814036116003
1773257647561877000,7.488876953125,0.2702045227926224,0.6314595819503068,0.006862871506810188
1773257647571889000,7.498888916015625,-0.7705611786484717,0.4219552462488413,-0.4649136596180498
1773257647581900800,7.50890087890625,-0.8427578883964568,0.4725356789290905,-0.24317805724442004
1773257647591914000,7.5189140625,-0.1356232530631125,0.4728986670225858,-0.6604720336839557
1773257647601926000,7.52892578125,-0.4147254411257803,0.3895370777249336,-0.0943051542468369
1773257647611938000,7.53893798828125,-0.36406375990286466,0.12686989163458345,-0.22152648966759442
1773257647621951000,7.548950927734375,0.35897827333211896,0.06461304968595505,0.17560732679665086
1773257647631963000,7.558962890625,0.8801775915347039,0.010022212320566177,0.3386294589169323
1773257647641975800,7.568975830078125,0.3433563413083553,-0.599194558161497,0.2570927469588816
1773257647651987700,7.57898779296875,1.4231890747033058,-0.3705921387583017,0.2288524486415088
1773257647661999900,7.588999755859375,2.2860952134415506,-0.25159634149968624,1.0560445921808481
1773257647672012800,7.5990126953125,1.6475893662415444,-0.6080155779987573,0.8007089180223643
1773257647682025000,7.60902490234375,0.9991348103486001,-0.4845172086238861,0.46993820978179573
1773257647692036900,7.619036865234375,0.4644575864136219,-0.14187281497716903,0.3797806767337024
1773257647702050000,7.629050048828125,0.02362783608585596,-0.17066811682879923,0.2374374677658081
1773257647712062000,7.63906201171875,-0.35739304996728893,-0.40860944246351716,0.17978110534995792
1773257647722075000,7.649074951171875,-0.3131760148391127,-0.47136429706215854,0.07610065838396549
1773257647732086800,7.659086669921875,1.0033774163544178,-0.4428542418926954,0.22964082254022358
1773257647742098700,7.6690986328125,1.7919488834679125,0.16336100868582726,1.0413923819720745
1773257647752111900,7.67911181640625,1.5697054777026176,0.2663631179988384,0.41468452459350225
1773257647762123800,7.689123779296875,1.0894036948166788,0.05500058721005916,0.19474515798687933
1773257647772136000,7.699135986328125,1.1798105264507233,0.11822948906123637,0.08359320609644055
1773257647782148900,7.70914892578125,1.262413990857452,0.14045593391656874,-0.02155848246589303
1773257647792161000,7.7191611328125,0.6992809261582792,-0.0074538231372833245,-0.04552636416107416
1773257647802174000,7.729174072265625,0.5786112043380737,0.1828641660571098,0.00574628856703639
1773257647812186000,7.73918603515625,0.7849462623536586,0.04791676642894745,-0.05091434080973267
1773257647822198000,7.749197998046875,1.291849636439234,0.0672813921123743,0.04936214293166995
1773257647832210700,7.759210693359375,2.1283925227783618,0.14123627063930033,0.6822444511614739
1773257647842222800,7.769222900390625,2.2069173395693302,-0.22351064922213554,0.9613697278387844
1773257647852235800,7.77923583984375,2.1080746880233288,-0.14213351173996924,1.1078082432962952
1773257647862248000,7.789248046875,2.0594377906262875,-0.29143676897883414,1.2143890878789125
1773257647872259800,7.799259765625,1.6390414642572402,-0.08550853819847107,0.9013926673904061
1773257647882273000,7.80927294921875,0.5082406140387058,-0.12240998961627482,1.3792669308684766
1773257647892285000,7.819284912109375,-0.27115795105993745,-0.23956980361938476,0.6427328172452748
1773257647902296800,7.829296875,0.06774433344900607,-0.43099546179473397,0.10288578945696353
1773257647912309800,7.839309814453125,-0.7906354869712143,-0.5333481672883034,0.013393880710750818
1773257647922322000,7.849322021484375,-0.621869988893345,-0.7656020949363708,-0.25192045888751746
1773257647932333800,7.859333740234375,-0.04362060360498726,-1.002189083352685,-0.44051469302922486
1773257647942346800,7.8693466796875,0.4832515726022422,-1.1208248151272535,-0.3842569453649223
1773257647952359000,7.87935888671875,0.8584177412778139,-1.3762228869974613,-0.3367592811308801
1773257647962371800,7.889371826171875,0.5410622487969696,-1.8679314684301613,-0.5622763017393648
1773257647972384000,7.899384033203125,-0.10817907355949281,-2.2499819897919893,-0.7889037678077816
1773257647982396000,7.90939599609375,-0.6570819528542459,-2.2233330523192882,-0.8931463787011802
1773257647992409000,7.9194091796875,-0.7240455111891031,-1.8957827674299477,-0.8939375290788709
1773257648002421000,7.9294208984375,-0.5352990090951323,-1.4900509262293575,-0.6496488802440464
1773257648012433000,7.939432861328125,-0.25033961943686006,-1.3454402107208967,-0.4191444266118109
1773257648022445800,7.94944580078125,0.08357581657022237,-1.4381985739171503,-0.489323439861834
1773257648032457700,7.959457763671875,-0.04022241253405809,-1.5955770010620354,-0.36362799883410335
1773257648042471000,7.969470947265625,-0.7456465176224708,-1.6888772160500287,-0.5209535267479718
1773257648052482800,7.97948291015625,-1.3337731538027524,-1.830874534189701,-1.0338573102921247
1773257648062495000,7.989494873046875,-1.6222522420197725,-1.9068670560240744,-0.8929344895161688
1773257648072508000,7.9995078125,-2.149352454829216,-1.42072429202497,-0.7132444234505295
1773257648082520000,8.00952001953125,-2.030631382858753,-0.6963087784796953,-1.0997742821834982
1773257648092532000,8.019531982421874,-2.338419274918735,0.08627133926451205,-1.166055995734036
1773257648102545000,8.029544921875,-2.625427998322248,0.6237111597806215,-1.756218960047513
1773257648112557000,8.03955712890625,-1.286013331501186,0.7280582539618015,-2.6324247253417967
1773257648122569700,8.04956982421875,0.6105293143853545,0.4420324041157961,-1.87662506249547
1773257648132582000,8.059581787109375,0.4671554471954703,0.9640350015252828,-1.414778827624023
1773257648142593800,8.06959375,0.6902490400493144,1.396794550383091,-1.9909429310709237
1773257648152607000,8.07960693359375,1.3583867860555647,1.8257956234902142,-1.8618441113404929
1773257648162619000,8.089618896484374,0.6268865749463438,2.105058555072546,-1.5925497621953486
1773257648172630800,8.099630859375,-0.4249792702451348,2.2371441355288026,-1.23312798287943
1773257648182644000,8.10964404296875,-0.48805590414404865,2.368395603248477,-0.9857080502815544
1773257648192656000,8.11965576171875,-0.2948763880386948,2.3122984529733657,-0.640053222772479
1773257648202668800,8.129668701171875,0.5641247060850262,2.1831600318849085,-0.313318199788779
1773257648212680700,8.1396806640625,1.4928022707641124,1.944503835979104,-0.11960771861188113
1773257648222692900,8.14969287109375,2.0402803779527545,1.7776503090023994,0.12075908060409128
1773257648232705800,8.159705810546875,2.128931598091125,1.8033102354377508,-0.018614245707541704
1773257648242718000,8.169718017578125,2.16585906073302,1.8451555729985236,-0.05058342835493385
1773257648252729900,8.179729736328126,2.165120517325401,1.765796789601445,-0.07405249368250369
1773257648262743000,8.189742919921875,2.103891264858842,1.495841200068593,0.051374761395715174
1773257648272754700,8.199754638671875,2.0552152044951915,1.444898363816738,-0.4569636139290407
1773257648282766600,8.2097666015625,1.6792285132169722,0.975927683892846,0.23942307035876437
1773257648292779800,8.21977978515625,0.9938345119833946,0.5572668030142783,0.09467259931974112
1773257648302791700,8.229791748046875,0.6243114637613296,0.6175111360967159,-0.28172026160657404
1773257648312804600,8.2398046875,0.9355138404399156,0.6401011535674334,-0.6403318205181509
1773257648322816500,8.24981640625,1.0460030906379223,0.8365770808696746,-1.3422132114984093
1773257648332828700,8.25982861328125,0.6527551756963134,1.5035755937129258,-1.5753212717577814
1773257648342841600,8.269841552734375,0.6692261257648467,1.899107527938485,-1.6036873884119092
1773257648352853800,8.279853759765626,1.129203351894021,1.7649083163291215,-1.3900927146568893
1773257648362865700,8.28986572265625,1.0895675070762634,1.5396049384713173,-1.1490258043475448
1773257648372878800,8.29987890625,0.7884633305639028,1.3314806589514017,-1.0444785114191473
1773257648382890800,8.309890869140625,1.0024375051558017,1.5859528481483458,-0.7315000649787485
1773257648392903700,8.319903564453124,-3.1331817056268454,2.7661183255165813,0.4296440471857786
1773257648402915800,8.329915771484375,-3.512837440806627,2.2074662056237457,-0.7018013845466077
1773257648412927700,8.339927734375,-1.3244623046219348,1.0903209557920694,-0.9163089353628456
1773257648422940700,8.349940673828126,-1.2476724949300289,0.808864313557744,-0.8616412333689629
1773257648432952600,8.35995263671875,-0.6535375582456588,0.9461924708425998,-0.6402062213771045
1773257648442964700,8.36996484375,0.47115737631320953,0.7938847710907458,-0.848099322489649
1773257648452977700,8.379977783203126,1.0530442413210868,0.5721989992082118,-0.9952803268775343
1773257648462989600,8.389989501953124,0.8404214813381433,-0.29799802719056606,1.5848679755210875
1773257648473001700,8.400001708984375,0.5608183580160141,-0.3176362091183662,0.7950808490075171
1773257648483014700,8.4100146484375,0.17773790908455847,0.521170238238573,-0.07671659832522272
1773257648493026800,8.42002685546875,0.878132495573163,0.08086918796002865,-0.3470380985610187
1773257648503039500,8.43003955078125,0.1327729781985283,-0.13236147478818894,-0.392895155981183
1773257648513051600,8.4400517578125,-0.015230886879563331,-0.8004600578278303,-0.5153346639528871
1773257648523063600,8.4500634765625,-1.2473773113757372,-1.1693524069309233,-0.17499138685539364
1773257648533076700,8.46007666015625,-1.5640870532989501,-0.9426999525517225,-1.4600655378103256
1773257648543088600,8.470088623046875,0.12206804431080817,-1.535955768314004,-1.5117236827246845
1773257648553100500,8.4801005859375,0.5860375549465417,-1.761488863274455,-1.3685316018424927
1773257648563113700,8.49011376953125,0.2824678651034832,-1.5202064105182884,-1.5064629857175051
1773257648573125600,8.500125732421875,0.24496494066119193,-1.1054945595264434,-1.7814432715445756
1773257648583138800,8.510138916015626,0.6433318060517311,-0.7310685416936874,-2.0031720057860016
1773257648593150700,8.520150634765624,0.9199386701673269,-0.41557489756196736,-1.5770714764259754
1773257648603163000,8.530162841796875,1.1209008029729126,-0.6140802848652005,-0.9403083812400698
1773257648613175600,8.540175537109375,1.0302052175253629,-1.2289648718506097,-0.7778709171399474
1773257648623187700,8.550187744140626,-0.07583177831470966,-1.416505505286157,-0.7888396165303886
1773257648633199600,8.56019970703125,-0.729435387533903,-1.5892396147340535,-0.24046485276296733
1773257648643212800,8.570212890625,-0.60590311588943,-1.1138891706451772,-0.27593627137765286
1773257648653224700,8.580224609375,-0.983525883936882,-0.45256461178511376,0.07454232302606105
1773257648663236600,8.590236572265624,-1.3390858732581137,0.8510580261647701,-0.033318186103552576
1773257648673249800,8.600249755859375,-1.7294249150156973,1.697685084144771,0.04312953215241432
1773257648683261700,8.61026171875,-1.9897633658975362,1.7977344811320304,0.12251016205511986
1773257648693274600,8.620274658203124,-1.3418220202237368,1.0841393445476888,0.44118725852854546
1773257648703286500,8.63028662109375,-0.45415421906411646,0.03447597783654928,0.4445050047744065
1773257648713298700,8.640298583984375,0.1372328802168369,-0.5376274520426988,0.6107694067515432
1773257648723311600,8.6503115234375,0.9327373614639043,-0.974014251486957,0.8906276738785207
1773257648733323500,8.660323486328124,1.1607535054117442,-0.7856614248856901,0.5779911727435887
1773257648743335700,8.670335693359375,0.8332903142839669,0.34665801320225,0.23507515908125787
1773257648753348600,8.6803486328125,1.0072639023989438,1.2258046542540193,-0.0007067965624853968
1773257648763360800,8.69036083984375,1.0224000967323779,1.7706299088463187,-0.11917568387016653
1773257648773372700,8.70037255859375,0.8784908074915408,1.8706687844395637,0.07916117846574634
1773257648783385900,8.7103857421875,0.698539898532629,1.7752344800323248,0.14874967847671358
1773257648793397800,8.720397705078126,-2.407937340041995,1.3097389288730918,1.2262459682807325
1773257648803410700,8.73041064453125,-6.660413582488894,0.380600176423043,0.6783152219537645
1773257648813422600,8.740422607421875,-7.918744834077358,-0.049574032116681335,0.5081012786332517
1773257648823434500,8.7504345703125,-5.158497446420789,-0.31082272971123454,0.9375115170631557
1773257648833447700,8.76044775390625,-1.7762743444740772,-0.16077683741152285,0.767891594113037
1773257648843459600,8.77045947265625,0.7500164032697677,0.45730625335425135,0.5697663652338087
1773257648853471700,8.7804716796875,2.306635604906082,0.3771228557012975,-2.371978868562728
1773257648863484700,8.790484619140624,1.5327771382778883,0.11478636287003754,-1.9642862486831842
1773257648873496800,8.800496826171875,1.6054425615161656,0.7603126102261245,-0.756112016731128
1773257648883508700,8.8105087890625,2.050661778974533,-0.38571094356551766,-0.9729198803789914
1773257648893521700,8.820521728515626,1.3300053257018327,-0.9179396053045987,-0.7162520808339119
1773257648903533800,8.830533935546875,1.4405226329505443,-1.149821630900353,-0.2482890435826033
1773257648913546800,8.840546630859375,0.6323486397445202,-0.9054336133442819,0.6510742368720471
1773257648923558700,8.85055859375,-0.4769646012872457,0.0064857087574899195,1.5014879737839102
1773257648933570600,8.860570556640624,-0.6940285585880279,0.8268461065806448,1.8050025724388659
1773257648943583700,8.870583740234375,-0.42991526534259317,1.068519019959122,2.4322671869173647
1773257648953595600,8.880595703125,-0.1346276661545038,0.6312779417730867,2.7990371370390057
1773257648963607800,8.89060791015625,-0.07587211032509804,0.2856691453628242,2.5474235521435737
1773257648973620700,8.900620849609375,-0.3135983319044113,0.05931567393019795,1.7891008005604148
1773257648983633000,8.9106328125,-0.8223597549468279,0.2788148955538869,1.3015461239367723
1773257648993645600,8.9206455078125,-1.07623865442574,1.3866482732914387,1.4779564376793801
1773257649003657500,8.930657470703125,-0.2142699426680803,2.3055780586771664,2.140759252398461
1773257649013669600,8.940669677734375,1.5498749880731104,2.016286046642065,3.1031165299698706
1773257649023682600,8.9506826171875,2.5334523099362847,1.24034083686769,2.6123908220946785
1773257649033694700,8.96069482421875,0.7081248884797096,-0.937697029697895,0.2867253946837969
1773257649043706600,8.97070654296875,-2.7133956201106306,-1.3792451574280857,-1.4735621482431889
1773257649053719800,8.9807197265625,-3.82967753111124,-0.9992350558526814,-0.48170861747656013
1773257649063731700,8.990731689453124,-0.23014555719196794,-2.8247803578436375,0.8588539407379925
1773257649073743600,9.00074365234375,2.4100866270303727,-2.048186621032655,-1.4597138017632065
1773257649083756800,9.0107568359375,0.5880044711053372,-0.8341242078248411,-3.9986116637542843
1773257649093768700,9.020768798828126,-0.9873504106611013,-2.053599293731153,-4.694447856286168
1773257649103780900,9.03078076171875,-1.7399872255623339,-2.731295433938503,-2.7543571605741977
1773257649113793500,9.04079345703125,-2.9544705675959584,-1.012424426967278,-0.4454101003879681
1773257649123805700,9.0508056640625,-2.505999070343375,1.8251603943265973,0.9876330269947647
1773257649133818600,9.060818603515624,-1.0866080727487801,3.452859065183997,1.541178617528826
1773257649143830800,9.070830810546875,0.08467617902755736,3.552160566413402,1.704610937885195
1773257649153842700,9.0808427734375,-0.2953735239058733,2.9049209392681714,1.3759734422810375
1773257649163856000,9.09085595703125,-1.4844827707082033,2.400703297135234,0.35946612991429866
1773257649173867800,9.10086767578125,-1.0353092626661062,2.144787777262181,-0.5660012040140107
1773257649183879700,9.110879638671875,-0.06023731881976127,1.826022564113885,-0.620985899535194
1773257649193892600,9.120892578125,-0.17477613666951655,1.4684396906629205,-0.33856289648674426
1773257649203904500,9.130904541015624,-0.6687853962600231,1.2593071108832954,-0.07824395402297377
1773257649213916700,9.140916748046875,-0.711913759368658,0.9042831281349062,-0.18485197887346147
1773257649223929600,9.1509296875,-0.5519365479022265,0.5643316268339753,-0.4173101969219744
1773257649233941800,9.160941650390624,-0.9591495675712823,0.687545626309514,-0.9899671690307557
1773257649243954700,9.17095458984375,-0.44967093617022036,0.9486151679448783,-1.6124343200996518
1773257649253966600,9.180966552734375,1.00480949498415,0.10525925885634496,-1.2876754194945097
1773257649263978800,9.190978759765626,1.55720547709167,-0.3539018468506634,-0.38895197131335735
1773257649273990700,9.20099072265625,0.5677648161530494,-0.062485846665222194,0.2415717910915613
1773257649284002600,9.21100244140625,1.0214841509312391,-0.03846489220908843,0.6075011987358331
1773257649294014700,9.2210146484375,1.3967092101871967,-0.6443419329423457,1.3402318284228443
1773257649304027600,9.231027587890624,0.43379999782145023,-1.0106103632826358,2.2166461219012734
1773257649314039800,9.241039794921875,-0.7345657361596822,-0.7301672089397907,2.404932605268061
1773257649324051700,9.2510517578125,-1.041316978648305,-0.300414294552058,1.4060897636033594
1773257649334064600,9.261064697265626,-0.8511509651452303,-0.39992001311667263,0.5922989534288644
1773257649344076500,9.27107666015625,-0.4596545700460672,-0.5114108050400391,0.2236480118662119
1773257649354089700,9.28108984375,0.12865735957324503,-0.5226529876096174,-0.3418013669513166
1773257649364101600,9.2911015625,0.2625420984059572,-0.5942373010803014,-0.86523691977337
1773257649374113500,9.301113525390624,-0.02531272043287754,-0.7540060574278235,-1.1655062528967857
1773257649384126700,9.311126708984375,-0.05399579408168793,-0.5585584137273952,-1.592429935207963
1773257649394138600,9.321138671875,-0.24697803404927252,-0.4130119882714003,-1.5662985918685792
1773257649404150800,9.33115087890625,-0.26734160764217374,-0.37791086427383125,-1.2255670461058616
1773257649414163700,9.341163818359375,-0.44337154376506804,-0.23438304863125084,-1.1810849303007125
1773257649424175600,9.351175537109375,-0.7352052031069993,-0.2490052290279418,-1.147094397893548
1773257649434187800,9.361187744140626,-0.9153922589093446,-0.4985936647713184,-1.0502116482436656
1773257649444200700,9.37120068359375,-0.9394844976365566,-0.8898576393540948,-0.8605116448171436
1773257649454212600,9.381212646484375,-0.8310445811837911,-1.1333553570069372,-0.672932432936877
1773257649464225500,9.3912255859375,-0.4947545249998569,-1.2372072150170803,-0.5565785284891724
1773257649474237700,9.40123779296875,-0.1464139655381441,-1.3131560438401997,-0.6113435533776879
1773257649484249600,9.41124951171875,-0.3324234438836574,-1.1206778078719972,-0.7247989599049091
1773257649494262800,9.4212626953125,-0.7472977919608355,-0.891975581356138,-0.8937190640226006
1773257649504274700,9.431274658203124,-1.0241793813645839,-0.7657223603151738,-0.8927870438694954
1773257649514286800,9.441286865234375,-1.2846756531566381,-0.5419849165998399,-0.6661661536723374
1773257649524299500,9.451299560546875,-1.3215940557092427,-0.3323955329634249,-0.47398383191078897
1773257649534311400,9.4613115234375,-1.0909808810055255,-0.25245368898138404,-0.3780995917789638
1773257649544323600,9.471323486328124,-0.6418856988966465,-0.14280001282468438,-0.3918303032286465
1773257649554336500,9.48133642578125,-0.108328857293725,0.15333470471203325,-0.6182523098528385
1773257649564348700,9.4913486328125,0.24658114368617534,0.38763781997486946,-0.8000729582063854
1773257649574361600,9.501361572265624,0.24654198071956632,0.5385756926782429,-0.5768504782758653
1773257649584373800,9.511373779296875,0.38164544769227504,0.6504563972346484,-0.08993497633859515
1773257649594385700,9.5213857421875,0.6831675573557615,0.7938409319490194,0.3371278221823275
1773257649604398800,9.53139892578125,0.8941109859496355,0.9591787936657666,0.6410290820673108
1773257649614410800,9.54141064453125,0.9160697197794914,1.1059443491205572,0.8725836292743683
1773257649624422700,9.551422607421875,0.8557423845887183,1.147180030350387,1.0175915274068712
1773257649634435600,9.561435546875,0.7160182720780373,1.1263371488079428,1.0342701288767158
1773257649644447500,9.571447509765624,0.6436848572731018,1.1050056069657206,0.9916894627787172
1773257649654459600,9.581459716796875,0.6764011319607496,1.061762677566707,0.9039863371454179
1773257649664472600,9.59147265625,0.7200064649313688,1.0095587353378535,0.8277396944195031
1773257649674484700,9.601484619140624,0.6923153249293565,0.9101131494626402,0.8078501680791378
1773257649684497700,9.61149755859375,0.6156336517870425,0.7113458963528275,0.7208717034585773
1773257649694509800,9.621509765625,0.4338625416636467,0.5611679021060466,0.7307119833409785
1773257649704521700,9.631521728515626,0.351592839255929,0.4061123649507761,0.8082903130620718
1773257649714534700,9.64153466796875,0.2612415372014046,0.23284780188798904,0.9597761750370264
1773257649724546600,9.651546630859375,0.3181353908121586,0.16684651271402834,0.9148204503707588
1773257649734558500,9.661558349609376,0.31713878099024295,-0.06288549524098634,0.8656338101364671
1773257649744571600,9.671571533203124,0.24264555780291555,-0.3912164091140032,0.7862944620922208
1773257649754583600,9.68158349609375,0.2281400625884533,-0.5797527755886316,0.7181117372259497
1773257649764595700,9.691595703125,-0.009901216289401054,-1.3857301355332134,0.09350421312749385
1773257649774608600,9.701608642578124,-0.27135961111187934,-0.8384934358850121,0.3172456023655832
1773257649784620800,9.711620849609375,0.7029734970659017,-0.1417100256308913,0.7315010878920555
1773257649794633700,9.7216337890625,1.137118362802267,-0.3776932029351592,0.77702204522565
1773257649804645600,9.731645751953126,0.9325257645398378,-0.12394991253465414,0.9132888568893075
1773257649814657800,9.74165771484375,0.951695744433999,0.23091537252068517,1.0315275521703064
1773257649824670500,9.75167041015625,0.6611030250638723,-0.27687866679430007,0.6604968758642673
1773257649834682600,9.7616826171875,-0.5176145915836096,-0.6618266631633043,0.4409593680568039
1773257649844694500,9.771694580078124,-0.1611404100269079,-0.39074733029752967,0.8454188512340187
1773257649854707700,9.781707763671875,0.4482599003285169,-0.6614271424517035,0.8726030646272003
1773257649864719600,9.7917197265625,0.928090412440896,-0.6722840520307422,0.7695913107030093
1773257649874731500,9.8017314453125,0.9571236147016287,-1.027265656942129,0.25088278640285133
1773257649884744700,9.81174462890625,0.8605775496602058,-0.6464291875451803,0.6301511297002435
1773257649894756600,9.821756591796875,0.3225263192474842,-0.4016445718869567,1.0922190444983542
1773257649904769500,9.83176953125,0.30074235746264455,-0.6171987091466784,1.1118288771145046
1773257649914781700,9.84178173828125,0.3205664173513651,-0.6650532239943743,1.2202375216461718
1773257649924793600,9.851793701171875,0.45120998230576514,-0.5351259906157851,1.3572173038847744
1773257649934806500,9.861806640625,0.5550830292344093,-0.5735673649519681,1.2119675598204136
1773257649944818700,9.871818603515624,0.5243915383726359,-0.6595853139773011,1.061811192883551
1773257649954830600,9.88183056640625,0.46910395091474055,-0.8924699407443404,0.9409946099385619
1773257649964843800,9.89184375,0.5998305179774761,-0.9314289092138409,0.8106700478054583
1773257649974855700,9.901855712890624,0.8812953435182571,-0.9448790501564741,0.5211002417422831
1773257649984867600,9.91186767578125,1.039339541095495,-0.7458779882907867,0.3461868885591626
1773257649994880800,9.921880859375,0.8078472454696893,-0.41410862440168855,0.4228234073854983
1773257650004892700,9.931892578125,0.3069318597525358,-0.3640431555062532,0.3580029985591769
1773257650014905600,9.941905517578125,-0.05206102662682533,-0.47476416863352056,0.10243278499245644
1773257650024917500,9.95191748046875,-0.2822439932197332,-0.3695651337981224,0.09562047462910413
1773257650034929700,9.9619296875,-0.20257892035245895,-0.3440218194797635,0.04614157344996929
1773257650044942600,9.971942626953124,0.1237269174337387,-0.4073585656195879,-0.1416490892238915
1773257650054954500,9.98195458984375,0.47823067570030686,-0.46513592406660315,-0.3559695930354297
1773257650064966700,9.991966552734375,0.6104957043766975,-0.6342609031066299,-0.527373184531927
1773257650074979600,10.0019794921875,0.5340379031181335,-0.8110878348261118,-0.4599918391764164
1773257650084991700,10.01199169921875,0.3996194958001375,-0.8544219496399164,-0.13759981383308767
1773257650095003600,10.022003662109375,0.28990298354029653,-0.8405144203186035,0.15617738079205154
1773257650105016800,10.032016845703126,0.20963293051719664,-0.7812567601859569,0.2256916465230286
1773257650115028700,10.04202880859375,0.23378771308660506,-0.7247884385108947,0.03168561646565795
1773257650125041700,10.052041748046875,0.29600305398106574,-0.6155100254073739,-0.18352657548859713
1773257650135053600,10.062053466796876,-0.04344926562607288,-0.48970980883091686,-0.21177301128581166
1773257650145065500,10.0720654296875,-0.3621089725732803,-0.5546852620884776,-0.14783625342622397
1773257650155078700,10.08207861328125,-0.27810382467508316,-0.6088190033361316,-0.17500088533610106
1773257650165090600,10.092090576171875,0.07605857280790805,-0.4353057262092829,-0.20802849099524318
1773257650175102700,10.102102783203126,0.2271247480660677,-0.3991401878505945,-0.21540990648344158
1773257650185115600,10.11211572265625,0.22916122232973574,-0.586083732175827,-0.31208040162213146
1773257650195127800,10.1221279296875,0.08578209444284439,-0.5820934934958816,-0.33273061013668775
1773257650205139700,10.1321396484375,-0.1586269659012556,-0.5828615552589297,-0.3646965779136866
1773257650215152600,10.142152587890624,-0.09163491212427616,-0.7344689977869391,-0.6170047209445387
1773257650225164500,10.15216455078125,0.010256605598330496,-0.46514381511211395,-0.7768489536810665
1773257650235177700,10.162177734375,-0.3560322830080986,-0.16602175232768057,-0.9109101450592278
1773257650245189600,10.172189697265624,-0.4870137016147375,-0.36283611780405045,-1.5776390471808612
1773257650255201500,10.182201416015625,-0.6625970630139112,-0.30238749432116746,-1.7304693095020949
1773257650265214700,10.192214599609375,-0.6132575703054666,-0.279493525467813,-1.6529270740076898
1773257650275227400,10.202227294921874,-0.27073592625558374,-0.20190467435270545,-1.4616459388695657
1773257650285239600,10.212239501953125,0.014790157374739646,-0.188386144348979,-1.4745475060187279
1773257650295252200,10.222252197265625,0.07501753932237624,-0.18960107309669255,-1.690653870333731
1773257650305264400,10.232264404296876,-0.18370587757825851,-0.2651841373473406,-1.8098481127738952
1773257650315276300,10.2422763671875,-0.47673605322837825,-0.271472131575644,-1.7811343517258762
1773257650325289500,10.25228955078125,-0.555260723888874,-0.17969138123989103,-1.7746281847022474
1773257650335301400,10.26230126953125,-0.6015320611983538,-0.07148819615244865,-1.7352882540911434
1773257650345314600,10.272314453125,-0.5377314969390631,-0.008074293123185633,-1.671717845325917
1773257650355326500,10.282326416015625,-0.29385668960213657,-0.0026341478958725926,-1.7498403649263083
1773257650365338400,10.29233837890625,-0.0439800115019083,0.0531605123013258,-1.7532868521183729
1773257650375351600,10.3023515625,-0.045075405523180956,0.23749708899855612,-1.4759640948183834
1773257650385363500,10.312363525390625,-0.3376175053954124,0.36432606410086155,-0.9681099228139967
1773257650395375600,10.322375732421875,-0.7112468198925256,0.3313976079672575,-0.6408650506120175
1773257650405388300,10.33238818359375,-0.855330881178379,0.34090807137340307,-0.5857719993455335
1773257650415400400,10.342400390625,-0.6867723038494586,0.3674447806432843,-0.5474381770370528
1773257650425412400,10.352412353515625,-0.5345616347312927,0.36607612263858313,-0.556067875553295
1773257650435425300,10.36242529296875,-0.48329029717743394,0.332914734531939,-0.6509470302958041
1773257650445437400,10.3724375,-0.41047348276972767,0.23503449827730655,-0.7226084641233086
1773257650455450400,10.382450439453125,-0.48482525165975093,0.1990600985765457,-0.5610378825182095
1773257650465462500,10.392462646484375,-0.5264806196063757,0.18189707459062338,-0.3216861055636778
1773257650475474400,10.402474365234376,-0.620439006242156,0.038160511568188664,-0.019033442658925197
1773257650485487400,10.4124873046875,-0.6856494372993708,0.0064323711350560185,0.25676961595173925
1773257650495499300,10.422499267578125,-0.13478840967416764,0.07501227862536906,-0.017176205411192493
1773257650505511200,10.43251123046875,0.10140051933526992,-0.5323801990389824,-0.06027676491416059
1773257650515524400,10.4425244140625,0.113004447889328,-0.7865154113665223,-0.07274618772375396
1773257650525536300,10.452536376953125,0.06403320397138595,-0.49913814691156144,0.14072678674720226
1773257650535548400,10.46254833984375,-0.027231705796718596,-0.4844701546117663,0.40048071573935445
1773257650545561300,10.472561279296874,-0.21906652929484843,-0.9464835627436637,0.6742259798787534
1773257650555573500,10.482573486328125,0.09779986449480056,-1.4704615518793462,0.585539944155328
1773257650565586400,10.49258642578125,0.6738730747878551,-1.6337866124689577,0.5938110384922475
1773257650575598600,10.5025986328125,0.5094681100070476,-2.755646615862846,0.2813765444691293
1773257650585610500,10.512610595703125,-0.5118108737409115,-2.4419497920200226,-0.06879864197464194
1773257650595623400,10.52262353515625,-0.9380570951819419,-1.699259493854642,-0.27271266968864943
1773257650605635300,10.53263525390625,-1.0293260966032742,-1.5723904790028929,-0.4712414744000882
1773257650615647200,10.542647216796874,-0.9982651879072189,-1.277303663083911,-0.7076488684657961
1773257650625660400,10.552660400390625,-0.2877969511717558,-0.8700520649701357,-0.7909647919908166
1773257650635672300,10.56267236328125,0.32140520626306535,-0.6918906697764993,-0.9916448199193925
1773257650645684500,10.5726845703125,0.6090981125384569,-0.2732821036070585,-1.1526494016721844
1773257650655697400,10.582697509765625,0.40369127528369425,0.3758928755149245,-1.1933435964364558
1773257650665709600,10.59270947265625,-0.1874836425513029,1.075720475770533,-0.7655023608889431
1773257650675722200,10.60272216796875,-0.2445902621299028,1.2070067225426435,-0.36874461119547486
1773257650685734400,10.612734375,-0.0480582207262516,1.2747913880020378,0.017854604712966828
1773257650695746300,10.622746337890625,0.11226268961131572,1.4048767345517872,0.25028533196635544
1773257650705759200,10.63275927734375,0.235067231503129,1.6605594685822724,0.15766659643650055
1773257650715771400,10.642771484375,0.16411971809864043,1.5272876009508967,0.15227759687453507
1773257650725783300,10.652783203125,0.2923924622684717,0.7786056611552834,-0.31276619192920624
1773257650735796500,10.66279638671875,0.5666583162158727,-0.0729109224319458,-0.7053067623190581
1773257650745808400,10.672808349609374,0.5825467902213335,-0.3523243684008717,-0.6542812162198126
1773257650755820300,10.6828203125,0.0879039089024067,-0.6062418463245034,0.03269311300776899
1773257650765833500,10.69283349609375,-0.0863520032852888,-1.0743158696696162,0.6792012840732932
1773257650775845400,10.702845458984376,-0.023819267004728317,-0.9781982591733336,1.9498390595272181
1773257650785858300,10.7128583984375,0.25857261025309564,0.45254152317047114,3.4048902763068676
1773257650795870200,10.7228701171875,-0.21354805813431738,0.2404012860074639,3.255634949862957
1773257650805882400,10.73288232421875,-0.40574820781350135,-0.312082666644454,0.43306656898036594
1773257650815895300,10.742895263671874,-0.809186969640851,-0.9652855861082672,-1.2640034520059824
1773257650825907500,10.752907470703125,-0.4705050498843193,-0.5304913165524602,-2.071631355636567
1773257650835919400,10.76291943359375,-0.028604747715592384,0.0820820708811283,-2.2661334986478088
1773257650845932500,10.7729326171875,0.6935153483688831,0.5637906518250704,-1.7100256564103067
1773257650855944400,10.7829443359375,1.4952648614853619,0.9060735186830162,-1.096375433525443
1773257650865956400,10.792956298828125,1.8251497268021106,0.9298682357683777,-0.07802417379245162
1773257650875969500,10.802969482421876,1.438417769625783,0.9354062884122133,1.220207418768853
1773257650885981400,10.8129814453125,0.4536193815350532,0.9339049439385533,2.0727027842603625
1773257650895993300,10.822993408203125,-0.263847920307517,0.6558353137940168,1.9469193726882337
1773257650906006300,10.83300634765625,-0.6454284860700369,0.3596367372408509,0.35853944352343675
1773257650916018400,10.843018310546874,-0.6442343078494072,-0.355365635792911,-1.740115089725703
1773257650926031400,10.85303125,0.2169061363905668,-1.3157812777772544,-3.1362641818121073
1773257650936043500,10.86304345703125,1.1139069985628127,-1.7015639714047313,-2.8414646584019065
1773257650946055400,10.873055419921876,1.6834990301430224,-0.9897674086749553,-1.2012727089352906
1773257650956068400,10.883068359375,1.8234768251538276,-0.5188064317166805,0.20960165859609842
1773257650966080500,10.89308056640625,1.4689946941971779,-0.040002632303535936,0.5356394930958748
1773257650976092400,10.903092529296876,0.32556057237684727,0.7448802094250917,0.5371123421274125
1773257650986105300,10.913105224609374,-0.7053197679311036,-0.10732961712330578,-0.06570347527116537
1773257650996117200,10.9231171875,-0.9434130692571401,-0.6303747093230485,-0.7586553445383906
1773257651006129400,10.93312939453125,-0.2939151417911052,-1.0315206840381026,-0.8660523278094827
1773257651016142300,10.943142333984374,0.24861118820905684,-1.1461197076424956,-0.45780850378796456
1773257651026154200,10.953154296875,0.6200830324113369,-0.811008924371004,-0.0018779227010905742
1773257651036167400,10.96316748046875,0.7549661346316338,-0.29330343963354827,-0.06596994418762624
1773257651046179300,10.973179443359374,0.4874082538902759,0.11381079583615064,-0.3103160222981125
1773257651056191500,10.98319140625,-0.055068391749262806,0.48895752915889024,-0.36497291063703596
1773257651066204400,10.993204345703125,-0.5203279421955347,0.8150608301103115,-0.03431779160015285
1773257651076216600,11.003216552734376,-0.780436091452837,1.1021014099568127,0.5840605557851493
1773257651086228500,11.013228515625,-0.6567296322852373,1.2514067130222917,1.212295914991945
1773257651096241400,11.023241455078125,-0.5099567703068256,1.3330408940054475,1.5032216657087205
1773257651106253300,11.03325341796875,-0.5572796624958515,1.366944771042466,1.406392545942217
1773257651116265200,11.04326513671875,-0.29218261891007424,1.1526289434060453,1.04265027307868
1773257651126278400,11.0532783203125,-0.06837210995852946,0.7706633238486945,0.597385426380299
1773257651136290300,11.063290283203125,-0.011281856992840766,0.45012598646134133,0.22445808614008128
1773257651146302500,11.073302490234376,-0.0700917733579874,0.169998108612746,0.03702606417816132
1773257651156315400,11.0833154296875,-0.01618248851597309,-0.08507759943529963,0.040048681668657805
1773257651166327600,11.09332763671875,0.1200929448455572,-0.2554813662394881,0.05569580293260514
1773257651176340200,11.10334033203125,0.1657604710429907,-0.27249650618731974,0.013071315959189086
1773257651186352400,11.113352294921874,-0.2123971345335245,0.22452216435223815,-0.06018564343145117
1773257651196364300,11.1233642578125,-0.982110171920061,0.8486294838435947,-0.16312095285225658
1773257651206377500,11.13337744140625,-1.26249713909626,1.2073435532815753,-0.24060924793602897
1773257651216389400,11.143389404296874,-0.9432540793031453,1.2867884075269103,-0.45329975765924896
1773257651226401300,11.1534013671875,-0.6548895573765039,1.2247906549058853,-0.6702624100100248
1773257651236414500,11.16341455078125,-0.6600076310425996,1.0690814761474727,-0.6841971926644445
1773257651246426400,11.17342626953125,-0.7098369530946016,0.8712157019220292,-0.5041846166461705
1773257651256438500,11.1834384765625,-0.8371697860658168,0.58710854517892,-0.38682365404777225
1773257651266451500,11.193451416015625,-1.1160972020834683,0.3717654203213751,-0.2058265239715576
1773257651276463000,11.203463134765625,-1.3591858274787663,0.4140544099964201,0.3976647450031712
1773257651286475000,11.21347509765625,-1.365993753927946,0.3439188705619424,0.7538633610215038
1773257651296488000,11.223488037109375,-1.015820133820176,0.2192405706875026,0.6856047213748097
1773257651306499800,11.233499755859375,-0.588961333438754,-0.1396178756572306,0.5107937691202387
1773257651316513000,11.243512939453124,-0.32459669578075406,-0.5853342289827763,0.18383520304635165
1773257651326525000,11.25352490234375,-0.24766543179154393,-0.6361867566026747,-0.11988054420389234
1773257651336537000,11.263537109375,-0.6771738698989153,-0.4933632167719304,-0.18319580916427075
1773257651346550000,11.273550048828126,-1.2803899386614561,-0.6630318011693656,-0.004129245291836559
1773257651356562200,11.283562255859374,-1.1042723242551087,-1.0985970550976694,0.15047679453026502
1773257651366574000,11.293573974609375,-0.5020043499976397,-1.3752785918846726,0.2287591808674857
1773257651376587000,11.3035869140625,0.20901041470468043,-1.5129457718655466,0.058931679581291974
1773257651386599200,11.31359912109375,0.6005594167739152,-1.232033465640992,-0.19512180927954614
1773257651396611000,11.323611083984375,0.4878811320990324,-0.7717267152965068,-0.28074027412589636
1773257651406624000,11.3336240234375,0.12970540732145308,-0.5110230843640864,-0.31652452154941857
1773257651416636000,11.343635986328126,-0.03707797702848911,-0.3239060831680894,-0.24475076818754896
1773257651426649000,11.353649169921875,0.02907762592434883,-0.1152194935902953,-0.21390030563808976
1773257651436661000,11.363660888671875,0.1919195791721344,0.10878931441232562,-0.110453685694281
1773257651446673000,11.3736728515625,0.4566682477116584,0.21160554576441645,-0.03844805067214183
1773257651456686000,11.38368603515625,0.6840706436753272,0.4549687503173947,-0.11615507567366584
1773257651466698000,11.393697998046875,0.746261434650421,0.7571561920218169,-0.22829828535746782
1773257651476710100,11.403710205078125,0.6077104575723409,0.8974236176289617,-0.28892683198451996
1773257651486723000,11.41372314453125,0.5538567023098468,0.9762092773132026,-0.3923717166289687
1773257651496735000,11.42373486328125,0.5486895288050174,0.9484517940767109,-0.34129023909140377
1773257651506747000,11.433746826171875,0.5490770668178796,0.8385342062868177,-0.3238242501035333
1773257651516760000,11.443760009765626,0.4917278706550598,0.599071516303718,-0.3814326086591929
1773257651526772000,11.45377197265625,0.35715222694873805,0.4646797047317028,-0.3816244414368644
1773257651536784000,11.463783935546875,0.1889917090266943,0.36007571318000553,-0.3816903462799266
1773257651546797000,11.473797119140626,0.15659458329081535,0.27804756444320083,-0.3187355851950124
1773257651556809000,11.48380908203125,0.3191501208126545,0.2681688522465527,-0.22132702157273887
1773257651566822100,11.493822265625,0.5552659845858812,0.29009894450381396,-0.14107793827243148
1773257651576834000,11.503833984375,0.6145183840215206,0.3059134764902294,-0.10411745014376937
1773257651586846200,11.51384619140625,0.5115630364596844,0.2608402629241347,-0.1315090774762444
1773257651596859000,11.52385888671875,0.4283382252842188,0.2838037898823619,-0.143950845093932
1773257651606871000,11.53387109375,0.3801157539069652,0.38043709481582044,-0.22057055891593916
1773257651616883000,11.543883056640626,0.36566111209690566,0.4332967244744301,-0.2559633410701528
1773257651626896000,11.553895751953124,0.33406244326233864,0.43340822202488777,-0.19112362475516273
1773257651636908000,11.563907958984375,0.30523440818488595,0.35051483476087447,-0.08921378592457621
1773257651646920000,11.573919921875,0.3547627014636993,0.20237726030051706,0.000022284897044301032
1773257651656933000,11.58393310546875,0.3142471512019634,0.05814969889074564,0.06253560409108176
1773257651666945000,11.593945068359375,0.26980653645098207,0.021229688902944324,0.08928935364512726
1773257651676957200,11.603957275390625,0.2340688681155443,0.023967297173291442,0.04323313865736127
1773257651686970000,11.61397021484375,0.22265023300051687,0.02962210806459188,-0.02775761110065505
1773257651696982000,11.62398193359375,0.20179156936705112,-0.016642507243156433,-0.07562571608228609
1773257651706995000,11.633994873046875,0.14879413867294788,-0.11018208394497632,-0.09189288720702751
1773257651717006800,11.6440068359375,0.13152093231081963,-0.12919351227656006,-0.033430487371608614
1773257651727019000,11.65401904296875,0.13899170658290386,-0.1424431622110307,0.02395451075695455
1773257651737032000,11.664031982421875,0.1366150405794382,-0.12650383480116725,0.06369725001528859
1773257651747044000,11.674044189453125,0.1942249335050583,-0.053813277121633286,0.10274546767082064
1773257651757056000,11.684055908203124,0.17399053924977778,0.004591857834905386,0.08445734864510596
1773257651767069200,11.694069091796875,0.08080489055216312,-0.06324146907180547,0.09250190421715378
1773257651777081000,11.7040810546875,0.030017537122964857,-0.15490210015922784,0.12925598305352032
1773257651787093000,11.714093017578126,0.0359586176097393,-0.1623629375591874,0.13943066425574943
1773257651797106000,11.72410595703125,-0.0853068781465292,-0.1309274964623153,0.10698761701891198
1773257651807117800,11.734117919921875,-0.4766746784299612,-0.10551613796055316,0.10747901726504787
1773257651817130000,11.7441298828125,-0.729922294268012,0.0027433073587715623,0.20249248417802154
1773257651827143000,11.754142822265624,-0.5768032781332731,0.1339430448912084,0.31468736925013363
1773257651837155000,11.764155029296875,-0.2597755563020706,0.18202260066643355,0.30663254801239814
1773257651847168000,11.77416796875,-0.10447568899691104,0.1809833207465708,0.2240501446600072
1773257651857180200,11.78418017578125,-0.1092570780545473,0.1928633628282696,0.16796104982718824
1773257651867192000,11.794192138671875,-0.0870931770414114,0.19006204167194662,0.1135431944085285
1773257651877205200,11.804205322265625,-0.03655775254666805,0.17043262757249175,0.0848782044056803
1773257651887217200,11.814217041015626,0.022953005564212797,0.13604038249664008,-0.0008403232816606759
1773257651897229000,11.82422900390625,-0.027810382467508315,0.11840148462727665,-0.08859391872687265
1773257651907242000,11.834241943359375,-0.1697930875599384,0.13095482286065815,-0.1498749013806693
1773257651917254000,11.84425390625,-0.19553309349417686,0.17678046222925184,-0.15601150443954392
1773257651927266000,11.85426611328125,0.08399696459174155,0.25288462774455545,-0.03761323468266055
1773257651937279000,11.864279052734375,0.3267442292034626,0.21604645082131027,0.047402734225895256
1773257651947291100,11.874291015625,0.3449129231005907,0.12374138435050844,0.03191705060135573
1773257651957303000,11.884302978515626,0.21900515449643135,0.06571012420766055,-0.01655674692215398
1773257651967316000,11.89431591796875,-0.07923077310323715,0.013044263555482029,-0.1551538646969013
1773257651977328000,11.904328125,-0.3110316962867975,-0.019055413603782653,-0.3346699807014316
1773257651987340000,11.914340087890626,-0.4039011186420917,-0.016529183061793445,-0.4805738047603518
1773257651997353000,11.92435302734375,-0.24881927800178527,0.024622692342102525,-0.5497020303158089
1773257652007364900,11.93436474609375,-0.058597150397300714,-0.010759148292988538,-0.5090402765164151
1773257652017378000,11.9443779296875,0.006755904000997543,-0.1294072280924767,-0.34911037479043006
1773257652027390000,11.954389892578124,0.06280453895926476,-0.24457769490927456,-0.13832080331770702
1773257652037401900,11.96440185546875,0.17633681011497973,-0.2745683440253138,0.09178659555464982
1773257652047415000,11.9744150390625,0.15532617079019545,-0.2704804171245545,0.24682748313006012
1773257652057427000,11.984427001953126,-0.026779870375990868,-0.25010120757110416,0.3301501651894301
1773257652067439000,11.994439208984375,-0.24085925890803336,-0.21763883457928895,0.383561291250959
1773257652077452000,12.0044521484375,-0.2894341969847679,-0.2037337894760072,0.3882134279057383
1773257652087464200,12.014464111328126,-0.19324176768660545,-0.16547960827499628,0.37874271198809145
1773257652097476000,12.02447607421875,-0.0965302829504013,-0.06823160550929605,0.41234921351373194
1773257652107489000,12.034489013671875,-0.025931729114055634,-0.006173135676980019,0.4303232616215944
1773257652117501000,12.0445009765625,0.0146919576972723,0.005116831557080149,0.3850319848580286
1773257652127512800,12.054512939453126,-0.08514905723631382,0.023010654035583136,0.32104828258417545
1773257652137526000,12.064526123046875,-0.28748130935132504,0.07390585175342858,0.27974077822715043
1773257652147538000,12.074537841796875,-0.40167876641750333,0.16258206020258367,0.27269981020707634
1773257652157551000,12.084551025390626,-0.29100422278046606,0.2744694136954844,0.26548461813125757
1773257652167563000,12.09456298828125,0.013715221619606017,0.3623295565214008,0.2369440947582945
1773257652177575200,12.1045751953125,0.33373101935088634,0.4313696288693696,0.14568317617871798
1773257652187588000,12.114588134765626,0.5468652359873056,0.43352899886034424,0.035302768066490534
1773257652197600000,12.12460009765625,0.554565142840147,0.3224715933855623,-0.14163558128834702
1773257652207612200,12.134612060546875,0.3228793704688549,0.1582096903372556,-0.2494800251991488
1773257652217624800,12.144624755859375,0.09430442359447479,0.09402889458872378,-0.005910941076837479
1773257652227637000,12.154636962890624,0.25083646304309365,0.10205956776589155,-0.21455712557900697
1773257652237649000,12.16464892578125,0.23710838194191455,0.2201188878919929,-0.1728700838524848
1773257652247662000,12.174662109375,0.3933072439134121,0.5073515562444925,-0.10317165719363838
1773257652257674000,12.184674072265626,0.5674941825181246,0.6012210955530405,-0.2715881226381287
1773257652267686100,12.19468603515625,0.40976153510808944,0.4286152886599302,-0.33382976701762523
1773257652277699600,12.204699462890625,0.34869945590198037,0.32580358735248444,-0.5000284468147903
1773257652287711700,12.214711669921876,0.3123608990639448,0.37366738148517903,-0.7138482345625757
1773257652297724700,12.224724609375,0.26017829188406466,0.5387595248125493,-0.860068869485706
1773257652307736600,12.234736572265625,0.2184311540007591,0.5602721223101019,-0.9394861781369894
1773257652317748500,12.24474853515625,0.1679062509000301,0.3251180162411183,-0.93793931402117
1773257652327761700,12.25476171875,0.07306114455759524,0.023215602023154494,-0.7558609645795077
1773257652337773600,12.264773681640625,0.05288227988183498,-0.17796967201381922,-0.4330533807052299
1773257652347785700,12.27478564453125,-0.06074526834189892,-0.3092014851849526,-0.14675690635745411
1773257652357798700,12.284798583984376,-0.3026397155165672,-0.3778000973757356,0.0944742820023559
1773257652367810800,12.294810791015625,-0.3286749050050974,-0.2830335361622274,0.32180341180041433
1773257652377822700,12.30482275390625,-0.13593290353417395,-0.1386072007773444,0.4327260119143873
1773257652387835600,12.314835693359376,0.08345277471244335,-0.06461199024002999,0.41434948395285753
1773257652397847600,12.32484765625,0.14654080678820608,-0.010512370457686483,0.2359835060978308
1773257652407859500,12.334859375,-0.0341810865432024,0.056928851858898996,-0.12247764802500605
1773257652417872600,12.34487255859375,-0.3765630298614502,-0.03593114508092403,-0.22460737668396905
1773257652427884500,12.354884521484376,-0.7816513124614953,0.23883279458172618,-0.48664581815041597
1773257652437896700,12.364896728515625,-0.8815560402810573,0.32118213809691365,-0.44922096391301597
1773257652447909600,12.37490966796875,-0.591307604303956,0.44389151251856235,-0.6149252843219787
1773257652457921800,12.384921875,-0.5552963797241449,0.3062436765589751,-0.43901882844828066
1773257652467934700,12.394934814453125,-0.4986211373001337,0.05745382558107376,-0.30286797131448984
1773257652477947000,12.40494677734375,-0.4929641344517469,-0.05187001583306119,-0.19498117696614936
1773257652487958800,12.414958740234376,-0.4241939650863409,0.07364785840436816,-0.17307735166130586
1773257652497971500,12.424971435546874,-0.3009609686493873,0.22092260549031198,-0.11443245313214137
1773257652507983600,12.434983642578125,-0.20482757606208324,0.2979808568600565,-0.15652080566855148
1773257652517995500,12.44499560546875,-0.20308803891837596,0.24942403896190224,-0.07407069149289745
1773257652528008700,12.4550087890625,-0.1176578266531229,0.22233429891914128,0.1059209833012428
1773257652538020600,12.4650205078125,0.04711772500574588,0.27999104492748156,0.18743781238188967
1773257652548032800,12.47503271484375,0.1758890663474798,0.5363877541799098,0.026984937094571067
1773257652558045700,12.485045654296876,0.2958037320166826,0.7279517248474061,-0.10356441023773513
1773257652568057600,12.4950576171875,0.5094190101683139,0.7305611766934395,-0.27432911017565054
