time,seconds_elapsed,z,y,x
1773257640132663000,0.0596630859375,-0.03556298464536667,-0.5020986795425415,-0.10542149096727371
1773257640142675000,0.069675048828125,-0.057267479598522186,-0.5378636121749878,-0.12200019508600235
1773257640152687900,0.07968798828125,-0.0698033943772316,-0.47946202754974365,-0.1262986660003662
1773257640162700000,0.089699951171875,-0.08446648716926575,-0.3527051508426666,-0.12694475054740906
1773257640172712000,0.0997119140625,-0.11282137781381607,-0.20215438306331635,-0.15668711066246033
1773257640182724900,0.109724853515625,-0.1473625749349594,-0.031008200719952583,-0.2343190610408783
1773257640192736800,0.11973681640625,-0.17836377024650574,0.0673443078994751,-0.31498461961746216
1773257640202750000,0.12975,-0.1474071890115738,0.03649398311972618,-0.4119575321674347
1773257640212761900,0.139761962890625,-0.060984835028648376,0.026880817487835884,-0.5073675513267517
1773257640222773800,0.149773681640625,0.06037434935569763,0.004683102481067181,-0.5540823340415955
1773257640232787000,0.159786865234375,0.1573462337255478,-0.0730728954076767,-0.5184006094932556
1773257640242798800,0.169798828125,0.15939420461654663,-0.1638086587190628,-0.41356316208839417
1773257640252812000,0.17981201171875,0.08262667804956436,-0.2070585936307907,-0.27928173542022705
1773257640262824200,0.18982421875,0.02346695028245449,-0.2274501621723175,-0.15129661560058594
1773257640272836400,0.19983642578125,0.029097966849803925,-0.29415345191955566,-0.03142077103257179
1773257640282849300,0.209849365234375,0.07222333550453186,-0.314259797334671,0.07000891864299774
1773257640292861400,0.219861328125,0.13742978870868683,-0.26920220255851746,0.12881647050380707
1773257640302873300,0.229873291015625,0.23299360275268555,-0.24947242438793182,0.15418389439582825
1773257640312886500,0.239886474609375,0.3293236494064331,-0.25043654441833496,0.14587529003620148
1773257640322898400,0.2498984375,0.4444124102592468,-0.22322730720043182,0.09724649786949158
1773257640332911600,0.25991162109375,0.5960264205932617,-0.1506122499704361,0.010485604405403137
1773257640342923500,0.269923583984375,0.7738510370254517,0.06078600883483887,-0.0913371592760086
1773257640352935400,0.279935302734375,0.9127524495124817,0.38675829768180847,-0.20905403792858124
1773257640362948400,0.2899482421875,0.9616462588310242,0.6430438756942749,-0.34682202339172363
1773257640372960300,0.299960205078125,0.9043126106262207,0.777646005153656,-0.5032708644866943
1773257640382973400,0.309973388671875,0.7787839770317078,0.7962609529495239,-0.6713847517967224
1773257640392985300,0.3199853515625,0.6295248866081238,0.7808724045753479,-0.8173528909683228
1773257640402997500,0.32999755859375,0.5053597688674927,0.8629449009895325,-0.9243955016136169
1773257640413010400,0.340010498046875,0.3891650140285492,1.0986638069152832,-0.9793398380279541
1773257640423022600,0.350022705078125,0.28753745555877686,1.2900817394256592,-0.9893466234207153
1773257640433035300,0.36003515625,0.22107172012329102,1.436851978302002,-0.9485394954681396
1773257640443047200,0.370047119140625,0.2378898411989212,1.6922224760055542,-0.8318648338317871
1773257640453059300,0.380059326171875,0.2859514653682709,2.1708028316497803,-0.6548254489898682
1773257640463072300,0.390072265625,0.26315054297447205,2.594048500061035,-0.49937278032302856
1773257640473084400,0.40008447265625,0.146595761179924,2.823552370071411,-0.40487197041511536
1773257640483096300,0.410096435546875,-0.021221736446022987,2.9361844062805176,-0.32509592175483704
1773257640493109500,0.420109619140625,-0.14664730429649353,2.9553940296173096,-0.19006291031837463
1773257640503121400,0.430121337890625,-0.22146029770374298,2.854990005493164,0.009775904938578606
1773257640513134600,0.440134521484375,-0.3237835764884949,2.5233917236328125,0.2355939894914627
1773257640523146500,0.450146484375,-0.5356303453445435,1.9368082284927368,0.4497869908809662
1773257640533158400,0.460158447265625,-0.8737164735794067,1.2514575719833374,0.6736565232276917
1773257640543171300,0.47017138671875,-1.442284345626831,0.4634871482849121,0.8605169653892517
1773257640553183200,0.480183349609375,-1.8718963861465454,-0.8330355286598206,0.685562789440155
1773257640563196400,0.490196533203125,-1.7932430505752563,-2.440220355987549,0.2509106397628784
1773257640573208300,0.500208251953125,-1.6739267110824585,-3.580981731414795,0.05204340070486069
1773257640583220500,0.510220458984375,-1.7531908750534058,-4.448975563049316,-0.02557043358683586
1773257640593233400,0.5202333984375,-1.869552493095398,-5.260634899139404,-0.17153087258338928
1773257640603245600,0.53024560546875,-1.9285197257995605,-5.977879524230957,-0.4219883680343628
1773257640613257500,0.540257568359375,-1.9370241165161133,-6.6367902755737305,-0.7977861762046814
1773257640623270400,0.5502705078125,-2.092390537261963,-6.424354553222656,-1.4704750776290894
1773257640633282300,0.5602822265625,-2.4932785034179688,-4.131323337554932,-2.116708755493164
1773257640643295200,0.570295166015625,-2.3593432903289795,-1.397087812423706,-2.123077154159546
1773257640653307400,0.580307373046875,-0.9620676636695862,-0.11825655400753021,-1.421422004699707
1773257640663319300,0.5903193359375,0.3537125587463379,0.31581738591194153,-0.7622206807136536
1773257640673332500,0.60033251953125,0.5765917897224426,0.24618496000766754,-0.46337246894836426
1773257640683344400,0.610344482421875,0.36348456144332886,0.16694819927215576,-0.34981822967529297
1773257640693357600,0.620357666015625,0.31157180666923523,-0.3552587926387787,-0.3334592580795288
1773257640703369500,0.630369384765625,0.369575172662735,-0.8170232176780701,-0.32311126589775085
1773257640713381400,0.64038134765625,0.3119768798351288,-1.053013563156128,-0.3409944772720337
1773257640723394300,0.650394287109375,0.21868877112865448,-1.187196969985962,-0.4241519570350647
1773257640733406200,0.66040625,0.15186387300491333,-1.2168807983398438,-0.5667484402656555
1773257640743419400,0.67041943359375,0.13829000294208527,-1.124137282371521,-0.7065982222557068
1773257640753431300,0.680431396484375,0.16640329360961914,-0.976327121257782,-0.8052588701248169
1773257640763443500,0.690443359375,0.219072625041008,-0.809490978717804,-0.8243798017501831
1773257640773456400,0.700456298828125,0.27106666564941406,-0.7188934087753296,-0.7808271050453186
1773257640783468500,0.710468505859375,0.30465152859687805,-0.7456696033477783,-0.7149527668952942
1773257640793480400,0.72048046875,0.3158474266529083,-0.8025479912757874,-0.6342983245849609
1773257640803493400,0.730493408203125,0.2897404730319977,-0.8387110233306885,-0.521624743938446
1773257640813505500,0.740505615234375,0.20772653818130493,-0.938655436038971,-0.37926217913627625
1773257640823518200,0.750518310546875,0.083802729845047,-1.161531925201416,-0.20272418856620789
1773257640833530400,0.7605302734375,-0.04820011556148529,-1.368388056755066,0.007052820175886154
1773257640843542300,0.770542236328125,-0.1566522866487503,-1.502802848815918,0.21537593007087708
1773257640853555500,0.780555419921875,-0.2527104318141937,-1.6712477207183838,0.3659987151622772
1773257640863567400,0.7905673828125,-0.361174076795578,-1.8647010326385498,0.43001070618629456
1773257640873580500,0.80058056640625,-0.43277841806411743,-1.9072047472000122,0.3965999484062195
1773257640883592400,0.810592529296875,-0.41462579369544983,-1.8274552822113037,0.3295429050922394
1773257640893604400,0.820604248046875,-0.3442677855491638,-1.6948883533477783,0.33086255192756653
1773257640903617300,0.8306171875,-0.29321765899658203,-1.5937933921813965,0.42258980870246887
1773257640913629200,0.840629150390625,-0.2753644287586212,-1.5859484672546387,0.5886343717575073
1773257640923642400,0.850642333984375,-0.29981598258018494,-1.7329776287078857,0.781272292137146
1773257640933654300,0.860654296875,-0.4069567918777466,-2.0707242488861084,0.936414361000061
1773257640943666400,0.87066650390625,-0.5838250517845154,-2.4463350772857666,1.01861572265625
1773257640953679400,0.880679443359375,-0.7957274913787842,-2.7099838256835938,1.0049324035644531
1773257640963691500,0.89069140625,-1.0090078115463257,-2.855849266052246,0.9395594596862793
1773257640973703400,0.900703369140625,-1.170501708984375,-2.805962562561035,0.889225423336029
1773257640983716600,0.910716552734375,-1.3506853580474854,-2.5817959308624268,0.9668475389480591
1773257640993728500,0.920728515625,-1.5060625076293945,-2.179694890975952,1.1491189002990723
1773257641003741400,0.930741455078125,-1.5703480243682861,-1.7061443328857422,1.3762305974960327
1773257641013753300,0.94075341796875,-1.4756184816360474,-1.2938095331192017,1.6030038595199585
1773257641023765200,0.95076513671875,-1.2638119459152222,-0.9030390381813049,1.7976032495498657
1773257641033778400,0.9607783203125,-1.0263803005218506,-0.6142280697822571,1.9275496006011963
1773257641043790300,0.970790283203125,-0.8466520309448242,-0.4966023862361908,1.9789897203445435
1773257641053803500,0.980803466796875,-0.7452858686447144,-0.5173237323760986,1.9748588800430298
1773257641063815400,0.9908154296875,-0.7209842205047607,-0.6947741508483887,1.9708534479141235
1773257641073827600,1.00082763671875,-0.8252448439598083,-0.8498936891555786,1.9967751502990723
1773257641083840300,1.01084033203125,-0.9922330379486084,-0.8416993618011475,2.0099563598632812
1773257641093852200,1.02085205078125,-1.1066670417785645,-0.7618160247802734,1.9807846546173096
1773257641103865300,1.030865234375,-1.125983715057373,-0.7011646628379822,1.926666021347046
1773257641113877200,1.040877197265625,-1.0758578777313232,-0.5107422471046448,1.826601266860962
1773257641123889400,1.050889404296875,-0.8680925965309143,-0.32150018215179443,1.6970887184143066
1773257641133902300,1.06090234375,-0.6224851608276367,-0.15633229911327362,1.5345770120620728
1773257641143914500,1.07091455078125,-0.44835570454597473,0.012088135816156864,1.3470327854156494
1773257641153927400,1.080927490234375,-0.31437426805496216,0.11941172182559967,1.1244492530822754
1773257641163939600,1.090939697265625,-0.2526482939720154,0.3663269579410553,0.8561533093452454
1773257641173951500,1.100951416015625,-0.23039817810058594,0.7058893442153931,0.6334761381149292
1773257641183964400,1.11096435546875,-0.1627054214477539,0.7167936563491821,0.4888177216053009
1773257641193976300,1.120976318359375,-0.1748463362455368,0.5206289291381836,0.36578577756881714
1773257641203989500,1.130989501953125,-0.16594472527503967,0.18245193362236023,0.27612727880477905
1773257641214001400,1.14100146484375,-0.27489951252937317,-0.37088409066200256,0.3245055079460144
1773257641224013300,1.151013427734375,-0.3909435570240021,-0.4793756604194641,0.3092690408229828
1773257641234026500,1.161026611328125,-0.374601811170578,-0.4982359707355499,0.29941022396087646
1773257641244038400,1.171038330078125,-0.20857129991054535,-0.3971748650074005,0.32934361696243286
1773257641254051300,1.18105126953125,0.028281139209866524,-0.09367245435714722,0.35154032707214355
1773257641264063500,1.1910634765625,0.24878554046154022,0.33315929770469666,0.36558717489242554
1773257641274075400,1.201075439453125,0.3750592768192291,0.6505007147789001,0.36403247714042664
1773257641284088600,1.211088623046875,0.3430371582508087,0.6167177557945251,0.29733413457870483
1773257641294100500,1.2211005859375,0.2202821671962738,0.43363040685653687,0.1730419397354126
1773257641304113700,1.23111376953125,0.11135435849428177,0.3000691533088684,0.04389486461877823
1773257641314125600,1.24112548828125,0.05038296431303024,0.21523818373680115,-0.07686411589384079
1773257641324137500,1.251137451171875,0.0051294672302901745,0.1422254890203476,-0.16543126106262207
1773257641334150700,1.261150634765625,0.006291544530540705,0.14937655627727509,-0.23599158227443695
1773257641344162600,1.27116259765625,0.05896434187889099,0.14418871700763702,-0.28081393241882324
1773257641354175500,1.281175537109375,0.11689843982458115,0.02036011964082718,-0.3094821274280548
1773257641364187400,1.2911875,0.13689398765563965,-0.10586705803871155,-0.3565329909324646
1773257641374199600,1.301199462890625,0.14075766503810883,-0.13705413043498993,-0.42975088953971863
1773257641384212500,1.31121240234375,0.12167051434516907,-0.20055560767650604,-0.5146295428276062
1773257641394224400,1.321224365234375,0.020040644332766533,-0.3759725093841553,-0.6147124171257019
1773257641404237600,1.331237548828125,-0.15461185574531555,-0.5746824145317078,-0.7168518304824829
1773257641414249500,1.34124951171875,-0.3242413401603699,-0.717555820941925,-0.7948364019393921
1773257641424261600,1.35126171875,-0.4432521462440491,-0.8242732286453247,-0.8224000930786133
1773257641434274600,1.361274658203125,-0.5006737112998962,-0.9474478363990784,-0.8166108727455139
1773257641444286500,1.371286376953125,-0.5351371765136719,-1.0151056051254272,-0.8058245182037354
1773257641454299400,1.38129931640625,-0.5349885821342468,-1.1016268730163574,-0.8172658085823059
1773257641464311600,1.3913115234375,-0.504784882068634,-1.1746541261672974,-0.7941359877586365
1773257641474323500,1.401323486328125,-0.4764358699321747,-1.0811457633972168,-0.692463755607605
1773257641484336600,1.411336669921875,-0.44790300726890564,-0.9721386432647705,-0.5197388529777527
1773257641494348500,1.4213486328125,-0.45268216729164124,-0.8441312909126282,-0.29554492235183716
1773257641504361700,1.43136181640625,-0.520574152469635,-0.7299839854240417,-0.08137138187885284
1773257641514373600,1.44137353515625,-0.7331917881965637,-0.821582555770874,0.066106416285038
1773257641524386300,1.45138623046875,-1.05806303024292,-0.9978012442588806,0.17778129875659943
1773257641534398500,1.4613984375,-1.3513658046722412,-1.1176046133041382,0.2741626799106598
1773257641544410400,1.471410400390625,-1.4708924293518066,-1.090712070465088,0.350651353597641
1773257641554423600,1.481423583984375,-1.3464410305023193,-0.8505091667175293,0.37969693541526794
1773257641564435500,1.491435546875,-1.0428651571273804,-0.522973358631134,0.3581399619579315
1773257641574448600,1.50144873046875,-0.6686822175979614,-0.2352016419172287,0.28758278489112854
1773257641584460500,1.51146044921875,-0.34802645444869995,-0.031423211097717285,0.17983904480934143
1773257641594472400,1.521472412109375,-0.18210220336914062,0.04001227021217346,0.06844955682754517
1773257641604485600,1.531485595703125,-0.1966553032398224,-0.011674892157316208,-0.011878037825226784
1773257641614497500,1.54149755859375,-0.31990861892700195,-0.12005320936441422,-0.027374526485800743
1773257641624510500,1.551510498046875,-0.49303752183914185,-0.2124694138765335,0.0227605439722538
1773257641634522400,1.5615224609375,-0.6775698661804199,-0.2904609441757202,0.12323953956365585
1773257641644534500,1.571534423828125,-0.847757875919342,-0.3775830864906311,0.242112934589386
1773257641654547500,1.58154736328125,-0.9825039505958557,-0.4456537365913391,0.361489474773407
1773257641664559600,1.5915595703125,-1.056070327758789,-0.4728347361087799,0.47591832280158997
1773257641674572500,1.601572509765625,-1.1003555059432983,-0.49534842371940613,0.5858752727508545
1773257641684584700,1.611584716796875,-1.151935338973999,-0.4997122883796692,0.7089860439300537
1773257641694596600,1.6215966796875,-1.2044718265533447,-0.4160088896751404,0.8125353455543518
1773257641704609500,1.631609619140625,-1.2372335195541382,-0.30235743522644043,0.8994407057762146
1773257641714621400,1.641621337890625,-1.2687385082244873,-0.1888893097639084,0.9676105976104736
1773257641724634400,1.65163427734375,-1.3058544397354126,-0.10661575198173523,1.0102510452270508
1773257641734646500,1.661646484375,-1.2995877265930176,-0.08247039467096329,1.0306589603424072
1773257641744659500,1.671659423828125,-1.3331084251403809,-0.11193854361772537,1.0308173894882202
1773257641754671600,1.681671630859375,-1.4624687433242798,-0.2243947684764862,1.0269945859909058
1773257641764683500,1.69168359375,-1.6022593975067139,-0.3089256286621094,1.0255650281906128
1773257641774696700,1.70169677734375,-1.7366206645965576,-0.35146111249923706,1.0328140258789062
1773257641784708600,1.71170849609375,-1.9203740358352661,-0.39736098051071167,1.0405406951904297
1773257641794721500,1.721721435546875,-2.1060004234313965,-0.37836048007011414,1.0511436462402344
1773257641804733400,1.7317333984375,-2.1317243576049805,-0.12260406464338303,1.1450482606887817
1773257641814745300,1.741745361328125,-2.145662784576416,0.3198004364967346,1.4034876823425293
1773257641824758500,1.751758544921875,-2.084655523300171,0.4745500683784485,1.6025824546813965
1773257641834770400,1.7617705078125,-1.8607252836227417,0.5218330025672913,1.695693016052246
1773257641844783600,1.77178369140625,-1.5842602252960205,0.6141266822814941,1.7778840065002441
1773257641854795500,1.78179541015625,-1.230328917503357,0.7737888097763062,1.8749196529388428
1773257641864807700,1.7918076171875,-0.8654153943061829,0.6658873558044434,1.6713435649871826
1773257641874820400,1.8018203125,-0.6119121313095093,0.3579079210758209,1.0516130924224854
1773257641884832500,1.81183251953125,-0.35268858075141907,0.07329483330249786,0.18100497126579285
1773257641894845400,1.821845458984375,-0.12376862019300461,0.29150980710983276,-0.2755858302116394
1773257641904857600,1.831857666015625,0.3320934474468231,0.37910863757133484,-0.08819596469402313
1773257641914869500,1.841869384765625,0.6845561265945435,0.5264154672622681,0.26961755752563477
1773257641924882400,1.85188232421875,0.7144548892974854,0.9088442921638489,0.808976948261261
1773257641934894600,1.86189453125,0.5732200145721436,0.9470741748809814,1.0275652408599854
1773257641944907500,1.871907470703125,0.48163631558418274,0.6570860743522644,0.9162184000015259
1773257641954919700,1.881919677734375,0.3559928834438324,0.21795591711997986,0.6807476878166199
1773257641964932400,1.891932373046875,0.4306849539279938,0.03243531659245491,0.5946444869041443
1773257641974944500,1.901944580078125,0.671427845954895,0.27092117071151733,0.6121523380279541
1773257641984956400,1.911956298828125,0.9472964406013489,0.6755133867263794,0.6001034379005432
1773257641994969600,1.921969482421875,1.2055984735488892,0.8686019778251648,0.5094682574272156
1773257642004981500,1.9319814453125,1.535401701927185,0.8564579486846924,0.18021072447299957
1773257642014994700,1.94199462890625,1.9171559810638428,0.8063206672668457,-0.25456908345222473
1773257642025006600,1.952006591796875,2.2006475925445557,0.8063883185386658,-0.6010405421257019
1773257642035018500,1.9620185546875,2.224533796310425,0.9397363066673279,-0.8512891530990601
1773257642045031400,1.972031494140625,2.223331928253174,1.2494118213653564,-1.0643402338027954
1773257642055043600,1.982043701171875,2.524449110031128,1.430557131767273,-1.1939517259597778
1773257642065056500,1.992056396484375,2.802022933959961,1.373566746711731,-1.2906780242919922
1773257642075068400,2.002068359375,2.8530027866363525,1.1609615087509155,-1.287282943725586
1773257642085080600,2.01208056640625,2.4856274127960205,1.0089179277420044,-0.998975932598114
1773257642095093500,2.022093505859375,2.0280396938323975,0.8674732446670532,-0.668034553527832
1773257642105105400,2.03210546875,1.683567762374878,0.794998288154602,-0.4584968090057373
1773257642115118600,2.04211865234375,1.4344862699508667,0.6822367906570435,-0.1464100480079651
1773257642125130500,2.052130615234375,1.2759215831756592,0.5660289525985718,0.2893590033054352
1773257642135142700,2.062142578125,1.1818146705627441,0.453540176153183,0.69956374168396
1773257642145155300,2.0721552734375,1.131323218345642,0.36003366112709045,1.0420048236846924
1773257642155167500,2.08216748046875,1.1085761785507202,0.28067412972450256,1.2905186414718628
1773257642165180400,2.092180419921875,1.0840420722961426,0.20629151165485382,1.4470057487487793
1773257642175192600,2.102192626953125,1.0643367767333984,0.08391232788562775,1.5738247632980347
1773257642185205500,2.11220556640625,0.9171504974365234,-0.06270773708820343,1.667880654335022
1773257642195217700,2.1222177734375,0.6309093236923218,-0.24288679659366608,1.6623079776763916
1773257642205229600,2.1322294921875,0.22630777955055237,-0.38667699694633484,1.6340808868408203
1773257642215242800,2.14224267578125,-0.16516567766666412,-0.32777345180511475,1.6260414123535156
1773257642225254700,2.152254638671875,-0.40853357315063477,-0.1802114099264145,1.6162805557250977
1773257642235267300,2.162267333984375,-0.47518467903137207,-0.19447247684001923,1.5979511737823486
1773257642245279500,2.172279541015625,-0.4180353879928589,-0.33128198981285095,1.5919015407562256
1773257642255291400,2.18229150390625,-0.37955614924430847,-0.4179665148258209,1.5403257608413696
1773257642265304000,2.192303955078125,-0.3415568172931671,-0.4249008595943451,1.474534273147583
1773257642275316200,2.202316162109375,-0.3030714988708496,-0.4778587520122528,1.4582487344741821
1773257642285329200,2.2123291015625,-0.2610396146774292,-0.5036339163780212,1.4465316534042358
1773257642295341300,2.22234130859375,-0.18157704174518585,-0.4099521040916443,1.451034665107727
1773257642305354200,2.232354248046875,0.2220894694328308,-0.4701182544231415,1.496297001838684
1773257642315366100,2.2423662109375,0.7021551132202148,-0.657250165939331,1.5852394104003906
1773257642325378300,2.25237841796875,1.1856993436813354,-0.657554566860199,1.6806443929672241
1773257642335391000,2.262390869140625,1.5987257957458496,-0.3691544532775879,1.819532871246338
1773257642345403100,2.272403076171875,1.719364047050476,0.2428695261478424,1.822211742401123
1773257642355416000,2.282416015625,1.5973693132400513,0.6387693881988525,1.510252833366394
1773257642365428200,2.29242822265625,1.433907151222229,0.6707382798194885,1.2680939435958862
1773257642375440100,2.302440185546875,1.0622506141662598,1.1306684017181396,1.2819972038269043
1773257642385453300,2.312453369140625,0.5092343688011169,0.8635879158973694,1.3304121494293213
1773257642395465200,2.32246533203125,-0.00679396279156208,0.7765202522277832,1.435658574104309
1773257642405478100,2.33247802734375,-0.37548890709877014,1.1077430248260498,1.6212058067321777
1773257642415490000,2.342489990234375,-0.5127739906311035,1.516110897064209,1.8169872760772705
1773257642425503200,2.352503173828125,-0.5149617791175842,1.5677390098571777,1.9347338676452637
1773257642435515100,2.36251513671875,-0.4883691072463989,1.1262612342834473,1.8652551174163818
1773257642445527000,2.372527099609375,-0.5309479832649231,0.6961207389831543,1.5721771717071533
1773257642455540200,2.382540283203125,-0.5954030752182007,0.31677141785621643,1.2326105833053589
1773257642465552100,2.39255224609375,-0.6796863079071045,-0.037230879068374634,1.030573844909668
1773257642475565300,2.4025654296875,-0.7493190169334412,-0.3744969964027405,0.9955660104751587
1773257642485577200,2.4125771484375,-0.789832353591919,-0.6759351491928101,1.0105242729187012
1773257642495590100,2.422590087890625,-0.7557699680328369,-1.1173261404037476,1.0959112644195557
1773257642505602000,2.43260205078125,-0.53639155626297,-1.7150899171829224,1.3263648748397827
1773257642515615200,2.442615234375,-0.35661154985427856,-1.9426124095916748,1.3399804830551147
1773257642525627100,2.452627197265625,-0.3804984986782074,-1.905381441116333,1.0437387228012085
1773257642535639000,2.46263916015625,-0.41597089171409607,-1.8326468467712402,0.7461124658584595
1773257642545652200,2.47265234375,-0.49187418818473816,-1.6372848749160767,0.489654541015625
1773257642555664100,2.4826640625,-0.7448080778121948,-1.3768670558929443,0.26521995663642883
1773257642565677000,2.492677001953125,-1.2876181602478027,-0.9026184678077698,0.032926250249147415
1773257642575689000,2.50268896484375,-1.7042303085327148,-0.7773730754852295,-0.2877328395843506
1773257642585702100,2.5127021484375,-1.8391460180282593,-1.3269819021224976,-0.4380671977996826
1773257642595714000,2.522714111328125,-1.7987459897994995,-1.9042978286743164,-0.6352505683898926
1773257642605727200,2.532727294921875,-1.614522099494934,-2.227916955947876,-0.7940838932991028
1773257642615739100,2.5427392578125,-1.5115129947662354,-2.26112699508667,-0.922331690788269
1773257642625752300,2.55275244140625,-1.3646910190582275,-1.9486833810806274,-0.5889921188354492
1773257642635764200,2.56276416015625,-1.1431663036346436,-1.5828195810317993,-0.20419174432754517
1773257642645776100,2.572776123046875,-0.9067860245704651,-1.0115478038787842,0.038260310888290405
1773257642655789000,2.5827890625,-0.6093947887420654,-0.361781507730484,0.19173119962215424
1773257642665801000,2.592801025390625,-0.3080706298351288,-0.4575900733470917,0.40016138553619385
1773257642675814100,2.602814208984375,-0.17386005818843842,-0.7922144532203674,0.5542842149734497
1773257642685826000,2.612825927734375,-0.052367448806762695,-0.7268154621124268,0.7814377546310425
1773257642695839200,2.622839111328125,0.10077431797981262,-0.4454265832901001,1.387169361114502
1773257642705851100,2.63285107421875,0.21675445139408112,-0.17727236449718475,1.9333903789520264
1773257642715864000,2.642864013671875,0.3602036237716675,0.07609978318214417,2.251084804534912
1773257642725876000,2.6528759765625,0.6487848162651062,-0.11584755033254623,2.1750147342681885
1773257642735888100,2.66288818359375,0.5339671969413757,0.11417441815137863,1.7817580699920654
1773257642745901000,2.672901123046875,0.26810917258262634,0.49401867389678955,1.3667196035385132
1773257642755913200,2.682913330078125,0.10080379247665405,0.5885923504829407,0.9665611386299133
1773257642765926100,2.692926025390625,-0.13383536040782928,0.6910867691040039,0.582381546497345
1773257642775938000,2.70293798828125,-0.509398877620697,0.8302479982376099,0.21595114469528198
1773257642785951200,2.712951171875,-0.6222468614578247,0.9010337591171265,-0.05543960630893707
1773257642795963100,2.722963134765625,-0.7952655553817749,0.7469241619110107,-0.4324953854084015
1773257642805976000,2.73297607421875,-1.069855809211731,0.3776148855686188,-0.8906645178794861
1773257642815988000,2.742988037109375,-1.273551106452942,0.44573643803596497,-1.3473068475723267
1773257642826001200,2.753001220703125,-1.2434827089309692,1.0701589584350586,-1.603653073310852
1773257642836013000,2.763012939453125,-1.0157372951507568,1.7882102727890015,-1.7598518133163452
1773257642846026200,2.773026123046875,-0.5543869137763977,2.5621626377105713,-1.828370451927185
1773257642856038100,2.7830380859375,-0.0038750963285565376,3.4729716777801514,-1.763870358467102
1773257642866050300,2.79305029296875,0.4545111358165741,4.40514612197876,-1.6245065927505493
1773257642876063200,2.803063232421875,0.2064008116722107,5.177942752838135,-1.4515389204025269
1773257642886075100,2.8130751953125,-0.5714715123176575,5.632964134216309,-1.4954909086227417
1773257642896088000,2.823088134765625,-1.3868898153305054,5.250699520111084,-1.3941329717636108
1773257642906100000,2.833099853515625,-1.6765069961547852,4.060495853424072,-1.048037052154541
1773257642916113200,2.843113037109375,-1.732642412185669,2.5719382762908936,-0.8249541521072388
1773257642926125000,2.853125,-1.8656295537948608,1.4593919515609741,-0.7599935531616211
1773257642936138200,2.86313818359375,-2.0426387786865234,0.7782881855964661,-0.7043047547340393
1773257642946150100,2.873150146484375,-1.9637829065322876,0.3852311670780182,-0.6532027125358582
1773257642956163000,2.8831630859375,-1.4939911365509033,0.08686438947916031,-0.7597217559814453
1773257642966175000,2.893175048828125,-0.6923335194587708,-0.10249169170856476,-0.9136590957641602
1773257642976188200,2.903188232421875,0.20944328606128693,0.106082484126091,-0.7398980855941772
1773257642986200000,2.913199951171875,0.530100405216217,1.4391131401062012,-0.21281057596206665
1773257642996212200,2.923212158203125,0.2526451349258423,2.799604892730713,0.024534881114959717
1773257643006225200,2.93322509765625,-0.18014968931674957,4.019671440124512,0.07433066517114639
1773257643016237300,2.9432373046875,-0.3745982348918915,4.686250686645508,0.15483200550079346
1773257643026250200,2.953250244140625,-0.25754377245903015,4.690344333648682,0.31217822432518005
1773257643036262100,2.96326220703125,0.036961670964956284,4.243022441864014,0.48341426253318787
1773257643046275000,2.973275146484375,0.33658140897750854,3.470412492752075,0.3496468961238861
1773257643056287000,2.983286865234375,0.41711023449897766,2.5976271629333496,-0.14396420121192932
1773257643066300200,2.993300048828125,0.11458632349967957,1.9919933080673218,-0.7002993822097778
1773257643076312000,3.00331201171875,-0.07210348546504974,1.6347966194152832,-0.778666079044342
1773257643086325200,3.0133251953125,-0.015529686585068703,1.2757683992385864,-0.4993835389614105
1773257643096337200,3.023337158203125,0.10804944485425949,0.7487199306488037,-0.30209147930145264
1773257643106350000,3.03335009765625,0.22005347907543182,0.26036226749420166,-0.32063108682632446
1773257643116362000,3.043362060546875,0.3434126675128937,-0.004179269075393677,-0.4404682517051697
1773257643126375200,3.053375244140625,0.45337674021720886,-0.06703439354896545,-0.5905233025550842
1773257643136387000,3.063386962890625,0.5209857821464539,-0.010358275845646858,-0.713528037071228
1773257643146399200,3.073399169921875,0.6007149815559387,0.0964808240532875,-0.7781248688697815
1773257643156412200,3.083412109375,0.6626414656639099,0.1557711511850357,-0.8748595714569092
1773257643166424000,3.093424072265625,0.5207687616348267,0.12499646097421646,-1.033847689628601
1773257643176437200,3.103437255859375,0.3763638734817505,0.04469706863164902,-1.0481523275375366
1773257643186449200,3.11344921875,0.22618049383163452,0.1338312029838562,-0.8572138547897339
1773257643196462000,3.123462158203125,-0.074504055082798,0.25446075201034546,-0.7035198211669922
1773257643206474000,3.133473876953125,-0.2535305321216583,0.6787524223327637,-0.3676379919052124
1773257643216487200,3.143487060546875,-0.17671120166778564,0.9853296875953674,-0.1969408392906189
1773257643226499000,3.1534990234375,-0.10689003765583038,1.1226428747177124,-0.20700092613697052
1773257643236512300,3.16351220703125,0.021557435393333435,0.9670000076293945,-0.24970802664756775
1773257643246524200,3.173524169921875,0.08676706999540329,0.6475194692611694,-0.2706415355205536
1773257643256537000,3.183537109375,0.07202804833650589,0.2904917299747467,-0.2350122481584549
1773257643266549000,3.193549072265625,0.049795977771282196,-0.06889492273330688,-0.16658152639865875
1773257643276561000,3.203560791015625,-0.09655798226594925,-0.25596344470977783,-0.08608530461788177
1773257643286573800,3.21357373046875,-0.21859200298786163,-0.2889520227909088,0.07960964739322662
1773257643296585700,3.223585693359375,-0.31624579429626465,-0.38235342502593994,0.2865962088108063
1773257643306599000,3.233598876953125,-0.41793379187583923,-0.4773885905742645,0.34434235095977783
1773257643316610800,3.24361083984375,-0.46954116225242615,-0.47817811369895935,0.2648549973964691
1773257643326624000,3.2536240234375,-0.49578556418418884,-0.4809770882129669,0.27906695008277893
1773257643336636000,3.263635986328125,-0.49538135528564453,-0.4639430642127991,0.32382041215896606
1773257643346648800,3.27364892578125,-0.41954305768013,-0.5108208060264587,0.2258957326412201
1773257643356660700,3.28366064453125,-0.35280755162239075,-0.5124321579933167,0.03995990380644798
1773257643366674000,3.293673828125,-0.2878248393535614,-0.4780605733394623,-0.09776866436004639
1773257643376685800,3.303685791015625,-0.2141704559326172,-0.40490517020225525,-0.12577028572559357
1773257643386699000,3.313698974609375,-0.17230664193630219,-0.37920406460762024,-0.08097139000892639
1773257643396711000,3.3237109375,-0.2362905740737915,-0.31789153814315796,0.012745929881930351
1773257643406724000,3.33372412109375,-0.28796470165252686,-0.3424597382545471,0.1321418285369873
1773257643416736000,3.343736083984375,-0.3690797984600067,-0.43155691027641296,0.25499919056892395
1773257643426749000,3.3537490234375,-0.43269553780555725,-0.5301753878593445,0.3372493386268616
1773257643436760800,3.3637607421875,-0.4193407893180847,-0.6675457954406738,0.3305481970310211
1773257643446774000,3.37377392578125,-0.21106533706188202,-0.5247638821601868,0.3363693356513977
1773257643456786000,3.383785888671875,-0.09273596853017807,-0.39550721645355225,0.1545455902814865
1773257643466797800,3.3937978515625,0.05950549617409706,-0.17442597448825836,0.0967872217297554
1773257643476811000,3.40381103515625,0.14636604487895966,0.22250035405158997,0.005071047227829695
1773257643486823000,3.413822998046875,0.19228586554527283,0.6534658670425415,-0.1550949215888977
1773257643496835800,3.4238359375,0.22132383286952972,1.0093358755111694,-0.3601154685020447
1773257643506847700,3.43384765625,0.1661234349012375,1.3247485160827637,-0.6353241205215454
1773257643516861000,3.44386083984375,0.06540323048830032,1.5889761447906494,-0.8519716858863831
1773257643526872800,3.453872802734375,-0.00014488841407001019,1.6458001136779785,-0.8339077234268188
1773257643536886000,3.463885986328125,-0.08405517041683197,1.4385497570037842,-0.7185694575309753
1773257643546898000,3.47389794921875,-0.11524025350809097,0.9961326718330383,-0.5717267394065857
1773257643556911000,3.4839111328125,-0.14249564707279205,0.6096433997154236,-0.3828651010990143
1773257643566923000,3.493923095703125,-0.08947370946407318,0.40567296743392944,-0.17868345975875854
1773257643576936000,3.50393603515625,-0.03975238278508186,0.49893492460250854,-0.16701573133468628
1773257643586947800,3.51394775390625,-0.06270696967840195,0.7217554450035095,-0.32040637731552124
1773257643596959700,3.523959716796875,-0.14676974713802338,0.8621716499328613,-0.44891247153282166
1773257643606973000,3.533972900390625,-0.14331722259521484,0.7255809903144836,-0.37043923139572144
1773257643616984800,3.54398486328125,-0.19266095757484436,0.5586169958114624,-0.25759321451187134
1773257643626998000,3.553998046875,-0.1975547820329666,0.24794912338256836,-0.18010801076889038
1773257643637010000,3.564010009765625,-0.22719815373420715,0.1446046680212021,-0.11393412202596664
1773257643647022800,3.57402294921875,-0.18528053164482117,0.19722554087638855,-0.06797835230827332
1773257643657034800,3.58403466796875,-0.1700594127178192,0.3110220730304718,-0.031102335080504417
1773257643667048000,3.5940478515625,-0.17286719381809235,0.4727017879486084,-0.10591080039739609
1773257643677059800,3.604059814453125,-0.1790696531534195,0.5994471311569214,-0.23019103705883026
1773257643687073000,3.614072998046875,-0.14136062562465668,0.6795350909233093,-0.3130491375923157
1773257643697085000,3.6240849609375,-0.09737569093704224,0.6521920561790466,-0.38122859597206116
1773257643707098000,3.63409814453125,-0.0544535256922245,0.377641499042511,-0.27065572142601013
1773257643717110000,3.644110107421875,-0.07724698632955551,0.16634386777877808,-0.35286688804626465
1773257643727122700,3.654122802734375,-0.06814297288656235,0.20595812797546387,-0.34964606165885925
1773257643737134800,3.664134765625,-0.017135096713900566,0.29692715406417847,-0.27126771211624146
1773257643747146800,3.674146728515625,0.041603315621614456,0.4003603458404541,-0.21411468088626862
1773257643757160000,3.684159912109375,0.06809890270233154,0.6442531943321228,-0.25834977626800537
1773257643767171800,3.694171875,0.12584182620048523,0.9865242838859558,-0.35051244497299194
1773257643777185000,3.70418505859375,0.16104434430599213,1.39687979221344,-0.4692763686180115
1773257643787197000,3.714197021484375,0.059396546334028244,1.5621027946472168,-0.6544715166091919
1773257643797209900,3.7242099609375,-0.013519369065761566,1.2497332096099854,-0.5398021340370178
1773257643807222000,3.734221923828125,-0.0838470607995987,1.2116622924804688,-0.5439137816429138
1773257643817235000,3.74423486328125,0.04309374466538429,1.2023950815200806,-0.4948737621307373
1773257643827246800,3.754246826171875,0.1338241845369339,1.372694969177246,-0.4683992862701416
1773257643837260000,3.764260009765625,0.27478426694869995,1.3753776550292969,-0.5685548782348633
1773257643847272000,3.77427197265625,0.5064614415168762,1.3734092712402344,-0.43515074253082275
1773257643857284900,3.784284912109375,0.7139126062393188,1.1826688051223755,-0.57015460729599
1773257643867297000,3.794297119140625,0.8777388334274292,1.1522728204727173,-0.8237125277519226
1773257643877309000,3.804308837890625,1.116392970085144,1.1379904747009277,-0.9878776669502258
1773257643887321900,3.81432177734375,1.3375533819198608,1.159641146659851,-1.0397621393203735
1773257643897333800,3.824333740234375,1.5006568431854248,0.9667152166366577,-0.9919486045837402
1773257643907347000,3.834346923828125,1.474938988685608,0.43591102957725525,-0.8215459585189819
1773257643917358800,3.84435888671875,1.3689719438552856,-0.42857393622398376,-0.9200469851493835
1773257643927372000,3.8543720703125,1.3490307331085205,-0.7019013166427612,-0.8625003099441528
1773257643937384000,3.864384033203125,1.3004770278930664,-0.5213072896003723,-0.6580162048339844
1773257643947397000,3.874397216796875,1.1982479095458984,-0.18246690928936005,-0.3620646893978119
1773257643957409000,3.884408935546875,0.9994246959686279,0.002596442122012377,-0.2623673379421234
1773257643967422000,3.894421875,0.830406129360199,-0.03463002294301987,-0.19753000140190125
1773257643977433900,3.904433837890625,0.650792121887207,-0.2640785276889801,-0.188864067196846
1773257643987445800,3.91444580078125,0.3517511188983917,-0.26992228627204895,-0.12308531999588013
1773257643997459000,3.924458984375,0.12076586484909058,-0.47312217950820923,-0.03432392701506615
1773257644007470800,3.934470947265625,-0.026133572682738304,-0.6989297270774841,0.06543036550283432
1773257644017484000,3.944484130859375,-0.15413710474967957,-0.6191505789756775,0.13737016916275024
1773257644027496000,3.954495849609375,-0.15985704958438873,-0.4415784478187561,0.1831648200750351
1773257644037508900,3.9645087890625,-0.0802546814084053,-0.1680493801832199,0.17455676198005676
1773257644047520800,3.974520751953125,-0.0033588376827538013,0.2707468867301941,0.15195104479789734
1773257644057534000,3.984533935546875,0.1755523532629013,0.5952538847923279,0.14150303602218628
1773257644067545900,3.9945458984375,0.37922531366348267,0.8653132915496826,0.12474323809146881
1773257644077557800,4.004557861328125,0.5773503184318542,1.0996371507644653,0.10873403400182724
1773257644087571000,4.014571044921875,0.7858625054359436,1.2724547386169434,0.04821183532476425
1773257644097582800,4.024582763671875,1.0111559629440308,1.4737714529037476,-0.039220478385686874
1773257644107596000,4.034595947265625,1.222977638244629,1.5817152261734009,-0.10411905497312546
1773257644117608000,4.04460791015625,1.334922432899475,1.5807058811187744,-0.07879886031150818
1773257644127620900,4.054620849609375,1.4016375541687012,1.3683366775512695,0.015006190165877342
1773257644137632800,4.0646328125,1.5374970436096191,1.0809170007705688,0.1195259764790535
1773257644147646000,4.07464599609375,1.5057727098464966,1.0551396608352661,0.11196579039096832
1773257644157657900,4.084657958984375,1.4602835178375244,0.8904415965080261,0.1373203992843628
1773257644167671000,4.094671142578125,1.4134260416030884,0.6297599673271179,0.2272750586271286
1773257644177683000,4.104682861328125,1.2564581632614136,0.4007429778575897,0.3521391749382019
1773257644187694800,4.11469482421875,1.052220344543457,0.4192964434623718,0.33832481503486633
1773257644197707800,4.124707763671875,1.0595622062683105,0.5516849756240845,0.3284221887588501
1773257644207719700,4.1347197265625,0.9961903691291809,0.4601614475250244,0.51043701171875
1773257644217732900,4.14473291015625,0.9105193018913269,0.37824130058288574,0.6356929540634155
1773257644227744800,4.154744873046875,0.9339897632598877,0.31808528304100037,0.6817256808280945
1773257644237758000,4.164758056640625,1.007912516593933,0.3628648519515991,0.6967182755470276
1773257644247769900,4.174769775390625,1.0888779163360596,0.6093968749046326,0.818547785282135
1773257644257783000,4.184782958984375,1.1954188346862793,0.7245892286300659,0.9688839912414551
1773257644267795500,4.19479541015625,1.2846075296401978,0.6980348825454712,1.0865041017532349
1773257644277807400,4.204807373046875,1.3849936723709106,0.6289987564086914,1.1408504247665405
1773257644287820500,4.214820556640625,1.4938514232635498,0.5218664407730103,1.1783791780471802
1773257644297832400,4.22483251953125,1.6119791269302368,0.33951103687286377,1.2630900144577026
1773257644307845600,4.234845703125,1.7248704433441162,0.14218251407146454,1.3474605083465576
1773257644317857500,4.244857421875,1.7379671335220337,-0.006600840482860804,1.3945974111557007
1773257644327870700,4.25487060546875,1.638197898864746,-0.051293209195137024,1.3651450872421265
1773257644337882600,4.264882568359375,1.4841326475143433,0.0036285065580159426,1.3080315589904785
1773257644347895600,4.2748955078125,1.316467523574829,0.14386816322803497,1.2798939943313599
1773257644357907500,4.284907470703125,1.1711169481277466,0.29831770062446594,1.1790252923965454
1773257644367919400,4.29491943359375,1.0643378496170044,0.322553813457489,1.0204713344573975
1773257644377932500,4.3049326171875,0.8848001956939697,0.03457888215780258,0.9346297383308411
1773257644387944400,4.3149443359375,0.6703318357467651,-0.3642915189266205,0.8231285214424133
1773257644397957600,4.32495751953125,0.5408366918563843,-0.6756986975669861,0.6752737760543823
1773257644407969500,4.334969482421875,0.45082077383995056,-0.6528311967849731,0.45866477489471436
1773257644417982500,4.344982421875,0.3067873418331146,-0.5624840259552002,0.3178871273994446
1773257644427994400,4.354994384765625,0.2108091562986374,-0.6062374114990234,0.3035947382450104
1773257644438006500,4.365006591796875,0.11410150676965714,-0.6484414935112,0.31483355164527893
1773257644448019500,4.37501953125,0.05000108480453491,-0.5597342252731323,0.2325836718082428
1773257644458031400,4.38503125,0.000556706974748522,-0.4105185866355896,0.1381867378950119
1773257644468044500,4.39504443359375,-0.10050705820322037,-0.2378930002450943,0.03893231973052025
1773257644478056400,4.405056396484375,-0.19998764991760254,-0.24262966215610504,-0.05546289682388306
1773257644488069600,4.415069580078125,-0.23474431037902832,-0.35773441195487976,-0.16928745806217194
1773257644498081500,4.42508154296875,-0.1815396547317505,-0.4578952491283417,-0.3084993362426758
1773257644508093700,4.43509375,-0.20606736838817596,-0.2376033514738083,-0.43662506341934204
1773257644518106400,4.4451064453125,-0.3984285891056061,-0.06563730537891388,-0.5597244501113892
1773257644528118500,4.455118408203125,-0.42830711603164673,-0.09098953008651733,-0.710079550743103
1773257644538131500,4.46513134765625,-0.4274897873401642,0.027086913585662842,-0.8610385060310364
1773257644548143600,4.4751435546875,-0.4969194531440735,0.24675509333610535,-0.8950127363204956
1773257644558156500,4.485156494140625,-0.5031462907791138,0.43538540601730347,-0.929551362991333
1773257644568168400,4.49516845703125,-0.4144444465637207,0.4675782322883606,-0.9601231217384338
1773257644578180600,4.5051806640625,-0.37837591767311096,0.43582603335380554,-0.9781413078308105
1773257644588193500,4.515193603515625,-0.3452477753162384,0.3728339970111847,-0.9566269516944885
1773257644598205400,4.525205322265625,-0.27734437584877014,0.5138869881629944,-0.8899515271186829
1773257644608218400,4.53521826171875,-0.2616935074329376,0.6330645084381104,-0.7961520552635193
1773257644618230500,4.54523046875,-0.2849724590778351,0.5774814486503601,-0.7515835165977478
1773257644628243500,4.555243408203125,-0.30914169549942017,0.36067453026771545,-0.7297658324241638
1773257644638255600,4.565255615234375,-0.35369744896888733,0.183442622423172,-0.7275812029838562
1773257644648267500,4.575267578125,-0.396723210811615,0.15343092381954193,-0.7382436990737915
1773257644658280700,4.58528076171875,-0.4002663493156433,0.1919419765472412,-0.736279308795929
1773257644668292600,4.595292724609375,-0.37249302864074707,0.1868625283241272,-0.7158920168876648
1773257644678305500,4.605305419921875,-0.33322781324386597,0.2359248399734497,-0.7135313749313354
1773257644688317400,4.6153173828125,-0.2908473312854767,0.26911741495132446,-0.6803126931190491
1773257644698330400,4.625330322265625,-0.27733114361763,0.27527672052383423,-0.600722074508667
1773257644708342500,4.635342529296875,-0.3429354727268219,0.25480419397354126,-0.5796647667884827
1773257644718354400,4.6453544921875,-0.42763713002204895,0.182112455368042,-0.7072493433952332
1773257644728367600,4.65536767578125,-0.5865298509597778,0.058100491762161255,-0.8577570915222168
1773257644738379500,4.665379638671875,-0.75119549036026,0.016619261354207993,-0.8736882209777832
1773257644748392700,4.675392822265625,-0.9268959760665894,0.03642546012997627,-0.8899990320205688
1773257644758404600,4.685404541015625,-1.0162073373794556,0.08971641212701797,-0.9162454605102539
1773257644768417500,4.69541748046875,-1.0912754535675049,0.018714403733611107,-0.8807332515716553
1773257644778429400,4.705429443359375,-1.1974220275878906,-0.0674891546368599,-0.8581400513648987
1773257644788441300,4.71544140625,-1.2895913124084473,-0.04399048537015915,-0.8127955198287964
1773257644798454500,4.72545458984375,-1.299411416053772,0.019743598997592926,-0.7268166542053223
1773257644808466400,4.735466552734375,-1.28289794921875,0.024546610191464424,-0.5882992744445801
1773257644818479600,4.745479736328125,-1.2662564516067505,-0.036159392446279526,-0.4304143488407135
1773257644828491500,4.755491455078125,-1.2920265197753906,-0.04741737246513367,-0.27572008967399597
1773257644838504400,4.76550439453125,-1.4085479974746704,0.007757627870887518,-0.17405493557453156
1773257644848516400,4.775516357421875,-1.5782065391540527,0.08634831011295319,-0.1572415977716446
1773257644858528500,4.785528564453125,-1.7427031993865967,0.04462772607803345,-0.1331213116645813
1773257644868541400,4.79554150390625,-1.840551733970642,-0.15824922919273376,-0.06343358755111694
1773257644878553600,4.8055537109375,-1.9247100353240967,-0.3377383351325989,-0.028447533026337624
1773257644888566500,4.81556640625,-1.954798698425293,-0.4459012746810913,0.04756813868880272
1773257644898578400,4.825578369140625,-1.858538269996643,-0.3938654959201813,0.058251943439245224
1773257644908591600,4.835591552734375,-1.6677285432815552,-0.23437783122062683,0.07372863590717316
1773257644918603500,4.845603515625,-1.404439091682434,-0.05050811171531677,0.12594939768314362
1773257644928615700,4.85561572265625,-1.131032109260559,0.1174960657954216,0.15422150492668152
1773257644938628400,4.86562841796875,-0.833771288394928,0.14459432661533356,0.19339728355407715
1773257644948640500,4.875640625,-0.5918747782707214,0.22207634150981903,0.21981556713581085
1773257644958653400,4.8856533203125,-0.36471447348594666,0.3014315366744995,0.2807133197784424
1773257644968665600,4.89566552734375,-0.16690470278263092,0.2925259470939636,0.39151281118392944
1773257644978677500,4.905677490234375,-0.022341204807162285,0.22677505016326904,0.43813949823379517
1773257644988690700,4.915690673828125,0.03465390205383301,0.2370242178440094,0.385403573513031
1773257644998702600,4.92570263671875,0.09628178924322128,0.3131435513496399,0.3535303771495819
1773257645008715500,4.935715576171875,0.13753655552864075,0.44058674573898315,0.42382559180259705
1773257645018727400,4.9457275390625,0.07681035250425339,0.45221781730651855,0.45896998047828674
1773257645028740400,4.955740234375,-0.018226681277155876,0.3006139397621155,0.4162161350250244
1773257645038752500,4.96575244140625,-0.15736466646194458,0.08670443296432495,0.3541427254676819
1773257645048764400,4.975764404296875,-0.2703876197338104,-0.13957983255386353,0.30582234263420105
1773257645058777600,4.985777587890625,-0.36616313457489014,-0.3209267556667328,0.19975538551807404
1773257645068789500,4.99578955078125,-0.5140865445137024,-0.28745347261428833,0.11492012441158295
1773257645078802700,5.005802734375,-0.5581618547439575,-0.42970404028892517,0.2601398825645447
1773257645088814600,5.015814697265625,-0.47808563709259033,-0.6574466824531555,0.3058474659919739
1773257645098826500,5.025826416015625,-0.3571285605430603,-0.7380306720733643,0.3088703453540802
1773257645108839400,5.03583935546875,-0.2839371860027313,-0.7480846047401428,0.36948975920677185
1773257645118851300,5.045851318359375,-0.2915048897266388,-0.5805739760398865,0.42599090933799744
1773257645128864500,5.055864501953125,-0.3006027638912201,-0.25428900122642517,0.4542771577835083
1773257645138876400,5.06587646484375,-0.2177341878414154,0.1372116506099701,0.4438275396823883
1773257645148889600,5.0758896484375,-0.10065978020429611,0.41791975498199463,0.4651796817779541
1773257645158901500,5.085901611328125,-0.06322459876537323,0.7244201302528381,0.4916457533836365
1773257645168913700,5.09591357421875,-0.006520576775074005,1.0717840194702148,0.38117995858192444
1773257645178926600,5.105926513671875,0.07823996990919113,1.1261508464813232,0.37575671076774597
1773257645188938500,5.1159384765625,0.14338728785514832,1.0360691547393799,0.43084341287612915
1773257645198951400,5.125951416015625,0.21298973262310028,0.9754769206047058,0.3968910872936249
1773257645208963600,5.135963623046875,0.3214690387248993,0.8227169513702393,0.33827918767929077
1773257645218975500,5.1459755859375,0.4702688753604889,0.6342175006866455,0.26135942339897156
1773257645228988400,5.155988525390625,0.5002842545509338,0.36605527997016907,0.250005304813385
1773257645239000600,5.16600048828125,0.5254741311073303,0.07738418132066727,0.27045324444770813
1773257645249013500,5.176013427734375,0.6051825284957886,-0.3180781900882721,0.27769359946250916
1773257645259025700,5.186025634765625,0.5622708201408386,-0.8814190030097961,0.3577430844306946
1773257645269038300,5.196038330078125,0.46418124437332153,-1.3566750288009644,0.3631429076194763
1773257645279050200,5.20605029296875,0.2734111249446869,-1.2689692974090576,0.27153193950653076
1773257645289062400,5.2160625,0.11481881886720657,-0.9137715101242065,0.213675856590271
1773257645299075300,5.226075439453125,-0.013715965673327446,-0.6254456043243408,0.19968584179878235
1773257645309087500,5.23608740234375,-0.09576928615570068,-0.6075944304466248,0.28776484727859497
1773257645319100400,5.246100341796875,-0.21602807939052582,-0.6590021848678589,0.3294810354709625
1773257645329112600,5.256112548828125,-0.3802385926246643,-0.7531934380531311,0.25069674849510193
1773257645339124500,5.26612451171875,-0.49235332012176514,-0.9061328768730164,0.2072070688009262
1773257645349137700,5.2761376953125,-0.5739666819572449,-1.0159778594970703,0.13111230731010437
1773257645359149600,5.286149658203125,-0.5804077386856079,-1.048331379890442,0.005130443722009659
1773257645369162200,5.296162353515625,-0.5282723307609558,-0.9651752710342407,-0.12815862894058228
1773257645379174400,5.30617431640625,-0.4537034034729004,-0.8110244274139404,-0.26401954889297485
1773257645389186300,5.316186279296875,-0.3511173725128174,-0.7284981608390808,-0.3696621060371399
1773257645399199500,5.326199462890625,-0.24114103615283966,-0.7328003644943237,-0.4303240180015564
1773257645409211400,5.33621142578125,-0.17152388393878937,-0.7843650579452515,-0.48710712790489197
1773257645419224600,5.346224609375,-0.14219631254673004,-0.8584780097007751,-0.5418422222137451
1773257645429236500,5.356236572265625,-0.12471611797809601,-0.8655218482017517,-0.5227044820785522
1773257645439248400,5.366248291015625,-0.0836520791053772,-0.8067876696586609,-0.37867921590805054
1773257645449261300,5.37626123046875,-0.04369400441646576,-0.7248538732528687,-0.24071361124515533
1773257645459273200,5.386273193359375,0.00907030701637268,-0.6983333826065063,-0.19419167935848236
1773257645469286400,5.396286376953125,0.02604849264025688,-0.7209902405738831,-0.15488289296627045
1773257645479298300,5.40629833984375,-0.017645874992012978,-0.888552188873291,-0.05345439910888672
1773257645489311500,5.4163115234375,-0.061430905014276505,-1.0487934350967407,0.004098108969628811
1773257645499323400,5.426323486328125,-0.06405468285083771,-1.1053112745285034,0.038614172488451004
1773257645509335600,5.43633544921875,-0.024391688406467438,-1.0527807474136353,0.041448574513196945
1773257645519348500,5.446348388671875,0.021038012579083443,-0.873442530632019,0.02165646106004715
1773257645529360600,5.456360595703125,0.07939320057630539,-0.6159670352935791,-0.006176234222948551
1773257645539373300,5.466373291015625,0.1794971376657486,-0.3360670208930969,-0.03313019499182701
1773257645549385500,5.476385498046875,0.28577539324760437,-0.21561571955680847,-0.04540417343378067
1773257645559397400,5.4863974609375,0.376142680644989,-0.2800993025302887,-0.052784185856580734
1773257645569410300,5.496410400390625,0.4243389666080475,-0.3512323498725891,-0.09449488669633865
1773257645579422500,5.50642236328125,0.4683224856853485,-0.4655483067035675,-0.1566627025604248
1773257645589435400,5.516435302734375,0.5093074440956116,-0.6265827417373657,-0.2004927545785904
1773257645599447600,5.526447509765625,0.5982078313827515,-0.8009942770004272,-0.22230251133441925
1773257645609459500,5.53645947265625,0.6348087191581726,-0.8041698336601257,-0.31783807277679443
1773257645619472400,5.546472412109375,0.6185757517814636,-0.7595328688621521,-0.3586806654930115
1773257645629484300,5.556484375,0.6555798649787903,-0.7823393940925598,-0.36941319704055786
1773257645639497500,5.56649755859375,0.7552359700202942,-0.9805207848548889,-0.32284992933273315
1773257645649509400,5.57650927734375,0.8681918382644653,-1.2194372415542603,-0.251579225063324
1773257645659521300,5.586521240234375,0.929620087146759,-1.3896571397781372,-0.23302599787712097
1773257645669534500,5.596534423828125,0.9503282904624939,-1.546717882156372,-0.25667405128479004
1773257645679546400,5.60654638671875,0.9598206877708435,-1.695537805557251,-0.22803322970867157
1773257645689559600,5.6165595703125,1.004057765007019,-1.6664103269577026,-0.08241050690412521
1773257645699571500,5.626571533203125,0.9524402022361755,-1.4269365072250366,0.13409432768821716
1773257645709583600,5.63658349609375,0.8300618529319763,-1.3785817623138428,0.49680888652801514
1773257645719596300,5.64659619140625,0.8083018660545349,-1.6306592226028442,0.7621493935585022
1773257645729608400,5.6566083984375,0.8319622278213501,-1.8782905340194702,0.7500618100166321
1773257645739621400,5.666621337890625,0.8557484745979309,-1.9376857280731201,0.7452920079231262
1773257645749633500,5.676633544921875,0.9118208289146423,-1.7149206399917603,0.7903742790222168
1773257645759645400,5.6866455078125,0.9616932272911072,-1.559255599975586,0.7124807238578796
1773257645769658400,5.696658447265625,0.9566188454627991,-1.4278805255889893,0.5950568914413452
1773257645779670500,5.70667041015625,1.0540202856063843,-1.300286889076233,0.5499714016914368
1773257645789683500,5.716683349609375,1.148714542388916,-1.129612684249878,0.4921432435512543
1773257645799695600,5.726695556640625,1.1687062978744507,-0.8626413345336914,0.44799306988716125
1773257645809707500,5.73670751953125,1.1931110620498657,-0.6014933586120605,0.44052982330322266
1773257645819720400,5.746720458984375,1.2475931644439697,-0.3799119293689728,0.3708867132663727
1773257645829732400,5.756732421875,1.2921805381774902,-0.12863096594810486,0.27121737599372864
1773257645839745500,5.76674560546875,1.367289662361145,0.051570501178503036,0.19288936257362366
1773257645849757400,5.77675732421875,1.3650480508804321,0.1853591948747635,0.06991684436798096
1773257645859769300,5.786769287109375,1.3009167909622192,0.3430691063404083,-0.05606243014335632
1773257645869782500,5.796782470703125,1.1880578994750977,0.4285967946052551,-0.15996406972408295
1773257645879794400,5.80679443359375,1.0314221382141113,0.44781631231307983,-0.2827041447162628
1773257645889807400,5.816807373046875,0.7788492441177368,0.45845669507980347,-0.3337090015411377
1773257645899819300,5.8268193359375,0.2680751085281372,0.31754791736602783,0.08445440977811813
1773257645909831400,5.83683154296875,0.0005022461409680545,0.3048321306705475,0.3386363387107849
1773257645919844400,5.84684423828125,-0.06413346529006958,0.4553876519203186,0.5139780044555664
1773257645929856500,5.8568564453125,-0.10923649370670319,0.6171629428863525,0.5846124887466431
1773257645939869400,5.866869384765625,-0.1311919391155243,0.7459090352058411,0.5628229379653931
1773257645949881600,5.876881591796875,-0.13549694418907166,0.7287635803222656,0.48617446422576904
1773257645959893500,5.8868935546875,-0.21643632650375366,0.7122783064842224,0.375977098941803
1773257645969906400,5.896906494140625,-0.22494246065616608,0.6610428094863892,0.29267367720603943
1773257645979918600,5.906918701171875,-0.3148682713508606,0.6149930953979492,0.23949295282363892
1773257645989931300,5.91693115234375,-0.35152295231819153,0.6093136072158813,0.2358659952878952
1773257645999943400,5.926943359375,-0.41636088490486145,0.642143726348877,0.23917929828166962
1773257646009955300,5.936955322265625,-0.47907352447509766,0.590887188911438,0.24964232742786407
1773257646019968500,5.946968505859375,-0.556429386138916,0.47755858302116394,0.2784455418586731
1773257646029980400,5.95698046875,-0.6389698386192322,0.3357609510421753,0.2955302596092224
1773257646039993600,5.96699365234375,-0.6613986492156982,0.17413577437400818,0.2684870958328247
1773257646050005500,5.977005615234375,-0.6182926893234253,0.05856630578637123,0.20355765521526337
1773257646060017400,5.987017333984375,-0.5786803960800171,0.007252270821481943,0.16739696264266968
1773257646070030300,5.9970302734375,-0.5894978642463684,0.005716159474104643,0.18337006866931915
1773257646080042200,6.007042236328125,-0.4955076575279236,-0.03662695735692978,0.1238710880279541
1773257646090055400,6.017055419921875,-0.4289190471172333,-0.063799187541008,-0.027566373348236084
1773257646100067300,6.0270673828125,-0.3610864579677582,-0.06465600430965424,-0.1266682893037796
1773257646110079500,6.03707958984375,-0.27444931864738464,-0.007495774421840906,-0.13825330138206482
1773257646120092400,6.047092529296875,-0.13992905616760254,0.08369459211826324,-0.09240086376667023
1773257646130104600,6.0571044921875,-0.0227302685379982,0.15910997986793518,-0.03917092829942703
1773257646140117500,6.067117431640625,0.03479281812906265,0.185146763920784,-0.018315482884645462
1773257646150129400,6.07712939453125,0.04950092360377312,0.14337322115898132,-0.0492374449968338
1773257646160141600,6.0871416015625,0.07615195214748383,0.10368236154317856,-0.15382856130599976
1773257646170154200,6.097154296875,0.054079409688711166,0.19752337038516998,-0.2800051271915436
1773257646180166400,6.10716650390625,0.00585195142775774,0.33358845114707947,-0.34865298867225647
1773257646190179300,6.117179443359375,-0.03761482983827591,0.4322894513607025,-0.34014979004859924
1773257646200191500,6.12719140625,-0.05396966636180878,0.5185511708259583,-0.28219422698020935
1773257646210203400,6.137203369140625,-0.029296010732650757,0.6540024876594543,-0.20759163796901703
1773257646220216600,6.147216552734375,-0.01741836778819561,0.8578569889068604,-0.1401061713695526
1773257646230228500,6.157228515625,-0.021650398150086403,0.977576494216919,-0.0562533438205719
1773257646240241400,6.167241455078125,-0.03941071778535843,1.0355404615402222,0.04570544511079788
1773257646250253300,6.17725341796875,-0.12577596306800842,0.916304349899292,0.1584937870502472
1773257646260265500,6.187265380859375,-0.11892682313919067,0.8760322332382202,0.12055209279060364
1773257646270278100,6.197278076171875,-0.03623407334089279,0.7857913374900818,0.11452589184045792
1773257646280290000,6.2072900390625,-0.026150144636631012,0.829961359500885,0.08207264542579651
1773257646290303200,6.21730322265625,0.01252188254147768,0.7898717522621155,0.03952864184975624
1773257646300315100,6.227315185546875,0.06272626668214798,0.6346843838691711,-0.009612072259187698
1773257646310327000,6.2373271484375,0.05184778571128845,0.6795887351036072,0.043523579835891724
1773257646320340200,6.24734033203125,0.003062040777876973,0.7823954820632935,0.1838580220937729
1773257646330352000,6.25735205078125,-0.032254669815301895,0.8207548260688782,0.33414581418037415
1773257646340364300,6.2673642578125,-0.07477498054504395,0.7019279599189758,0.4358307123184204
1773257646350377000,6.277376953125,-0.12482722103595734,0.45973101258277893,0.44089311361312866
1773257646360389000,6.28738916015625,-0.17052440345287323,0.156652569770813,0.4163064658641815
1773257646370402000,6.297402099609375,-0.1794489324092865,-0.025286607444286346,0.42489194869995117
1773257646380414200,6.307414306640625,-0.29122278094291687,-0.15936487913131714,0.4952830672264099
1773257646390426000,6.317426025390625,-0.10759809613227844,-0.07128748297691345,0.5181870460510254
1773257646400439300,6.327439208984375,-0.03296599164605141,0.016461342573165894,0.5833509564399719
1773257646410451200,6.337451171875,-0.017444822937250137,0.027674315497279167,0.5886538028717041
1773257646420464000,6.347464111328125,-0.05953293293714523,-0.0806344524025917,0.5568444132804871
1773257646430476300,6.357476318359375,-0.09024503827095032,-0.2961430549621582,0.4886448085308075
1773257646440488200,6.36748828125,-0.14079077541828156,-0.6061528921127319,0.35178887844085693
1773257646450501000,6.377501220703125,-0.1278371661901474,-1.0633976459503174,0.22852179408073425
1773257646460513000,6.387512939453125,-0.1801757514476776,-1.2425897121429443,0.06892281025648117
1773257646470526200,6.397526123046875,-0.17351146042346954,-1.2899936437606812,0.04461135342717171
1773257646480538000,6.4075380859375,-0.10461714118719101,-1.2812241315841675,0.11375416815280914
1773257646490550000,6.417550048828125,-0.011498917825520039,-1.1679683923721313,0.18174013495445251
1773257646500563200,6.427563232421875,0.08268067240715027,-0.9829211235046387,0.25438278913497925
1773257646510575000,6.4375751953125,0.1867697834968567,-0.7468001842498779,0.35341694951057434
1773257646520588000,6.447588134765625,0.27503064274787903,-0.5662455558776855,0.39692002534866333
1773257646530600200,6.45760009765625,0.3313138782978058,-0.5246962308883667,0.3246208131313324
1773257646540612000,6.467612060546875,0.3698831796646118,-0.6163517832756042,0.2978779077529907
1773257646550625000,6.477625,0.3612960875034332,-0.6657313704490662,0.30620214343070984
1773257646560637200,6.48763720703125,0.30483925342559814,-0.5396645665168762,0.25022873282432556
1773257646570649000,6.497649169921875,0.2305850088596344,-0.26074323058128357,0.18385477364063263
1773257646580662300,6.507662353515625,0.15006957948207855,0.10170762240886688,0.2089376449584961
1773257646590674200,6.517674072265625,0.07547124475240707,0.43673646450042725,0.3219701945781708
1773257646600687000,6.52768701171875,0.10867488384246826,0.684605062007904,0.41819459199905396
1773257646610699300,6.53769921875,0.15498752892017365,0.7679423093795776,0.4243142604827881
1773257646620711200,6.547711181640625,0.17064204812049866,0.691070020198822,0.359022319316864
1773257646630724000,6.55772412109375,0.25859320163726807,0.5644825100898743,0.303326278924942
1773257646640736000,6.567736083984375,0.33891937136650085,0.3672601580619812,0.3053092360496521
1773257646650749200,6.577749267578125,0.4837721586227417,0.19804345071315765,0.47189584374427795
1773257646660761000,6.587760986328125,0.4235285818576813,0.09002397954463959,0.7241844534873962
1773257646670773000,6.59777294921875,0.48807400465011597,0.05375252291560173,0.7163984775543213
1773257646680786200,6.6077861328125,0.5479399561882019,0.14037059247493744,0.6022270917892456
1773257646690798000,6.617798095703125,0.5384910106658936,0.10876846313476562,0.6911159753799438
1773257646700811300,6.627811279296875,0.6276984810829163,0.3568513095378876,0.5803766846656799
1773257646710823200,6.6378232421875,0.5904943943023682,0.5081207752227783,0.5238758325576782
1773257646720835300,6.64783544921875,0.5432453751564026,0.3908860981464386,0.4618483781814575
1773257646730848000,6.657847900390625,0.3826706111431122,0.07536942511796951,0.4267790615558624
1773257646740860200,6.667860107421875,0.20902419090270996,-0.14162860810756683,0.36744895577430725
1773257646750872000,6.6778720703125,0.14549900591373444,-0.08410432189702988,0.2787071168422699
1773257646760885200,6.68788525390625,0.11137738823890686,0.052492786198854446,0.22551682591438293
1773257646770897200,6.697897216796875,-0.016833309084177017,0.10538502782583237,0.2733919620513916
1773257646780910300,6.707910400390625,-0.09703925997018814,0.2522208094596863,0.318769246339798
1773257646790922200,6.717922119140625,-0.1881854236125946,0.37764954566955566,0.3309766352176666
1773257646800934100,6.72793408203125,-0.2289908081293106,0.36183595657348633,0.330353319644928
1773257646810947000,6.737947021484375,-0.24145041406154633,0.1747233271598816,0.344545841217041
1773257646820959000,6.747958984375,-0.29297488927841187,-0.04912346974015236,0.43095725774765015
1773257646830972200,6.75797216796875,-0.34987303614616394,-0.04263254627585411,0.4936763048171997
1773257646840984000,6.767984130859375,-0.3145163655281067,0.252103328704834,0.5706812143325806
1773257646850996200,6.777996337890625,-0.38289356231689453,0.4990025758743286,0.7845082879066467
1773257646861009200,6.788009033203125,-0.5547564625740051,1.4200605154037476,0.33659884333610535
1773257646871021000,6.79802099609375,-0.536697268486023,1.966759204864502,0.35594698786735535
1773257646881034200,6.8080341796875,-0.08879448473453522,0.9282910227775574,1.0364431142807007
1773257646891046100,6.818046142578125,-0.03922107070684433,0.6245647072792053,1.0455117225646973
1773257646901058300,6.828058349609375,0.09205517172813416,0.15677860379219055,1.0480674505233765
1773257646911071000,6.838071044921875,0.16828016936779022,-0.1334465593099594,0.9886235594749451
1773257646921083100,6.848083251953125,0.19255280494689941,-0.19996817409992218,0.94892817735672
1773257646931096000,6.858095947265625,0.2677444815635681,-0.08826029300689697,0.8887743353843689
1773257646941108200,6.868108154296875,0.3219172954559326,0.2647716701030731,0.8030906319618225
1773257646951120100,6.8781201171875,0.280947208404541,0.7234862446784973,0.8428604006767273
1773257646961133300,6.88813330078125,0.2189110368490219,1.0769315958023071,0.9280886054039001
1773257646971145200,6.898145263671875,0.14411190152168274,1.2491214275360107,0.9562491178512573
1773257646981157000,6.9081572265625,0.05369843170046806,1.0396946668624878,0.8441324234008789
1773257646991170000,6.918170166015625,-0.05113157629966736,0.44525977969169617,0.620346188545227
1773257647001182000,6.928181884765625,-0.28541111946105957,-0.11089227348566055,0.3432720899581909
1773257647011195100,6.938195068359375,-0.4103434681892395,-0.6114757061004639,0.019499605521559715
1773257647021207000,6.94820703125,-0.4865095615386963,-0.9507643580436707,-0.2654251158237457
1773257647031219200,6.95821923828125,-0.48886433243751526,-1.127497911453247,-0.5027192234992981
1773257647041232100,6.968232177734375,-0.44738253951072693,-1.1932204961776733,-0.6315827369689941
1773257647051244300,6.978244384765625,-0.34702906012535095,-1.1463027000427246,-0.632402241230011
1773257647061256200,6.988256103515625,-0.2266051471233368,-1.1267281770706177,-0.581845223903656
1773257647071269000,6.99826904296875,-0.14803364872932434,-1.1580365896224976,-0.4963172674179077
1773257647081281300,7.00828125,-0.09545481204986572,-1.1301661729812622,-0.3675260543823242
1773257647091294000,7.0182939453125,-0.0031200882513076067,-0.3042354881763458,0.0560033805668354
1773257647101306000,7.02830615234375,-0.017470141872763634,0.5136499404907227,0.29341816902160645
1773257647111318000,7.038318115234375,-0.02815714105963707,0.597914457321167,0.3651014268398285
1773257647121331200,7.048331298828125,0.03828230872750282,0.30420535802841187,0.3147276043891907
1773257647131343000,7.058343017578125,0.09239721298217773,0.17486469447612762,0.26873189210891724
1773257647141356300,7.068356201171875,0.10716371238231659,0.05388012155890465,0.15949998795986176
1773257647151368200,7.0783681640625,0.11029745638370514,-0.19161832332611084,-0.1049862653017044
1773257647161380000,7.088380126953125,0.017776845023036003,-0.2210310697555542,-0.40401533246040344
1773257647171393300,7.098393310546875,-0.08790671080350876,-0.06229282543063164,-0.6924178004264832
1773257647181405200,7.1084052734375,-0.15362034738063812,0.06000729650259018,-0.9384056329727173
1773257647191417300,7.118417236328125,-0.23261289298534393,-0.0057868934236466885,-1.0965957641601562
1773257647201430000,7.128429931640625,-0.27117395401000977,-0.3011917173862457,-1.1271864175796509
1773257647211442200,7.138442138671875,-0.2332542985677719,-0.5026119351387024,-1.0216810703277588
1773257647221455000,7.148455078125,-0.19319669902324677,-0.4910353422164917,-0.9675321578979492
1773257647231467300,7.15846728515625,-0.13371099531650543,-0.42055317759513855,-0.9504634141921997
1773257647241479200,7.168479248046875,-0.04464166983962059,-0.28681480884552,-0.8772280216217041
1773257647251492400,7.178492431640625,0.026639966294169426,0.32147833704948425,-0.5909805297851562
1773257647261504300,7.188504150390625,0.028604628518223763,0.8394161462783813,-0.3282140791416168
1773257647271518000,7.19851806640625,-0.0182944368571043,1.3012967109680176,-0.20477840304374695
1773257647281529900,7.20852978515625,-0.10188692808151245,1.4301156997680664,-0.2154586762189865
1773257647291541800,7.218541748046875,-0.15822556614875793,1.2808828353881836,-0.27895644307136536
1773257647301555000,7.228554931640625,-0.17166711390018463,0.9955185055732727,-0.2444983571767807
1773257647311566800,7.23856689453125,-0.20493505895137787,0.7164181470870972,-0.21790748834609985
1773257647321579000,7.2485791015625,-0.19509057700634003,0.21192149817943573,-0.20051781833171844
1773257647331592000,7.258592041015625,-0.09983357042074203,-0.36968863010406494,-0.2922716736793518
1773257647341604000,7.26860400390625,-0.051771629601716995,-0.8546433448791504,-0.3800399601459503
1773257647351616800,7.27861669921875,-0.04818195477128029,-1.1660469770431519,-0.4856601059436798
1773257647361629000,7.28862890625,-0.09059449285268784,-1.2202783823013306,-0.5029410123825073
1773257647371640800,7.298640869140625,-0.20743536949157715,-1.067518949508667,-0.4252627491950989
1773257647381653800,7.30865380859375,-0.20123225450515747,-1.0418064594268799,0.08935294300317764
1773257647391666000,7.318666015625,-0.05394400283694267,-0.4612216055393219,0.13386742770671844
1773257647401677800,7.328677734375,0.060438819229602814,-0.02418399788439274,0.14390939474105835
1773257647411691000,7.33869091796875,-0.039191365242004395,-0.2562851309776306,0.21359845995903015
1773257647421703000,7.348702880859375,-0.1998891681432724,-0.6557318568229675,0.15210139751434326
1773257647431715800,7.3587158203125,-0.17397448420524597,-1.0559804439544678,0.09510094672441483
1773257647441728000,7.36872802734375,-0.07536815851926804,-1.4879146814346313,-0.026123005896806717
1773257647451740000,7.378739990234375,-0.09423559159040451,-1.9807480573654175,-0.16041210293769836
1773257647461752800,7.3887529296875,-0.07547052204608917,-2.0844502449035645,-0.00910454522818327
1773257647471764700,7.3987646484375,-0.10702657699584961,-1.76613187789917,0.22144663333892822
1773257647481777000,7.40877685546875,-0.1300308257341385,-1.4960578680038452,0.45253753662109375
1773257647491789800,7.418789794921875,-0.16671401262283325,-1.366589903831482,0.5096713304519653
1773257647501802000,7.428802001953125,-0.21537072956562042,-1.5558534860610962,0.4259588420391083
1773257647511815000,7.43881494140625,-0.11355435848236084,-1.7883533239364624,0.4104696214199066
1773257647521827000,7.4488271484375,-0.02129327692091465,-1.860337495803833,0.5033662915229797
1773257647531839000,7.4588388671875,-0.0194929800927639,-1.285772681236267,0.5150557160377502
1773257647541852000,7.468851806640625,-0.07562379539012909,-0.7391241192817688,0.6550830006599426
1773257647551863800,7.47886376953125,-0.09091886878013611,-0.7631894946098328,0.630168080329895
1773257647561877000,7.488876953125,-0.1321571171283722,-0.70015949010849,0.7185043096542358
1773257647571889000,7.498888916015625,-0.13231290876865387,-0.589435875415802,0.8958135843276978
1773257647581900800,7.50890087890625,-0.21433380246162415,-0.299926221370697,0.8893517255783081
1773257647591914000,7.5189140625,-0.21605153381824493,-0.15006403625011444,0.9115193486213684
1773257647601926000,7.52892578125,-0.23017175495624542,-0.1831737905740738,0.9614728689193726
1773257647611938000,7.53893798828125,-0.19566091895103455,-0.32079049944877625,0.9807544350624084
1773257647621951000,7.548950927734375,-0.12405236810445786,-0.2328723669052124,0.9105299711227417
1773257647631963000,7.558962890625,-0.08333636075258255,-0.32321929931640625,0.912063717842102
1773257647641975800,7.568975830078125,-0.09062983095645905,-0.4655586779117584,0.926569402217865
1773257647651987700,7.57898779296875,-0.029086316004395485,-0.04949621483683586,0.6331047415733337
1773257647661999900,7.588999755859375,0.03358015790581703,0.3205529749393463,0.3413633108139038
1773257647672012800,7.5990126953125,0.057059649378061295,0.3906039595603943,0.1453181654214859
1773257647682025000,7.60902490234375,0.0899120643734932,0.3422011733055115,0.06131788343191147
1773257647692036900,7.619036865234375,0.12106864899396896,0.322328120470047,0.03110618330538273
1773257647702050000,7.629050048828125,0.144081711769104,0.3822278380393982,0.03404635190963745
1773257647712062000,7.63906201171875,0.1506597101688385,0.5080933570861816,0.05943746492266655
1773257647722075000,7.649074951171875,0.16264647245407104,0.7648506164550781,-0.03535912185907364
1773257647732086800,7.659086669921875,0.22017687559127808,1.0503848791122437,-0.3097326159477234
1773257647742098700,7.6690986328125,0.23060336709022522,1.2044097185134888,-0.5477825403213501
1773257647752111900,7.67911181640625,0.24420812726020813,0.9861966967582703,-0.6504194140434265
1773257647762123800,7.689123779296875,0.27405616641044617,0.27002501487731934,-0.603689968585968
1773257647772136000,7.699135986328125,0.309710830450058,-0.04962063953280449,-0.6542487740516663
1773257647782148900,7.70914892578125,0.3306198716163635,-0.17997793853282928,-0.6981168985366821
1773257647792161000,7.7191611328125,0.3221670091152191,-0.2882215976715088,-0.7547389268875122
1773257647802174000,7.729174072265625,0.3323569595813751,-0.3369992673397064,-0.8530603647232056
1773257647812186000,7.73918603515625,0.30895498394966125,-0.31786951422691345,-1.0119307041168213
1773257647822198000,7.749197998046875,0.3740813434123993,-0.059547074139118195,-1.2496129274368286
1773257647832210700,7.759210693359375,0.42935416102409363,0.40605470538139343,-1.5093715190887451
1773257647842222800,7.769222900390625,0.4956263303756714,0.8538875579833984,-1.6590206623077393
1773257647852235800,7.77923583984375,0.5579163432121277,1.158005952835083,-1.774095058441162
1773257647862248000,7.789248046875,0.5812559723854065,1.1762720346450806,-1.8902356624603271
1773257647872259800,7.799259765625,0.6535892486572266,1.525687575340271,-1.979904055595398
1773257647882273000,7.80927294921875,0.6628413796424866,0.9071766138076782,-1.9108754396438599
1773257647892285000,7.819284912109375,0.5963135361671448,0.6744807958602905,-1.9095662832260132
1773257647902296800,7.829296875,0.5606971979141235,0.7234352827072144,-1.746480107307434
1773257647912309800,7.839309814453125,0.4670969247817993,0.5784136652946472,-1.6800448894500732
1773257647922322000,7.849322021484375,0.35867661237716675,0.7823235392570496,-1.7033287286758423
1773257647932333800,7.859333740234375,0.27202561497688293,1.0602947473526,-1.721346378326416
1773257647942346800,7.8693466796875,0.17490017414093018,1.1839834451675415,-1.7874302864074707
1773257647952359000,7.87935888671875,0.03350842744112015,1.0721571445465088,-1.850097417831421
1773257647962371800,7.889371826171875,-0.13588356971740723,0.8624351024627686,-1.8615214824676514
1773257647972384000,7.899384033203125,-0.3176671862602234,0.6462828516960144,-1.8383405208587646
1773257647982396000,7.90939599609375,-0.49941012263298035,0.40561652183532715,-1.7972193956375122
1773257647992409000,7.9194091796875,-0.6382452845573425,0.18669748306274414,-1.8125863075256348
1773257648002421000,7.9294208984375,-0.7366440296173096,-0.024248706176877022,-1.8637582063674927
1773257648012433000,7.939432861328125,-0.8286464214324951,-0.25869184732437134,-1.9165434837341309
1773257648022445800,7.94944580078125,-0.9084223508834839,-0.45247840881347656,-1.959318995475769
1773257648032457700,7.959457763671875,-0.9920154809951782,-0.6396957039833069,-1.9266726970672607
1773257648042471000,7.969470947265625,-1.0943523645401,-0.8971579670906067,-1.6641244888305664
1773257648052482800,7.97948291015625,-1.2126047611236572,-1.2733283042907715,-1.4878517389297485
1773257648062495000,7.989494873046875,-1.2731832265853882,-1.873977780342102,-1.5415856838226318
1773257648072508000,7.9995078125,-1.3346655368804932,-2.4312822818756104,-1.6948564052581787
1773257648082520000,8.00952001953125,-1.3290801048278809,-2.5118567943573,-1.9178087711334229
1773257648092532000,8.019531982421874,-1.2360471487045288,-1.9421330690383911,-2.0042200088500977
1773257648102545000,8.029544921875,-1.219089150428772,-0.6488867402076721,-1.3305981159210205
1773257648112557000,8.03955712890625,-1.1734676361083984,-0.5960949063301086,-1.0603605508804321
1773257648122569700,8.04956982421875,-1.0632466077804565,-0.9994732141494751,-0.8460091948509216
1773257648132582000,8.059581787109375,-1.0547378063201904,-1.596564769744873,-0.4263155162334442
1773257648142593800,8.06959375,-1.1021329164505005,-2.3750829696655273,0.027214795351028442
1773257648152607000,8.07960693359375,-1.1165547370910645,-3.167022228240967,0.2842351496219635
1773257648162619000,8.089618896484374,-1.200060248374939,-3.519124746322632,0.4140007197856903
1773257648172630800,8.099630859375,-1.3881428241729736,-3.4879355430603027,0.35869085788726807
1773257648182644000,8.10964404296875,-1.6175349950790405,-3.3047075271606445,0.21192985773086548
1773257648192656000,8.11965576171875,-1.8597170114517212,-3.176116466522217,-0.0008199512958526611
1773257648202668800,8.129668701171875,-2.1023809909820557,-3.0212807655334473,-0.2307778000831604
1773257648212680700,8.1396806640625,-2.3029229640960693,-2.8654797077178955,-0.4621177911758423
1773257648222692900,8.14969287109375,-2.486325979232788,-2.6814539432525635,-0.676153838634491
1773257648232705800,8.159705810546875,-2.6715047359466553,-2.4863781929016113,-0.8692604899406433
1773257648242718000,8.169718017578125,-2.8612794876098633,-2.361403465270996,-1.0587681531906128
1773257648252729900,8.179729736328126,-3.0287423133850098,-2.285573720932007,-1.2513208389282227
1773257648262743000,8.189742919921875,-3.209282398223877,-2.2025885581970215,-1.4339752197265625
1773257648272754700,8.199754638671875,-3.321471929550171,-2.159477472305298,-1.603629469871521
1773257648282766600,8.2097666015625,-3.3723292350769043,-2.0521128177642822,-1.7193728685379028
1773257648292779800,8.21977978515625,-3.425778388977051,-1.9728922843933105,-1.734827995300293
1773257648302791700,8.229791748046875,-3.433732748031616,-2.0221445560455322,-1.6945387125015259
1773257648312804600,8.2398046875,-3.459028959274292,-2.233675956726074,-1.6477046012878418
1773257648322816500,8.24981640625,-3.434779405593872,-2.4524660110473633,-1.54433274269104
1773257648332828700,8.25982861328125,-3.3395769596099854,-2.612788200378418,-1.3966354131698608
1773257648342841600,8.269841552734375,-3.188854217529297,-2.6253292560577393,-1.3082678318023682
1773257648352853800,8.279853759765626,-2.9748904705047607,-2.355933427810669,-1.2544695138931274
1773257648362865700,8.28986572265625,-2.7471797466278076,-2.065666675567627,-1.1673146486282349
1773257648372878800,8.29987890625,-2.52146315574646,-1.81618070602417,-1.1180886030197144
1773257648382890800,8.309890869140625,-2.1439006328582764,-0.8806432485580444,-2.9414501190185547
1773257648392903700,8.319903564453124,-2.0493593215942383,-0.3434447944164276,-3.8151605129241943
1773257648402915800,8.329915771484375,-2.0853159427642822,-1.2474467754364014,-3.3942036628723145
1773257648412927700,8.339927734375,-2.115684747695923,-2.3533248901367188,-2.817697286605835
1773257648422940700,8.349940673828126,-2.131838083267212,-2.7982945442199707,-2.5411908626556396
1773257648432952600,8.35995263671875,-2.0810461044311523,-2.651388645172119,-2.466292381286621
1773257648442964700,8.36996484375,-2.109771490097046,-2.30466365814209,-2.449559450149536
1773257648452977700,8.379977783203126,-1.8022745847702026,-1.6258076429367065,-2.3494863510131836
1773257648462989600,8.389989501953124,-1.5755540132522583,-1.3497397899627686,-2.2225120067596436
1773257648473001700,8.400001708984375,-1.5234659910202026,-1.0631276369094849,-1.8460792303085327
1773257648483014700,8.4100146484375,-1.5547871589660645,-0.9846723675727844,-1.4832417964935303
1773257648493026800,8.42002685546875,-1.527335524559021,-0.8919435143470764,-1.1314022541046143
1773257648503039500,8.43003955078125,-1.4372718334197998,-0.7967349886894226,-0.7947940826416016
1773257648513051600,8.4400517578125,-1.3125929832458496,-1.6645398139953613,-0.8759259581565857
1773257648523063600,8.4500634765625,-1.166895866394043,-1.124912977218628,-0.8673778772354126
1773257648533076700,8.46007666015625,-1.0837548971176147,-0.4207526445388794,-1.2217272520065308
1773257648543088600,8.470088623046875,-0.8702973127365112,-0.6938566565513611,-1.1009604930877686
1773257648553100500,8.4801005859375,-0.5916017889976501,-1.002206563949585,-0.8925219774246216
1773257648563113700,8.49011376953125,-0.3001842498779297,-1.033358097076416,-0.650188148021698
1773257648573125600,8.500125732421875,-0.006361954379826784,-0.9695802330970764,-0.46167171001434326
1773257648583138800,8.510138916015626,0.28663089871406555,-0.7737428545951843,-0.3532138466835022
1773257648593150700,8.520150634765624,0.47942912578582764,-0.23483969271183014,-0.44136738777160645
1773257648603163000,8.530162841796875,0.6265762448310852,-0.015627430751919746,-0.4908615052700043
1773257648613175600,8.540175537109375,0.6129571199417114,-0.20478378236293793,-0.3347667157649994
1773257648623187700,8.550187744140626,0.5085621476173401,-0.3715323209762573,-0.0747944638133049
1773257648633199600,8.56019970703125,0.34335747361183167,-0.21457597613334656,-0.03167948126792908
1773257648643212800,8.570212890625,0.2256655991077423,-0.08425948768854141,-0.1864745318889618
1773257648653224700,8.580224609375,-0.00367731717415154,-0.4567883312702179,-0.4714343547821045
1773257648663236600,8.590236572265624,-0.3455715775489807,-1.1260168552398682,-0.8125587701797485
1773257648673249800,8.600249755859375,-0.8341410160064697,-1.7257490158081055,-1.202244520187378
1773257648683261700,8.61026171875,-1.2968101501464844,-2.1177964210510254,-1.625292181968689
1773257648693274600,8.620274658203124,-1.6114953756332397,-2.1976468563079834,-1.9998217821121216
1773257648703286500,8.63028662109375,-1.740216851234436,-2.116248846054077,-2.2340521812438965
1773257648713298700,8.640298583984375,-1.7067720890045166,-1.8236767053604126,-2.292097568511963
1773257648723311600,8.6503115234375,-1.6407612562179565,-1.5944050550460815,-2.172119379043579
1773257648733323500,8.660323486328124,-1.6239436864852905,-1.5552014112472534,-1.9993211030960083
1773257648743335700,8.670335693359375,-1.59025239944458,-1.311331033706665,-1.98695707321167
1773257648753348600,8.6803486328125,-1.4939756393432617,-0.872435450553894,-2.081972360610962
1773257648763360800,8.69036083984375,-1.3729050159454346,-0.5834075212478638,-2.143061637878418
1773257648773372700,8.70037255859375,-1.2799620628356934,-0.3020234704017639,-2.287522554397583
1773257648783385900,8.7103857421875,-1.1299389600753784,-0.2487586885690689,-2.242602825164795
1773257648793397800,8.720397705078126,-1.1246017217636108,-1.3387640714645386,-1.6777684688568115
1773257648803410700,8.73041064453125,-1.2296150922775269,-1.326485276222229,-1.3614485263824463
1773257648813422600,8.740422607421875,-1.1018635034561157,-0.7863737940788269,-1.10200035572052
1773257648823434500,8.7504345703125,-0.8504565358161926,-0.6086822748184204,-0.6061671376228333
1773257648833447700,8.76044775390625,-0.5985087156295776,-0.20937399566173553,-0.15705671906471252
1773257648843459600,8.77045947265625,-0.6825488209724426,-0.028973670676350594,-0.024189241230487823
1773257648853471700,8.7804716796875,-0.9449524879455566,0.4626658260822296,-0.0034474777057766914
1773257648863484700,8.790484619140624,-0.9928231239318848,0.5433261394500732,-0.07008308172225952
1773257648873496800,8.800496826171875,-1.1040154695510864,0.3100217878818512,-0.2163044810295105
1773257648883508700,8.8105087890625,-1.3153105974197388,0.10282886773347855,-0.3103468716144562
1773257648893521700,8.820521728515626,-1.5067269802093506,0.025934087112545967,-0.40982526540756226
1773257648903533800,8.830533935546875,-1.6688727140426636,-0.1336657702922821,-0.49502378702163696
1773257648913546800,8.840546630859375,-1.80563485622406,-0.28212180733680725,-0.5234708189964294
1773257648923558700,8.85055859375,-1.8765660524368286,-0.2901410758495331,-0.5711889266967773
1773257648933570600,8.860570556640624,-1.8883665800094604,-0.332060307264328,-0.653556227684021
1773257648943583700,8.870583740234375,-1.819860577583313,-0.47552594542503357,-0.7102787494659424
1773257648953595600,8.880595703125,-1.7618063688278198,-0.6483488082885742,-0.7404505014419556
1773257648963607800,8.89060791015625,-1.796575903892517,-0.7566962838172913,-0.8051257729530334
1773257648973620700,8.900620849609375,-1.8721177577972412,-0.5096529126167297,-0.8990216255187988
1773257648983633000,8.9106328125,-1.9587318897247314,-0.2027873545885086,-0.9588679671287537
1773257648993645600,8.9206455078125,-2.123674154281616,-0.38717344403266907,-0.7987040877342224
1773257649003657500,8.930657470703125,-2.2085111141204834,-1.17233145236969,-0.28761157393455505
1773257649013669600,8.940669677734375,-2.213564157485962,-1.929512858390808,0.23987437784671783
1773257649023682600,8.9506826171875,-2.0826969146728516,-1.1219278573989868,0.027739709243178368
1773257649033694700,8.96069482421875,-1.8934892416000366,0.404469758272171,-0.5296934843063354
1773257649043706600,8.97070654296875,-1.8512414693832397,0.05679849162697792,-0.04575635492801666
1773257649053719800,8.9807197265625,-0.9074735045433044,-0.27709585428237915,0.16622726619243622
1773257649063731700,8.990731689453124,0.047162141650915146,-0.6627944707870483,-0.4960401654243469
1773257649073743600,9.00074365234375,0.19389379024505615,-0.7362558841705322,-0.8058105707168579
1773257649083756800,9.0107568359375,-0.43934759497642517,-0.21080510318279266,-0.7367762327194214
1773257649093768700,9.020768798828126,-1.14973783493042,0.2818610370159149,-0.7725368738174438
1773257649103780900,9.03078076171875,-1.4130096435546875,0.4928610622882843,-0.6578688621520996
1773257649113793500,9.04079345703125,-1.4204672574996948,0.682780385017395,-0.5288099646568298
1773257649123805700,9.0508056640625,-1.2878930568695068,0.828057587146759,-0.46798112988471985
1773257649133818600,9.060818603515624,-1.1093171834945679,0.8956387639045715,-0.5309052467346191
1773257649143830800,9.070830810546875,-0.9479904770851135,0.9531172513961792,-0.613301157951355
1773257649153842700,9.0808427734375,-0.8321703672409058,1.1048489809036255,-0.589836597442627
1773257649163856000,9.09085595703125,-0.8116276264190674,1.2456637620925903,-0.44483470916748047
1773257649173867800,9.10086767578125,-0.789243221282959,1.2414617538452148,-0.3805502653121948
1773257649183879700,9.110879638671875,-0.7780738472938538,1.2746003866195679,-0.3471338152885437
1773257649193892600,9.120892578125,-0.8027416467666626,1.3596380949020386,-0.19253787398338318
1773257649203904500,9.130904541015624,-0.7989650964736938,1.8212263584136963,0.03025345504283905
1773257649213916700,9.140916748046875,-0.7330721020698547,2.316096067428589,0.20452165603637695
1773257649223929600,9.1509296875,-0.7568538784980774,2.990482807159424,0.41363680362701416
1773257649233941800,9.160941650390624,-0.8534150123596191,3.5247437953948975,0.5615367889404297
1773257649243954700,9.17095458984375,-0.8763096928596497,3.3164849281311035,0.36186447739601135
1773257649253966600,9.180966552734375,-0.80911785364151,2.1371772289276123,-0.13868409395217896
1773257649263978800,9.190978759765626,-0.776487410068512,0.9873515963554382,-0.29925963282585144
1773257649273990700,9.20099072265625,-0.9522834420204163,0.6858873963356018,-0.3742358684539795
1773257649284002600,9.21100244140625,-1.0327178239822388,-0.05689714476466179,-0.5729965567588806
1773257649294014700,9.2210146484375,-0.8999680280685425,-0.6998223066329956,-0.7226725816726685
1773257649304027600,9.231027587890624,-0.6784772872924805,-0.8352829217910767,-0.7263084053993225
1773257649314039800,9.241039794921875,-0.4628041684627533,-0.7547302842140198,-0.633544385433197
1773257649324051700,9.2510517578125,-0.27650734782218933,-0.7006862759590149,-0.5357164144515991
1773257649334064600,9.261064697265626,-0.13953670859336853,-0.5608908534049988,-0.4900538921356201
1773257649344076500,9.27107666015625,-0.060695137828588486,-0.4334181249141693,-0.5401496887207031
1773257649354089700,9.28108984375,-0.023157350718975067,-0.3155258297920227,-0.6304503083229065
1773257649364101600,9.2911015625,-0.015431254170835018,-0.17349867522716522,-0.6834469437599182
1773257649374113500,9.301113525390624,-0.038784246891736984,-0.12088392674922943,-0.7273251414299011
1773257649384126700,9.311126708984375,-0.08533093333244324,-0.037279121577739716,-0.7221406102180481
1773257649394138600,9.321138671875,-0.08661165088415146,0.1683073341846466,-0.703100860118866
1773257649404150800,9.33115087890625,-0.04952597618103027,0.33554965257644653,-0.6848165392875671
1773257649414163700,9.341163818359375,-0.020009363070130348,0.4176937937736511,-0.6525992155075073
1773257649424175600,9.351175537109375,0.0028139306232333183,0.37479639053344727,-0.6212595105171204
1773257649434187800,9.361187744140626,0.03486986830830574,0.2382662445306778,-0.638617753982544
1773257649444200700,9.37120068359375,0.0785379633307457,0.0923096090555191,-0.6811580061912537
1773257649454212600,9.381212646484375,0.13891421258449554,0.001197813544422388,-0.7583556175231934
1773257649464225500,9.3912255859375,0.2061520218849182,-0.08540613204240799,-0.8876210451126099
1773257649474237700,9.40123779296875,0.2622371315956116,-0.20763564109802246,-1.0280269384384155
1773257649484249600,9.41124951171875,0.28698328137397766,-0.2791684865951538,-1.1302762031555176
1773257649494262800,9.4212626953125,0.30480247735977173,-0.43902525305747986,-1.2037779092788696
1773257649504274700,9.431274658203124,0.34513700008392334,-0.4693877696990967,-1.2226797342300415
1773257649514286800,9.441286865234375,0.4148156940937042,-0.46269550919532776,-1.2469736337661743
1773257649524299500,9.451299560546875,0.49091753363609314,-0.4092469811439514,-1.2570310831069946
1773257649534311400,9.4613115234375,0.5587887763977051,-0.31694793701171875,-1.2789249420166016
1773257649544323600,9.471323486328124,0.6022771000862122,-0.16902752220630646,-1.332901120185852
1773257649554336500,9.48133642578125,0.5644404888153076,-0.07871946692466736,-1.3671897649765015
1773257649564348700,9.4913486328125,0.5175022482872009,-0.16487719118595123,-1.3976672887802124
1773257649574361600,9.501361572265624,0.4861496686935425,-0.2504280209541321,-1.3932541608810425
1773257649584373800,9.511373779296875,0.4754487872123718,-0.3105696141719818,-1.398512363433838
1773257649594385700,9.5213857421875,0.4783311188220978,-0.3800314962863922,-1.4073058366775513
1773257649604398800,9.53139892578125,0.4941205382347107,-0.4144476354122162,-1.3985621929168701
1773257649614410800,9.54141064453125,0.5238968133926392,-0.4256528913974762,-1.368962287902832
1773257649624422700,9.551422607421875,0.5564745664596558,-0.4321058690547943,-1.312056303024292
1773257649634435600,9.561435546875,0.5765422582626343,-0.4072548747062683,-1.2346630096435547
1773257649644447500,9.571447509765624,0.5825514793395996,-0.3239167034626007,-1.167792797088623
1773257649654459600,9.581459716796875,0.5664124488830566,-0.23817917704582214,-1.1147903203964233
1773257649664472600,9.59147265625,0.5269049406051636,-0.18544290959835052,-1.0643411874771118
1773257649674484700,9.601484619140624,0.4648655652999878,-0.1690729856491089,-1.0326560735702515
1773257649684497700,9.61149755859375,0.3827066123485565,-0.1632312685251236,-1.0007479190826416
1773257649694509800,9.621509765625,0.29924634099006653,-0.16177985072135925,-0.9637622237205505
1773257649704521700,9.631521728515626,0.243363618850708,-0.13675545156002045,-0.9199862480163574
1773257649714534700,9.64153466796875,0.19324666261672974,-0.08286798745393753,-0.8827691078186035
1773257649724546600,9.651546630859375,0.14335818588733673,-0.022739097476005554,-0.8462400436401367
1773257649734558500,9.661558349609376,0.08510792255401611,0.04021270573139191,-0.8068145513534546
1773257649744571600,9.671571533203124,0.016105838119983673,0.07029173523187637,-0.7596298456192017
1773257649754583600,9.68158349609375,-0.12335911393165588,0.009979662485420704,-0.6599120497703552
1773257649764595700,9.691595703125,-0.232320174574852,0.20346489548683167,-0.5963001847267151
1773257649774608600,9.701608642578124,-0.257968008518219,0.2751185894012451,-0.5220200419425964
1773257649784620800,9.711620849609375,-0.3090003430843353,0.45916998386383057,-0.5417509078979492
1773257649794633700,9.7216337890625,-0.3737220764160156,0.6950480341911316,-0.5433083176612854
1773257649804645600,9.731645751953126,-0.4012012481689453,0.7251664996147156,-0.5163958072662354
1773257649814657800,9.74165771484375,-0.5023270845413208,0.4353291392326355,-0.4652452766895294
1773257649824670500,9.75167041015625,-0.6928266286849976,0.3442502021789551,-0.317598432302475
1773257649834682600,9.7616826171875,-0.7635495662689209,0.2419898808002472,-0.14899370074272156
1773257649844694500,9.771694580078124,-0.8841232061386108,0.2939358651638031,-0.08287721127271652
1773257649854707700,9.781707763671875,-0.963466227054596,0.46014589071273804,-0.06962425261735916
1773257649864719600,9.7917197265625,-1.1273086071014404,0.4500601291656494,-0.06106463074684143
1773257649874731500,9.8017314453125,-1.3092775344848633,0.38313859701156616,-0.06793025881052017
1773257649884744700,9.81174462890625,-1.4219452142715454,0.45322471857070923,-0.02502654492855072
1773257649894756600,9.821756591796875,-1.5073482990264893,0.4469529986381531,0.05933946743607521
1773257649904769500,9.83176953125,-1.5873786211013794,0.45750942826271057,0.1433211863040924
1773257649914781700,9.84178173828125,-1.6377756595611572,0.4379674196243286,0.2214338332414627
1773257649924793600,9.851793701171875,-1.6799691915512085,0.3577609062194824,0.26601776480674744
1773257649934806500,9.861806640625,-1.709871530532837,0.32075709104537964,0.3102424740791321
1773257649944818700,9.871818603515624,-1.7206506729125977,0.38402149081230164,0.36156103014945984
1773257649954830600,9.88183056640625,-1.7038933038711548,0.5108587741851807,0.4125800132751465
1773257649964843800,9.89184375,-1.7016329765319824,0.6206895709037781,0.43411707878112793
1773257649974855700,9.901855712890624,-1.7285826206207275,0.6531657576560974,0.4146949052810669
1773257649984867600,9.91186767578125,-1.7378113269805908,0.6261786222457886,0.3908047378063202
1773257649994880800,9.921880859375,-1.7199255228042603,0.5637767314910889,0.4133497178554535
1773257650004892700,9.931892578125,-1.7050527334213257,0.36784031987190247,0.47554975748062134
1773257650014905600,9.941905517578125,-1.6791878938674927,0.22450581192970276,0.5604545474052429
1773257650024917500,9.95191748046875,-1.623721718788147,0.29571643471717834,0.6542758345603943
1773257650034929700,9.9619296875,-1.565790057182312,0.531082034111023,0.7298824191093445
1773257650044942600,9.971942626953124,-1.5263102054595947,0.7593014240264893,0.771005392074585
1773257650054954500,9.98195458984375,-1.5366142988204956,0.8835474848747253,0.7818495631217957
1773257650064966700,9.991966552734375,-1.5767326354980469,0.8907931447029114,0.7805628180503845
1773257650074979600,10.0019794921875,-1.6101806163787842,0.8169498443603516,0.7776573300361633
1773257650084991700,10.01199169921875,-1.6189583539962769,0.7282325625419617,0.753061056137085
1773257650095003600,10.022003662109375,-1.612134575843811,0.6241181492805481,0.718234658241272
1773257650105016800,10.032016845703126,-1.613234281539917,0.5175666213035583,0.6974478363990784
1773257650115028700,10.04202880859375,-1.642287015914917,0.3250133693218231,0.656772792339325
1773257650125041700,10.052041748046875,-1.6719374656677246,0.14934547245502472,0.6232640743255615
1773257650135053600,10.062053466796876,-1.6751941442489624,0.13927605748176575,0.63958340883255
1773257650145065500,10.0720654296875,-1.6613495349884033,0.26808035373687744,0.6763263940811157
1773257650155078700,10.08207861328125,-1.632831335067749,0.3378967046737671,0.6756222248077393
1773257650165090600,10.092090576171875,-1.6160296201705933,0.3184751272201538,0.6346873044967651
1773257650175102700,10.102102783203126,-1.614928126335144,0.15800504386425018,0.5974858999252319
1773257650185115600,10.11211572265625,-1.6175788640975952,-0.09012825787067413,0.5542812943458557
1773257650195127800,10.1221279296875,-1.5968232154846191,-0.258197158575058,0.5280448794364929
1773257650205139700,10.1321396484375,-1.5558726787567139,-0.37196260690689087,0.5288880467414856
1773257650215152600,10.142152587890624,-1.5152572393417358,-0.3663148283958435,0.4985825717449188
1773257650225164500,10.15216455078125,-1.4319603443145752,-0.12406156212091446,0.4731326401233673
1773257650235177700,10.162177734375,-1.363312840461731,-0.013886318542063236,0.48487210273742676
1773257650245189600,10.172189697265624,-1.3156944513320923,0.013616473414003849,0.48624899983406067
1773257650255201500,10.182201416015625,-1.2628107070922852,-0.027793550863862038,0.48620691895484924
1773257650265214700,10.192214599609375,-1.181470513343811,-0.0669204443693161,0.4704287648200989
1773257650275227400,10.202227294921874,-1.093611478805542,-0.05969395488500595,0.429733544588089
1773257650285239600,10.212239501953125,-1.0121464729309082,-0.13136228919029236,0.3666573762893677
1773257650295252200,10.222252197265625,-0.9397608637809753,-0.2595396935939789,0.30598655343055725
1773257650305264400,10.232264404296876,-0.8478444218635559,-0.33978673815727234,0.2622995674610138
1773257650315276300,10.2422763671875,-0.7390170097351074,-0.3484899401664734,0.22632452845573425
1773257650325289500,10.25228955078125,-0.6257544755935669,-0.2739422917366028,0.18086478114128113
1773257650335301400,10.26230126953125,-0.5236616730690002,-0.09168434143066406,0.13926859200000763
1773257650345314600,10.272314453125,-0.4505435526371002,0.07889759540557861,0.08840327709913254
1773257650355326500,10.282326416015625,-0.4328617453575134,0.13635767996311188,0.018846038728952408
1773257650365338400,10.29233837890625,-0.44656771421432495,0.0505969375371933,-0.050132665783166885
1773257650375351600,10.3023515625,-0.4299868643283844,-0.10678895562887192,-0.09824320673942566
1773257650385363500,10.312363525390625,-0.3690880537033081,-0.28299257159233093,-0.11200614273548126
1773257650395375600,10.322375732421875,-0.2927038073539734,-0.3416692018508911,-0.09975427389144897
1773257650405388300,10.33238818359375,-0.20716950297355652,-0.30401915311813354,-0.10061146318912506
1773257650415400400,10.342400390625,-0.1246408149600029,-0.23925510048866272,-0.12080994993448257
1773257650425412400,10.352412353515625,-0.06321366876363754,-0.13429458439350128,-0.1394408792257309
1773257650435425300,10.36242529296875,-0.03644677251577377,-0.058985717594623566,-0.16459976136684418
1773257650445437400,10.3724375,-0.018738575279712677,-0.052964381873607635,-0.1773403286933899
1773257650455450400,10.382450439453125,0.006875708233565092,-0.009565242566168308,-0.18123839795589447
1773257650465462500,10.392462646484375,0.056160394102334976,-0.008156350813806057,-0.1850234717130661
1773257650475474400,10.402474365234376,0.13999776542186737,-0.05066625773906708,-0.14757516980171204
1773257650485487400,10.4124873046875,0.1280994564294815,0.08408857882022858,-0.14583179354667664
1773257650495499300,10.422499267578125,0.14331702888011932,0.06619133800268173,-0.16584065556526184
1773257650505511200,10.43251123046875,0.1312301605939865,0.0471893809735775,-0.1897602379322052
1773257650515524400,10.4425244140625,0.10268133133649826,0.01317096222192049,-0.1970522403717041
1773257650525536300,10.452536376953125,0.0987301841378212,-0.039097148925065994,-0.1971302032470703
1773257650535548400,10.46254833984375,0.15978902578353882,-0.028638117015361786,-0.17711761593818665
1773257650545561300,10.472561279296874,0.22066012024879456,0.06099768728017807,-0.20146982371807098
1773257650555573500,10.482573486328125,0.24192945659160614,0.15859107673168182,-0.3280208110809326
1773257650565586400,10.49258642578125,0.1386827528476715,0.18216180801391602,-0.4646463096141815
1773257650575598600,10.5025986328125,0.010806819424033165,-0.12930446863174438,-0.48736467957496643
1773257650585610500,10.512610595703125,-0.0992530882358551,-0.5296663045883179,-0.47410303354263306
1773257650595623400,10.52262353515625,-0.17256060242652893,-0.5955246686935425,-0.42417195439338684
1773257650605635300,10.53263525390625,-0.23116257786750793,-0.47541120648384094,-0.3391883969306946
1773257650615647200,10.542647216796874,-0.2584594488143921,-0.17870362102985382,-0.3282183110713959
1773257650625660400,10.552660400390625,-0.285525381565094,0.1962350308895111,-0.330884724855423
1773257650635672300,10.56267236328125,-0.2943851947784424,0.4766898453235626,-0.35907161235809326
1773257650645684500,10.5726845703125,-0.3021376132965088,0.6188504099845886,-0.3723929226398468
1773257650655697400,10.582697509765625,-0.27491825819015503,0.7156054377555847,-0.279163658618927
1773257650665709600,10.59270947265625,-0.23083628714084625,0.8748646378517151,-0.17964372038841248
1773257650675722200,10.60272216796875,-0.1757887452840805,1.0853043794631958,-0.1052941232919693
1773257650685734400,10.612734375,-0.0771699845790863,1.3848222494125366,-0.03794596716761589
1773257650695746300,10.622746337890625,0.034244686365127563,1.685145378112793,0.0041964249685406685
1773257650705759200,10.63275927734375,0.12995919585227966,1.7942091226577759,0.04106050729751587
1773257650715771400,10.642771484375,0.20606887340545654,1.5699076652526855,0.057212308049201965
1773257650725783300,10.652783203125,0.14027459919452667,1.1600300073623657,0.04373154416680336
1773257650735796500,10.66279638671875,-0.006221908610314131,0.8255186080932617,-0.00864404533058405
1773257650745808400,10.672808349609374,-0.0796637162566185,0.5575791001319885,-0.009819155558943748
1773257650755820300,10.6828203125,-0.09386342763900757,0.34866616129875183,-0.07994284480810165
1773257650765833500,10.69283349609375,-0.05891348421573639,0.775905191898346,-0.10278542339801788
1773257650775845400,10.702845458984376,-0.07686132192611694,1.8458505868911743,-0.1459222286939621
1773257650785858300,10.7128583984375,0.13303804397583008,2.028358221054077,-0.18625903129577637
1773257650795870200,10.7228701171875,0.29300159215927124,1.521310806274414,-0.15788277983665466
1773257650805882400,10.73288232421875,0.21452604234218597,0.9015904664993286,-0.04678153619170189
1773257650815895300,10.742895263671874,-0.020206833258271217,0.832162082195282,0.10874760150909424
1773257650825907500,10.752907470703125,-0.3325587213039398,0.6230332851409912,0.21003016829490662
1773257650835919400,10.76291943359375,-0.5847541689872742,0.22456659376621246,0.2285947948694229
1773257650845932500,10.7729326171875,-0.769580602645874,0.19190198183059692,0.15271252393722534
1773257650855944400,10.7829443359375,-0.890550434589386,0.4723038077354431,0.03242073580622673
1773257650865956400,10.792956298828125,-0.8123438358306885,0.6764947772026062,-0.11083891987800598
1773257650875969500,10.802969482421876,-0.515217125415802,0.8166263103485107,-0.1292019486427307
1773257650885981400,10.8129814453125,-0.1680738627910614,1.1759966611862183,0.004596496466547251
1773257650895993300,10.822993408203125,0.029857322573661804,1.6610498428344727,0.16442477703094482
1773257650906006300,10.83300634765625,0.04657548666000366,1.7107291221618652,0.3619857430458069
1773257650916018400,10.843018310546874,-0.0625547245144844,1.3646854162216187,0.5265477895736694
1773257650926031400,10.85303125,-0.2908822000026703,0.7082695364952087,0.6234555244445801
1773257650936043500,10.86304345703125,-0.5708574056625366,-0.03788129612803459,0.6417524814605713
1773257650946055400,10.873055419921876,-0.6296181678771973,-0.6991456151008606,0.6067191958427429
1773257650956068400,10.883068359375,-0.6316844820976257,-1.2553787231445312,0.6577085852622986
1773257650966080500,10.89308056640625,-0.5351240038871765,-1.531463623046875,0.6770802736282349
1773257650976092400,10.903092529296876,-0.1385960876941681,-1.426010251045227,0.8066513538360596
1773257650986105300,10.913105224609374,0.14966273307800293,-1.2141804695129395,1.093700885772705
1773257650996117200,10.9231171875,0.21487662196159363,-1.2082877159118652,1.346779704093933
1773257651006129400,10.93312939453125,0.18136721849441528,-1.2957372665405273,1.5201822519302368
1773257651016142300,10.943142333984374,0.12042077630758286,-1.4403218030929565,1.6365543603897095
1773257651026154200,10.953154296875,0.027415242046117783,-1.6479101181030273,1.6851112842559814
1773257651036167400,10.96316748046875,-0.10529433190822601,-1.764289140701294,1.6465390920639038
1773257651046179300,10.973179443359374,-0.21498233079910278,-1.7484731674194336,1.561910629272461
1773257651056191500,10.98319140625,-0.2579825222492218,-1.5709596872329712,1.5260335206985474
1773257651066204400,10.993204345703125,-0.21004647016525269,-1.272266149520874,1.5519691705703735
1773257651076216600,11.003216552734376,-0.05711417645215988,-0.9772940874099731,1.5368863344192505
1773257651086228500,11.013228515625,0.10878818482160568,-0.677053689956665,1.350541114807129
1773257651096241400,11.023241455078125,0.21922600269317627,-0.44353312253952026,1.1733622550964355
1773257651106253300,11.03325341796875,0.25316858291625977,-0.3299209475517273,1.064860224723816
1773257651116265200,11.04326513671875,0.24268744885921478,-0.40840429067611694,1.0033540725708008
1773257651126278400,11.0532783203125,0.18645335733890533,-0.4963648021221161,0.955784797668457
1773257651136290300,11.063290283203125,0.12803718447685242,-0.5166700482368469,0.9573789834976196
1773257651146302500,11.073302490234376,0.09369949251413345,-0.5026605725288391,0.9607481360435486
1773257651156315400,11.0833154296875,0.10403682291507721,-0.48868486285209656,0.9003244638442993
1773257651166327600,11.09332763671875,0.11141952127218246,-0.5292275547981262,0.8027010560035706
1773257651176340200,11.10334033203125,0.09947551041841507,-0.5408669114112854,0.6623210310935974
1773257651186352400,11.113352294921874,0.07234052568674088,-0.476786345243454,0.5816222429275513
1773257651196364300,11.1233642578125,0.051457878202199936,-0.356972336769104,0.5580215454101562
1773257651206377500,11.13337744140625,0.03584861382842064,-0.21250632405281067,0.5155283808708191
1773257651216389400,11.143389404296874,-0.0030516451224684715,-0.08752232044935226,0.4347062110900879
1773257651226401300,11.1534013671875,-0.0698503851890564,-0.012225438840687275,0.349951833486557
1773257651236414500,11.16341455078125,-0.15135908126831055,0.03998396918177605,0.2453673928976059
1773257651246426400,11.17342626953125,-0.22289976477622986,0.09584148973226547,0.1178240105509758
1773257651256438500,11.1834384765625,-0.2794192433357239,0.2103947103023529,0.02660302072763443
1773257651266451500,11.193451416015625,-0.3256836235523224,0.3484978973865509,-0.02844584360718727
1773257651276463000,11.203463134765625,-0.3204854130744934,0.48847922682762146,-0.06009165570139885
1773257651286475000,11.21347509765625,-0.272431880235672,0.5508677363395691,-0.08641733974218369
1773257651296488000,11.223488037109375,-0.2014162689447403,0.5661188364028931,-0.14137272536754608
1773257651306499800,11.233499755859375,-0.1530592143535614,0.6702678203582764,-0.20276838541030884
1773257651316513000,11.243512939453124,-0.16721338033676147,0.8307278156280518,-0.3008720576763153
1773257651326525000,11.25352490234375,-0.19023607671260834,0.8713358640670776,-0.3752615749835968
1773257651336537000,11.263537109375,-0.19376449286937714,0.796154797077179,-0.33959147334098816
1773257651346550000,11.273550048828126,-0.19404372572898865,0.6393606066703796,-0.2944347858428955
1773257651356562200,11.283562255859374,-0.17696939408779144,0.34784460067749023,-0.2715505063533783
1773257651366574000,11.293573974609375,-0.17333078384399414,-0.00795117300003767,-0.2904762029647827
1773257651376587000,11.3035869140625,-0.1814132034778595,-0.3986520767211914,-0.3477163314819336
1773257651386599200,11.31359912109375,-0.1797359585762024,-0.7663552761077881,-0.3863300383090973
1773257651396611000,11.323611083984375,-0.1811213344335556,-1.0229196548461914,-0.36439916491508484
1773257651406624000,11.3336240234375,-0.16703897714614868,-1.1770827770233154,-0.28480008244514465
1773257651416636000,11.343635986328126,-0.1467456817626953,-1.2288758754730225,-0.20940332114696503
1773257651426649000,11.353649169921875,-0.09348331391811371,-1.231298804283142,-0.1476329118013382
1773257651436661000,11.363660888671875,-0.01820453815162182,-1.2025195360183716,-0.12390521168708801
1773257651446673000,11.3736728515625,0.04949062317609787,-1.094585657119751,-0.14022816717624664
1773257651456686000,11.38368603515625,0.0942343920469284,-0.9231302738189697,-0.16548825800418854
1773257651466698000,11.393697998046875,0.11895470321178436,-0.6486937999725342,-0.17550864815711975
1773257651476710100,11.403710205078125,0.12547360360622406,-0.3294266164302826,-0.19660541415214539
1773257651486723000,11.41372314453125,0.12462370097637177,-0.12260722368955612,-0.23163574934005737
1773257651496735000,11.42373486328125,0.13347604870796204,-0.022024163976311684,-0.2481396198272705
1773257651506747000,11.433746826171875,0.12517553567886353,0.005220689810812473,-0.22929544746875763
1773257651516760000,11.443760009765626,0.12177974730730057,0.008349104784429073,-0.19740808010101318
1773257651526772000,11.45377197265625,0.1103883609175682,0.022333871573209763,-0.1423736810684204
1773257651536784000,11.463783935546875,0.09409114718437195,0.052183911204338074,-0.076801598072052
1773257651546797000,11.473797119140626,0.09873472899198532,0.0980028584599495,-0.036394041031599045
1773257651556809000,11.48380908203125,0.11103347688913345,0.13080313801765442,-0.04286658763885498
1773257651566822100,11.493822265625,0.1280895620584488,0.15046502649784088,-0.06470198929309845
1773257651576834000,11.503833984375,0.1352502703666687,0.14524683356285095,-0.07229332625865936
1773257651586846200,11.51384619140625,0.13925449550151825,0.11762523651123047,-0.05803639814257622
1773257651596859000,11.52385888671875,0.1393330693244934,0.09454015642404556,-0.03059518337249756
1773257651606871000,11.53387109375,0.13597428798675537,0.05813608318567276,0.003375832922756672
1773257651616883000,11.543883056640626,0.13194333016872406,0.016988644376397133,0.041215624660253525
1773257651626896000,11.553895751953124,0.12361949682235718,0.0056083789095282555,0.06968540698289871
1773257651636908000,11.563907958984375,0.12252946943044662,0.007582047022879124,0.0839516893029213
1773257651646920000,11.573919921875,0.12507645785808563,0.009658888913691044,0.10072949528694153
1773257651656933000,11.58393310546875,0.1377752125263214,-0.0030712869483977556,0.12332989275455475
1773257651666945000,11.593945068359375,0.1466074287891388,-0.039819929748773575,0.15998245775699615
1773257651676957200,11.603957275390625,0.13664481043815613,-0.09221228957176208,0.1920381337404251
1773257651686970000,11.61397021484375,0.11505747586488724,-0.14076170325279236,0.20519042015075684
1773257651696982000,11.62398193359375,0.08874224871397018,-0.1691368818283081,0.21168160438537598
1773257651706995000,11.633994873046875,0.07146799564361572,-0.16808295249938965,0.22152858972549438
1773257651717006800,11.6440068359375,0.06102680787444115,-0.1351095587015152,0.23019744455814362
1773257651727019000,11.65401904296875,0.05009228736162186,-0.08508451282978058,0.2557258605957031
1773257651737032000,11.664031982421875,0.05643753334879875,-0.04415092244744301,0.2772902846336365
1773257651747044000,11.674044189453125,0.07102122902870178,0.005508311092853546,0.27932408452033997
1773257651757056000,11.684055908203124,0.08247415721416473,0.05914624035358429,0.28285545110702515
1773257651767069200,11.694069091796875,0.085566446185112,0.10797352343797684,0.2976108193397522
1773257651777081000,11.7040810546875,0.08085691183805466,0.11199542880058289,0.3061369061470032
1773257651787093000,11.714093017578126,0.0785880759358406,0.07140292227268219,0.3047829270362854
1773257651797106000,11.72410595703125,0.0650767907500267,0.03478977829217911,0.318855345249176
1773257651807117800,11.734117919921875,0.061799269169569016,0.036823272705078125,0.3631366491317749
1773257651817130000,11.7441298828125,0.07907706499099731,0.05636048689484596,0.390471875667572
1773257651827143000,11.754142822265624,0.09159818291664124,0.07928391546010971,0.36784857511520386
1773257651837155000,11.764155029296875,0.08756322413682938,0.09247375279664993,0.33068522810935974
1773257651847168000,11.77416796875,0.07847878336906433,0.11562728136777878,0.31160372495651245
1773257651857180200,11.78418017578125,0.07045041769742966,0.1462075561285019,0.2918212115764618
1773257651867192000,11.794192138671875,0.04513201490044594,0.16865454614162445,0.2698054015636444
1773257651877205200,11.804205322265625,0.018625572323799133,0.1703328639268875,0.24187977612018585
1773257651887217200,11.814217041015626,-0.014854985289275646,0.12887775897979736,0.21779249608516693
1773257651897229000,11.82422900390625,-0.04597082734107971,0.0554533526301384,0.2212679237127304
1773257651907242000,11.834241943359375,-0.07589244842529297,-0.006646100431680679,0.23187533020973206
1773257651917254000,11.84425390625,-0.0924525186419487,-0.06545482575893402,0.2157626748085022
1773257651927266000,11.85426611328125,-0.09175127744674683,-0.12108860909938812,0.1839953511953354
1773257651937279000,11.864279052734375,-0.08555223792791367,-0.14730317890644073,0.16177898645401
1773257651947291100,11.874291015625,-0.06949357688426971,-0.14211967587471008,0.14505000412464142
1773257651957303000,11.884302978515626,-0.048258330672979355,-0.10130193829536438,0.13636037707328796
1773257651967316000,11.89431591796875,-0.03374982625246048,-0.05025872588157654,0.13761502504348755
1773257651977328000,11.904328125,-0.02906772308051586,0.00008114427328109741,0.14579439163208008
1773257651987340000,11.914340087890626,-0.04085597023367882,0.03831109404563904,0.15742868185043335
1773257651997353000,11.92435302734375,-0.05884828418493271,0.04666995629668236,0.14191016554832458
1773257652007364900,11.93436474609375,-0.07725194841623306,0.06329290568828583,0.12316617369651794
1773257652017378000,11.9443779296875,-0.09809411317110062,0.11562695354223251,0.1118975430727005
1773257652027390000,11.954389892578124,-0.10972123593091965,0.16846470534801483,0.09493815898895264
1773257652037401900,11.96440185546875,-0.11494848877191544,0.2074645608663559,0.06927993148565292
1773257652047415000,11.9744150390625,-0.1153344139456749,0.24233579635620117,0.05317898467183113
1773257652057427000,11.984427001953126,-0.11585373431444168,0.2848968207836151,0.05063806101679802
1773257652067439000,11.994439208984375,-0.12143830955028534,0.3144303560256958,0.063615582883358
1773257652077452000,12.0044521484375,-0.13130025565624237,0.30508264899253845,0.06992567330598831
1773257652087464200,12.014464111328126,-0.14744064211845398,0.2504551112651825,0.07395458966493607
1773257652097476000,12.02447607421875,-0.16939467191696167,0.17395660281181335,0.07537592202425003
1773257652107489000,12.034489013671875,-0.20551654696464539,0.09899791330099106,0.07485700398683548
1773257652117501000,12.0445009765625,-0.24608074128627777,0.043066732585430145,0.07610416412353516
1773257652127512800,12.054512939453126,-0.2721215486526489,0.018229329958558083,0.09129203855991364
1773257652137526000,12.064526123046875,-0.28323546051979065,0.010497641749680042,0.11565010994672775
1773257652147538000,12.074537841796875,-0.2787937819957733,0.02061992697417736,0.12530702352523804
1773257652157551000,12.084551025390626,-0.26245927810668945,0.036828190088272095,0.11093179881572723
1773257652167563000,12.09456298828125,-0.24543333053588867,0.06405855715274811,0.08266851305961609
1773257652177575200,12.1045751953125,-0.24685972929000854,0.098716139793396,0.046231139451265335
1773257652187588000,12.114588134765626,-0.25689783692359924,0.13695985078811646,-0.005930630955845118
1773257652197600000,12.12460009765625,-0.28537610173225403,0.10163354873657227,-0.056021228432655334
1773257652207612200,12.134612060546875,-0.26426348090171814,-0.16784051060676575,-0.017447875812649727
1773257652217624800,12.144624755859375,-0.25631099939346313,-0.3583401143550873,0.016303962096571922
1773257652227637000,12.154636962890624,-0.2741972506046295,-0.6660904288291931,0.043473564088344574
1773257652237649000,12.16464892578125,-0.2559221088886261,-0.9458645582199097,0.08971615880727768
1773257652247662000,12.174662109375,-0.24393439292907715,-0.908418595790863,0.09415990859270096
1773257652257674000,12.184674072265626,-0.22450530529022217,-0.6490810513496399,0.07797428220510483
1773257652267686100,12.19468603515625,-0.2220720797777176,-0.2879932224750519,0.06976735591888428
1773257652277699600,12.204699462890625,-0.23619510233402252,0.07140541821718216,0.07827216386795044
1773257652287711700,12.214711669921876,-0.23922820389270782,0.33127620816230774,0.10658927261829376
1773257652297724700,12.224724609375,-0.2405264973640442,0.584051787853241,0.14259175956249237
1773257652307736600,12.234736572265625,-0.25053107738494873,0.7819669246673584,0.1531205177307129
1773257652317748500,12.24474853515625,-0.2826772928237915,0.7884452939033508,0.15697091817855835
1773257652327761700,12.25476171875,-0.30637767910957336,0.6971878409385681,0.168187215924263
1773257652337773600,12.264773681640625,-0.3152710199356079,0.580191969871521,0.16977499425411224
1773257652347785700,12.27478564453125,-0.316397488117218,0.5095296502113342,0.1909933090209961
1773257652357798700,12.284798583984376,-0.2873525321483612,0.4816226661205292,0.24900095164775848
1773257652367810800,12.294810791015625,-0.22938761115074158,0.44709882140159607,0.29899969696998596
1773257652377822700,12.30482275390625,-0.16677403450012207,0.3723579943180084,0.32864388823509216
1773257652387835600,12.314835693359376,-0.114070363342762,0.21777698397636414,0.34132853150367737
1773257652397847600,12.32484765625,-0.12277543544769287,0.09616853296756744,0.3354969918727875
1773257652407859500,12.334859375,-0.0842534601688385,0.106605663895607,0.3421913683414459
1773257652417872600,12.34487255859375,-0.10381650924682617,-0.03830385208129883,0.3409647047519684
1773257652427884500,12.354884521484376,-0.10612088441848755,-0.23699522018432617,0.3972592353820801
1773257652437896700,12.364896728515625,-0.1506313681602478,-0.4448423981666565,0.3849999010562897
1773257652447909600,12.37490966796875,-0.16842536628246307,-0.495344340801239,0.36924752593040466
1773257652457921800,12.384921875,-0.1593538373708725,-0.35704371333122253,0.3311779201030731
1773257652467934700,12.394934814453125,-0.14335264265537262,-0.21065405011177063,0.2638065814971924
1773257652477947000,12.40494677734375,-0.12815716862678528,-0.08148540556430817,0.19823075830936432
1773257652487958800,12.414958740234376,-0.07823061943054199,0.039951570332050323,0.13483668863773346
1773257652497971500,12.424971435546874,-0.034127067774534225,0.11301007121801376,0.057982124388217926
1773257652507983600,12.434983642578125,0.012203944846987724,0.08303505182266235,-0.0018982435576617718
1773257652517995500,12.44499560546875,0.0788295716047287,0.03313913196325302,-0.05161546543240547
1773257652528008700,12.4550087890625,0.1598992496728897,-0.018318407237529755,-0.09587379544973373
1773257652538020600,12.4650205078125,0.21152542531490326,-0.1089433804154396,-0.13628433644771576
