time,seconds_elapsed,z,y,x
1773257934699627000,0.056626953125,0.004487959202378988,-0.019511649385094643,-0.004244279582053423
1773257934709642000,0.06664208984375,0.002487658755853772,-0.002207494108006358,-0.004039216320961714
1773257934719657000,0.076656982421875,0.0039116512052714825,0.006589459255337715,-0.0031971249263733625
1773257934729672000,0.086671875,0.003983289934694767,0.008056594990193844,-0.0017382452497258782
1773257934739688000,0.09668798828125,0.004253600724041462,0.01260926853865385,-0.0006167881074361503
1773257934749703000,0.106702880859375,0.001955026527866721,0.015968579798936844,-0.0005062668933533132
1773257934759718000,0.1167177734375,0.0036069853231310844,0.016469521448016167,0.0003376888344064355
1773257934769732900,0.12673291015625,0.002163019496947527,0.021563615649938583,0.0007203850545920432
1773257934779747800,0.136747802734375,0.002691656816750765,0.022283468395471573,0.00010066748654935509
1773257934789763800,0.146763916015625,0.002814695006236434,0.01787859946489334,-0.0013978932984173298
1773257934799778800,0.15677880859375,0.0043910201638937,0.016105998307466507,-0.0008231831016018987
1773257934809794000,0.1667939453125,0.004303668159991503,0.015359781682491302,-0.0017683389596641064
1773257934819809000,0.17680908203125,0.0054245926439762115,0.010248642414808273,-0.002892459277063608
1773257934829824000,0.186823974609375,0.0060445768758654594,0.007452589925378561,-0.0020991035271435976
1773257934839840000,0.196840087890625,0.006066414527595043,0.006707970052957535,-0.005390504375100136
1773257934849855000,0.20685498046875,0.00452923821285367,0.007502124644815922,-0.000716922979336232
1773257934859870000,0.216869873046875,0.0060293967835605145,0.004471980035305023,-0.0028626318089663982
1773257934869885000,0.226885009765625,0.0038802255876362324,0.0023555660154670477,-0.0023281353060156107
1773257934879900000,0.23689990234375,0.0030178942251950502,0.0022011026740074158,0.00019441076437942684
1773257934889916000,0.246916015625,0.004393416922539473,0.004774781409651041,-0.002323075430467725
1773257934899931000,0.256930908203125,0.004394481889903545,0.010358365252614021,0.00009880327706923708
1773257934909945900,0.26694580078125,0.003734284546226263,0.013876134529709816,0.0010207896120846272
1773257934919961000,0.276961181640625,0.003454386256635189,0.009603092446923256,0.0020687435753643513
1773257934929976000,0.28697607421875,0.003935885615646839,0.012226838618516922,0.0007725830073468387
1773257934939992000,0.296991943359375,0.006475742440670729,0.019704995676875114,0.0005576659459620714
1773257934950007000,0.307007080078125,0.005775331053882837,0.010600713081657887,0.0005792375304736197
1773257934960022000,0.31702197265625,0.006062420085072517,0.0038309572264552116,0.003425091505050659
1773257934970037000,0.327037109375,0.0092321140691638,0.028071848675608635,0.002659432590007782
1773257934980053000,0.337052978515625,0.011119229719042778,0.04635551571846008,0.00013795174891129136
1773257934990068000,0.34706787109375,0.013259346596896648,0.06500802934169769,0.0046331011690199375
1773257935000083000,0.3570830078125,0.004831240512430668,0.08222562819719315,0.00028575718170031905
1773257935010098000,0.367097900390625,0.0003427488263696432,0.12647005915641785,0.01212537195533514
1773257935020113000,0.37711279296875,0.013285977765917778,0.04675445705652237,-0.005845904815942049
1773257935030129000,0.38712890625,0.0034043188206851482,0.02257082238793373,-0.00827683787792921
1773257935040144000,0.397143798828125,0.010130664333701134,0.0320223830640316,0.00688986387103796
1773257935050159000,0.4071591796875,0.003931358456611633,0.04180363938212395,0.003963049966841936
1773257935060174000,0.417174072265625,0.004287955816835165,0.015154718421399593,-0.0052376389503479
1773257935070189000,0.42718896484375,0.0037974014412611723,-0.017116136848926544,-0.004795287735760212
1773257935080205000,0.437205078125,0.004840295296162367,0.012328837998211384,0.0009840379934757948
1773257935090220000,0.447219970703125,0.005434446502476931,0.03789305314421654,-0.0041638524271547794
1773257935100235000,0.457235107421875,0.00691969133913517,0.024535436183214188,-0.002782204421237111
1773257935110250000,0.46725,0.004200603812932968,0.013206349685788155,-0.0015030881622806191
1773257935120265000,0.477264892578125,0.005045092198997736,0.03496810421347618,-0.0031561122741550207
1773257935130281000,0.487281005859375,0.008734369650483131,0.07411283999681473,-0.005134308245033026
1773257935140296000,0.4972958984375,0.011003382503986359,0.07368114590644836,-0.00782623142004013
1773257935150311000,0.507310791015625,0.008524245582520962,0.01985706202685833,-0.006597715429961681
1773257935160326000,0.517325927734375,0.007987353019416332,0.009669938124716282,-0.003893541404977441
1773257935170341000,0.527341064453125,0.0068302094005048275,0.055565789341926575,-0.006676012184470892
1773257935180356900,0.53735693359375,0.0046719834208488464,0.11087644845247269,-0.015672968700528145
1773257935190372000,0.5473720703125,0.006617955397814512,0.11438862979412079,-0.021214740350842476
1773257935200387000,0.557386962890625,0.0048829056322574615,0.055218782275915146,-0.01420290395617485
1773257935210402000,0.567402099609375,0.008360727690160275,0.0015845808666199446,-0.0046876962296664715
1773257935220417000,0.5774169921875,0.008860336616635323,0.014959508553147316,-0.005196892656385899
1773257935230433000,0.58743310546875,0.0010745854815468192,-0.05072230100631714,0.04944264888763428
1773257935240448000,0.597447998046875,0.007358580362051725,-0.023449664935469627,0.03669809177517891
1773257935250463000,0.607462890625,0.006872819736599922,-0.035168640315532684,0.013688381761312485
1773257935260478000,0.61747802734375,0.006235259119421244,-0.06639713048934937,0.033854901790618896
1773257935270494000,0.627493896484375,0.01255094539374113,-0.0939699038863182,0.04427505284547806
1773257935280509000,0.637509033203125,0.015855129808187485,-0.07925035059452057,0.03635880723595619
1773257935290524000,0.64752392578125,0.0234089195728302,-0.029282255098223686,0.007299990858882666
1773257935300539100,0.6575390625,0.021204886958003044,0.05862869322299957,-0.01781921088695526
1773257935310554000,0.66755419921875,0.02196362242102623,0.1258080005645752,-0.024448085576295853
1773257935320570000,0.677570068359375,0.028318457305431366,0.14677852392196655,-0.025043834000825882
1773257935330585000,0.687585205078125,0.024572454392910004,0.16325309872627258,-0.008024370297789574
1773257935340600000,0.69760009765625,0.017915351316332817,0.14363253116607666,-0.002415487077087164
1773257935350615000,0.707614990234375,0.027273965999484062,0.19604220986366272,-0.028593560680747032
1773257935360630000,0.717630126953125,0.07923729717731476,0.25118616223335266,-0.07419779896736145
1773257935370646000,0.72764599609375,0.1624450981616974,0.25458329916000366,-0.06438831239938736
1773257935380661000,0.737660888671875,0.3291504681110382,0.20949196815490723,-0.04288381710648537
1773257935390676000,0.747676025390625,0.45823681354522705,-0.07518023997545242,-0.08571330457925797
1773257935400691000,0.75769091796875,0.4315308928489685,-0.003823766717687249,-0.08066661655902863
1773257935410706000,0.767705810546875,0.43448778986930847,0.00814927276223898,-0.051590222865343094
1773257935420722000,0.777721923828125,0.48420822620391846,0.24032604694366455,-0.123068667948246
1773257935430737000,0.78773681640625,0.5901572704315186,0.2609306573867798,-0.22115342319011688
1773257935440752000,0.797752197265625,0.7102645039558411,0.07726309448480606,-0.2408754676580429
1773257935450767000,0.80776708984375,0.790876030921936,-0.06833964586257935,-0.19144132733345032
1773257935460781800,0.81778173828125,0.7833882570266724,-0.20668978989124298,-0.18364785611629486
1773257935470798000,0.827798095703125,0.7265028953552246,-0.27664145827293396,-0.24902206659317017
1773257935480813000,0.83781298828125,0.6685852408409119,-0.2627653181552887,-0.29204997420310974
1773257935490828000,0.847828125,0.5943235158920288,-0.21217510104179382,-0.2780393362045288
1773257935500842800,0.8578427734375,0.5410736203193665,-0.11979617178440094,-0.25152942538261414
1773257935510857700,0.867857666015625,0.5331006646156311,0.0411389134824276,-0.2621820867061615
1773257935520874000,0.8778740234375,0.5599048733711243,0.06293661892414093,-0.3011215031147003
1773257935530889000,0.887888916015625,0.6098007559776306,0.05729178339242935,-0.34815025329589844
1773257935540903700,0.897903564453125,0.6369724869728088,0.04258687421679497,-0.4027554392814636
1773257935550919000,0.9079189453125,0.6762506365776062,0.1722244918346405,-0.5191390514373779
1773257935560934000,0.917933837890625,0.7282131910324097,0.23036876320838928,-0.6563214063644409
1773257935570950100,0.9279501953125,0.7927287817001343,0.1308821141719818,-0.7697715163230896
1773257935580965000,0.937965087890625,0.8421301245689392,0.0533313974738121,-0.8739975094795227
1773257935590979000,0.94797900390625,0.8565277457237244,-0.18300975859165192,-0.9842694401741028
1773257935600994000,0.957994140625,0.8456268906593323,-0.4047280550003052,-1.0705918073654175
1773257935611010000,0.968010009765625,0.8016127943992615,-0.5438537001609802,-1.1104023456573486
1773257935621025000,0.97802490234375,0.7616307735443115,-0.6520416736602783,-1.0984245538711548
1773257935631040000,0.9880400390625,0.700316309928894,-0.8385457992553711,-1.0573172569274902
1773257935641055200,0.99805517578125,0.605880081653595,-0.9605761170387268,-1.0480164289474487
1773257935651070200,1.0080703125,0.501422107219696,-0.9199436902999878,-1.125606656074524
1773257935661086200,1.018086181640625,0.37857580184936523,-0.38674503564834595,-1.012549877166748
1773257935671101200,1.02810107421875,0.17284820973873138,0.27109968662261963,-0.458316445350647
1773257935681116200,1.0381162109375,0.039813727140426636,0.24710619449615479,-0.06260905414819717
1773257935691131100,1.048131103515625,-0.03531910851597786,0.4572612941265106,0.2612622380256653
1773257935701146000,1.05814599609375,-0.15337809920310974,0.5754089951515198,0.4458448588848114
1773257935711162000,1.068162109375,-0.24918079376220703,0.505014955997467,0.40278980135917664
1773257935721177000,1.078177001953125,-0.25641608238220215,0.2783690392971039,0.23028673231601715
1773257935731192000,1.088192138671875,-0.15600185096263885,0.15155836939811707,0.10803166031837463
1773257935741207000,1.09820703125,0.04133358970284462,0.20012137293815613,0.10651791840791702
1773257935751222000,1.108221923828125,0.22499822080135345,0.30005329847335815,0.19097235798835754
1773257935761238000,1.118238037109375,0.26413071155548096,0.38163310289382935,0.18876299262046814
1773257935771253000,1.1282529296875,0.11881986260414124,0.33240723609924316,0.26257649064064026
1773257935781268200,1.138268310546875,0.03073820471763611,0.6027522087097168,0.33394095301628113
1773257935791283200,1.148283203125,-0.0984615907073021,0.7193134427070618,0.4010142683982849
1773257935801298200,1.158298095703125,-0.2974175810813904,0.7359951734542847,0.36748239398002625
1773257935811314200,1.168314208984375,-0.464559406042099,0.6887219548225403,0.26773184537887573
1773257935821329200,1.1783291015625,-0.49477696418762207,0.6753872632980347,0.2678799033164978
1773257935831344000,1.18834423828125,-0.40712088346481323,0.6458932757377625,0.41319209337234497
1773257935841359000,1.198359130859375,-0.3151688575744629,0.6247597336769104,0.6550811529159546
1773257935851374000,1.2083740234375,-0.22928166389465332,0.6174890398979187,0.9875208735466003
1773257935861390000,1.21839013671875,-0.11691197007894516,0.5339475274085999,1.2960838079452515
1773257935871405000,1.228405029296875,0.027599403634667397,0.2860272228717804,1.3920150995254517
1773257935881420000,1.238419921875,0.08920390903949738,-0.0670248419046402,1.1814088821411133
1773257935891435300,1.248435302734375,0.053230199962854385,-0.34490251541137695,0.9970225095748901
1773257935901450200,1.2584501953125,0.0836043506860733,-0.18160147964954376,0.884435772895813
1773257935911466200,1.26846630859375,0.06292543560266495,0.1960081160068512,0.936360776424408
1773257935921481200,1.278481201171875,-0.07931666076183319,0.6249411106109619,1.1073538064956665
1773257935931496200,1.28849609375,-0.302157998085022,1.18943452835083,1.3353153467178345
1773257935941511200,1.29851123046875,-0.5677846074104309,1.7912309169769287,1.6247549057006836
1773257935951526100,1.308526123046875,-0.841393232345581,2.328627347946167,1.857785701751709
1773257935961542100,1.318542236328125,-1.0936510562896729,2.7078213691711426,1.9939979314804077
1773257935971557000,1.32855712890625,-1.2723063230514526,3.003065586090088,2.014833927154541
1773257935981572000,1.338572021484375,-1.4038994312286377,3.2389698028564453,1.9803931713104248
1773257935991587000,1.348587158203125,-1.501059889793396,3.405553102493286,1.9167031049728394
1773257936001603000,1.35860302734375,-1.5249489545822144,3.7860848903656006,1.8518482446670532
1773257936011618000,1.3686181640625,-1.518264889717102,4.543905735015869,1.877724528312683
1773257936021633000,1.378633056640625,-1.6282159090042114,5.512740135192871,1.982837438583374
1773257936031648300,1.388648193359375,-1.8980900049209595,6.473705768585205,2.0450007915496826
1773257936041663200,1.398663330078125,-2.2880704402923584,7.590366840362549,2.0089776515960693
1773257936051679200,1.40867919921875,-2.7354233264923096,8.766827583312988,1.840726613998413
1773257936061694200,1.418694091796875,-3.156052589416504,9.86817741394043,1.5556596517562866
1773257936071709200,1.428709228515625,-3.495518684387207,10.75700569152832,1.268768548965454
1773257936081724200,1.43872412109375,-3.7133829593658447,11.254463195800781,1.1365753412246704
1773257936091739100,1.4487392578125,-3.7554657459259033,11.39200496673584,1.1177787780761719
1773257936101755100,1.458755126953125,-3.5454580783843994,11.18004035949707,1.1086534261703491
1773257936111770000,1.46877001953125,-3.1340019702911377,10.731462478637695,1.0590981245040894
1773257936121785000,1.47878515625,-2.6667068004608154,10.088422775268555,1.03319251537323
1773257936131800000,1.488800048828125,-2.185546875,9.393158912658691,1.008961796760559
1773257936141815300,1.498815185546875,-1.7209908962249756,8.79261302947998,0.9598661065101624
1773257936151831000,1.5088310546875,-1.3524434566497803,8.2395601272583,0.8976072669029236
1773257936161846300,1.51884619140625,-1.105015516281128,7.686990737915039,0.8142572641372681
1773257936171861200,1.528861328125,-0.9676457047462463,7.031754016876221,0.6916834115982056
1773257936181876200,1.538876220703125,-0.9043261408805847,6.213418006896973,0.5554062128067017
1773257936191891200,1.54889111328125,-0.8529396653175354,5.340725898742676,0.4123643934726715
1773257936201907200,1.5589072265625,-0.7394495606422424,4.584203243255615,0.27747103571891785
1773257936211922200,1.568922119140625,-0.5571319460868835,3.97483491897583,0.15521807968616486
1773257936221937200,1.578937255859375,-0.3298788368701935,3.5479040145874023,0.018750784918665886
1773257936231952100,1.5889521484375,-0.10121343284845352,3.2272026538848877,-0.17969439923763275
1773257936241968000,1.598968017578125,0.07277780026197433,2.819729804992676,-0.4569385051727295
1773257936251983000,1.608983154296875,0.18596960604190826,2.403494358062744,-0.7810074090957642
1773257936261998000,1.618998046875,0.2517789900302887,1.9441256523132324,-1.1184024810791016
1773257936272013300,1.629013427734375,0.28539153933525085,1.3758279085159302,-1.3733186721801758
1773257936282028300,1.6390283203125,0.3198342025279999,0.6842739582061768,-1.482168197631836
1773257936292044300,1.649044189453125,0.3644104599952698,0.09685410559177399,-1.481200933456421
1773257936302059300,1.659059326171875,0.4518612027168274,0.5090739130973816,-1.5996748208999634
1773257936312074200,1.66907421875,0.4898029863834381,1.3373055458068848,-1.7132551670074463
1773257936322089200,1.679089111328125,0.4244796335697174,2.283097743988037,-1.6919068098068237
1773257936332104200,1.689104248046875,0.31679314374923706,2.9468061923980713,-1.4733365774154663
1773257936342120200,1.6991201171875,0.32225900888442993,3.060887575149536,-1.113362193107605
1773257936352135200,1.70913525390625,0.4040968716144562,2.4235031604766846,-0.6788948774337769
1773257936362150100,1.719150146484375,0.46959254145622253,1.3587783575057983,-0.3476000428199768
1773257936372165000,1.7291650390625,0.4723510444164276,0.24593201279640198,-0.3054603040218353
1773257936382181000,1.73918115234375,0.48769935965538025,-0.3597160875797272,-0.557468593120575
1773257936392196000,1.749196044921875,0.5501656532287598,-0.4958246648311615,-0.9575555324554443
1773257936402211000,1.759211181640625,0.6298937797546387,-0.6154128313064575,-1.2552160024642944
1773257936412226300,1.769226318359375,0.7462302446365356,-0.8628079891204834,-1.388533592224121
1773257936422241000,1.779240966796875,0.9168065190315247,-1.0526479482650757,-1.4274215698242188
1773257936432257300,1.78925732421875,1.0848008394241333,-1.1408412456512451,-1.4184256792068481
1773257936442272300,1.799272216796875,1.1819782257080078,-1.187416672706604,-1.383625864982605
1773257936452287200,1.809287353515625,1.1792746782302856,-1.2280964851379395,-1.3487627506256104
1773257936462302200,1.81930224609375,1.082717776298523,-1.3506602048873901,-1.3378267288208008
1773257936472317000,1.82931689453125,0.9464453458786011,-1.5058716535568237,-1.3592031002044678
1773257936482333200,1.839333251953125,0.7837318181991577,-1.6765635013580322,-1.4179540872573853
1773257936492348200,1.84934814453125,0.6835799217224121,-1.7411442995071411,-1.4834212064743042
1773257936502363100,1.859363037109375,0.6303741931915283,-1.6893562078475952,-1.5377867221832275
1773257936512377900,1.8693779296875,0.5992775559425354,-1.5962721109390259,-1.5217829942703247
1773257936522394000,1.87939404296875,0.5745591521263123,-1.4756349325180054,-1.4388172626495361
1773257936532409000,1.8894091796875,0.5237138271331787,-1.3222347497940063,-1.3314753770828247
1773257936542424300,1.89942431640625,0.42643892765045166,-1.1826179027557373,-1.2276767492294312
1773257936552439000,1.90943896484375,0.2921394407749176,-1.0663973093032837,-1.1521433591842651
1773257936562454000,1.9194541015625,0.13457858562469482,-1.0200884342193604,-1.0993406772613525
1773257936572470300,1.92947021484375,0.002775280037894845,-0.9920061826705933,-1.059706687927246
1773257936582485200,1.9394853515625,-0.09261169284582138,-0.9359056353569031,-1.0369340181350708
1773257936592501000,1.9495009765625,-0.14540806412696838,-0.9222297668457031,-1.026624083518982
1773257936602516000,1.959515869140625,-0.14125485718250275,-0.9352675676345825,-1.0273356437683105
1773257936612531000,1.969531005859375,-0.07002834975719452,-0.9680193662643433,-1.006229281425476
1773257936622547000,1.979546875,0.016440492123365402,-1.044087529182434,-0.9860622882843018
1773257936632562000,1.98956201171875,0.09370225667953491,-1.126666784286499,-0.9805556535720825
1773257936642577000,1.999576904296875,0.13123445212841034,-1.222606897354126,-1.019885778427124
1773257936652591900,2.009591796875,0.13861912488937378,-1.2535758018493652,-1.1021084785461426
1773257936662608000,2.01960791015625,0.10563614964485168,-1.1787168979644775,-1.1790794134140015
1773257936672622800,2.029622802734375,0.050688743591308594,-1.0428688526153564,-1.1904135942459106
1773257936682637800,2.039637939453125,0.010373811237514019,-0.8912556171417236,-1.1386488676071167
1773257936692653000,2.049653076171875,-0.0057156761176884174,-0.6954544186592102,-1.0728986263275146
1773257936702668000,2.05966796875,-0.005853627808392048,-0.5111591219902039,-1.0192862749099731
1773257936712684000,2.06968408203125,-0.008730374276638031,-0.39758411049842834,-0.9693464040756226
1773257936722699000,2.079698974609375,-0.01836409419775009,-0.3854433000087738,-0.9247211813926697
1773257936732714000,2.0897138671875,-0.012048141099512577,-0.4932749569416046,-0.8938737511634827
1773257936742729000,2.09972900390625,0.011561580933630466,-0.6075503826141357,-0.8760228753089905
1773257936752744000,2.109743896484375,0.03801688924431801,-0.6450234651565552,-0.8464519381523132
1773257936762760000,2.119760009765625,0.039916522800922394,-0.5652362108230591,-0.8060157895088196
1773257936772775000,2.12977490234375,0.027847344055771828,-0.35527607798576355,-0.7450576424598694
1773257936782790000,2.139789794921875,-0.03446636348962784,-0.10706333816051483,-0.6827961206436157
1773257936792804900,2.149804931640625,-0.11929257214069366,0.1432679444551468,-0.606322705745697
1773257936802820900,2.15982080078125,-0.20748554170131683,0.2756584882736206,-0.5174742937088013
1773257936812835800,2.1698359375,-0.28288576006889343,0.34226787090301514,-0.4431220293045044
1773257936822850800,2.179850830078125,-0.3055356740951538,0.40469154715538025,-0.40434110164642334
1773257936832866000,2.189865966796875,-0.27387815713882446,0.3312722146511078,-0.4050934314727783
1773257936842880800,2.199880859375,-0.21805590391159058,0.18726789951324463,-0.4275883436203003
1773257936852897000,2.20989697265625,-0.1601095050573349,0.0975920706987381,-0.4748176634311676
1773257936862912000,2.219912109375,-0.11943212151527405,0.09109289199113846,-0.5366783738136292
1773257936872927000,2.229927001953125,-0.10455437004566193,0.21641619503498077,-0.6195756196975708
1773257936882941700,2.239941650390625,-0.034278079867362976,0.4099385142326355,-0.7107689380645752
1773257936892958000,2.2499580078125,0.04981043189764023,0.5144670605659485,-0.8134686946868896
1773257936902973000,2.259972900390625,0.17781580984592438,0.4922794699668884,-0.9092937111854553
1773257936912988000,2.26998779296875,0.34020525217056274,0.40518611669540405,-0.9496579170227051
1773257936923003000,2.2800029296875,0.513089120388031,0.19735248386859894,-0.9680635929107666
1773257936933017900,2.290017822265625,0.7154238820075989,0.08618335425853729,-0.9541895985603333
1773257936943033900,2.300033935546875,0.821153998374939,-0.03134460747241974,-0.9209432005882263
1773257936953048800,2.310048828125,0.8028674125671387,0.008809470571577549,-0.9204824566841125
1773257936963064000,2.32006396484375,0.7697728872299194,0.20856864750385284,-0.9158645272254944
1773257936973078800,2.330078857421875,0.6390212178230286,0.3035569489002228,-0.9487860202789307
1773257936983095000,2.340094970703125,0.4952819049358368,0.42263540625572205,-0.9248700141906738
1773257936993110000,2.350110107421875,0.23829911649227142,0.5628806352615356,-0.8421951532363892
1773257937003125000,2.360125,-0.13086427748203278,0.7624558210372925,-0.7786718010902405
1773257937013139700,2.3701396484375,-0.47771862149238586,1.0111782550811768,-0.8458471298217773
1773257937023154700,2.38015478515625,-0.70293790102005,1.1470202207565308,-0.998517632484436
1773257937033171000,2.3901708984375,-0.8054310083389282,1.09731924533844,-1.129293441772461
1773257937043186000,2.40018603515625,-0.8062000870704651,0.9405683279037476,-1.2525382041931152
1773257937053201000,2.410200927734375,-0.7877318859100342,0.6346752047538757,-1.42963707447052
1773257937063215600,2.420215576171875,-0.7514375448226929,0.29174211621284485,-1.6849079132080078
1773257937073232000,2.43023193359375,-0.6880391240119934,-0.04430727660655975,-2.012211799621582
1773257937083246800,2.440246826171875,-0.5795562863349915,-0.5210157632827759,-2.3351376056671143
1773257937093262000,2.450261962890625,-0.4184291958808899,-1.0905226469039917,-2.6121017932891846
1773257937103276800,2.46027685546875,-0.22422298789024353,-1.6676080226898193,-2.8422739505767822
1773257937113291800,2.470291748046875,-0.009432117454707623,-2.1433756351470947,-3.0609943866729736
1773257937123308000,2.48030810546875,0.24692003428936005,-2.4717626571655273,-3.2901499271392822
1773257937133323000,2.490322998046875,0.5216996669769287,-2.7171273231506348,-3.5442745685577393
1773257937143337700,2.500337646484375,0.7985789179801941,-3.0569326877593994,-3.815960645675659
1773257937153352700,2.510352783203125,1.109541654586792,-3.581232786178589,-4.129231929779053
1773257937163369000,2.520368896484375,1.4409834146499634,-4.1419782638549805,-4.481977462768555
1773257937173384000,2.530384033203125,1.7205029726028442,-4.519726753234863,-4.828045845031738
1773257937183398700,2.540398681640625,1.8858096599578857,-4.695164680480957,-5.131270408630371
1773257937193413600,2.55041357421875,1.9627467393875122,-4.746308326721191,-5.388340950012207
1773257937203430000,2.560429931640625,2.0357890129089355,-4.735386848449707,-5.600398540496826
1773257937213444900,2.57044482421875,2.1668479442596436,-4.625678539276123,-5.803460597991943
1773257937223459800,2.5804599609375,2.391524314880371,-4.328154563903809,-6.019630432128906
1773257937233474800,2.590474853515625,2.7148914337158203,-4.092711448669434,-6.217968940734863
1773257937243489800,2.60048974609375,3.083193302154541,-3.8714137077331543,-6.348989963531494
1773257937253506000,2.610506103515625,3.44711971282959,-3.4641880989074707,-6.450631141662598
1773257937263521000,2.62052099609375,3.7495293617248535,-2.8245487213134766,-6.60236930847168
1773257937273535700,2.63053564453125,3.8909878730773926,-1.979798674583435,-6.826694011688232
1773257937283550700,2.64055078125,3.8552777767181396,-1.2295888662338257,-7.078783988952637
1773257937293567000,2.65056689453125,3.7400949001312256,-0.4908970296382904,-7.2520036697387695
1773257937303582000,2.66058203125,3.58561372756958,0.2255503088235855,-7.241961479187012
1773257937313596700,2.6705966796875,3.2960329055786133,0.8443368673324585,-7.081473350524902
1773257937323611600,2.680611572265625,2.968280792236328,1.3904651403427124,-6.871676445007324
1773257937333628000,2.6906279296875,2.6411707401275635,1.8294388055801392,-6.613090515136719
1773257937343643000,2.700642822265625,2.2925291061401367,2.051839590072632,-6.290183067321777
1773257937353657900,2.710657958984375,1.9807169437408447,2.174281597137451,-5.916661739349365
1773257937363672800,2.7206728515625,1.7293708324432373,2.009199380874634,-5.550640106201172
1773257937373688800,2.730688720703125,1.5455397367477417,1.559211015701294,-5.191563129425049
1773257937383704000,2.7407041015625,1.4292352199554443,0.9347527623176575,-4.8091139793396
1773257937393719000,2.750718994140625,1.3106625080108643,0.25536173582077026,-4.413437366485596
1773257937403733800,2.760733642578125,1.1205250024795532,-0.29860720038414,-4.025171279907227
1773257937413748700,2.770748779296875,0.8585740923881531,-0.6253674626350403,-3.6550920009613037
1773257937423765000,2.780764892578125,0.596320629119873,-0.6635076999664307,-3.25810170173645
1773257937433780000,2.790780029296875,0.4006424844264984,-0.43560951948165894,-2.813581705093384
1773257937443794700,2.800794677734375,0.3594639003276825,0.11098191142082214,-2.4296865463256836
1773257937453809700,2.8108095703125,0.35098597407341003,0.5631639957427979,-2.1796343326568604
1773257937463826000,2.820825927734375,0.5029158592224121,0.7251902222633362,-1.786921739578247
1773257937473841000,2.8308408203125,0.7225640416145325,0.7933207750320435,-1.6020524501800537
1773257937483855600,2.840855712890625,0.8197505474090576,0.6558963656425476,-1.4713778495788574
1773257937493870800,2.850870849609375,0.7658758759498596,0.4540098309516907,-1.3149917125701904
1773257937503886800,2.860886962890625,0.5715766549110413,0.16112950444221497,-1.1440191268920898
1773257937513901800,2.87090185546875,0.2703547775745392,-0.09631535410881042,-0.9316794872283936
1773257937523917000,2.8809169921875,-0.0377122238278389,-0.6798139214515686,-0.7198756337165833
1773257937533931800,2.890931884765625,-0.20676089823246002,-1.094217300415039,-0.5119335651397705
1773257937543948000,2.900947998046875,-0.17733430862426758,-1.1104854345321655,-0.3315795361995697
1773257937553963000,2.910962890625,-0.022340459749102592,-0.8749565482139587,-0.2659696340560913
1773257937563978000,2.92097802734375,0.22510315477848053,-0.6669434309005737,-0.28687384724617004
1773257937573992700,2.93099267578125,0.29079747200012207,-0.7385355830192566,-0.39282476902008057
1773257937584009000,2.941009033203125,0.18851399421691895,-0.5918833017349243,-0.3322029709815979
1773257937594023200,2.951023193359375,0.004197674337774515,-0.34503862261772156,-0.0738462582230568
1773257937604038100,2.9610380859375,-0.29877153038978577,-0.36814579367637634,0.22882625460624695
1773257937614053400,2.971053466796875,-0.6430791020393372,-0.7295825481414795,0.4626017212867737
1773257937624069000,2.981069091796875,-0.9162358045578003,-1.1932862997055054,0.6161982417106628
1773257937634084400,2.99108447265625,-1.0662524700164795,-1.3856765031814575,0.8171108365058899
1773257937644099300,3.001099365234375,-1.1056758165359497,-1.3052443265914917,1.0632675886154175
1773257937654114300,3.0111142578125,-0.9079288840293884,-1.3962974548339844,1.0062978267669678
1773257937664129300,3.02112939453125,0.19566243886947632,-1.5443990230560303,0.19886329770088196
1773257937674145300,3.031145263671875,1.1751900911331177,-2.378436326980591,0.17609113454818726
1773257937684160300,3.04116015625,1.825422763824463,-2.7218167781829834,-0.01389957033097744
1773257937694175200,3.05117529296875,2.22674560546875,-2.5207393169403076,-0.3808077871799469
1773257937704190200,3.061190185546875,2.280045986175537,-2.4457104206085205,-0.5589935183525085
1773257937714206200,3.071206298828125,2.2232580184936523,-2.556030035018921,-0.6735150218009949
1773257937724221200,3.08122119140625,2.1317670345306396,-2.9946627616882324,-0.6224318742752075
1773257937734236200,3.091236083984375,2.1512246131896973,-3.605466365814209,-0.5120867490768433
1773257937744251100,3.101251220703125,2.36128306388855,-3.473789691925049,-0.40209099650382996
1773257937754267100,3.11126708984375,2.5083396434783936,-2.4404048919677734,-0.29246994853019714
1773257937764282000,3.1212822265625,2.4947469234466553,-1.195863962173462,-0.13137373328208923
1773257937774297300,3.13129736328125,2.3232929706573486,-0.4993695914745331,0.06889145076274872
1773257937784312300,3.141312255859375,2.028686285018921,-0.25499632954597473,0.15722957253456116
1773257937794328300,3.151328369140625,2.091667890548706,-0.40555575489997864,0.2949661314487457
1773257937804343300,3.16134326171875,2.5934977531433105,-0.11161334812641144,0.7226418256759644
1773257937814358300,3.171358154296875,2.6282012462615967,0.7194691896438599,1.3007230758666992
1773257937824373200,3.181373291015625,2.2065250873565674,2.0956082344055176,2.023796796798706
1773257937834389200,3.19138916015625,1.9266241788864136,3.3831207752227783,2.6583261489868164
1773257937844404200,3.201404296875,2.388511896133423,3.9689414501190186,2.915621042251587
1773257937854419200,3.211419189453125,1.2802009582519531,2.867722272872925,1.619648814201355
1773257937864434200,3.22143408203125,-0.9269142746925354,0.050278082489967346,-0.7764206528663635
1773257937874450200,3.2314501953125,-0.9123646020889282,-1.483715534210205,-1.209456443786621
1773257937884465200,3.241465087890625,0.312319278717041,-1.3727830648422241,-0.9346323609352112
1773257937894480100,3.251480224609375,1.01585853099823,-0.6606703400611877,-0.8798524737358093
1773257937904495400,3.261495361328125,1.1614199876785278,-0.13546861708164215,-0.8829590678215027
1773257937914510300,3.27151025390625,1.160057544708252,0.07765058428049088,-0.8832749128341675
1773257937924526300,3.2815263671875,1.3968697786331177,-0.24867425858974457,-1.1729978322982788
1773257937934541300,3.291541259765625,1.630785584449768,-0.27794134616851807,-1.111648678779602
1773257937944556300,3.301556396484375,1.2006886005401611,0.86851567029953,-0.2663946747779846
1773257937954571300,3.3115712890625,0.6928218603134155,1.516316533088684,0.3268822431564331
1773257937964587300,3.321587158203125,0.36993223428726196,1.3146121501922607,0.36701875925064087
1773257937974602200,3.331602294921875,0.05529041960835457,0.9880836009979248,0.047988831996917725
1773257937984617200,3.3416171875,-0.21076735854148865,0.7894376516342163,-0.1564047932624817
1773257937994632200,3.351632080078125,-0.3510856032371521,0.39483386278152466,-0.29162439703941345
1773257938004648200,3.361648193359375,-0.3555559813976288,-0.03380723297595978,-0.3138812184333801
1773257938014663200,3.3716630859375,-0.3479691445827484,-0.59900963306427,-0.24500229954719543
1773257938024678100,3.38167822265625,-0.3739730715751648,-1.4444479942321777,-0.14709436893463135
1773257938034693000,3.391693115234375,-0.4002890884876251,-2.4326674938201904,-0.06501122564077377
1773257938044709000,3.401709228515625,-0.3826640248298645,-3.423370599746704,-0.03844539448618889
1773257938054724000,3.41172412109375,-0.3305819034576416,-4.406791687011719,-0.06075176224112511
1773257938064739300,3.4217392578125,-0.3096475899219513,-5.080964088439941,-0.0025031049735844135
1773257938074754300,3.43175439453125,-0.31236109137535095,-5.4032769203186035,-0.22779880464076996
1773257938084770300,3.441770263671875,-0.38677382469177246,-4.913504600524902,-0.30457401275634766
1773257938094785300,3.451785400390625,-0.4182973802089691,-3.062285900115967,-0.10666918754577637
1773257938104800300,3.46180029296875,-0.14166125655174255,-1.0164726972579956,-0.060263339430093765
1773257938114815200,3.471815185546875,0.07113489508628845,0.6518558263778687,-0.10303743183612823
1773257938124831200,3.481831298828125,0.08770029246807098,1.0408354997634888,-0.06215498223900795
1773257938134846200,3.49184619140625,0.07500393688678741,0.8471944332122803,0.06735613942146301
1773257938144861200,3.501861083984375,0.05336921662092209,0.7526045441627502,0.08575192093849182
1773257938154876200,3.511876220703125,0.030179474502801895,0.5031877756118774,-0.010091516189277172
1773257938164892200,3.52189208984375,-0.01356614287942648,0.09284045547246933,-0.05602891370654106
1773257938174907100,3.5319072265625,-0.042981553822755814,-0.2280275672674179,-0.022936740890145302
1773257938184922000,3.541922119140625,-0.02130741998553276,-0.3470407724380493,-0.017299894243478775
1773257938194937300,3.551937255859375,0.004166515544056892,-0.3092856705188751,0.01695980876684189
1773257938204953000,3.561953125,0.0059838565066456795,-0.1518358737230301,0.01666020229458809
1773257938214968300,3.57196826171875,-0.003043726785108447,0.02142433263361454,-0.0038871499709784985
1773257938224983300,3.5819833984375,0.002192846732214093,0.12551504373550415,-0.006870422977954149
1773257938234998300,3.591998291015625,0.008156463503837585,0.11918577551841736,-0.009305085055530071
1773257938245014300,3.60201416015625,-0.0028152274899184704,0.0038107172586023808,-0.0026642263401299715
1773257938255029200,3.612029296875,-0.077705979347229,-0.25205034017562866,-0.025684325024485588
1773257938265044200,3.622044189453125,-0.12270807474851608,-0.3604505956172943,-0.0014450311427935958
1773257938275059200,3.63205908203125,-0.06412039697170258,-0.1923111230134964,0.004159324802458286
1773257938285075200,3.6420751953125,0.02346671000123024,0.006601443514227867,0.026617495343089104
1773257938295090200,3.652090087890625,0.06387245655059814,0.1951894611120224,0.02797197923064232
1773257938305105200,3.662105224609375,0.05191699415445328,0.17096908390522003,-0.013319533318281174
1773257938315120000,3.6721201171875,0.012675581499934196,0.04711904376745224,0.035590216517448425
1773257938325136100,3.68213623046875,0.037391845136880875,-0.03395317494869232,0.012780776247382164
1773257938335151000,3.692151123046875,-0.0411389134824276,0.008731706067919731,-0.020059728994965553
1773257938345166000,3.702166015625,-0.0076155755668878555,-0.05838954076170921,-0.06727171689271927
1773257938355181300,3.712181396484375,0.014968030154705048,-0.07794380187988281,0.030108634382486343
1773257938365197000,3.722197021484375,-0.01318131573498249,-0.1158621534705162,0.013921141624450684
1773257938375212300,3.73221240234375,-0.10654375702142715,-1.9179049730300903,0.07533124089241028
1773257938385227300,3.742227294921875,-0.3525431454181671,-2.9647886753082275,0.3487531840801239
1773257938395242200,3.7522421875,-0.5767149925231934,-2.8043291568756104,-0.15910017490386963
1773257938405258500,3.762258544921875,-0.635550856590271,-1.9609923362731934,-0.4190412163734436
1773257938415273200,3.772273193359375,-0.3854595422744751,-0.9622418880462646,-0.273611843585968
1773257938425288200,3.7822880859375,-0.1369466632604599,-0.20640483498573303,-0.04554245248436928
1773257938435303200,3.79230322265625,-0.12678298354148865,0.1918405443429947,-0.054240334779024124
1773257938445319400,3.8023193359375,-0.04569451883435249,0.5130459666252136,-0.12861444056034088
1773257938455334100,3.812334228515625,0.04514244571328163,0.6333454847335815,-0.017422134056687355
1773257938465349000,3.82234912109375,0.06294567883014679,0.8499707579612732,0.08441128581762314
1773257938475364000,3.832364013671875,0.14635054767131805,1.0289785861968994,0.16309331357479095
1773257938485380400,3.84238037109375,0.20396219193935394,1.061043620109558,0.18407902121543884
1773257938495395000,3.85239501953125,0.19817380607128143,0.8871530294418335,0.053592655807733536
1773257938505410300,3.862410400390625,0.15149392187595367,0.5514442324638367,-0.033972613513469696
1773257938515425300,3.87242529296875,0.17827600240707397,-0.33832770586013794,-0.2471272349357605
1773257938525441500,3.882441650390625,-0.10273730009794235,-1.138179898262024,-0.4546303451061249
1773257938535456500,3.89245654296875,-0.23051363229751587,-1.037379503250122,-0.1482808142900467
1773257938545471200,3.90247119140625,-0.14413879811763763,-0.7481362819671631,-0.02412104792892933
1773257938555486200,3.912486328125,-0.057382598519325256,-0.17507967352867126,-0.029442843049764633
1773257938565502500,3.92250244140625,0.013880928047001362,0.369629442691803,0.007788947317749262
1773257938575517400,3.932517333984375,0.06409270316362381,0.612080991268158,0.06920836865901947
1773257938585532200,3.9425322265625,0.06866481155157089,0.3943353295326233,0.026734141632914543
1773257938595547600,3.952547607421875,0.053287457674741745,0.14727254211902618,0.0890960544347763
1773257938605563600,3.962563720703125,0.015091334469616413,-0.09230010211467743,0.012297146022319794
1773257938615578600,3.97257861328125,-0.052921805530786514,-0.34138023853302,-0.09993831813335419
1773257938625593600,3.982593505859375,-0.032108135521411896,-0.1217232421040535,-0.026448119431734085
1773257938635608600,3.992608642578125,0.04665272310376167,0.207376629114151,0.06730446964502335
1773257938645624600,4.00262451171875,0.2524072229862213,0.18404759466648102,-0.002805373864248395
1773257938655639600,4.0126396484375,0.4051158130168915,0.13458390533924103,-0.09738833457231522
1773257938665654800,4.02265478515625,0.4326763153076172,0.2555049955844879,0.1528920829296112
1773257938675669800,4.032669677734375,0.48869964480400085,0.2642665505409241,0.07849640399217606
1773257938685685800,4.042685791015625,0.7281764149665833,0.2158670425415039,-0.10438313335180283
1773257938695700700,4.05270068359375,0.8476980328559875,0.30977943539619446,-0.32306432723999023
1773257938705715700,4.0627158203125,0.8267282843589783,-0.019896475598216057,-0.30702200531959534
1773257938715730700,4.072730712890625,0.7744296789169312,-0.17417366802692413,0.2173541635274887
1773257938725746700,4.08274658203125,0.7040375471115112,-0.041247040033340454,0.5200114846229553
1773257938735761700,4.09276171875,0.5371081829071045,0.4632622003555298,0.5842658281326294
1773257938745776600,4.102776611328125,0.5876222252845764,0.8698110580444336,0.5989515781402588
1773257938755791600,4.11279150390625,0.9117976427078247,0.8848698735237122,0.47705337405204773
1773257938765807600,4.1228076171875,1.5287349224090576,1.176590919494629,0.5584909915924072
1773257938775822600,4.132822509765625,2.0664076805114746,1.704613208770752,0.6022541522979736
1773257938785837600,4.142837646484375,2.3504016399383545,2.2207891941070557,0.3070712685585022
1773257938795852500,4.1528525390625,2.4189579486846924,2.570343017578125,-0.17871995270252228
1773257938805868500,4.16286865234375,2.3893885612487793,2.860834836959839,-0.376840740442276
1773257938815883500,4.172883544921875,2.3219969272613525,2.915227174758911,-0.4128836989402771
1773257938825898800,4.182898681640625,2.1425538063049316,2.6408374309539795,-0.4737989902496338
1773257938835913700,4.192913818359375,1.813388705253601,2.135906219482422,-0.6545267105102539
1773257938845929700,4.2029296875,1.4427379369735718,1.2017061710357666,-0.6585128903388977
1773257938855944700,4.21294482421875,0.8759158253669739,0.9468442797660828,-0.05644383281469345
1773257938865959700,4.222959716796875,0.17091715335845947,0.8260446786880493,0.51593416929245
1773257938875974700,4.232974609375,-0.5908329486846924,0.6686049699783325,0.7874133586883545
1773257938885990700,4.24299072265625,-1.2560160160064697,0.415690153837204,0.8215612173080444
1773257938896005600,4.253005615234375,-1.3952207565307617,0.1655799150466919,0.6966219544410706
1773257938906020600,4.2630205078125,-1.2496081590652466,0.04663461446762085,0.4908381700515747
1773257938916035600,4.27303564453125,-0.9859504103660583,0.2644857168197632,0.2986431419849396
1773257938926051600,4.283051513671875,-0.8007965683937073,0.7396490573883057,0.11323601007461548
1773257938936066600,4.293066650390625,-0.6880170106887817,1.1829159259796143,0.011843076907098293
1773257938946081500,4.30308154296875,-0.6343982815742493,1.494064211845398,0.043173834681510925
1773257938956096800,4.3130966796875,-0.568519115447998,1.4606176614761353,0.11370472609996796
1773257938966112500,4.323112548828125,-0.58989417552948,1.1540107727050781,0.2053169310092926
1773257938976127700,4.333127685546875,-0.7382884621620178,0.6067162752151489,0.29754406213760376
1773257938986142700,4.343142822265625,-0.8776186108589172,-0.10764257609844208,0.2752174437046051
1773257938996157700,4.35315771484375,-1.009213924407959,-0.7432331442832947,0.23539254069328308
1773257939006173700,4.363173583984375,-1.1206421852111816,-1.3878004550933838,0.1051328107714653
1773257939016188700,4.373188720703125,-1.20027494430542,-1.9985846281051636,-0.06643122434616089
1773257939026203600,4.38320361328125,-1.1616472005844116,-2.7422897815704346,-0.20396298170089722
1773257939036218600,4.393218505859375,-0.9835258722305298,-3.613483428955078,-0.2672218382358551
1773257939046234600,4.403234619140625,-0.7291167974472046,-4.404661655426025,-0.37166810035705566
1773257939056249600,4.41324951171875,-0.5782684087753296,-4.8432769775390625,-0.29935023188591003
1773257939066264600,4.4232646484375,-0.5885452628135681,-4.52283239364624,-0.09117171913385391
1773257939076279600,4.433279541015625,-0.5487832427024841,-3.60931658744812,-0.06536595523357391
1773257939086294500,4.44329443359375,-0.18341723084449768,-2.373664379119873,-0.11242880672216415
1773257939096310500,4.453310546875,-0.21333731710910797,-1.0470480918884277,-0.1026611328125
1773257939106325500,4.463325439453125,-0.26770493388175964,0.28442320227622986,-0.1628328561782837
1773257939116340700,4.4733408203125,-0.2821560502052307,0.7478228211402893,-0.22945688664913177
1773257939126355700,4.483355712890625,-0.1277310699224472,0.5812934637069702,-0.17024549841880798
1773257939136371700,4.493371826171875,0.006844324059784412,0.2932230830192566,0.025011610239744186
1773257939146386700,4.50338671875,-0.004310592543333769,0.3073650002479553,0.05627712234854698
1773257939156401700,4.513401611328125,0.13880129158496857,0.2910478115081787,-0.01347426325082779
1773257939166416600,4.523416748046875,0.2676506042480469,0.10839731246232986,-0.0723559558391571
1773257939176432600,4.5334326171875,0.2572941184043884,-0.12461516261100769,-0.1064944863319397
1773257939186447600,4.543447509765625,0.12132029980421066,-0.3320258855819702,-0.054541803896427155
1773257939196462600,4.553462646484375,0.03581631928682327,-0.35229039192199707,-0.0030178942251950502
1773257939206477600,4.5634775390625,0.11564271152019501,-0.291095495223999,0.054783355444669724
1773257939216493600,4.57349365234375,0.1935012936592102,-0.19294948875904083,0.07687347382307053
1773257939226508500,4.583508544921875,0.23105478286743164,-0.24425607919692993,0.040830519050359726
1773257939236523500,4.5935234375,0.37091654539108276,-0.33500996232032776,0.06221650168299675
1773257939246538800,4.603538818359375,0.45398402214050293,-0.39260798692703247,0.07658611983060837
1773257939256554500,4.613554443359375,0.4829597473144531,-0.3078685998916626,0.053590524941682816
1773257939266569700,4.62356982421875,0.46897149085998535,-0.23725329339504242,0.07249017804861069
1773257939276584700,4.633584716796875,0.4902578592300415,-0.212849959731102,0.11523871123790741
1773257939286599700,4.643599609375,0.48026806116104126,-0.12171898037195206,0.1798352748155594
1773257939296615700,4.65361572265625,0.5033164024353027,-0.07503350079059601,0.24813763797283173
1773257939306630700,4.663630615234375,0.5438126921653748,-0.14626772701740265,0.2556735873222351
1773257939316645600,4.673645751953125,0.5296210050582886,-0.14678704738616943,0.2567231357097626
1773257939326660600,4.68366064453125,0.5001733303070068,-0.28800541162490845,0.3156474232673645
1773257939336676600,4.693676513671875,0.43701407313346863,-0.6647369861602783,0.5103828310966492
1773257939346691600,4.703691650390625,0.3482658267021179,-0.882775068283081,0.7866021990776062
1773257939356706600,4.71370654296875,0.2693561017513275,-0.8010897636413574,0.7728032469749451
1773257939366721500,4.723721435546875,0.25565972924232483,-0.6789151430130005,0.6977325081825256
1773257939376737800,4.73373779296875,0.2628236413002014,-0.6720787882804871,0.6203207969665527
1773257939386752500,4.74375244140625,0.29355838894844055,-0.8528693318367004,0.14477156102657318
1773257939396767700,4.753767822265625,0.4476643204689026,-0.5506895184516907,0.03170706331729889
1773257939406782700,4.76378271484375,0.6263731122016907,0.12981818616390228,0.05837542563676834
1773257939416798700,4.773798828125,0.8353409767150879,0.23494486510753632,0.011654258705675602
1773257939426813700,4.783813720703125,0.8950996398925781,0.18871904909610748,-0.02688993699848652
1773257939436828700,4.79382861328125,0.8615671992301941,-0.005629922728985548,-0.037757497280836105
1773257939446843600,4.80384375,0.732161819934845,-0.06131582334637642,-0.04958859086036682
1773257939456860000,4.81385986328125,0.5814194679260254,0.1470128893852234,-0.16567978262901306
1773257939466874600,4.82387451171875,0.4398583471775055,0.36486583948135376,-0.30253350734710693
1773257939476889600,4.8338896484375,0.2577875852584839,0.20171794295310974,-0.3696534037590027
1773257939486904600,4.843904541015625,0.014914766885340214,-0.3512650728225708,-0.23346148431301117
1773257939496920800,4.8539208984375,-0.09524955600500107,-0.6386920809745789,-0.015420501120388508
1773257939506935800,4.863935791015625,-0.08720973879098892,-0.5851428508758545,0.13750220835208893
1773257939516950500,4.873950439453125,-0.08409330248832703,-0.4098415672779083,0.3601304888725281
1773257939526965500,4.883965576171875,-0.13997574150562286,-0.2164372354745865,0.5015310049057007
1773257939536981800,4.893981689453125,-0.21965965628623962,-0.16751815378665924,0.6422540545463562
1773257939546996700,4.903996826171875,-0.3414308428764343,-0.15426041185855865,0.7874059081077576
1773257939557011700,4.91401171875,-0.4720524847507477,-0.20802590250968933,0.916865885257721
1773257939567026700,4.924026611328125,-0.5808945298194885,-0.16906385123729706,1.061813235282898
1773257939577041700,4.934041748046875,-0.5527755618095398,0.02028130367398262,1.1916660070419312
1773257939587058000,4.944057861328125,-0.43231573700904846,0.2121732383966446,1.227168083190918
1773257939597072400,4.954072265625,-0.2191869467496872,0.4959530234336853,1.2846335172653198
1773257939607087400,4.96408740234375,-0.01991778239607811,0.8164442181587219,1.5406908988952637
1773257939617102300,4.974102294921875,0.10861382633447647,1.3892624378204346,1.5932585000991821
1773257939627118300,4.984118408203125,0.27509576082229614,1.9642208814620972,1.28274405002594
1773257939637133300,4.99413330078125,0.5331858992576599,2.383025646209717,1.0004633665084839
1773257939647148300,5.004148193359375,0.8452063798904419,2.682569742202759,0.6603140234947205
1773257939657163300,5.014163330078125,1.0597999095916748,3.1149380207061768,0.25477850437164307
1773257939667179500,5.024179443359375,0.97709059715271,3.6503820419311523,-0.03857402503490448
1773257939677194200,5.0341943359375,0.7502023577690125,3.8382749557495117,-0.15280473232269287
1773257939687209500,5.04420947265625,0.5244610905647278,2.9219970703125,-0.1463415026664734
1773257939697224400,5.054224365234375,0.25662460923194885,1.199742317199707,0.0019329222850501537
1773257939707240700,5.06424072265625,-0.006202502176165581,-0.46361586451530457,0.17735187709331512
1773257939717255400,5.07425537109375,-0.23958170413970947,-1.4508882761001587,0.17565970122814178
1773257939727270400,5.0842705078125,-0.3667779862880707,-1.7107208967208862,0.06520776450634003
1773257939737285400,5.094285400390625,-0.38913124799728394,-1.6930170059204102,-0.05886571481823921
1773257939747301600,5.104301513671875,-0.40679919719696045,-1.525138020515442,-0.10723218321800232
1773257939757316400,5.11431640625,-0.35266536474227905,-0.9824214577674866,-0.2174052894115448
1773257939767331300,5.124331298828125,-0.4106583595275879,-0.1580711305141449,-0.23373419046401978
1773257939777346300,5.13434619140625,-0.5559420585632324,-0.08802732825279236,0.023676566779613495
1773257939787362600,5.144362548828125,-0.5478937029838562,-0.6421091556549072,0.3965508043766022
1773257939797377300,5.154377197265625,-0.4242194592952728,-0.8932162523269653,0.4019903242588043
1773257939807392300,5.164392333984375,-1.0270994901657104,-0.8435813188552856,-0.11233186721801758
1773257939817407500,5.174407470703125,-1.5570669174194336,0.49090129137039185,-1.3406656980514526
1773257939827423500,5.184423583984375,-1.4859002828598022,1.124942660331726,-1.2842340469360352
1773257939837438500,5.1944384765625,-0.8671433329582214,0.9272311925888062,-0.5854501724243164
1773257939847453400,5.204453369140625,-0.062071092426776886,0.3860214650630951,-0.357334166765213
1773257939857468400,5.214468505859375,0.5515073537826538,-0.22098538279533386,-0.935080885887146
1773257939867484700,5.224484619140625,0.6915504932403564,-0.9306075572967529,-1.7032134532928467
1773257939877499600,5.234499755859375,0.6447206735610962,-1.5981000661849976,-2.1531319618225098
1773257939887514400,5.244514404296875,0.6576790809631348,-2.2008183002471924,-2.138946294784546
1773257939897529300,5.254529296875,0.6551405787467957,-2.4492437839508057,-1.792466640472412
1773257939907545600,5.264545654296875,0.58368980884552,-2.6551225185394287,-1.44644296169281
1773257939917560600,5.274560546875,0.5218091011047363,-3.1000704765319824,-0.6685759425163269
1773257939927575300,5.2845751953125,0.48425084352493286,-3.6064629554748535,0.6437478065490723
1773257939937590300,5.29459033203125,0.3642767667770386,-3.784764289855957,1.5066474676132202
1773257939947606500,5.3046064453125,0.37179434299468994,-3.931211471557617,1.5581427812576294
1773257939957621500,5.31462158203125,0.37225693464279175,-4.065822124481201,1.0435689687728882
1773257939967636500,5.324636474609375,0.2682751417160034,-4.348476886749268,0.680224597454071
1773257939977651500,5.3346513671875,0.05708965286612511,-4.793179512023926,0.6322094202041626
1773257939987667500,5.34466748046875,-0.09328494220972061,-5.246616840362549,0.8765685558319092
1773257939997682700,5.3546826171875,-0.1931433528661728,-5.496415138244629,1.4962059259414673
1773257940007697700,5.36469775390625,-0.43555787205696106,-5.607843399047852,2.471329927444458
1773257940017712400,5.37471240234375,-0.7397201657295227,-5.276610374450684,3.496290683746338
1773257940027728600,5.384728759765625,-0.9324118494987488,-4.790373802185059,4.062439918518066
1773257940037743600,5.39474365234375,-0.09801045060157776,-2.4429376125335693,2.440629482269287
1773257940047758600,5.404758544921875,1.1838581562042236,0.9136719703674316,0.24168799817562103
1773257940057773300,5.414773193359375,0.9641292691230774,2.8491334915161133,1.4777404069900513
1773257940067789600,5.42478955078125,0.8242810964584351,3.123623847961426,3.4561750888824463
1773257940077804500,5.434804443359375,1.3543851375579834,3.7157604694366455,3.976635456085205
1773257940087819500,5.444819580078125,1.5179767608642578,4.879730224609375,3.966402292251587
1773257940097834200,5.454834228515625,1.2787437438964844,6.219747543334961,4.050830841064453
1773257940107849500,5.464849365234375,1.0593535900115967,7.296365737915039,4.285754680633545
1773257940117865500,5.474865478515625,0.6830158829689026,7.773960113525391,4.29782247543335
1773257940127880400,5.48488037109375,0.36848509311676025,7.411685943603516,3.849573850631714
1773257940137895700,5.494895751953125,0.25566214323043823,6.057163238525391,3.139167547225952
1773257940147910400,5.504910400390625,0.12568709254264832,4.683642864227295,2.622589111328125
1773257940157926700,5.5149267578125,0.08762945234775543,4.023987293243408,2.515078067779541
1773257940167941600,5.524941650390625,-0.028988242149353027,4.046891689300537,2.440687894821167
1773257940177956600,5.53495654296875,-0.30346640944480896,1.583849549293518,1.8014506101608276
1773257940187971300,5.544971435546875,-0.5950809717178345,0.4504625201225281,1.3588051795959473
1773257940197987600,5.554987548828125,-0.8272433280944824,-0.47019413113594055,1.1043615341186523
1773257940208002600,5.56500244140625,-0.8465238213539124,-0.10654455423355103,1.0533640384674072
1773257940218017500,5.575017578125,-0.48888924717903137,1.047003984451294,1.0298582315444946
1773257940228033500,5.585033447265625,0.15389928221702576,2.502545118331909,0.8609368801116943
1773257940238048500,5.595048583984375,0.4635588824748993,3.804028034210205,0.6249432563781738
1773257940248063500,5.6050634765625,0.5178425908088684,4.8335957527160645,0.2655688226222992
1773257940258078500,5.615078369140625,0.7199379205703735,7.425051689147949,0.02671363577246666
1773257940268094500,5.625094482421875,0.5654814839363098,3.7796225547790527,0.5899224281311035
1773257940278109400,5.635109375,0.5770582556724548,-0.5284603834152222,0.22507067024707794
1773257940288124700,5.645124755859375,0.37847405672073364,-4.5174126625061035,-0.7335679531097412
1773257940298139600,5.6551396484375,-0.09645649790763855,-7.412927627563477,-1.7606714963912964
1773257940308155600,5.66515576171875,-0.3850531578063965,-8.53976821899414,-2.4550580978393555
1773257940318170600,5.675170654296875,-0.5869649648666382,-7.806813716888428,-2.963993549346924
1773257940328185600,5.685185546875,-0.862092137336731,-5.882062911987305,-3.5051138401031494
1773257940338200600,5.69520068359375,-1.0611083507537842,-4.016148090362549,-3.8890981674194336
1773257940348216600,5.705216552734375,-1.1019556522369385,-2.7692322731018066,-3.4320976734161377
1773257940358231600,5.7152314453125,-1.107764720916748,-1.9998952150344849,-2.626607894897461
1773257940368246500,5.72524658203125,-1.0059880018234253,-1.8923923969268799,-2.382800340652466
1773257940378261500,5.735261474609375,-0.7786055207252502,-1.684350609779358,-2.4414761066436768
1773257940388277500,5.745277587890625,-0.5479584336280823,-2.02377986907959,-2.3736584186553955
1773257940398292500,5.75529248046875,-0.30065569281578064,-2.1028189659118652,-2.4943997859954834
1773257940408307500,5.765307373046875,-0.20185589790344238,-1.8412203788757324,-2.7098464965820312
1773257940418322700,5.77532275390625,-0.24177081882953644,-1.7595361471176147,-2.7110135555267334
1773257940428338400,5.78533837890625,-0.3277357816696167,-1.9440194368362427,-2.429875135421753
1773257940438353700,5.795353759765625,-0.4756733179092407,-2.070039749145508,-2.1429812908172607
1773257940448368600,5.80536865234375,-0.5551226139068604,-1.9506901502609253,-1.8296632766723633
1773257940458383600,5.815383544921875,-0.5274254679679871,-1.8236775398254395,-1.5465167760849
1773257940468399600,5.825399658203125,-0.34248465299606323,-1.9141416549682617,-1.4287643432617188
1773257940478414600,5.83541455078125,-0.07369446009397507,-2.0026049613952637,-1.3864994049072266
1773257940488429600,5.8454296875,0.16883216798305511,-1.893796443939209,-1.3447579145431519
1773257940498445600,5.855445556640625,0.361814945936203,-1.6364834308624268,-1.2927063703536987
1773257940508460500,5.86546044921875,0.509573221206665,-1.3047350645065308,-1.2667189836502075
1773257940518475500,5.8754755859375,0.5825510621070862,-1.0419820547103882,-1.2829821109771729
1773257940528490500,5.885490478515625,0.5968125462532043,-0.8716984391212463,-1.32427179813385
1773257940538506500,5.895506591796875,0.5908928513526917,-0.7153194546699524,-1.3756576776504517
1773257940548521500,5.905521484375,0.5827350616455078,-0.46874645352363586,-1.4373266696929932
1773257940558536400,5.915536376953125,0.6124777793884277,-0.0757746547460556,-1.4899587631225586
1773257940568551400,5.925551513671875,0.6570433974266052,0.27451011538505554,-1.4803918600082397
1773257940578567400,5.9355673828125,0.7194694876670837,0.37872734665870667,-1.4846150875091553
1773257940588582400,5.94558251953125,0.7973719835281372,0.4284437596797943,-1.4577538967132568
1773257940598598000,5.955597900390625,0.7975049018859863,0.6656808257102966,-1.334899663925171
1773257940608612900,5.96561279296875,0.7630366683006287,0.9669389128684998,-1.144058346748352
1773257940618628900,5.97562890625,0.7698575258255005,1.2133407592773438,-0.9881795048713684
1773257940628643800,5.985643798828125,0.8221343159675598,1.419999122619629,-0.9077946543693542
1773257940638658800,5.995658935546875,0.8401133418083191,1.3130239248275757,-0.8849979639053345
1773257940648674800,6.0056748046875,0.8092768788337708,0.8742406964302063,-0.8808006048202515
1773257940658689800,6.015689697265625,0.7561425566673279,0.4596850275993347,-0.8843018412590027
1773257940668704800,6.025704833984375,0.6696385145187378,0.14903555810451508,-0.8822820782661438
1773257940678719700,6.0357197265625,0.5177968144416809,-0.06430654972791672,-0.7708168029785156
1773257940688735700,6.04573583984375,0.35195669531822205,-0.1795029193162918,-0.6956022381782532
1773257940698750700,6.055750732421875,0.21359138190746307,-0.20696783065795898,-0.5911014080047607
1773257940708765700,6.065765625,0.10629208385944366,-0.1520151048898697,-0.4755348265171051
1773257940718780700,6.07578076171875,0.009489108808338642,-0.03520965203642845,-0.39619821310043335
1773257940728796700,6.085796630859375,-0.07249417155981064,0.16323259472846985,-0.35652029514312744
1773257940738811600,6.095811767578125,-0.15756964683532715,0.34197998046875,-0.3682882785797119
1773257940748826600,6.10582666015625,-0.23730948567390442,0.4554854929447174,-0.3938639461994171
1773257940758841900,6.115841796875,-0.24069969356060028,0.5744180083274841,-0.3659396469593048
1773257940768857600,6.125857666015625,-0.29873237013816833,0.6694046854972839,-0.26572248339653015
1773257940778872800,6.135872802734375,-0.3871309459209442,0.7247042059898376,-0.10739117115736008
1773257940788887800,6.1458876953125,-0.4461497962474823,0.735602080821991,0.028966937214136124
1773257940798902800,6.15590283203125,-0.3948463797569275,0.5985446572303772,0.08014410734176636
1773257940808918800,6.165918701171875,-0.24969452619552612,0.4955751299858093,0.032045017927885056
1773257940818933800,6.175933837890625,-0.11457984149456024,0.6038779020309448,-0.01197809912264347
1773257940828948700,6.18594873046875,-0.011388742364943027,0.6649274230003357,-0.047978177666664124
1773257940838963700,6.195963623046875,0.06332997232675552,0.7031735777854919,-0.07148350775241852
1773257940848979700,6.205979736328125,0.11618439853191376,0.6937241554260254,-0.08916422724723816
1773257940858994700,6.21599462890625,0.1703871786594391,0.6060329079627991,-0.143532395362854
1773257940869009700,6.226009765625,0.20986348390579224,0.523241400718689,-0.17526529729366302
1773257940879025700,6.236025634765625,0.24499563872814178,0.35509151220321655,-0.19316387176513672
1773257940889040600,6.24604052734375,0.2618507742881775,0.19189806282520294,-0.3994842767715454
1773257940899055600,6.2560556640625,0.2309594452381134,-0.05980740860104561,-0.9511733055114746
1773257940909070800,6.26607080078125,0.18806737661361694,-0.30518707633018494,-1.3775030374526978
1773257940919086600,6.276086669921875,0.15595871210098267,-0.4336201548576355,-1.603119134902954
1773257940929101800,6.286101806640625,0.15759575366973877,-0.5164521932601929,-1.7846033573150635
1773257940939116800,6.29611669921875,0.16340596973896027,-0.5532482862472534,-1.9051170349121094
1773257940949131800,6.3061318359375,0.1665666103363037,-0.561504065990448,-2.0075936317443848
1773257940959147800,6.316147705078125,0.161799818277359,-0.5488620400428772,-2.101438045501709
1773257940969162800,6.326162841796875,0.18091465532779694,-0.5320287346839905,-2.1183323860168457
1773257940979177700,6.336177734375,0.21412773430347443,-0.520039975643158,-2.0439982414245605
1773257940989192700,6.346192626953125,0.23464259505271912,-0.5296132564544678,-1.9331337213516235
1773257940999208700,6.356208740234375,0.22285518050193787,-0.5445898175239563,-1.7987911701202393
1773257941009223700,6.3662236328125,0.19350501894950867,-0.5325533747673035,-1.626532793045044
1773257941019238700,6.37623876953125,0.13758689165115356,-0.5111575722694397,-1.4409469366073608
1773257941029253600,6.386253662109375,0.0699511244893074,-0.5007509589195251,-1.2478126287460327
1773257941039269600,6.39626953125,-0.0011795139871537685,-0.5143352150917053,-1.0442105531692505
1773257941049284600,6.40628466796875,-0.09603199362754822,-0.5702645182609558,-0.815531313419342
1773257941059299600,6.416299560546875,-0.187429279088974,-0.724530816078186,-0.5613677501678467
1773257941069315800,6.42631591796875,-0.27088555693626404,-0.9689623713493347,-0.33025646209716797
1773257941079330600,6.43633056640625,-0.3377556800842285,-1.1519771814346313,-0.12330994755029678
1773257941089345800,6.446345703125,-0.38690218329429626,-1.1984198093414307,0.09374513477087021
1773257941099360800,6.45636083984375,-0.42589643597602844,-1.1565001010894775,0.3049468696117401
1773257941109375700,6.466375732421875,-0.44113558530807495,-1.038025140762329,0.5123556852340698
1773257941119392000,6.47639208984375,-0.46549180150032043,-0.7820984721183777,0.6992603540420532
1773257941129406700,6.48640673828125,-0.4329948425292969,-0.43607771396636963,0.8341337442398071
1773257941139421700,6.496421630859375,-0.333839476108551,-0.10075537115335464,0.9323804378509521
1773257941149438000,6.50643798828125,-0.19817326962947845,0.1948525756597519,0.9775614738464355
1773257941159453000,6.516452880859375,-0.05221420153975487,0.3868427872657776,0.9461483955383301
1773257941169467600,6.526467529296875,0.052687712013721466,0.1802946776151657,0.8118055462837219
1773257941179482600,6.536482666015625,0.11045966297388077,-0.06582934409379959,0.6656621694564819
1773257941189499000,6.546498779296875,0.1069011464715004,-0.21429312229156494,0.559328556060791
1773257941199513900,6.556513916015625,0.04464443400502205,-0.3745554983615875,0.4772981107234955
1773257941209528600,6.566528564453125,-0.023153789341449738,-0.5311456322669983,0.38635969161987305
1773257941219543800,6.576543701171875,-0.12175066769123077,-0.6575341820716858,0.3029870390892029
1773257941229559800,6.586559814453125,-0.21562284231185913,-0.7353283166885376,0.258526086807251
1773257941239574800,6.59657470703125,-0.3170522451400757,-0.8386741876602173,0.25068414211273193
1773257941249589800,6.60658984375,-0.40045180916786194,-1.0026092529296875,0.2338513731956482
1773257941259604700,6.616604736328125,-0.45569294691085815,-1.1819883584976196,0.18171440064907074
1773257941269621000,6.62662109375,-0.46429044008255005,-1.3108704090118408,0.08998741209506989
1773257941279636000,6.636635986328125,-0.4511919617652893,-1.2812504768371582,-0.0010388991795480251
1773257941289651000,6.64665087890625,-0.40896621346473694,-1.1040587425231934,-0.07856005430221558
1773257941299665700,6.656665771484375,-0.3339492082595825,-0.7849006652832031,-0.15133678913116455
1773257941309682000,6.666681884765625,-0.24227042496204376,-0.3546755313873291,-0.2513800263404846
1773257941319697000,6.67669677734375,-0.15216663479804993,0.23047155141830444,-0.373965859413147
1773257941329711900,6.6867119140625,-0.08746246993541718,0.7795136570930481,-0.5475656390190125
1773257941339726600,6.6967265625,-0.04940882697701454,1.0766701698303223,-0.7752752304077148
1773257941349742800,6.706742919921875,-0.004102599807083607,1.1329395771026611,-0.9712409973144531
1773257941359757800,6.7167578125,0.015779761597514153,1.0960266590118408,-1.0215259790420532
1773257941369772800,6.726772705078125,0.033678602427244186,1.093130111694336,-0.9834547638893127
1773257941379787800,6.736787841796875,0.03773912414908409,1.040358066558838,-0.833105206489563
1773257941389803800,6.7468037109375,0.028540298342704773,1.079577088356018,-0.6327982544898987
1773257941399819000,6.756819091796875,0.027472637593746185,1.1359326839447021,-0.5108270645141602
1773257941409834000,6.766833984375,0.04294506832957268,1.0719475746154785,-0.4470166563987732
1773257941419849000,6.776848876953125,0.12601518630981445,1.096701979637146,-0.33011478185653687
1773257941429865000,6.786864990234375,0.24635571241378784,1.1196470260620117,-0.1742706000804901
1773257941439880000,6.7968798828125,0.3841460645198822,1.0244735479354858,0.01625114120543003
1773257941449895000,6.80689501953125,0.514136016368866,0.6291779279708862,0.23216532170772552
1773257941459910000,6.816909912109375,0.6997966766357422,0.20171794295310974,0.4331572949886322
1773257941469926000,6.82692578125,0.9419445991516113,0.17325752973556519,0.6181780099868774
1773257941479940900,6.83694091796875,1.1634820699691772,0.5076970458030701,0.7809624075889587
1773257941489955800,6.846955810546875,1.2668439149856567,0.6530435681343079,0.9135121703147888
1773257941499971800,6.856971923828125,1.2870365381240845,0.3861793875694275,1.047991394996643
1773257941509986800,6.86698681640625,1.3324748277664185,0.1453779637813568,1.1748145818710327
1773257941520001800,6.877001708984375,1.415157437324524,-0.0038181741256266832,1.2792949676513672
1773257941530017000,6.88701708984375,1.46415376663208,-0.0950293093919754,1.3574970960617065
1773257941540032800,6.89703271484375,1.4477345943450928,-0.11365199834108353,1.4163790941238403
1773257941550048000,6.907048095703125,1.345664143562317,0.01302392315119505,1.4591413736343384
1773257941560063000,6.91706298828125,1.197497010231018,0.33208367228507996,1.4860835075378418
1773257941570078000,6.927077880859375,1.0377646684646606,0.706305205821991,1.4726436138153076
1773257941580094000,6.937093994140625,0.8775861263275146,0.896693766117096,1.3940284252166748
1773257941590109000,6.94710888671875,0.7386668920516968,0.7812420129776001,1.257490634918213
1773257941600124000,6.9571240234375,0.6561035513877869,0.5902478098869324,1.0723340511322021
1773257941610139000,6.967138916015625,0.6041748523712158,0.44925716519355774,0.9139766097068787
1773257941620155000,6.97715478515625,0.5567055940628052,0.26110056042671204,0.7946653962135315
1773257941630169900,6.987169921875,0.4861619174480438,0.15285612642765045,0.7378745675086975
1773257941640184800,6.997184814453125,0.41992804408073425,0.09823602437973022,0.7221505045890808
1773257941650199800,7.00719970703125,0.35593947768211365,0.07005178928375244,0.687256932258606
1773257941660215800,7.0172158203125,0.31728580594062805,0.09269185364246368,0.5810948014259338
1773257941670230800,7.027230712890625,0.3443374037742615,0.20119063556194305,0.41256067156791687
1773257941680245800,7.037245849609375,0.4544029235839844,0.4243358373641968,0.2123522013425827
1773257941690261000,7.047260986328125,0.612903356552124,0.5659611225128174,0.042990610003471375
1773257941700276700,7.05727685546875,0.7815783619880676,0.5782255530357361,-0.08760841190814972
1773257941710292000,7.0672919921875,0.9328387379646301,0.4568101465702057,-0.16856558620929718
1773257941720307000,7.077306884765625,1.033053994178772,0.4004736542701721,-0.1908208131790161
1773257941730322000,7.087322021484375,1.1125915050506592,0.2806098163127899,-0.20636488497257233
1773257941740338000,7.097337890625,1.1468194723129272,0.13124190270900726,-0.212908536195755
1773257941750353000,7.107352783203125,1.1563903093338013,-0.07378740608692169,-0.20248866081237793
1773257941760367900,7.117367919921875,1.147727608680725,-0.21287178993225098,-0.17830263078212738
1773257941770382800,7.1273828125,1.1101990938186646,-0.30972909927368164,-0.1266263872385025
1773257941780398800,7.13739892578125,1.0360636711120605,-0.2660071849822998,-0.06324874609708786
1773257941790413800,7.147413818359375,0.9809327721595764,-0.13126933574676514,0.012264389544725418
1773257941800428800,7.1574287109375,0.8971664905548096,-0.055639561265707016,0.11878896504640579
1773257941810443800,7.16744384765625,0.8504629135131836,-0.08024610579013824,0.23769645392894745
1773257941820459800,7.177459716796875,0.8577548861503601,-0.15422126650810242,0.3724555969238281
1773257941830474800,7.187474853515625,0.8948330283164978,-0.16875307261943817,0.4872591495513916
1773257941840490000,7.197489990234375,0.9598399996757507,-0.19512075185775757,0.5650908350944519
1773257941850505000,7.2075048828125,1.0345467329025269,-0.2388879507780075,0.6218957901000977
1773257941860521000,7.21752099609375,1.1056853532791138,-0.22630290687084198,0.6708433628082275
1773257941870536000,7.227535888671875,1.1704950332641602,-0.12006036192178726,0.7115976810455322
1773257941880551000,7.237551025390625,1.2229962348937988,0.07200867682695389,0.7393568754196167
1773257941890566000,7.24756591796875,1.2475085258483887,0.377249538898468,0.7464366555213928
1773257941900582000,7.257581787109375,1.204295039176941,0.6546292304992676,0.7252016663551331
1773257941910596900,7.267596923828125,1.0787261724472046,0.9747132062911987,0.6947745084762573
1773257941920611800,7.27761181640625,0.7084032297134399,1.1880393028259277,0.7098701000213623
1773257941930626800,7.287626708984375,-0.07749026268720627,0.09859129041433334,0.4484741985797882
1773257941940642800,7.297642822265625,-1.3831896781921387,-0.6511300802230835,-0.2827374339103699
1773257941950657800,7.30765771484375,-2.3604328632354736,-0.19811628758907318,-0.6281992197036743
1773257941960672800,7.3176728515625,-2.3779735565185547,-0.21854539215564728,-0.4926973283290863
1773257941970687700,7.327687744140625,-2.038513422012329,-0.3828166127204895,-0.15604153275489807
1773257941980703700,7.337703857421875,-1.6046708822250366,-0.4294850528240204,0.07274637371301651
1773257941990718700,7.34771875,-1.0856506824493408,-0.5556240677833557,0.37059536576271057
1773257942000734000,7.35773388671875,-0.5536144375801086,-0.6970512270927429,0.7618824243545532
1773257942010749700,7.367749755859375,-0.12868021428585052,-0.7764451503753662,1.0171256065368652
1773257942020765000,7.377764892578125,0.25742781162261963,-0.685756266117096,1.1403822898864746
1773257942030780000,7.38777978515625,0.3319302797317505,-0.13428111374378204,0.781609833240509
1773257942040795000,7.397794921875,0.21442441642284393,-0.0353715717792511,0.5143669247627258
1773257942050811000,7.407810791015625,0.1632552295923233,0.09789779782295227,0.6504651308059692
1773257942060825900,7.417825927734375,0.19899912178516388,0.23751242458820343,0.7895606756210327
1773257942070840800,7.4278408203125,0.18547745048999786,0.4626682996749878,0.7469778060913086
1773257942080855800,7.437855712890625,0.1905321329832077,0.4873635470867157,0.4853011965751648
1773257942090871800,7.447871826171875,0.19909019768238068,0.46690407395362854,0.2617514431476593
1773257942100886800,7.45788671875,0.22459396719932556,0.43339723348617554,0.12809590995311737
1773257942110901800,7.46790185546875,0.2524450421333313,0.45143163204193115,0.06403490900993347
1773257942120916700,7.477916748046875,0.23433420062065125,0.3339143395423889,0.04002651199698448
1773257942130932700,7.4879326171875,0.23503807187080383,0.265846312046051,-0.009706157259643078
1773257942140947700,7.49794775390625,0.22438916563987732,0.3874603807926178,-0.006928479764610529
1773257942150963000,7.507962890625,0.2108810842037201,0.5578928589820862,0.038308240473270416
1773257942160978000,7.51797802734375,0.19423338770866394,0.6473507881164551,0.060799699276685715
1773257942170994000,7.527993896484375,0.1661524921655655,0.6314674615859985,0.05752348154783249
1773257942181009000,7.5380087890625,0.11182720214128494,0.46974167227745056,0.11555296182632446
1773257942191023900,7.54802392578125,0.06803444772958755,0.1687738448381424,0.2589889466762543
1773257942201038800,7.558038818359375,0.04609745368361473,-0.23747007548809052,0.43676507472991943
1773257942211055000,7.56805517578125,0.04916408285498619,-0.4956803321838379,0.657595694065094
1773257942221069800,7.57806982421875,0.0968402624130249,-0.7526769638061523,0.8300963640213013
1773257942231084800,7.588084716796875,0.13382305204868317,-0.8578702211380005,0.891832709312439
1773257942241099800,7.598099853515625,0.15171656012535095,-0.9693182110786438,0.8905836939811707
1773257942251116000,7.608115966796875,0.16279317438602448,-1.0485490560531616,0.8771294355392456
1773257942261130800,7.618130859375,0.18872784078121185,-0.954362154006958,0.8627747297286987
1773257942271145700,7.628145751953125,0.26120975613594055,-0.8414452075958252,0.8610801100730896
1773257942281160700,7.63816064453125,0.3702925741672516,-0.7674263715744019,0.8415868878364563
1773257942291177000,7.648177001953125,0.47192493081092834,-0.6247613430023193,0.8955105543136597
1773257942301191700,7.658191650390625,0.4908392131328583,-0.5333707332611084,0.9006879925727844
1773257942311207000,7.66820703125,0.5482058525085449,-0.391109436750412,0.8243215680122375
1773257942321222000,7.678221923828125,0.615529477596283,-0.5120568871498108,0.7631099224090576
1773257942331238100,7.688238037109375,0.6443043947219849,-0.7860104441642761,0.7528554201126099
1773257942341253000,7.698253173828125,0.6583459377288818,-1.2648440599441528,0.7637429237365723
1773257942351267800,7.708267822265625,0.6682672500610352,-1.6421469449996948,0.752334475517273
1773257942361282800,7.71828271484375,0.6928969621658325,-1.5761452913284302,0.6828528642654419
1773257942371299000,7.728299072265625,0.7294152975082397,-1.4159489870071411,0.5346959233283997
1773257942381314000,7.73831396484375,0.7613500952720642,-1.319189429283142,0.35206669569015503
1773257942391328800,7.748328857421875,0.7516779899597168,-1.2658158540725708,0.2074570506811142
1773257942401343700,7.75834375,0.7287032008171082,-1.1999362707138062,0.09838861972093582
1773257942411360000,7.768360107421875,0.7205320596694946,-1.0571924448013306,-0.006296245381236076
1773257942421375000,7.778375,0.7178875803947449,-0.9178126454353333,-0.15103985369205475
1773257942431389700,7.7883896484375,0.6879962086677551,-0.9425704479217529,-0.29727989435195923
1773257942441405000,7.798405029296875,0.6656235456466675,-1.0265811681747437,-0.3997545838356018
1773257942451421000,7.8084208984375,0.6350345015525818,-0.9534547924995422,-0.48386281728744507
1773257942461436200,7.818436279296875,0.665799617767334,-0.8431506752967834,-0.5512914061546326
1773257942471451100,7.828451171875,0.7090213894844055,-0.5953150391578674,-0.6303728818893433
1773257942481465900,7.8384658203125,0.7892885208129883,-0.5604177713394165,-0.7190045118331909
1773257942491482000,7.848482177734375,0.8189904689788818,-0.7251036763191223,-0.7397878170013428
1773257942501497000,7.8584970703125,0.6977279782295227,-0.7712498307228088,-0.7421577572822571
1773257942511512000,7.868511962890625,0.5408925414085388,-0.6429728269577026,-0.7787327766418457
1773257942521526800,7.87852685546875,0.38274523615837097,-0.5069462656974792,-0.798206627368927
1773257942531543000,7.88854296875,0.22357343137264252,-0.4753611981868744,-0.7744783759117126
1773257942541558000,7.89855810546875,0.09546713531017303,-0.5339611172676086,-0.7467751502990723
1773257942551573000,7.908572998046875,0.08125437796115875,-0.6514701843261719,-0.7226548790931702
1773257942561587700,7.918587646484375,0.05313725396990776,-0.7696290612220764,-0.7460755109786987
1773257942571604000,7.92860400390625,0.025667013600468636,-0.7870775461196899,-0.8826115131378174
1773257942581619000,7.938618896484375,0.025897111743688583,-0.6810251474380493,-1.0429705381393433
1773257942591634000,7.948634033203125,0.11483816802501678,-0.5184192061424255,-1.1415506601333618
1773257942601648600,7.958648681640625,0.09131766110658646,-0.211172953248024,-1.1788450479507446
1773257942611664600,7.96866455078125,-0.010004697367548943,-0.058461979031562805,-1.2219829559326172
1773257942621679600,7.9786796875,-0.13930489122867584,0.09498536586761475,-1.2877057790756226
1773257942631694600,7.988694580078125,-0.31513264775276184,0.2323400378227234,-1.3538298606872559
1773257942641709600,7.99870947265625,-0.5546442866325378,0.25215208530426025,-1.3743858337402344
1773257942651725600,8.0087255859375,-0.8117620944976807,0.10331999510526657,-1.3298194408416748
1773257942661740500,8.018740478515625,-1.0827525854110718,-0.10386274755001068,-1.2250906229019165
1773257942671755500,8.028755615234376,-1.3505510091781616,-0.2799901068210602,-1.0674729347229004
1773257942681770500,8.0387705078125,-1.5695656538009644,-0.46187761425971985,-0.9075368642807007
1773257942691786500,8.048786376953124,-1.6936748027801514,-0.59064781665802,-0.7571183443069458
1773257942701801500,8.058801513671876,-1.755721926689148,-0.67589271068573,-0.5924627780914307
1773257942711816400,8.06881640625,-1.7555605173110962,-0.5916270613670349,-0.3994946777820587
1773257942721831700,8.078831787109374,-1.7746623754501343,-0.44668135046958923,-0.16423101723194122
1773257942731847400,8.088847412109375,-1.7797452211380005,-0.3039311170578003,0.057202570140361786
1773257942741862700,8.098862548828125,-1.7866181135177612,-0.20961448550224304,0.25936684012413025
1773257942751877600,8.108877685546876,-1.8214820623397827,-0.20942085981369019,0.4445745348930359
1773257942761892600,8.118892578125,-1.8658397197723389,-0.28351134061813354,0.6137113571166992
1773257942771908600,8.12890869140625,-1.9006383419036865,-0.4207512140274048,0.7721832990646362
1773257942781923600,8.138923583984376,-1.9307150840759277,-0.6160874366760254,0.9281513094902039
1773257942791938600,8.1489384765625,-1.955285668373108,-0.8065873384475708,1.0307778120040894
1773257942801953500,8.15895361328125,-2.0048861503601074,-0.9926072955131531,1.1012098789215088
1773257942811969500,8.168969482421875,-2.0318331718444824,-1.1545530557632446,1.1350280046463013
1773257942821984500,8.178984619140625,-2.0455102920532227,-1.3031635284423828,1.1497657299041748
1773257942831999500,8.18899951171875,-2.0381383895874023,-1.363680124282837,1.158557415008545
1773257942842014500,8.199014404296875,-2.037020206451416,-1.3258113861083984,1.1752727031707764
1773257942852030500,8.209030517578125,-2.0533804893493652,-1.2003471851348877,1.1815627813339233
1773257942862045400,8.21904541015625,-2.0781168937683105,-1.0249478816986084,1.1517974138259888
1773257942872060400,8.229060302734375,-2.0923731327056885,-0.8542147874832153,1.0803672075271606
1773257942882075600,8.23907568359375,-2.095529794692993,-0.7118003964424133,1.0192548036575317
1773257942892091400,8.24909130859375,-2.099932909011841,-0.5752595663070679,0.93180251121521
1773257942902106600,8.259106689453125,-2.001378297805786,-0.5873652100563049,0.8485904335975647
1773257942912121600,8.26912158203125,-1.7512099742889404,-0.9406229257583618,0.7988694906234741
1773257942922136600,8.279136474609375,-1.4714598655700684,-1.2753143310546875,0.8436657190322876
1773257942932152600,8.289152587890625,-1.2299282550811768,-1.5049078464508057,0.8584627509117126
1773257942942167600,8.29916748046875,-1.0586906671524048,-1.5659288167953491,0.8060062527656555
1773257942952182500,8.3091826171875,-0.9267257452011108,-1.5132930278778076,0.7197813391685486
1773257942962197500,8.319197509765624,-0.813150942325592,-1.379806399345398,0.6260979771614075
1773257942972213500,8.329213623046876,-0.7438051700592041,-1.184350848197937,0.5465648174285889
1773257942982228500,8.339228515625,-0.6936628818511963,-0.9062327146530151,0.4575134813785553
1773257942992243500,8.349243408203124,-0.6666259765625,-0.6363514065742493,0.32105979323387146
1773257943002258400,8.359258544921875,-0.6681937575340271,-0.4564588963985443,0.19383151829242706
1773257943012274400,8.3692744140625,-0.6545568108558655,-0.397013396024704,0.11723261326551437
1773257943022289400,8.379289306640626,-0.5668570399284363,-0.4259406626224518,0.07829693704843521
1773257943032304600,8.3893046875,-0.40808576345443726,-0.4655972421169281,0.03700409084558487
1773257943042319600,8.399319580078124,-0.19839617609977722,-0.4194374680519104,-0.04592195153236389
1773257943052335600,8.409335693359376,0.04571902006864548,-0.30447280406951904,-0.13558898866176605
1773257943062350600,8.4193505859375,0.31427645683288574,-0.1934962272644043,-0.22802677750587463
1773257943072365600,8.429365478515624,0.605130672454834,-0.03183489665389061,-0.33688482642173767
1773257943082381600,8.439381591796876,0.9343157410621643,0.3167100250720978,-0.512116014957428
1773257943092396500,8.449396484375,1.2641119956970215,0.6449704766273499,-0.6216566562652588
1773257943102411500,8.45941162109375,1.6040397882461548,0.9467923641204834,-0.7222042679786682
1773257943112426500,8.469426513671875,1.8675222396850586,1.1877408027648926,-0.8509518504142761
1773257943122442500,8.4794423828125,2.1181604862213135,1.3208839893341064,-0.9878149032592773
1773257943132457500,8.48945751953125,2.3678524494171143,1.2736793756484985,-1.0812069177627563
1773257943142472400,8.499472412109375,2.5337469577789307,1.2721278667449951,-1.1389729976654053
1773257943152487400,8.5094873046875,2.645268440246582,1.336928129196167,-1.2233818769454956
1773257943162503400,8.51950341796875,2.737586736679077,1.3663880825042725,-1.3293226957321167
1773257943172518400,8.529518310546875,2.8073232173919678,1.3116459846496582,-1.4187867641448975
1773257943182533400,8.539533447265624,2.8491439819335938,1.251724362373352,-1.4730955362319946
1773257943192548600,8.549548583984375,2.9868719577789307,1.3652468919754028,-1.4668371677398682
1773257943202564400,8.559564453125,3.1532647609710693,1.605918049812317,-1.4874154329299927
1773257943212579600,8.56957958984375,3.2768397331237793,1.5646241903305054,-1.559656023979187
1773257943222594600,8.579594482421875,3.3229129314422607,1.5583205223083496,-1.5645089149475098
1773257943232609500,8.589609619140624,3.3053011894226074,1.577731728553772,-1.5926233530044556
1773257943242625500,8.59962548828125,3.2704243659973145,1.5215829610824585,-1.5851653814315796
1773257943252640500,8.609640625,3.2170982360839844,1.3431410789489746,-1.5447723865509033
1773257943262655500,8.619655517578124,3.1309876441955566,1.2198760509490967,-1.441212773323059
1773257943272671500,8.62967138671875,2.9989562034606934,0.9918104410171509,-1.363520860671997
1773257943282686500,8.6396865234375,2.8007075786590576,0.8454958200454712,-1.2016161680221558
1773257943292701400,8.649701416015626,2.554537057876587,0.8188719749450684,-0.9943556189537048
1773257943302716400,8.65971630859375,2.317072629928589,0.6209317445755005,-0.7632776498794556
1773257943312732400,8.669732421875,2.1211321353912354,0.3523290157318115,-0.5030303597450256
1773257943322747400,8.679747314453126,1.9482653141021729,0.25545066595077515,-0.2576533854007721
1773257943332762400,8.689762451171875,1.833633303642273,0.2700408101081848,-0.06022578850388527
1773257943342777600,8.699777587890624,1.7868542671203613,0.24029143154621124,0.07193490862846375
1773257943352793300,8.70979345703125,1.7963868379592896,0.18946394324302673,0.15916728973388672
1773257943362808600,8.71980859375,1.8180888891220093,0.18212826550006866,0.20149369537830353
1773257943372823600,8.729823486328126,1.838873028755188,0.23519520461559296,0.18364599347114563
1773257943382838500,8.739838623046875,1.8020052909851074,0.31927573680877686,0.11600782722234726
1773257943392854500,8.7498544921875,1.7458914518356323,0.4756384491920471,-0.04601649194955826
1773257943402869500,8.759869384765626,1.7301217317581177,0.6253679990768433,-0.17699368298053741
1773257943412884500,8.769884521484375,1.726949691772461,0.6494067907333374,-0.24603480100631714
1773257943422900500,8.779900390625,1.7033005952835083,0.6979026794433594,-0.2651267349720001
1773257943432915500,8.78991552734375,1.626227617263794,0.7468363642692566,-0.1937686651945114
1773257943442930400,8.799930419921875,1.6130510568618774,0.7501791715621948,-0.10149946063756943
1773257943452945400,8.8099453125,1.794030785560608,0.6372294425964355,0.0011608719360083342
1773257943462961400,8.81996142578125,2.067748785018921,0.4200665354728699,0.16047649085521698
1773257943472976400,8.829976318359375,2.326902151107788,0.22456759214401245,0.38574743270874023
1773257943482991400,8.839991455078126,2.4597671031951904,0.1467452347278595,0.6500152945518494
1773257943493006600,8.850006591796875,2.5112380981445312,0.1497759073972702,0.8993593454360962
1773257943503022300,8.860022216796875,2.57513689994812,0.09804560989141464,1.1055690050125122
1773257943513037600,8.87003759765625,2.6418819427490234,0.10785190016031265,1.2775084972381592
1773257943523052500,8.880052490234375,2.6753764152526855,0.24848677217960358,1.4160655736923218
1773257943533068500,8.890068603515624,2.659963369369507,0.39462748169898987,1.515641689300537
1773257943543083800,8.900083740234376,2.620062828063965,0.4680747985839844,1.5549193620681763
1773257943553098500,8.910098388671875,2.565561294555664,0.4763343334197998,1.5442978143692017
1773257943563113500,8.920113525390626,2.5027732849121094,0.5015600323677063,1.509588599205017
1773257943573129700,8.930129638671875,2.446321487426758,0.5576605796813965,1.4465880393981934
1773257943583144700,8.940144775390625,2.404850959777832,0.6100583076477051,1.3431354761123657
1773257943593159400,8.950159423828126,2.383423089981079,0.6070308089256287,1.216322898864746
1773257943603174700,8.960174560546875,2.3649165630340576,0.5979646444320679,1.1013715267181396
1773257943613191000,8.97019091796875,2.3347175121307373,0.5985627770423889,1.0073736906051636
1773257943623206000,8.980205810546876,2.286729097366333,0.618286669254303,0.9358891248703003
1773257943633220900,8.990220947265625,2.2173514366149902,0.6568750739097595,0.8869529962539673
1773257943643235600,9.000235595703124,2.138751745223999,0.6932490468025208,0.8628034591674805
1773257943653251800,9.010251953125,2.0646605491638184,0.7006654143333435,0.86538165807724
1773257943663266800,9.020266845703125,1.9849114418029785,0.6875056624412537,0.88010573387146
1773257943673281800,9.03028173828125,1.8884462118148804,0.726988673210144,0.8868153095245361
1773257943683297800,9.0402978515625,1.7564481496810913,0.770781397819519,0.905046820640564
1773257943693312800,9.050312744140625,1.6128079891204834,0.7334569096565247,0.9894317388534546
1773257943703328000,9.060327880859376,1.5270272493362427,0.6646326184272766,1.0570472478866577
1773257943713343000,9.070343017578125,1.5246673822402954,0.5360881686210632,1.0673595666885376
1773257943723359000,9.08035888671875,1.4821494817733765,0.5908931493759155,0.9268562197685242
1773257943733374000,9.0903740234375,1.4025639295578003,0.7565262913703918,0.7387166619300842
1773257943743389000,9.100388916015625,1.3423939943313599,0.9097166657447815,0.5790641903877258
1773257943753404000,9.11040380859375,1.3449493646621704,0.9719022512435913,0.503140389919281
1773257943763420000,9.120419921875,1.3701348304748535,0.9703589677810669,0.4641658067703247
1773257943773435000,9.130434814453125,1.3451533317565918,0.9291278719902039,0.3874925971031189
1773257943783449900,9.140449951171876,1.274512767791748,0.884198784828186,0.23482689261436462
1773257943793465900,9.1504658203125,1.2112677097320557,0.7847760319709778,0.1082734763622284
1773257943803480800,9.160480712890624,1.146842122077942,0.6417863965034485,0.013190103694796562
1773257943813495800,9.170495849609376,1.0788649320602417,0.5004854798316956,-0.07701116055250168
1773257943823510800,9.1805107421875,0.9879938960075378,0.3952690362930298,-0.18812063336372375
1773257943833526800,9.19052685546875,0.9236353635787964,0.3569389581680298,-0.3676272928714752
1773257943843541800,9.200541748046875,0.95713210105896,0.289341539144516,-0.5238392353057861
1773257943853557000,9.210556884765625,1.0137876272201538,0.33011212944984436,-0.6452064514160156
1773257943863572000,9.220572021484376,1.0967432260513306,0.38777434825897217,-0.7861049771308899
1773257943873588000,9.230587890625,1.2338534593582153,0.38454127311706543,-0.9510260224342346
1773257943883603000,9.24060302734375,1.4386107921600342,0.4040167033672333,-1.0733261108398438
1773257943893618000,9.250617919921876,1.6260265111923218,0.35207441449165344,-1.1198134422302246
1773257943903634000,9.260634033203125,1.7437275648117065,0.21269042789936066,-1.0828157663345337
1773257943913649000,9.27064892578125,1.782163381576538,0.07973344624042511,-0.9375230073928833
1773257943923664000,9.280663818359375,1.7672406435012817,-0.051171306520700455,-0.7121202349662781
1773257943933678800,9.290678955078125,1.7392457723617554,-0.23759151995182037,-0.46406248211860657
1773257943943694800,9.30069482421875,1.725677251815796,-0.45077863335609436,-0.26100122928619385
1773257943953709800,9.310709716796875,1.7129806280136108,-0.626137375831604,-0.14290869235992432
1773257943963724800,9.320724853515625,1.6928646564483643,-0.7563214898109436,-0.12132349610328674
1773257943973739800,9.33073974609375,1.6605829000473022,-0.8360485434532166,-0.1932469606399536
1773257943983755800,9.340755859375,1.6319941282272339,-0.8048365712165833,-0.3129832148551941
1773257943993770800,9.350770751953124,1.6306098699569702,-0.6880654692649841,-0.4251537024974823
1773257944003785700,9.36078564453125,1.5944480895996094,-0.5876917243003845,-0.4901888966560364
1773257944013801000,9.370801025390625,1.5220588445663452,-0.5430299639701843,-0.5499927997589111
1773257944023816700,9.380816650390624,1.422074794769287,-0.5305386781692505,-0.6159974336624146
1773257944033832000,9.39083203125,1.2998346090316772,-0.5250927805900574,-0.6508211493492126
1773257944043847000,9.400846923828125,0.9781394004821777,-0.6179686784744263,-0.4845501780509949
1773257944053863000,9.41086279296875,0.5122947096824646,-0.693148136138916,-0.12705008685588837
1773257944063878000,9.4208779296875,0.13144004344940186,-0.6707171201705933,0.27393195033073425
1773257944073892900,9.430892822265625,-0.041667819023132324,-0.45867621898651123,0.5630074143409729
1773257944083907800,9.440907958984376,-0.006687996443361044,0.01076929084956646,0.6197250485420227
1773257944093923800,9.450923828125,0.19402113556861877,0.5764148235321045,0.4271995425224304
1773257944103938800,9.460938720703124,0.4170648753643036,0.9811663031578064,0.18465612828731537
1773257944113953800,9.470953857421875,0.5958130359649658,1.1841700077056885,-0.012460132129490376
1773257944123968800,9.48096875,0.6770743727684021,1.2003027200698853,-0.1249011904001236
1773257944133984800,9.49098486328125,0.7214924097061157,1.0010939836502075,-0.09800565987825394
1773257944143999700,9.500999755859375,0.8094041347503662,0.41402140259742737,0.2694213390350342
1773257944154014700,9.5110146484375,0.7711755633354187,0.4151274263858795,0.31368470191955566
1773257944164030000,9.521030029296876,0.7627378702163696,0.3896060883998871,0.28706878423690796
1773257944174045700,9.531045654296875,0.7376351356506348,0.3306751251220703,0.2353387475013733
1773257944184061000,9.54106103515625,0.7099950313568115,0.3569472134113312,0.14512363076210022
1773257944194076000,9.551075927734376,0.6784581542015076,0.3800767660140991,0.0943659171462059
1773257944204092000,9.561091796875,0.6345359683036804,0.39593055844306946,0.05115719512104988
1773257944214107000,9.57110693359375,0.6373966932296753,0.289641410112381,0.08824730664491653
1773257944224121900,9.581121826171875,0.6874859929084778,0.14685122668743134,0.21659834682941437
1773257944234136800,9.59113671875,0.7287308573722839,0.18711209297180176,0.2819342017173767
1773257944244152800,9.60115283203125,0.7732911705970764,0.26913267374038696,0.32842740416526794
1773257944254167800,9.611167724609375,0.8458308577537537,0.2546309530735016,0.39294329285621643
1773257944264182800,9.621182861328125,0.9513524770736694,0.15961389243602753,0.49361929297447205
1773257944274197800,9.63119775390625,1.0026756525039673,0.12324177473783493,0.5575830936431885
1773257944284213800,9.6412138671875,1.0015989542007446,0.039433691650629044,0.6222041845321655
1773257944294228700,9.651228759765624,0.9504233002662659,-0.019596338272094727,0.6865112781524658
1773257944304243700,9.66124365234375,0.9138794541358948,-0.0714813768863678,0.6824787259101868
1773257944314259700,9.671259765625,0.8676403164863586,-0.16458681225776672,0.640403687953949
1773257944324274700,9.681274658203124,0.7862187027931213,-0.2605666220188141,0.5964524745941162
1773257944334289700,9.69128955078125,0.6960570812225342,-0.3316597044467926,0.5622225999832153
1773257944344305000,9.701304931640625,0.6499913334846497,-0.41646698117256165,0.5234075784683228
1773257944354320600,9.711320556640626,0.6552926301956177,-0.6551885008811951,0.5085777640342712
1773257944364335900,9.7213359375,0.5986306667327881,-1.0797685384750366,0.5065957903862
1773257944374350800,9.731350830078124,0.5627421736717224,-1.5569214820861816,0.5285277366638184
1773257944384365800,9.74136572265625,0.4851376712322235,-2.133873462677002,0.4574091136455536
1773257944394381800,9.7513818359375,0.4011455476284027,-2.5783064365386963,0.3894859850406647
1773257944404396800,9.761396728515624,0.33573246002197266,-2.718557119369507,0.3871226906776428
1773257944414411800,9.771411865234375,0.29313281178474426,-2.537311315536499,0.4364931583404541
1773257944424426800,9.7814267578125,0.28601711988449097,-2.0263538360595703,0.5286539793014526
1773257944434442800,9.79144287109375,0.25382721424102783,-1.3892874717712402,0.657367467880249
1773257944444457700,9.801457763671875,0.2145373374223709,-0.8350179195404053,0.6161550879478455
1773257944454472700,9.81147265625,0.13475941121578217,-0.3642677068710327,0.5902872681617737
1773257944464488700,9.82148876953125,0.05348692834377289,0.07830572128295898,0.49174895882606506
1773257944474503700,9.831503662109375,-0.00224903947673738,0.5117918848991394,0.3747214078903198
1773257944484518700,9.8415185546875,0.04254932329058647,0.9602370858192444,0.3126199543476105
1773257944494534000,9.851533935546875,0.07923729717731476,1.1762274503707886,0.3071199953556061
1773257944504549600,9.861549560546875,0.09084654599428177,1.0888824462890625,0.19913333654403687
1773257944514564900,9.87156494140625,0.11507385969161987,0.9117763638496399,0.09116985648870468
1773257944524579800,9.881579833984375,0.11280537396669388,0.7204990386962891,0.03241519629955292
1773257944534594800,9.8915947265625,0.08964493125677109,0.5732874870300293,-0.033300697803497314
1773257944544610800,9.90161083984375,0.06981796026229858,0.46733683347702026,-0.09877824038267136
1773257944554625800,9.911625732421875,0.06635265797376633,0.3904638886451721,-0.13331039249897003
1773257944564640800,9.921640869140624,0.04977528005838394,0.29288408160209656,-0.15246917307376862
1773257944574655700,9.93165576171875,0.032641831785440445,0.1460629403591156,-0.16120193898677826
1773257944584671700,9.941671630859375,0.034742265939712524,-0.011239871382713318,-0.1477881222963333
1773257944594686700,9.951686767578124,0.0046445527113974094,-0.2000281661748886,-0.10625000298023224
1773257944604701200,9.961701171875,0.0016900419723242521,-0.42672470211982727,-0.06192595139145851
1773257944614716400,9.97171630859375,-0.016090020537376404,-0.6550087332725525,-0.038709577172994614
1773257944624732200,9.981732177734376,-0.03632258623838425,-0.7745010256767273,-0.04746818169951439
1773257944634747400,9.991747314453125,-0.011078749783337116,-0.6578630805015564,-0.04300445690751076
1773257944644762400,10.001762451171874,-0.021283185109496117,-0.4390745759010315,-0.0451914481818676
1773257944654778400,10.0117783203125,-0.015459650196135044,-0.18626920878887177,-0.06114591285586357
1773257944664793300,10.02179345703125,-0.029638852924108505,-0.014039386063814163,-0.04652782157063484
1773257944674808300,10.031808349609374,-0.0693495124578476,0.027465445920825005,-0.013470268808305264
1773257944684823300,10.0418232421875,-0.1016097143292427,0.024534370750188828,0.03178376331925392
1773257944694839300,10.05183935546875,-0.10786441713571548,0.08363710343837738,0.07525134086608887
1773257944704854300,10.061854248046876,-0.08900204300880432,0.18196101486682892,0.16814453899860382
1773257944714869200,10.071869140625,-0.09050220251083374,0.25724324584007263,0.290874719619751
1773257944724884200,10.08188427734375,-0.050636813044548035,0.25820890069007874,0.4252050817012787
1773257944734900200,10.091900146484376,0.017669808119535446,0.22150017321109772,0.5704677700996399
1773257944744915200,10.101915283203125,0.10234341770410538,0.1269851177930832,0.7379260063171387
1773257944754930200,10.11193017578125,0.1767478734254837,0.09937985241413116,0.9073464274406433
1773257944764945200,10.121945068359375,0.3008168339729309,0.20389772951602936,0.9762919545173645
1773257944774961200,10.131961181640625,0.3900316655635834,0.3416718542575836,1.046108365058899
1773257944784976100,10.14197607421875,0.4463830888271332,0.38484862446784973,1.1554869413375854
1773257944794991400,10.151991455078125,0.47793808579444885,0.4235779047012329,1.1717250347137451
1773257944805007000,10.162007080078125,0.48123693466186523,0.47553616762161255,1.1514917612075806
1773257944815022300,10.172022216796876,0.49028128385543823,0.5046027302742004,1.1257195472717285
1773257944825037300,10.182037353515625,0.47540462017059326,0.5094832181930542,1.0811197757720947
1773257944835052300,10.19205224609375,0.4364766478538513,0.5227851867675781,1.0163676738739014
1773257944845068300,10.202068359375,0.3969910144805908,0.49624332785606384,0.9484323263168335
1773257944855083300,10.212083251953125,0.39343783259391785,0.38612958788871765,0.9014195799827576
1773257944865098200,10.22209814453125,0.40042757987976074,0.3271171450614929,0.8579674363136292
1773257944875113200,10.23211328125,0.3891727924346924,0.3988160789012909,0.8178508877754211
1773257944885129200,10.242129150390625,0.37601223587989807,0.49157214164733887,0.8043625354766846
1773257944895144200,10.252144287109376,0.30001387000083923,0.5278803110122681,0.7157692909240723
1773257944905159200,10.2621591796875,0.1750842034816742,0.5982801914215088,0.5771080851554871
1773257944915174100,10.272174072265624,0.02900262363255024,0.5999505519866943,0.3704318702220917
1773257944925190100,10.282190185546876,-0.09478456526994705,0.5212647914886475,0.13654080033302307
1773257944935205000,10.292205078125,-0.1934589445590973,0.47661635279655457,-0.09953324496746063
1773257944945220400,10.302220458984374,-0.2895745635032654,0.38857969641685486,-0.28331267833709717
1773257944955236000,10.312236083984375,-0.37227556109428406,0.305667519569397,-0.3779070973396301
1773257944965251300,10.322251220703125,-0.4396977424621582,0.17409536242485046,-0.38095054030418396
1773257944975266300,10.332266357421876,-0.5020015835762024,0.023724770173430443,-0.33862385153770447
1773257944985281300,10.34228125,-0.5165131688117981,-0.10797573626041412,-0.275370329618454
1773257944995297300,10.35229736328125,-0.5128657221794128,-0.09772469848394394,-0.27863454818725586
1773257945005312300,10.362312255859376,-0.4687666893005371,-0.0503622405230999,-0.32309097051620483
1773257945015327200,10.3723271484375,-0.39086923003196716,-0.005408347584307194,-0.3893805146217346
1773257945025342200,10.38234228515625,-0.3028954267501831,0.011595402844250202,-0.4551568627357483
1773257945035358200,10.392358154296875,-0.221310555934906,-0.010996990837156773,-0.5198951363563538
1773257945045373200,10.402373291015625,-0.15720054507255554,-0.06357710808515549,-0.5743061304092407
1773257945055388200,10.41238818359375,-0.11185169965028763,-0.10516716539859772,-0.6079893112182617
1773257945065403100,10.422403076171875,-0.08221498131752014,-0.13364355266094208,-0.6315547823905945
1773257945075419100,10.432419189453125,-0.06220931187272072,-0.14288312196731567,-0.6479114294052124
1773257945085434000,10.44243408203125,-0.06126309186220169,-0.14629516005516052,-0.6723911762237549
1773257945095449000,10.452448974609375,-0.05819140002131462,-0.14862117171287537,-0.6919227838516235
1773257945105464300,10.46246435546875,-0.05218996852636337,-0.1523274928331375,-0.6916796565055847
1773257945115480000,10.47247998046875,-0.04356319084763527,-0.14536944031715393,-0.6477854251861572
1773257945125495300,10.482495361328125,-0.03826776146888733,-0.19261711835861206,-0.5906989574432373
1773257945135510300,10.49251025390625,-0.03879959508776665,-0.26847192645072937,-0.529293954372406
1773257945145526500,10.502526611328125,-0.046304114162921906,-0.33941054344177246,-0.46035057306289673
1773257945155541200,10.512541259765625,-0.05812215805053711,-0.4218015670776367,-0.3821873068809509
1773257945165556200,10.52255615234375,-0.06708582490682602,-0.4849965274333954,-0.3197984993457794
1773257945175571200,10.5325712890625,-0.06332597881555557,-0.49867185950279236,-0.2606299817562103
1773257945185587500,10.54258740234375,-0.04813264310359955,-0.48135918378829956,-0.19850030541419983
1773257945195602400,10.5526025390625,-0.023681094869971275,-0.47494813799858093,-0.1462285816669464
1773257945205617200,10.5626171875,-0.002552107209339738,-0.4921489655971527,-0.11571861058473587
1773257945215632100,10.572632080078124,0.022241922095417976,-0.5303040742874146,-0.08732105791568756
1773257945225648400,10.5826484375,0.0486956350505352,-0.555670440196991,-0.06935883313417435
1773257945235663400,10.592663330078125,0.06171795725822449,-0.491756409406662,-0.09564769268035889
1773257945245678000,10.602677978515626,0.10148002207279205,-0.32420283555984497,-0.13219265639781952
1773257945255693300,10.612693359375,0.14272412657737732,-0.05896558240056038,-0.14804218709468842
1773257945265709300,10.622709228515625,0.14070917665958405,0.1032845750451088,-0.16913948953151703
1773257945275724300,10.632724365234376,0.18902824819087982,0.2519749701023102,-0.1790565699338913
1773257945285739300,10.6427392578125,0.28092753887176514,0.34932443499565125,-0.1975945681333542
1773257945295754200,10.652754150390624,0.34297627210617065,0.37037885189056396,-0.19476096332073212
1773257945305770500,10.6627705078125,0.41780468821525574,0.372054785490036,-0.21343611180782318
1773257945315785500,10.672785400390625,0.4566112160682678,0.3962288200855255,-0.2142379879951477
1773257945325800400,10.682800537109374,0.4919351041316986,0.46113380789756775,-0.209733784198761
1773257945335816400,10.69281640625,0.5437687635421753,0.5546453595161438,-0.25605762004852295
1773257945345831400,10.70283154296875,0.5785805583000183,0.60722416639328,-0.28068411350250244
1773257945355846400,10.712846435546876,0.5521228313446045,0.6251040697097778,-0.2907354235649109
1773257945365861400,10.722861328125,0.5007267594337463,0.5926750302314758,-0.2675904333591461
1773257945375877400,10.73287744140625,0.4770895838737488,0.54685378074646,-0.2511768341064453
1773257945385892400,10.742892333984376,0.511283278465271,0.6062153577804565,-0.26042598485946655
1773257945395907300,10.7529072265625,0.547006368637085,0.6589219570159912,-0.24181395769119263
1773257945405922300,10.76292236328125,0.5867079496383667,0.6730393767356873,-0.22817830741405487
1773257945415938300,10.772938232421875,0.5854533314704895,0.6423073410987854,-0.2492140829563141
1773257945425953300,10.782953369140625,0.5565927028656006,0.526538074016571,-0.26525643467903137
1773257945435968500,10.792968505859376,0.5620843768119812,0.4652702212333679,-0.2878376543521881
1773257945445983500,10.8029833984375,0.5889942646026611,0.5092887878417969,-0.31169718503952026
1773257945455999500,10.81299951171875,0.618355929851532,0.6162823438644409,-0.3289051949977875
1773257945466014500,10.823014404296876,0.6413123607635498,0.7160031199455261,-0.35281479358673096
1773257945476029400,10.833029541015625,0.617842972278595,0.7734914422035217,-0.3043407201766968
1773257945486044400,10.84304443359375,0.5997254848480225,0.8121059536933899,-0.26228034496307373
1773257945496060400,10.853060302734375,0.5410044193267822,0.9921417236328125,-0.18184277415275574
1773257945506075400,10.863075439453125,0.49714770913124084,1.2151516675949097,-0.2534753978252411
1773257945516090400,10.87309033203125,0.5085878372192383,1.1556094884872437,-0.34290969371795654
1773257945526106400,10.8831064453125,0.5221593379974365,0.9865807890892029,-0.350465327501297
1773257945536121300,10.893121337890625,0.5389537811279297,0.8850661516189575,-0.37279409170150757
1773257945546136300,10.90313623046875,0.5583503842353821,0.946448802947998,-0.3346927762031555
1773257945556151300,10.9131513671875,0.5490431189537048,1.0783271789550781,-0.34061509370803833
1773257945566167300,10.923167236328124,0.5671611428260803,1.0285987854003906,-0.4340486526489258
1773257945576182300,10.933182373046876,0.6046536564826965,0.9014976024627686,-0.42444342374801636
1773257945586197500,10.943197509765625,0.5408587455749512,1.0434800386428833,-0.36743658781051636
1773257945596212500,10.95321240234375,0.5316396355628967,1.0600086450576782,-0.397382527589798
1773257945606229000,10.96322900390625,0.4946536719799042,0.9540934562683105,-0.46599113941192627
1773257945616244000,10.973243896484375,0.531535267829895,0.9145913124084473,-0.45087769627571106
1773257945626259200,10.98325927734375,0.5071931481361389,1.049929141998291,-0.4359506666660309
1773257945636274200,10.993274169921875,0.4563821852207184,1.1405943632125854,-0.4715243875980377
1773257945646290200,11.003290283203125,0.4154949486255646,1.1082375049591064,-0.5786052942276001
1773257945656305200,11.01330517578125,0.35921329259872437,1.059411883354187,-0.6759030818939209
1773257945666320100,11.023320068359375,0.29355278611183167,1.016440749168396,-0.7645837068557739
1773257945676335000,11.033335205078124,0.2373124212026596,0.9702510833740234,-0.8660045862197876
1773257945686351000,11.04335107421875,0.16521932184696198,0.8895453214645386,-0.9934844970703125
1773257945696366000,11.053365966796875,0.0701436698436737,0.7515230178833008,-1.132275104522705
1773257945706381000,11.063381103515624,-0.02490242011845112,0.7357792258262634,-1.2771638631820679
1773257945716397300,11.073397216796875,-0.11125195771455765,0.8053945302963257,-1.3776129484176636
1773257945726412000,11.083412109375,-0.21044005453586578,0.8628191947937012,-1.5045099258422852
1773257945736427000,11.093427001953126,-0.33505576848983765,0.8745525479316711,-1.6457709074020386
1773257945746442000,11.10344189453125,-0.445052832365036,0.8528664112091064,-1.7551648616790771
1773257945756458200,11.113458251953125,-0.4643325209617615,0.6701804995536804,-1.7764240503311157
1773257945766473200,11.12347314453125,-0.4161492884159088,0.36894023418426514,-1.7292128801345825
1773257945776488200,11.13348828125,-0.34660935401916504,0.09406018257141113,-1.6624850034713745
1773257945786503200,11.143503173828124,-0.2820095717906952,-0.09069102257490158,-1.5696433782577515
1773257945796519200,11.153519287109376,-0.2220969796180725,-0.11061785370111465,-1.500106930732727
1773257945806534400,11.163534423828125,-0.1728048026561737,-0.04940776154398918,-1.5171871185302734
1773257945816549000,11.173549072265626,-0.09292248636484146,-0.0026258768048137426,-1.5494097471237183
1773257945826564000,11.183564208984375,-0.045107558369636536,-0.06668581813573837,-1.586168646812439
1773257945836580400,11.193580322265625,-0.0905621200799942,-0.35601988434791565,-1.5351589918136597
1773257945846595300,11.20359521484375,-0.21067282557487488,-0.6601203680038452,-1.5236711502075195
1773257945856610000,11.213610107421875,-0.280264675617218,-0.8582790493965149,-1.6108989715576172
1773257945866626300,11.223626220703125,-0.2947903573513031,-0.908112108707428,-1.6915173530578613
1773257945876641300,11.233641357421876,-0.30098167061805725,-0.8519585132598877,-1.775352120399475
1773257945886656300,11.24365625,-0.30819085240364075,-0.7032130360603333,-1.8211160898208618
1773257945896671000,11.2536708984375,-0.287584125995636,-0.603411853313446,-1.8389670848846436
1773257945906687200,11.263687255859375,-0.27533116936683655,-0.5875540375709534,-1.8146231174468994
1773257945916702200,11.2737021484375,-0.2877010107040405,-0.7199781537055969,-1.8315911293029785
1773257945926717200,11.28371728515625,-0.31847330927848816,-0.931567370891571,-1.8401135206222534
1773257945936732400,11.293732421875,-0.3251456022262573,-1.1571218967437744,-1.814366340637207
1773257945946748200,11.303748046875,-0.23652571439743042,-1.3291101455688477,-1.7261523008346558
1773257945956763400,11.313763427734376,-0.04334188252687454,-1.3527367115020752,-1.5338209867477417
1773257945966778400,11.3237783203125,0.2177099585533142,-1.2337061166763306,-1.2709118127822876
1773257945976793300,11.33379345703125,0.4345804750919342,-1.0136417150497437,-1.1515545845031738
1773257945986809300,11.343809326171876,0.5485118627548218,-0.8044096827507019,-1.1046406030654907
1773257945996824300,11.35382421875,0.5822591781616211,-0.709518313407898,-1.1112953424453735
1773257946006839300,11.36383935546875,0.5844059586524963,-0.7267260551452637,-1.1287986040115356
1773257946016854300,11.373854248046875,0.5909879207611084,-0.7497259378433228,-1.1406086683273315
1773257946026870300,11.383870361328125,0.5875516533851624,-0.7086517214775085,-1.1218286752700806
1773257946036885200,11.39388525390625,0.561500072479248,-0.619401216506958,-1.0837414264678955
1773257946046900200,11.403900146484375,0.509277880191803,-0.5801685452461243,-1.0342141389846802
1773257946056916200,11.413916259765625,0.45838356018066406,-0.5818809866905212,-0.984627902507782
1773257946066931200,11.42393115234375,0.42461279034614563,-0.6022075414657593,-0.9405070543289185
1773257946076946200,11.4339462890625,0.41727951169013977,-0.6538736820220947,-0.9319782853126526
1773257946086961200,11.443961181640624,0.41529253125190735,-0.6601324081420898,-0.9235986471176147
1773257946096977200,11.45397705078125,0.4069203734397888,-0.6287733912467957,-0.9522596001625061
1773257946106992000,11.4639921875,0.4116285741329193,-0.5720832347869873,-0.972973108291626
1773257946117007400,11.47400732421875,0.40741971135139465,-0.5374000668525696,-0.9171274304389954
1773257946127022300,11.484022216796875,0.39513054490089417,-0.5337896347045898,-0.9859051704406738
1773257946137038300,11.494038330078125,0.3970283269882202,-0.507860004901886,-1.0604784488677979
1773257946147053300,11.50405322265625,0.4076303541660309,-0.4892594516277313,-1.0181539058685303
1773257946157068300,11.514068359375,0.3941672742366791,-0.5063103437423706,-1.051811695098877
1773257946167083300,11.524083251953124,0.36833247542381287,-0.4742567837238312,-1.0071464776992798
1773257946177099300,11.534099365234376,0.3546653985977173,-0.48561224341392517,-1.0209150314331055
1773257946187114200,11.5441142578125,0.3314785957336426,-0.5197731256484985,-0.9904983043670654
1773257946197129200,11.554129150390626,0.27105093002319336,-0.5345488786697388,-0.9227133989334106
1773257946207144200,11.564144287109375,0.24248667061328888,-0.5902497172355652,-0.975131094455719
1773257946217160200,11.57416015625,0.20412729680538177,-0.6270886659622192,-0.9153921008110046
1773257946227175200,11.584175048828126,0.1411352902650833,-0.6097807884216309,-0.8872885704040527
1773257946237190100,11.594190185546875,0.12598057091236115,-0.5964466333389282,-0.9012664556503296
1773257946247206100,11.6042060546875,0.11788669228553772,-0.5864635109901428,-0.8418153524398804
1773257946257221000,11.61422119140625,0.1222074031829834,-0.5520524978637695,-0.8694581985473633
1773257946267236400,11.624236328125,0.1285257488489151,-0.40277010202407837,-0.8154109120368958
1773257946277251300,11.634251220703124,0.14797961711883545,-0.23580241203308105,-0.7732730507850647
1773257946287267300,11.644267333984375,0.14348499476909637,-0.13691258430480957,-0.7252905964851379
1773257946297282300,11.6542822265625,0.13638660311698914,-0.07736935466527939,-0.6110159754753113
1773257946307297300,11.66429736328125,0.15751266479492188,-0.03603469952940941,-0.5131181478500366
1773257946317312300,11.674312255859375,0.18554429709911346,0.01377972774207592,-0.43122783303260803
1773257946327328300,11.684328369140625,0.2180553674697876,0.039922114461660385,-0.34114959836006165
1773257946337343200,11.69434326171875,0.24919837713241577,-0.055142346769571304,-0.2516908347606659
1773257946347358200,11.704358154296875,0.23214535415172577,-0.0878899097442627,-0.19312818348407745
1773257946357373200,11.714373291015624,0.17275738716125488,0.024028103798627853,-0.10188295692205429
1773257946367389200,11.72438916015625,0.11251722276210785,0.13660071790218353,-0.06640858203172684
1773257946377404200,11.734404052734375,-0.04229259490966797,0.1618562787771225,-0.02688700705766678
1773257946387419100,11.744419189453126,-0.1891917586326599,0.1295207142829895,0.027880633249878883
1773257946397434000,11.75443408203125,-0.22460781037807465,0.056716009974479675,0.10662125051021576
1773257946407450000,11.7644501953125,-0.2598515450954437,0.009929596446454525,0.18045100569725037
1773257946417465000,11.774465087890626,-0.2870621383190155,-0.01877102442085743,0.2245124727487564
1773257946427480300,11.784480224609375,-0.2955770492553711,-0.0363558754324913,0.2861475944519043
1773257946437495300,11.794495361328124,-0.29134422540664673,-0.03189508244395256,0.34620773792266846
1773257946447511300,11.80451123046875,-0.2805488407611847,-0.019455190747976303,0.3854757845401764
1773257946457526300,11.8145263671875,-0.2679409086704254,-0.013311810791492462,0.4103590250015259
1773257946467541200,11.824541259765626,-0.26439544558525085,0.007269630674272776,0.4307710826396942
1773257946477556200,11.83455615234375,-0.2720341682434082,0.03558169677853584,0.43709662556648254
1773257946487572200,11.844572265625,-0.26045501232147217,0.04543086513876915,0.43550539016723633
1773257946497587200,11.854587158203126,-0.21955765783786774,0.049851980060338974,0.43504253029823303
1773257946507602200,11.864602294921875,-0.17249293625354767,0.06383783370256424,0.4340481162071228
1773257946517618200,11.8746181640625,-0.13527101278305054,0.09370598196983337,0.42710843682289124
1773257946527633200,11.884633056640626,-0.12414751201868057,0.11704273521900177,0.4117111265659332
1773257946537648000,11.894648193359375,-0.12443167716264725,0.11991415172815323,0.39019811153411865
1773257946547663000,11.9046630859375,-0.13549098372459412,0.09475846588611603,0.37852761149406433
1773257946557679000,11.91467919921875,-0.14519953727722168,0.06202901527285576,0.36354678869247437
1773257946567694000,11.924694091796875,-0.15287981927394867,0.034926559776067734,0.35312238335609436
1773257946577709300,11.934709228515626,-0.1588495671749115,0.022399848327040672,0.3331172466278076
1773257946587724300,11.944724365234375,-0.16334179043769836,0.026694728061556816,0.3042522966861725
1773257946597740300,11.954740234375,-0.16207146644592285,0.04770813509821892,0.282987505197525
1773257946607754500,11.96475439453125,-0.16160380840301514,0.06637263298034668,0.2576243579387665
1773257946617769500,11.97476953125,-0.16100700199604034,0.07134369015693665,0.21978002786636353
1773257946627784400,11.984784423828126,-0.16086532175540924,0.0753091350197792,0.19000642001628876
1773257946637800400,11.994800537109375,-0.15855342149734497,0.07948550581932068,0.16950301826000214
1773257946647815400,12.0048154296875,-0.16016250848770142,0.08453192561864853,0.14938576519489288
1773257946657830400,12.014830322265626,-0.1583973616361618,0.08934159576892853,0.13610351085662842
1773257946667845400,12.024845458984375,-0.16151592135429382,0.08520863950252533,0.11654365807771683
1773257946677861400,12.034861328125,-0.16678471863269806,0.07236261665821075,0.08908460289239883
1773257946687876400,12.04487646484375,-0.17042899131774902,0.07388274371623993,0.07334718108177185
1773257946697891600,12.0548916015625,-0.1708737462759018,0.08995439112186432,0.05668032169342041
1773257946707906600,12.064906494140626,-0.16795943677425385,0.09687115252017975,0.04204705357551575
1773257946717922600,12.074922607421875,-0.1594487726688385,0.10485344380140305,0.035981435328722
1773257946727937500,12.0849375,-0.15023158490657806,0.11663553863763809,0.037511155009269714
1773257946737952500,12.094952392578126,-0.13803909718990326,0.1158783957362175,0.0390952043235302
1773257946747967500,12.104967529296875,-0.1309359073638916,0.1118016317486763,0.04615844041109085
1773257946757983500,12.1149833984375,-0.12282365560531616,0.10820236802101135,0.059543222188949585
1773257946767998500,12.12499853515625,-0.11273080855607986,0.10537063330411911,0.08197423070669174
1773257946778013400,12.135013427734375,-0.1040840595960617,0.10601937770843506,0.09637287259101868
1773257946788028400,12.1450283203125,-0.09276988357305527,0.10731767117977142,0.10883540660142899
1773257946798044400,12.15504443359375,-0.08542834967374802,0.0965569019317627,0.11452630907297134
1773257946808059400,12.165059326171875,-0.07647666335105896,0.08205971866846085,0.12504206597805023
1773257946818074400,12.175074462890626,-0.07076125591993332,0.07549342513084412,0.13172127306461334
1773257946828089600,12.185089599609375,-0.06257016956806183,0.06712523847818375,0.1376635879278183
1773257946838105300,12.195105224609375,-0.05156439170241356,0.05319477990269661,0.14755749702453613
1773257946848120600,12.20512060546875,-0.03963582590222359,0.042094457894563675,0.16253165900707245
1773257946858135600,12.215135498046875,-0.03038853220641613,0.03454839065670967,0.18948283791542053
1773257946868150500,12.225150634765624,-0.02497485838830471,0.021555624902248383,0.21639062464237213
1773257946878166500,12.23516650390625,-0.021348964422941208,0.004205131437629461,0.23644423484802246
1773257946888181500,12.245181396484375,-0.02039209008216858,-0.017240772023797035,0.2580333948135376
1773257946898196500,12.255196533203126,-0.02040540613234043,-0.03536917641758919,0.2845318615436554
1773257946908211500,12.26521142578125,-0.017537981271743774,-0.04707510024309158,0.31674864888191223
1773257946918227500,12.2752275390625,-0.016582438722252846,-0.05983217433094978,0.3570510745048523
1773257946928242400,12.285242431640626,-0.012146145105361938,-0.07273385673761368,0.39775723218917847
1773257946938257400,12.29525732421875,-0.005579056218266487,-0.0978434756398201,0.44188767671585083
1773257946948272400,12.3052724609375,-0.006715160794556141,-0.11341231316328049,0.4458254277706146
1773257946958288400,12.315288330078126,-0.015509184449911118,-0.10632750391960144,0.44175851345062256
1773257946968303400,12.325303466796875,-0.017680194228887558,-0.09387136995792389,0.4495282769203186
1773257946978318300,12.335318359375,-0.01372033916413784,-0.09905494749546051,0.4558205306529999
1773257946988333600,12.34533349609375,-0.012617791071534157,-0.10552030056715012,0.44929152727127075
1773257946998349600,12.355349609375,-0.01284415926784277,-0.0973324105143547,0.4314134418964386
1773257947008364500,12.365364501953126,-0.016214922070503235,-0.07567957788705826,0.4282408356666565
1773257947018379500,12.375379638671875,-0.02689473144710064,-0.056951697915792465,0.42138397693634033
1773257947028394500,12.38539453125,-0.03917403519153595,-0.06523492932319641,0.40985915064811707
1773257947038410800,12.39541064453125,-0.05307547003030777,-0.09019593894481659,0.3948807418346405
1773257947048425500,12.405425537109375,-0.06294647604227066,-0.11206687986850739,0.38277721405029297
1773257947058440400,12.4154404296875,-0.06355234235525131,-0.11846326291561127,0.37293869256973267
1773257947068455400,12.425455322265625,-0.061706505715847015,-0.11342083662748337,0.3461613953113556
1773257947078471700,12.4354716796875,-0.058089401572942734,-0.09067424386739731,0.29754647612571716
1773257947088486400,12.445486328125,-0.05090685561299324,-0.060919277369976044,0.24968306720256805
1773257947098501400,12.45550146484375,-0.041978608816862106,-0.004506068304181099,0.22051692008972168
1773257947108516400,12.465516357421874,-0.03142423555254936,0.045221805572509766,0.1905164122581482
