time,seconds_elapsed,z,y,x
1774472938800667000,0.0706669921875,-0.010230799205601215,0.28252437710762024,0.31919291615486145
1774472938810695000,0.08069482421875,-0.012898487970232964,0.37791240215301514,0.3022831678390503
1774472938820723000,0.090722900390625,0.01738405041396618,0.5244946479797363,0.23287345468997955
1774472938830751000,0.1007509765625,0.055320512503385544,0.6078015565872192,0.13263793289661407
1774472938840778800,0.11077880859375,0.05023547261953354,0.5607474446296692,0.03747307136654854
1774472938850807000,0.12080712890625,-0.008046475239098072,0.4675922393798828,-0.029086247086524963
1774472938860834800,0.130834716796875,-0.1165069043636322,0.31714627146720886,-0.07043687999248505
1774472938870862800,0.14086279296875,-0.41576337814331055,0.02214711345732212,-0.2325243204832077
1774472938880891000,0.150890869140625,-0.8014026880264282,-0.20495767891407013,-0.4131297767162323
1774472938890918700,0.160918701171875,-1.1364483833312988,-0.36845365166664124,-0.5608265399932861
1774472938900947000,0.170947021484375,-1.375930666923523,-0.41121605038642883,-0.6433001160621643
1774472938910974700,0.180974609375,-1.5016411542892456,-0.33092305064201355,-0.6672355532646179
1774472938921002800,0.191002685546875,-1.5620614290237427,-0.21542416512966156,-0.6318426728248596
1774472938931030800,0.20103076171875,-1.613677978515625,-0.2668335735797882,-0.47076165676116943
1774472938941058800,0.211058837890625,-1.734489917755127,-0.4274781048297882,-0.1898101419210434
1774472938951086800,0.2210869140625,-1.841115117073059,-0.4476267695426941,0.07328460365533829
1774472938961115000,0.231114990234375,-1.8575141429901123,-0.24140143394470215,0.27480360865592957
1774472938971142700,0.241142578125,-1.7830992937088013,0.038245923817157745,0.4700061082839966
1774472938981171000,0.2511708984375,-1.6753919124603271,0.31210994720458984,0.6776756644248962
1774472938991198700,0.26119873046875,-1.599843144416809,0.6250550746917725,0.8241958618164062
1774472939001227000,0.27122705078125,-1.5100141763687134,0.919248104095459,0.9433289170265198
1774472939011254800,0.2812548828125,-1.3879444599151611,1.1979942321777344,1.0155988931655884
1774472939021282800,0.29128271484375,-1.1351902484893799,0.7518521547317505,0.8999204635620117
1774472939031310800,0.301310791015625,-0.7519387602806091,-0.8115597367286682,0.46908441185951233
1774472939041339000,0.3113388671875,-0.4372715950012207,-1.0421208143234253,0.16373513638973236
1774472939051367000,0.321366943359375,-0.3073250651359558,-0.5814008116722107,-0.0849873274564743
1774472939061395000,0.33139501953125,-0.2315133810043335,-0.39652442932128906,-0.26706019043922424
1774472939071422700,0.341422607421875,-0.13687795400619507,-0.5432100296020508,-0.3424960970878601
1774472939081451000,0.351450927734375,-0.06618195027112961,-0.6955723762512207,-0.3207854628562927
1774472939091478500,0.361478515625,-0.06995005905628204,-0.3410015404224396,-0.2621709108352661
1774472939101506800,0.3715068359375,-0.051110055297613144,-0.05616180598735809,-0.08786061406135559
1774472939111534600,0.38153466796875,-0.03436276689171791,0.3065652549266815,0.0826815664768219
1774472939121562600,0.391562744140625,-0.02604971081018448,0.47976845502853394,0.197347953915596
1774472939131590700,0.401590576171875,-0.025611886754631996,0.4665818214416504,0.23571692407131195
1774472939141618700,0.41161865234375,-0.06826028227806091,0.49215376377105713,0.25619661808013916
1774472939151646700,0.421646728515625,-0.13860315084457397,0.6377040147781372,0.37143346667289734
1774472939161674800,0.4316748046875,-0.18166859447956085,0.7484704852104187,0.5401473641395569
1774472939171702500,0.44170263671875,-0.09504155814647675,0.6578881144523621,0.701224148273468
1774472939181730800,0.451730712890625,0.04410647600889206,0.4296123683452606,0.840579092502594
1774472939191758600,0.461758544921875,0.16659830510616302,0.16782522201538086,0.9803175926208496
1774472939201787000,0.471786865234375,0.2438342273235321,-0.18103396892547607,1.160796046257019
1774472939211814700,0.481814697265625,0.21458978950977325,-0.5287818312644958,1.3561545610427856
1774472939221842700,0.4918427734375,0.06255898624658585,-0.7942774295806885,1.5305061340332031
1774472939231870700,0.50187060546875,-0.03783872351050377,-1.0803033113479614,1.6645084619522095
1774472939241898800,0.511898681640625,-0.047816257923841476,-1.5260992050170898,1.734197735786438
1774472939251926800,0.5219267578125,0.016872989013791084,-1.8108323812484741,1.7497626543045044
1774472939261954800,0.531954833984375,0.08867260813713074,-1.736423373222351,1.7280999422073364
1774472939271982600,0.541982666015625,0.08736473321914673,-1.4642765522003174,1.6872060298919678
1774472939282010600,0.5520107421875,0.06791699677705765,-1.1086121797561646,1.6773723363876343
1774472939292038700,0.56203857421875,0.062367238104343414,-0.8216837048530579,1.7357357740402222
1774472939302066700,0.572066650390625,-0.013348029926419258,-0.6656144857406616,1.8004223108291626
1774472939312094700,0.5820947265625,-0.12759257853031158,-0.7624483704566956,1.7656744718551636
1774472939322122500,0.59212255859375,-0.2174130082130432,-0.9945412278175354,1.5743122100830078
1774472939332150800,0.60215087890625,-0.2528255879878998,-1.0752078294754028,1.1629976034164429
1774472939342178600,0.612178466796875,-0.2429593801498413,-0.7226623296737671,0.565904438495636
1774472939352206600,0.62220654296875,-0.18796510994434357,-0.06075282767415047,-0.06362558156251907
1774472939362234600,0.632234619140625,-0.11555935442447662,0.5733324885368347,-0.5927520394325256
1774472939372262700,0.6422626953125,-0.09670523554086685,0.9273595809936523,-0.9738034605979919
1774472939382290700,0.652290771484375,-0.24926894903182983,1.082737922668457,-1.1453592777252197
1774472939392318700,0.662318603515625,-0.20063403248786926,0.8306559324264526,-1.0296374559402466
1774472939402346500,0.672346435546875,0.07294211536645889,0.4241802990436554,-0.7557164430618286
1774472939412374800,0.682374755859375,0.2176889181137085,0.050763312727212906,-0.483829528093338
1774472939422402600,0.692402587890625,0.24954165518283844,-0.3613014817237854,-0.17280346155166626
1774472939432430800,0.702430908203125,0.25927498936653137,-0.6240241527557373,0.15866927802562714
1774472939442458600,0.712458740234375,0.32390642166137695,-0.5941315293312073,0.37752091884613037
1774472939452486700,0.722486572265625,0.2534269392490387,-0.47191134095191956,0.41916289925575256
1774472939462514700,0.7325146484375,0.09260743111371994,-0.2544328272342682,0.40251922607421875
1774472939472542700,0.742542724609375,0.10081156343221664,-0.017320666462183,0.405901700258255
1774472939482570800,0.75257080078125,0.1055019274353981,0.21955685317516327,0.47120401263237
1774472939492598800,0.762598876953125,0.04253334552049637,0.4476179778575897,0.651685357093811
1774472939502626600,0.77262646484375,-0.044434841722249985,0.46593520045280457,0.924484133720398
1774472939512654800,0.78265478515625,-0.00475320965051651,0.2718416452407837,1.1586886644363403
1774472939522682600,0.7926826171875,0.0738515853881836,0.06559498608112335,1.3182841539382935
1774472939532710700,0.802710693359375,0.1938789188861847,0.03172730281949043,1.3621238470077515
1774472939542738700,0.81273876953125,0.19510237872600555,0.17640432715415955,1.2894115447998047
1774472939552766500,0.822766357421875,0.14314544200897217,0.3883565366268158,1.1664773225784302
1774472939562794800,0.832794677734375,0.18680423498153687,0.5431810021400452,0.935604453086853
1774472939572822500,0.842822509765625,0.21719516813755035,0.6545922160148621,0.6572010517120361
1774472939582850800,0.852850830078125,0.2559572160243988,0.772652268409729,0.45931512117385864
1774472939592878600,0.862878662109375,0.23723332583904266,0.6259051561355591,0.3767464756965637
1774472939602906600,0.87290673828125,0.27549469470977783,0.32746416330337524,0.3559035062789917
1774472939612934700,0.8829345703125,0.3033345639705658,0.011810054071247578,0.34885677695274353
1774472939622962700,0.892962646484375,0.27835813164711,-0.280374675989151,0.34034451842308044
1774472939632990700,0.90299072265625,0.32443827390670776,-0.6083746552467346,0.29970815777778625
1774472939643018800,0.913018798828125,0.4465298056602478,-0.9650110602378845,0.3364664316177368
1774472939653046500,0.923046630859375,0.5881143808364868,-1.486067533493042,0.44943106174468994
1774472939663074800,0.93307470703125,0.7880890369415283,-2.064908981323242,0.5833457112312317
1774472939673102600,0.9431025390625,1.0982543230056763,-2.362879991531372,0.7167429327964783
1774472939683130600,0.953130615234375,1.303604006767273,-2.617915630340576,0.9286708831787109
1774472939693158700,0.96315869140625,1.2594003677368164,-2.9098517894744873,1.3294001817703247
1774472939703186700,0.973186767578125,1.1627517938613892,-2.913945436477661,1.7384172677993774
1774472939713214700,0.983214599609375,0.9780674576759338,-2.3582913875579834,1.7754768133163452
1774472939723242800,0.99324267578125,0.9051517248153687,-1.6145703792572021,1.4156264066696167
1774472939733270500,1.0032705078125,1.050096869468689,-0.931647777557373,0.8131269812583923
1774472939743298800,1.013298828125,0.8415916562080383,-0.3872326612472534,0.3349074125289917
1774472939753326600,1.02332666015625,0.5260297060012817,-0.28243622183799744,0.19348956644535065
1774472939763355000,1.03335498046875,0.36996978521347046,-0.6701280474662781,0.20270943641662598
1774472939773382700,1.043382568359375,0.32356634736061096,-1.3221486806869507,0.4335940480232239
1774472939783410700,1.05341064453125,0.4049301743507385,-2.183950901031494,0.9291929006576538
1774472939793438700,1.063438720703125,0.5929887890815735,-2.913403034210205,1.568678855895996
1774472939803466500,1.073466552734375,0.8787981271743774,-2.6045150756835938,2.149224042892456
1774472939813494800,1.083494873046875,1.283942461013794,-1.0607283115386963,2.4556708335876465
1774472939823522600,1.0935224609375,1.2435190677642822,-0.07136579602956772,2.555842161178589
1774472939833550600,1.103550537109375,0.6300093531608582,0.5930958390235901,2.5231499671936035
1774472939843578600,1.11357861328125,0.05638844147324562,1.337814211845398,2.419846534729004
1774472939853606700,1.123606689453125,-0.09501892328262329,2.1953437328338623,2.296142339706421
1774472939863634700,1.133634765625,0.062075089663267136,2.492482900619507,2.1023945808410645
1774472939873662700,1.143662841796875,0.30957064032554626,2.1641008853912354,1.8927421569824219
1774472939883690500,1.1536904296875,0.5786058306694031,1.3185582160949707,1.726056456565857
1774472939893718800,1.16371875,0.747550904750824,0.2668823003768921,1.5930044651031494
1774472939903746600,1.17374658203125,0.8024317622184753,-0.683738112449646,1.53095281124115
1774472939913774800,1.18377490234375,0.9733384847640991,-0.4125066101551056,1.45669686794281
1774472939923802600,1.193802734375,1.4417413473129272,0.42044496536254883,1.448099970817566
1774472939933830700,1.20383056640625,1.421043872833252,0.852527379989624,1.5076311826705933
1774472939943858700,1.213858642578125,0.9657735228538513,0.9411312937736511,1.59213387966156
1774472939953886700,1.22388671875,0.7561832666397095,0.9963306188583374,1.5555957555770874
1774472939963914800,1.233914794921875,0.7198761105537415,0.8672924637794495,1.2043647766113281
1774472939973942800,1.24394287109375,0.7762891054153442,0.8206139206886292,0.7826199531555176
1774472939983970600,1.253970458984375,0.7392487525939941,0.9141920804977417,0.4745723605155945
1774472939993998800,1.263998779296875,0.44734740257263184,1.3583199977874756,0.29248911142349243
1774472940004026600,1.274026611328125,0.08190897852182388,1.8024362325668335,0.07960774004459381
1774472940014054700,1.2840546875,-0.2660231590270996,2.138707160949707,-0.3255181908607483
1774472940024082700,1.294082763671875,-0.40837177634239197,2.7873260974884033,-1.1006364822387695
1774472940034110700,1.30411083984375,0.24664252996444702,5.704247951507568,-3.440629482269287
1774472940044138800,1.314138671875,0.24164937436580658,8.611031532287598,-5.2561211585998535
1774472940054166500,1.32416650390625,-0.29594483971595764,8.197162628173828,-6.205879211425781
1774472940064194600,1.334194580078125,-0.9942342042922974,6.2424397468566895,-6.707767486572266
1774472940074222600,1.34422265625,-1.496509313583374,4.4522528648376465,-6.962220191955566
1774472940084250600,1.354250732421875,-1.4825778007507324,3.276125431060791,-6.962014198303223
1774472940094279200,1.364279052734375,-1.0895625352859497,3.054807662963867,-6.62803840637207
1774472940104307200,1.37430712890625,-0.747706949710846,2.9994306564331055,-6.074386119842529
1774472940114335200,1.384335205078125,-0.6151326894760132,2.638711929321289,-5.302586555480957
1774472940124363300,1.39436328125,-0.6249077916145325,2.325482130050659,-4.236228942871094
1774472940134391300,1.404391357421875,-0.6083362698554993,2.0020699501037598,-2.8491148948669434
1774472940144419000,1.414419189453125,-0.4861355423927307,1.4654594659805298,-1.2126471996307373
1774472940154447400,1.424447265625,-0.3905501663684845,1.326608419418335,0.4366050064563751
1774472940164475100,1.43447509765625,-0.3168104290962219,0.9775612354278564,1.7429510354995728
1774472940174503400,1.44450341796875,-0.2862940728664398,0.7773250341415405,2.6160051822662354
1774472940184531200,1.45453125,-0.3693239688873291,0.46033430099487305,3.086782932281494
1774472940194559000,1.46455908203125,-0.5681182742118835,-0.16987238824367523,3.2177743911743164
1774472940204587300,1.474587158203125,-0.7899380326271057,-0.8373180627822876,3.1496734619140625
1774472940214615000,1.484614990234375,-0.882940948009491,-1.3810080289840698,2.9765002727508545
1774472940224643300,1.494643310546875,-0.7906999588012695,-1.9454526901245117,2.752732515335083
1774472940234671000,1.504671142578125,-0.5300627946853638,-2.380094289779663,2.521954298019409
1774472940244699100,1.51469921875,-0.1357884556055069,-2.655637741088867,2.3337018489837646
1774472940254727200,1.52472705078125,0.3604141175746918,-3.226865291595459,2.1817100048065186
1774472940264755200,1.534755126953125,0.8690520524978638,-3.7082934379577637,2.1688005924224854
1774472940274783200,1.544783203125,1.3720760345458984,-3.9212591648101807,2.341472625732422
1774472940284811300,1.554811279296875,1.9050880670547485,-3.8582160472869873,2.693023443222046
1774472940294839000,1.564839111328125,2.46059250831604,-3.345353364944458,3.1821703910827637
1774472940304867300,1.574867431640625,3.058628797531128,-2.803506374359131,3.6975059509277344
1774472940314895000,1.58489501953125,3.652979850769043,-2.286442279815674,4.148261070251465
1774472940324923400,1.59492333984375,4.162637233734131,-1.8727585077285767,4.420905590057373
1774472940334951200,1.604951171875,4.537380695343018,-1.4938604831695557,4.457494258880615
1774472940344979200,1.614979248046875,4.799037933349609,-1.1575003862380981,4.232882976531982
1774472940355007200,1.62500732421875,4.993483543395996,-0.9321156740188599,3.7783896923065186
1774472940365035300,1.63503515625,5.106313228607178,-0.38436073064804077,3.1734373569488525
1774472940375063300,1.645063232421875,5.104621410369873,0.21700315177440643,2.4099576473236084
1774472940385091300,1.65509130859375,4.925832748413086,0.7148091793060303,1.5368210077285767
1774472940395119000,1.665119140625,4.464160442352295,0.7954252362251282,0.6190509796142578
1774472940405147400,1.6751474609375,3.8980982303619385,0.31633880734443665,-0.24639059603214264
1774472940415175200,1.685175048828125,3.336589813232422,-0.6512291431427002,-0.9609004855155945
1774472940425203200,1.695203125,2.8187448978424072,-1.463634729385376,-1.3772859573364258
1774472940435231200,1.705231201171875,2.320377826690674,-1.7757601737976074,-1.4921115636825562
1774472940445259000,1.715259033203125,1.5970399379730225,-1.5411287546157837,-1.3113654851913452
1774472940455287300,1.725287353515625,0.7025200724601746,-1.058972716331482,-0.9673852920532227
1774472940465315000,1.735315185546875,-0.15379515290260315,-0.4225424528121948,-0.5977949500083923
1774472940475343000,1.745343017578125,-0.6941521167755127,0.0764114186167717,-0.31968531012535095
1774472940485371100,1.75537109375,-0.8521300554275513,0.48216477036476135,-0.1710234135389328
1774472940495399200,1.765399169921875,-0.7881683707237244,0.6215663552284241,-0.12285561859607697
1774472940505427200,1.77542724609375,-0.6373445391654968,0.49077531695365906,-0.031854335218667984
1774472940515455200,1.785455322265625,-0.4497178792953491,0.14689862728118896,0.12957583367824554
1774472940525483000,1.79548291015625,-0.24836480617523193,-0.13910116255283356,0.33753517270088196
1774472940535511300,1.80551123046875,-0.04842585697770119,-0.2792457640171051,0.5135325789451599
1774472940545539000,1.8155390625,0.14129240810871124,-0.27548110485076904,0.5972021222114563
1774472940555567400,1.8255673828125,0.2724091410636902,-0.28495556116104126,0.5465962290763855
1774472940565595100,1.83559521484375,0.35897520184516907,-0.2991054654121399,0.4130570888519287
1774472940575623200,1.845623046875,0.44166314601898193,-0.3165917992591858,0.2542448043823242
1774472940585651200,1.855651123046875,0.538257896900177,-0.328421026468277,0.1367487907409668
1774472940595679200,1.86567919921875,0.572637140750885,-0.3557024598121643,0.09955934435129166
1774472940605707300,1.875707275390625,0.5304390788078308,-0.36174649000167847,0.11156781017780304
1774472940615735300,1.8857353515625,0.4667876958847046,-0.3252933919429779,0.1340118646621704
1774472940625763000,1.89576318359375,0.4517219066619873,-0.33462247252464294,0.14925286173820496
1774472940635791400,1.905791259765625,0.5063273906707764,-0.425217866897583,0.15179511904716492
1774472940645819100,1.915819091796875,0.6042965650558472,-0.4860181212425232,0.17804643511772156
1774472940655847400,1.925847412109375,0.7574828863143921,-0.48039510846138,0.21402893960475922
1774472940665875200,1.935875244140625,0.9369046092033386,-0.26423484086990356,0.2639235258102417
1774472940675903200,1.9459033203125,1.047171950340271,0.014128602109849453,0.27573490142822266
1774472940685931300,1.95593115234375,1.015776515007019,0.19146743416786194,0.2338085025548935
1774472940695959300,1.965959228515625,0.8916353583335876,0.2898922860622406,0.16934294998645782
1774472940705987300,1.9759873046875,0.7282834649085999,0.18314266204833984,0.11657028645277023
1774472940716016400,1.986016357421875,0.5193251967430115,0.20785333216190338,0.07078868895769119
1774472940726043100,1.996043212890625,0.24765107035636902,0.2718046009540558,-0.011094729416072369
1774472940736072200,2.006072265625,-0.023441676050424576,0.43306460976600647,-0.10246219485998154
1774472940746100200,2.016100341796875,-0.2697505056858063,0.6139014959335327,-0.2112288922071457
1774472940756128300,2.026128173828125,-0.5001488327980042,0.7587519288063049,-0.3246678411960602
1774472940766156300,2.03615625,-0.7099606394767761,0.8423869013786316,-0.4326619505882263
1774472940776184300,2.046184326171875,-0.8823225498199463,0.9561699032783508,-0.5477187633514404
1774472940786212000,2.056212158203125,-1.0233039855957031,1.041855812072754,-0.6831415891647339
1774472940796240400,2.066240478515625,-1.1870297193527222,1.1662431955337524,-0.8157853484153748
1774472940806268200,2.07626806640625,-1.3368192911148071,1.2190015316009521,-0.8753006458282471
1774472940816296200,2.086296142578125,-1.429408073425293,1.2352685928344727,-0.8468253016471863
1774472940826324200,2.09632421875,-1.4799723625183105,1.232681155204773,-0.7886328101158142
1774472940836352000,2.10635205078125,-1.4762455224990845,1.2848694324493408,-0.7346848845481873
1774472940846380300,2.11638037109375,-1.4239413738250732,1.3793959617614746,-0.6721395254135132
1774472940856408000,2.126407958984375,-1.3864549398422241,1.605089783668518,-0.5852669477462769
1774472940866436400,2.136436279296875,-1.375248670578003,1.8844269514083862,-0.4678177833557129
1774472940876464000,2.146464111328125,-1.3377931118011475,2.0881059169769287,-0.3738636076450348
1774472940886492200,2.1564921875,-1.192278265953064,1.986826777458191,-0.3725903630256653
1774472940896520200,2.166520263671875,-0.9359796643257141,1.5740938186645508,-0.44562992453575134
1774472940906548200,2.17654833984375,-0.6044869422912598,1.0611234903335571,-0.5156723856925964
1774472940916576300,2.186576171875,-0.2437996119260788,0.5562850832939148,-0.49077051877975464
1774472940926604300,2.196604248046875,0.15050189197063446,0.22636495530605316,-0.33822280168533325
1774472940936632000,2.206632080078125,0.5933922529220581,0.01594194769859314,-0.07777362316846848
1774472940946660400,2.216660400390625,1.105907678604126,-0.12886424362659454,0.20419254899024963
1774472940956688100,2.226688232421875,1.6297731399536133,-0.35788998007774353,0.4332800507545471
1774472940966716400,2.23671630859375,2.0933375358581543,-0.6494531035423279,0.6233599781990051
1774472940976744200,2.246744140625,2.5005335807800293,-0.827504575252533,0.7328694462776184
1774472940986772200,2.256772216796875,2.8802037239074707,-0.9104508757591248,0.779296875
1774472940996800300,2.26680029296875,3.2828516960144043,-1.3223614692687988,0.8510818481445312
1774472941006828300,2.276828369140625,3.6892616748809814,-1.7393972873687744,1.0418901443481445
1774472941016856300,2.286856201171875,4.090672969818115,-2.0979506969451904,1.3225902318954468
1774472941026884400,2.29688427734375,4.435783386230469,-2.461747169494629,1.6547298431396484
1774472941036912000,2.306912109375,4.680981636047363,-2.634830951690674,1.971693992614746
1774472941046940400,2.3169404296875,4.863553524017334,-2.9792463779449463,2.2331504821777344
1774472941056968200,2.32696826171875,5.0184502601623535,-2.7383387088775635,2.510432004928589
1774472941066996200,2.336996337890625,4.971521854400635,-1.92396879196167,2.8319735527038574
1774472941077024300,2.347024169921875,4.670053005218506,-0.9822057485580444,3.081815004348755
1774472941087052000,2.357052001953125,4.206298351287842,-0.07875899225473404,3.1694936752319336
1774472941097080000,2.367080078125,3.7521543502807617,0.41797539591789246,3.0603461265563965
1774472941107107800,2.37710791015625,3.447765350341797,0.6454314589500427,2.8003106117248535
1774472941117136100,2.38713623046875,3.3382229804992676,0.686738133430481,2.4479410648345947
1774472941127164000,2.397163818359375,3.3021047115325928,0.5147016644477844,2.095210313796997
1774472941137192000,2.40719189453125,3.258363723754883,0.3848422169685364,1.8532428741455078
1774472941147220000,2.417219970703125,3.179285764694214,0.4000254273414612,1.7782549858093262
1774472941157248000,2.427248046875,3.0670735836029053,0.5753306746482849,1.8626686334609985
1774472941167276000,2.437276123046875,2.8909897804260254,0.8724185228347778,1.9987061023712158
1774472941177304000,2.447303955078125,2.670930862426758,1.2001855373382568,2.0469436645507812
1774472941187331800,2.457331787109375,2.485635757446289,1.4527781009674072,1.8948020935058594
1774472941197360000,2.467360107421875,2.305046558380127,1.8320659399032593,1.6066994667053223
1774472941207388000,2.477387939453125,2.033997058868408,2.1025772094726562,1.2580690383911133
1774472941217416000,2.487416015625,1.7646853923797607,2.3740861415863037,0.9628579020500183
1774472941227444000,2.49744384765625,1.567509651184082,2.6258575916290283,0.7730221748352051
1774472941237472000,2.507471923828125,1.4671351909637451,2.654871940612793,0.6129563450813293
1774472941247500800,2.517500732421875,1.5448638200759888,2.632842540740967,0.44784170389175415
1774472941257529000,2.527529052734375,1.8173552751541138,2.627420663833618,0.2024148851633072
1774472941267556900,2.537556884765625,2.239976167678833,2.4061787128448486,-0.12103001773357391
1774472941277585200,2.547585205078125,2.6371912956237793,2.280229091644287,-0.4788779020309448
1774472941287613000,2.557613037109375,2.844552993774414,1.9764982461929321,-0.844904363155365
1774472941297641000,2.567640869140625,2.8427810668945312,1.633687973022461,-1.1508573293685913
1774472941307669000,2.5776689453125,2.4901175498962402,1.4569387435913086,-1.2166286706924438
1774472941317697000,2.587697021484375,1.8352255821228027,1.4215493202209473,-1.0227084159851074
1774472941327725000,2.59772509765625,1.1836446523666382,1.0315887928009033,-0.7564464211463928
1774472941337753000,2.607753173828125,0.7881446480751038,0.4658720791339874,-0.5798170566558838
1774472941347780900,2.61778076171875,0.5628175735473633,0.03490765020251274,-0.3471936583518982
1774472941357809200,2.62780908203125,0.35781991481781006,-0.13214844465255737,-0.04410301148891449
1774472941367837000,2.6378369140625,-0.047693219035863876,0.03743845224380493,0.23765143752098083
1774472941377865000,2.647864990234375,-0.6772059202194214,0.5798990726470947,0.39338192343711853
1774472941387893000,2.65789306640625,-1.3395854234695435,1.3864941596984863,0.3596220910549164
1774472941397920800,2.667920654296875,-1.6143869161605835,1.8666244745254517,0.1875094473361969
1774472941407949000,2.677948974609375,-1.5922513008117676,1.9591680765151978,0.0162412878125906
1774472941417976800,2.687976806640625,-1.5618507862091064,1.5641740560531616,0.015666045248508453
1774472941428004900,2.6980048828125,-1.5889049768447876,1.1066381931304932,0.20119090378284454
1774472941438033000,2.708032958984375,-1.7014464139938354,0.6152048707008362,0.4386633634567261
1774472941448061000,2.71806103515625,-1.7124844789505005,0.0805683434009552,0.6279459595680237
1774472941458089000,2.7280888671875,-1.6098781824111938,-0.5256922841072083,0.6988451480865479
1774472941468117000,2.738116943359375,-1.469387173652649,-1.1511335372924805,0.6488187313079834
1774472941478144800,2.748144775390625,-1.4172611236572266,-1.6735402345657349,0.46355512738227844
1774472941488173000,2.758173095703125,-1.4277472496032715,-2.1699321269989014,0.11301257461309433
1774472941498200800,2.768200927734375,-1.4179638624191284,-2.4960010051727295,-0.17630445957183838
1774472941508229000,2.77822900390625,-1.3625344038009644,-2.425435781478882,-0.2070906013250351
1774472941518257000,2.7882568359375,-1.298871636390686,-2.3090627193450928,-0.07988977432250977
1774472941528285000,2.798284912109375,-1.2916346788406372,-2.4007511138916016,0.04715526103973389
1774472941538313000,2.80831298828125,-1.3652045726776123,-2.7362639904022217,0.06718143075704575
1774472941548341000,2.818341064453125,-1.5242022275924683,-2.940861940383911,0.04418530315160751
1774472941558369000,2.828369140625,-1.6610041856765747,-2.892928123474121,-0.047441549599170685
1774472941568397000,2.83839697265625,-1.696692943572998,-2.6571390628814697,-0.23146091401576996
1774472941578424800,2.8484248046875,-1.697116732597351,-2.2066779136657715,-0.383304238319397
1774472941588453000,2.858453125,-1.7153666019439697,-1.70783269405365,-0.42438724637031555
1774472941598481000,2.86848095703125,-1.8486191034317017,-1.2814090251922607,-0.3843785524368286
1774472941608509200,2.87850927734375,-2.0276176929473877,-0.9532619714736938,-0.32353997230529785
1774472941618537000,2.888536865234375,-2.221412420272827,-0.6853221654891968,-0.3550316095352173
1774472941628565000,2.89856494140625,-2.347379446029663,-0.9067296385765076,-0.4058998227119446
1774472941638593000,2.908593017578125,-2.4765965938568115,-1.15044105052948,-0.4227456748485565
1774472941648620800,2.918620849609375,-2.620415687561035,-1.0946955680847168,-0.5343635082244873
1774472941658649000,2.928649169921875,-2.5954864025115967,-0.6405776143074036,-0.7000331878662109
1774472941668676900,2.9386767578125,-2.4329726696014404,-0.16648991405963898,-0.8763605356216431
1774472941678705000,2.948704833984375,-2.2518975734710693,0.13393568992614746,-1.0169283151626587
1774472941688733000,2.95873291015625,-2.178096055984497,0.32719704508781433,-1.1356432437896729
1774472941698761000,2.968760986328125,-2.2095367908477783,0.5418224930763245,-1.2787610292434692
1774472941708789000,2.9787890625,-2.264319658279419,0.7821826338768005,-1.424999475479126
1774472941718818000,2.988818115234375,-2.3262388706207275,0.8822184205055237,-1.5389736890792847
1774472941728844800,2.9988447265625,-2.406790256500244,0.9270631670951843,-1.5698461532592773
1774472941738873900,3.008873779296875,-2.4834766387939453,0.8343249559402466,-1.5150995254516602
1774472941748902000,3.01890185546875,-2.456207275390625,0.7720213532447815,-1.443817377090454
1774472941758930000,3.028929931640625,-2.2693428993225098,0.6840824484825134,-1.4950182437896729
1774472941768958000,3.0389580078125,-1.871663212776184,0.7618646025657654,-1.5103119611740112
1774472941778986000,3.048986083984375,-1.5019136667251587,0.7717920541763306,-1.4059327840805054
1774472941789013800,3.059013671875,-1.3429701328277588,0.702568769454956,-1.2973666191101074
1774472941799042000,3.0690419921875,-1.3251079320907593,0.5082001090049744,-1.2872614860534668
1774472941809069800,3.07906982421875,-1.3436667919158936,0.4890466630458832,-1.3410401344299316
1774472941819098000,3.08909814453125,-1.388334035873413,0.633300244808197,-1.4350368976593018
1774472941829126000,3.0991259765625,-1.4231362342834473,0.6927574276924133,-1.5056711435317993
1774472941839154000,3.10915380859375,-1.4522500038146973,0.7339684963226318,-1.4352374076843262
1774472941849182000,3.119181884765625,-1.4856401681900024,0.7733377814292908,-1.255321741104126
1774472941859210000,3.1292099609375,-1.4496920108795166,0.941364586353302,-1.012793779373169
1774472941869238000,3.139238037109375,-1.2329576015472412,0.975060224533081,-0.8004758954048157
1774472941879266000,3.14926611328125,-0.8508346676826477,0.8997985124588013,-0.6924221515655518
1774472941889293800,3.1592939453125,-0.40549689531326294,0.6471473574638367,-0.6360949277877808
1774472941899322000,3.169322021484375,-0.00603498937562108,0.2987408936023712,-0.47324317693710327
1774472941909350000,3.179349853515625,0.17651590704917908,-0.08524619042873383,-0.21049785614013672
1774472941919378000,3.1893779296875,0.1869477778673172,-0.34581413865089417,0.025800438597798347
1774472941929406000,3.199406005859375,0.1825740784406662,-0.3733067512512207,0.14952796697616577
1774472941939434000,3.20943408203125,0.23030510544776917,-0.3174469470977783,0.15310992300510406
1774472941949462000,3.2194619140625,0.2998945713043213,-0.09905094653367996,0.07107151299715042
1774472941959490000,3.229489990234375,0.2584507167339325,0.13421666622161865,-0.06420242041349411
1774472941969517800,3.239517822265625,0.09449401497840881,0.24843643605709076,-0.20210330188274384
1774472941979546000,3.249546142578125,-0.06429536640644073,0.20883363485336304,-0.27051618695259094
1774472941989574000,3.259573974609375,-0.20006172358989716,0.2711302936077118,-0.2816077172756195
1774472941999602200,3.269602294921875,-0.2525574266910553,0.3329835534095764,-0.3346565365791321
1774472942009630000,3.2796298828125,-0.19164933264255524,0.43903806805610657,-0.43989989161491394
1774472942019657700,3.28965771484375,-0.023077089339494705,0.7723311185836792,-0.5197696685791016
1774472942029686000,3.29968603515625,0.25722113251686096,0.8864355683326721,-0.5519353151321411
1774472942039713800,3.3097138671875,0.6094319224357605,0.7646143436431885,-0.4910717308521271
1774472942049742000,3.3197421875,0.7735505700111389,0.42157572507858276,-0.36210867762565613
1774472942059769900,3.329769775390625,0.45188358426094055,-0.21149680018424988,-0.2840714156627655
1774472942069798000,3.3397978515625,-0.36043408513069153,-0.6666954755783081,-0.3099013864994049
1774472942079826000,3.349825927734375,-1.2644827365875244,-0.6035961508750916,-0.4297337830066681
1774472942089854000,3.35985400390625,-1.9730113744735718,-0.19476816058158875,-0.7154595255851746
1774472942099882500,3.369882568359375,-2.3977694511413574,-0.1476467102766037,-1.203090786933899
1774472942109910500,3.37991064453125,-2.646580934524536,0.3093155026435852,-1.6339513063430786
1774472942119938600,3.3899384765625,-2.86637020111084,1.5092178583145142,-1.8938672542572021
1774472942129966600,3.399966552734375,-3.172098159790039,2.5617611408233643,-2.0699870586395264
1774472942139994600,3.40999462890625,-3.4604151248931885,3.564244508743286,-2.0701944828033447
1774472942150022400,3.4200224609375,-3.5486977100372314,4.584873676300049,-1.8718371391296387
1774472942160050700,3.43005078125,-3.4116787910461426,5.392514705657959,-1.6480392217636108
1774472942170079500,3.44007958984375,-3.086967706680298,5.8836493492126465,-1.6153709888458252
1774472942180107500,3.450107421875,-2.5495471954345703,6.656727313995361,-1.6880131959915161
1774472942190135600,3.460135498046875,-1.851644515991211,7.192582130432129,-1.7194361686706543
1774472942200163600,3.47016357421875,-1.1276668310165405,7.579925060272217,-1.6176764965057373
1774472942210191600,3.480191650390625,-0.4634377062320709,7.563908100128174,-1.3938289880752563
1774472942220219600,3.4902197265625,0.020072244107723236,6.978309631347656,-1.1007976531982422
1774472942230247400,3.500247314453125,0.24094630777835846,5.824069976806641,-0.7818135619163513
1774472942240275700,3.510275634765625,0.3264841139316559,4.166774749755859,-0.42013683915138245
1774472942250303500,3.520303466796875,0.45837557315826416,2.792346954345703,0.013488112017512321
1774472942260331500,3.53033154296875,0.6616325378417969,1.810266137123108,0.41741853952407837
1774472942270359600,3.540359619140625,0.8789190649986267,1.1483670473098755,0.6810315251350403
1774472942280387600,3.5503876953125,1.0557079315185547,0.6493175625801086,0.7622065544128418
1774472942290415600,3.56041552734375,1.1525756120681763,0.6117414236068726,0.649597704410553
1774472942300443600,3.570443603515625,1.1180824041366577,0.8944671154022217,0.2835078835487366
1774472942310471400,3.580471435546875,0.9947655200958252,1.0944252014160156,-0.2901473939418793
1774472942320499700,3.590499755859375,0.9510875344276428,0.8640109300613403,-0.8983907699584961
1774472942330527500,3.600527587890625,1.0014052391052246,0.31668925285339355,-1.3596097230911255
1774472942340555500,3.610555419921875,1.0928635597229004,-0.3187316358089447,-1.5514607429504395
1774472942350583600,3.62058349609375,1.2374173402786255,-0.8835500478744507,-1.4626415967941284
1774472942360611300,3.630611328125,1.5721606016159058,-1.1735190153121948,-1.1959306001663208
1774472942370639600,3.6406396484375,2.125746250152588,-1.2628859281539917,-0.8814533352851868
1774472942380667400,3.65066748046875,2.7750661373138428,-1.4007699489593506,-0.5790087580680847
1774472942390695700,3.66069580078125,3.3006367683410645,-1.2592589855194092,-0.3174077868461609
1774472942400723500,3.670723388671875,3.636348009109497,-1.0594350099563599,-0.17320267856121063
1774472942410751500,3.68075146484375,3.8102011680603027,-0.7393406629562378,-0.1475290060043335
1774472942420779500,3.690779541015625,3.829969882965088,-0.5965020060539246,-0.25538381934165955
1774472942430807600,3.7008076171875,3.7119405269622803,-0.8104731440544128,-0.34341514110565186
1774472942440835600,3.710835693359375,3.454172134399414,-0.4391046464443207,-0.3605656325817108
1774472942450863600,3.720863525390625,2.8646862506866455,0.3568260371685028,-0.5281064510345459
1774472942460891400,3.730891357421875,2.152467727661133,1.0169904232025146,-0.7645837068557739
1774472942470919700,3.740919677734375,1.6811790466308594,1.4379194974899292,-0.9293918013572693
1774472942480947500,3.750947509765625,1.3835124969482422,1.635321021080017,-0.955866813659668
1774472942490975700,3.760975830078125,1.0821901559829712,1.5048189163208008,-0.9320895671844482
1774472942501003500,3.77100341796875,0.8695092797279358,1.042836308479309,-0.7997161149978638
1774472942511031600,3.781031494140625,0.8158940076828003,0.42801764607429504,-0.5412315726280212
1774472942521059600,3.7910595703125,0.8030605316162109,-0.15986236929893494,-0.19235746562480927
1774472942531087600,3.801087646484375,0.784013032913208,-0.5267540812492371,0.1996031254529953
1774472942541115600,3.81111572265625,0.7549931406974792,-0.6195234656333923,0.5215438604354858
1774472942551143700,3.821143798828125,0.7158433198928833,-0.4972393214702606,0.704814076423645
1774472942561171500,3.83117138671875,0.5992026925086975,-0.16808009147644043,0.7262962460517883
1774472942571199700,3.84119970703125,0.3728705048561096,0.18535254895687103,0.6565150022506714
1774472942581227500,3.8512275390625,0.09549243748188019,0.4459410011768341,0.5525848865509033
1774472942591255600,3.861255615234375,-0.1585337221622467,0.6536089777946472,0.40063396096229553
1774472942601283600,3.87128369140625,-0.3360927999019623,0.7685145139694214,0.198691263794899
1774472942611311400,3.881311279296875,-0.3715125620365143,0.6759965419769287,-0.04039296135306358
1774472942621339600,3.891339599609375,-0.28054431080818176,0.4735710322856903,-0.31147879362106323
1774472942631368700,3.90136865234375,-0.14736922085285187,0.09211740642786026,-0.5774303078651428
1774472942641396500,3.911396484375,0.01184946857392788,-0.47429966926574707,-0.7504944801330566
1774472942651424800,3.9214248046875,0.19964812695980072,-1.029590368270874,-0.7541614174842834
1774472942661452500,3.93145263671875,0.3947230875492096,-1.5091869831085205,-0.6253112554550171
1774472942671478500,3.941478515625,0.5650732517242432,-1.6466000080108643,-0.4652648866176605
1774472942681506600,3.951506591796875,0.7000800371170044,-1.308227777481079,-0.5058637261390686
1774472942691534600,3.96153466796875,0.790519654750824,-0.9858859777450562,-0.6506491303443909
1774472942701562600,3.971562744140625,0.7661696076393127,-0.7112219333648682,-0.7464156150817871
1774472942711590700,3.981590576171875,0.6663042306900024,-0.6884921193122864,-0.7031576037406921
1774472942721618700,3.99161865234375,0.5655105113983154,-0.7347943782806396,-0.49772191047668457
1774472942731646500,4.001646484375,0.44349008798599243,-0.5842189788818359,-0.27041152119636536
1774472942741674800,4.0116748046875,0.27652984857559204,-0.37431126832962036,-0.16366855800151825
1774472942751702500,4.02170263671875,0.07446730881929398,-0.13560417294502258,-0.2401963621377945
1774472942761730600,4.03173046875,-0.07097004354000092,0.1800462007522583,-0.434068888425827
1774472942771758600,4.041758544921875,-0.11540941894054413,0.34933483600616455,-0.6154882311820984
1774472942781786400,4.051786376953125,-0.0684344545006752,0.25053420662879944,-0.6521815061569214
1774472942791814700,4.061814697265625,0.03211931884288788,0.06645039469003677,-0.538112223148346
1774472942801842400,4.071842529296875,0.19088900089263916,-0.22202721238136292,-0.36966007947921753
1774472942811870500,4.081870361328125,0.3943031132221222,-0.5436102747917175,-0.2547513246536255
1774472942821898500,4.0918984375,0.559405505657196,-0.7563707828521729,-0.225050687789917
1774472942831926500,4.101926513671875,0.6167675852775574,-0.738506555557251,-0.19275107979774475
1774472942841954600,4.11195458984375,0.5800995826721191,-0.1906578242778778,-0.1805974692106247
1774472942851982600,4.121982666015625,0.6013351082801819,0.008837167173624039,-0.28789544105529785
1774472942862010400,4.13201025390625,0.6138852834701538,-0.08672770112752914,-0.38175588846206665
1774472942872039700,4.142039794921875,0.5072165727615356,0.05495432764291763,-0.3416265845298767
1774472942882067500,4.1520673828125,0.366379052400589,0.07267526537179947,-0.32416582107543945
1774472942892095500,4.162095458984375,0.29797524213790894,-0.012220180593430996,-0.3679226338863373
1774472942902123500,4.17212353515625,0.2631749212741852,-0.12427055090665817,-0.4198143184185028
1774472942912151600,4.182151611328125,0.24288348853588104,-0.24272875487804413,-0.41342538595199585
1774472942922179600,4.1921796875,0.3061721622943878,-0.3194544315338135,-0.3325366675853729
1774472942932207600,4.20220751953125,0.44997116923332214,-0.29326730966567993,-0.20382103323936462
1774472942942235400,4.2122353515625,0.6028152704238892,-0.2178947776556015,-0.05122537165880203
1774472942952263700,4.222263671875,0.718624472618103,-0.23069792985916138,0.05199555680155754
1774472942962291500,4.23229150390625,0.7510689496994019,-0.17006920278072357,0.05648964270949364
1774472942972319500,4.242319580078125,0.7054553627967834,-0.14958177506923676,-0.07362522184848785
1774472942982347500,4.252347412109375,0.6438087821006775,-0.16829180717468262,-0.325360506772995
1774472942992375600,4.26237548828125,0.5903179049491882,-0.15376506745815277,-0.614617645740509
1774472943002403600,4.272403564453125,0.5859279036521912,-0.22588399052619934,-0.8600995540618896
1774472943012431600,4.282431640625,0.6533535718917847,-0.3935406506061554,-1.0455666780471802
1774472943022459400,4.29245947265625,0.7812332510948181,-0.7116293907165527,-1.1314032077789307
1774472943032487700,4.30248779296875,0.9668635725975037,-0.8616798520088196,-1.051796317100525
1774472943042515500,4.312515380859375,1.1394574642181396,-0.794243335723877,-0.8350165486335754
1774472943052543700,4.322543701171875,1.3119533061981201,-0.6629880666732788,-0.5742986798286438
1774472943062571500,4.332571533203125,1.4574357271194458,-0.3020368218421936,-0.3953113853931427
1774472943072599600,4.342599609375,1.4876664876937866,-0.0964389219880104,-0.34179407358169556
1774472943082627600,4.352627685546875,1.4470703601837158,0.07169070094823837,-0.35463160276412964
1774472943092655600,4.362655517578125,1.392739176750183,0.24897412955760956,-0.43269869685173035
1774472943102686500,4.3726865234375,1.3179593086242676,0.3609376847743988,-0.571955680847168
1774472943112714500,4.382714599609375,1.252195119857788,0.44632023572921753,-0.7353472113609314
1774472943122742500,4.392742431640625,1.1894174814224243,0.5119125247001648,-0.8493936657905579
1774472943132770600,4.4027705078125,1.0870161056518555,0.5488553643226624,-0.8449927568435669
1774472943142798300,4.41279833984375,0.992761492729187,0.41938820481300354,-0.7128629684448242
1774472943152826600,4.42282666015625,0.9452906250953674,0.31516993045806885,-0.5415593981742859
1774472943162854400,4.4328544921875,0.9096245169639587,0.18851931393146515,-0.4107672870159149
1774472943172882400,4.44288232421875,0.8756383061408997,0.35165631771087646,-0.2882336676120758
1774472943182910500,4.452910400390625,0.8326634168624878,0.5138952732086182,-0.23009444773197174
1774472943192938500,4.4629384765625,0.7624108195304871,0.575769305229187,-0.2502223551273346
1774472943202966500,4.472966552734375,0.6629393696784973,0.6854678392410278,-0.30889153480529785
1774472943212994600,4.48299462890625,0.5918824672698975,0.9166229963302612,-0.36956021189689636
1774472943223022300,4.493022216796875,0.5705042481422424,0.9694907665252686,-0.40522950887680054
1774472943233050400,4.50305029296875,0.64734947681427,0.9023348689079285,-0.43007761240005493
1774472943243078400,4.513078369140625,0.8057540059089661,0.764732837677002,-0.4808470606803894
1774472943253106400,4.5231064453125,0.9155181050300598,0.7322129607200623,-0.5508453249931335
1774472943263134500,4.533134521484375,0.9377411007881165,0.9023487567901611,-0.6552289724349976
1774472943273162200,4.543162353515625,0.9662036299705505,0.8243229389190674,-0.8210389614105225
1774472943283190500,4.5531904296875,0.9938879609107971,0.7097334861755371,-0.896756649017334
1774472943293218300,4.56321826171875,0.9997873902320862,0.41223710775375366,-0.9238601326942444
1774472943303246600,4.57324658203125,1.03947913646698,0.15804849565029144,-0.8905450701713562
1774472943313274400,4.5832744140625,1.1250308752059937,-0.13908891379833221,-0.8579897880554199
1774472943323302400,4.593302490234375,1.185828685760498,-0.19565099477767944,-0.8096904754638672
1774472943333330400,4.603330322265625,1.1795084476470947,-0.03808853030204773,-0.8166519403457642
1774472943343358500,4.6133583984375,1.1169556379318237,0.0565575510263443,-0.8452537655830383
1774472943353387300,4.62338720703125,0.9880679249763489,0.2608422338962555,-0.768831193447113
1774472943363415600,4.63341552734375,0.7642009854316711,0.47318035364151,-0.5843923687934875
1774472943373443300,4.643443359375,0.527198314666748,0.5784969329833984,-0.3566529154777527
1774472943383471600,4.6534716796875,0.3040136992931366,0.5167919993400574,-0.1900452971458435
1774472943393499400,4.66349951171875,0.09511932730674744,0.36411163210868835,-0.13454316556453705
1774472943403527400,4.67352734375,-0.06646717339754105,0.239340677857399,-0.14226233959197998
1774472943413555500,4.683555419921875,-0.1455223113298416,0.029326463118195534,-0.15422312915325165
1774472943423583500,4.69358349609375,-0.18484148383140564,-0.1968289017677307,-0.1476786732673645
1774472943433611500,4.703611572265625,-0.15107101202011108,-0.2652282118797302,-0.11902332305908203
1774472943443639600,4.7136396484375,-0.034274883568286896,-0.5654338598251343,-0.2116536647081375
1774472943453667300,4.723667236328125,0.10199480503797531,-0.04152027890086174,-0.3754356801509857
1774472943463695600,4.733695556640625,0.18049520254135132,-0.06722484529018402,-0.4533648192882538
1774472943473723400,4.743723388671875,0.21806229650974274,-0.7229717969894409,-0.5319501757621765
1774472943483751400,4.75375146484375,0.21279722452163696,-1.1221405267715454,-0.5707769393920898
1774472943493779500,4.763779541015625,0.11923504620790482,-1.3523894548416138,-0.5786726474761963
1774472943503807500,4.773807373046875,-0.14940333366394043,-1.559486985206604,-0.599085807800293
1774472943513835500,4.78383544921875,-0.5418299436569214,-1.6482690572738647,-0.6284194588661194
1774472943523863600,4.793863525390625,-0.9025583267211914,-1.4912242889404297,-0.5943584442138672
1774472943533891300,4.803891357421875,-1.1693059206008911,-1.3193200826644897,-0.454317182302475
1774472943543919600,4.813919677734375,-1.3976287841796875,-1.3595807552337646,-0.14380083978176117
1774472943553947400,4.823947509765625,-1.5457732677459717,-1.291656255722046,0.2802119553089142
1774472943563975700,4.8339755859375,-1.4586647748947144,-1.0022772550582886,0.545510470867157
1774472943574003500,4.84400341796875,-1.0709630250930786,-0.6749310493469238,0.6223477125167847
1774472943584031200,4.85403125,-0.5453618764877319,-0.3398957848548889,0.6444863080978394
1774472943594059500,4.8640595703125,-0.07933130860328674,-0.2641778588294983,0.6178703904151917
1774472943604087300,4.87408740234375,0.23531025648117065,-0.1051541194319725,0.5583831071853638
1774472943614115600,4.884115478515625,0.4950864315032959,-0.0596444234251976,0.3788194954395294
1774472943624143400,4.894143310546875,0.7328547835350037,0.22690026462078094,0.19167914986610413
1774472943634171400,4.90417138671875,0.9035149216651917,0.6060118675231934,0.10098972916603088
1774472943644199400,4.914199462890625,0.9845123291015625,0.8930918574333191,0.16743160784244537
1774472943654227500,4.9242275390625,0.9549136757850647,0.9763396382331848,0.37044864892959595
1774472943664255500,4.93425537109375,0.8319733738899231,1.028423547744751,0.6303151249885559
1774472943674283500,4.944283447265625,0.6444719433784485,0.8257938027381897,0.7650630474090576
1774472943684311300,4.954311279296875,0.581455409526825,0.48290327191352844,0.7169724702835083
1774472943694339600,4.964339599609375,0.7406117916107178,0.14264076948165894,0.6224542260169983
1774472943704367400,4.974367431640625,1.0552884340286255,-0.08555538207292557,0.5980285406112671
1774472943714395600,4.984395751953125,1.4030669927597046,-0.33326610922813416,0.6082302927970886
1774472943724423400,4.99442333984375,1.6545673608779907,-0.5471674799919128,0.5736129283905029
1774472943734451500,5.004451416015625,1.800551176071167,-0.7671096920967102,0.46808385848999023
1774472943744479500,5.0144794921875,1.8701406717300415,-0.8727208375930786,0.3956490755081177
1774472943754507500,5.024507568359375,1.8432608842849731,-0.821367621421814,0.44962334632873535
1774472943764535600,5.03453564453125,1.7372883558273315,-0.6750743389129639,0.4744645059108734
1774472943774563600,5.0445634765625,1.6269652843475342,-0.5585466623306274,0.4143308699131012
1774472943784591400,5.05459130859375,1.4942083358764648,-0.5242557525634766,0.2794657349586487
1774472943794619600,5.06461962890625,1.3785642385482788,-0.4389352798461914,0.2032889425754547
1774472943804647400,5.0746474609375,1.237404227256775,-0.3653276562690735,0.1605428010225296
1774472943814675500,5.084675537109375,0.953981339931488,-0.09175068885087967,0.18796004354953766
1774472943824703500,5.094703369140625,0.6396486759185791,-0.27191275358200073,0.09204789996147156
1774472943834731500,5.1047314453125,0.45583704113960266,-0.2833033502101898,0.0014064153656363487
1774472943844759600,5.114759521484375,0.17365434765815735,-0.2722376585006714,-0.06988614052534103
1774472943854787300,5.124787353515625,-0.21594400703907013,-0.266106516122818,-0.14602938294410706
1774472943864815400,5.1348154296875,-0.5711926817893982,-0.2184862643480301,-0.16810351610183716
1774472943874844700,5.1448447265625,-0.8606745600700378,-0.23887409269809723,-0.06435368955135345
1774472943884872400,5.15487255859375,-1.055760383605957,-0.32707479596138,0.13241316378116608
1774472943894900500,5.164900390625,-1.1382685899734497,-0.4563382565975189,0.30195319652557373
1774472943904928500,5.174928466796875,-1.1471041440963745,-0.6790874600410461,0.4545366168022156
1774472943914956500,5.18495654296875,-1.0834999084472656,-1.040217638015747,0.5936145782470703
1774472943924984600,5.194984619140625,-0.8977150917053223,-1.4732722043991089,0.6733161211013794
1774472943935012600,5.2050126953125,-0.6265544295310974,-1.9188637733459473,0.6754383444786072
1774472943945040400,5.215040283203125,-0.3160399794578552,-2.021327257156372,0.6308879256248474
1774472943955068400,5.225068359375,-0.0526493638753891,-1.720291018486023,0.49873682856559753
1774472943965096400,5.235096435546875,0.07018308341503143,-1.4124006032943726,0.33536121249198914
1774472943975124500,5.24512451171875,0.01492462120950222,-0.8955062627792358,0.19869178533554077
1774472943985152500,5.255152587890625,-0.21532030403614044,-0.5012439489364624,0.03238297253847122
1774472943995180300,5.26518017578125,-0.5220173597335815,-0.21731500327587128,-0.11652661114931107
1774472944005208600,5.27520849609375,-0.8176705837249756,0.07302174717187881,-0.21840237081050873
1774472944015236400,5.285236328125,-1.0782142877578735,0.2831036150455475,-0.2824932038784027
1774472944025264400,5.295264404296875,-1.2385616302490234,0.4383581876754761,-0.2683022916316986
1774472944035292400,5.30529248046875,-1.2488925457000732,0.5250254273414612,-0.20176827907562256
1774472944045320400,5.315320556640625,-1.1479382514953613,0.5837465524673462,-0.12116237729787827
1774472944055348500,5.325348388671875,-1.030928611755371,0.6372182965278625,-0.0712885633111
1774472944065376500,5.33537646484375,-0.9722836017608643,0.821819007396698,-0.17490816116333008
1774472944075404300,5.345404296875,-0.824128270149231,0.7188947796821594,-0.2459900677204132
1774472944085432600,5.3554326171875,-0.6403815746307373,0.6003113985061646,-0.21705828607082367
1774472944095460400,5.36546044921875,-0.601997971534729,0.5119714140892029,-0.12536723911762238
1774472944105484500,5.375484619140625,-0.7065044045448303,0.3161984384059906,0.04346198961138725
1774472944115512300,5.38551220703125,-0.8568281531333923,0.05086158215999603,0.16344085335731506
1774472944125540600,5.39554052734375,-1.065921425819397,0.03910292685031891,-0.12752945721149445
1774472944135568400,5.405568359375,-1.1378957033157349,0.06659873574972153,-0.5990208387374878
1774472944145596400,5.415596435546875,-1.0321565866470337,0.2420528382062912,-0.9666241407394409
1774472944155624400,5.42562451171875,-0.8791046738624573,0.3335667848587036,-1.091491460800171
1774472944165652500,5.435652587890625,-0.6931382417678833,0.4015655517578125,-0.9699389934539795
1774472944175680500,5.445680419921875,-0.506499171257019,0.3683532476425171,-0.7161274552345276
1774472944185708500,5.45570849609375,-0.39268842339515686,0.14903394877910614,-0.46911874413490295
1774472944195736300,5.465736328125,-0.3723818361759186,-0.11413509398698807,-0.3856382369995117
1774472944205764600,5.4757646484375,-0.3887922167778015,-0.37869563698768616,-0.513908863067627
1774472944215792400,5.48579248046875,-0.31924402713775635,-0.5804785490036011,-0.7160561084747314
1774472944225820400,5.4958203125,-0.12024065852165222,-0.6572324633598328,-0.7534231543540955
1774472944235848400,5.505848388671875,0.12628310918807983,-0.6051282286643982,-0.5893988013267517
1774472944245876200,5.515876220703125,0.40283718705177307,-0.5410997271537781,-0.26473551988601685
1774472944255904500,5.525904541015625,0.6607766151428223,-0.3442995846271515,0.06950157880783081
1774472944265932300,5.535932373046875,0.8515025973320007,-0.1595771461725235,0.28994739055633545
1774472944275960300,5.545960205078125,0.917609453201294,0.07055965065956116,0.5271138548851013
1774472944285988400,5.55598828125,0.8003236055374146,0.12814731895923615,0.6142131090164185
1774472944296016400,5.566016357421875,0.7057377099990845,0.17757132649421692,0.6071759462356567
1774472944306044400,5.57604443359375,0.6664981245994568,0.2464127093553543,0.6110617518424988
1774472944316072400,5.586072509765625,0.6311438679695129,0.28998467326164246,0.6307933926582336
1774472944326100200,5.596100341796875,0.6536555886268616,0.25743046402931213,0.6985098719596863
1774472944336128500,5.60612841796875,0.677017331123352,0.1768070012331009,0.699579119682312
1774472944346156300,5.61615625,0.6637969017028809,0.5785011649131775,0.9141454696655273
1774472944356184600,5.6261845703125,0.4976406693458557,0.6571317911148071,1.0673147439956665
1774472944366212400,5.63621240234375,0.3535010814666748,0.8805686235427856,1.224170207977295
1774472944376240400,5.646240478515625,0.21606652438640594,0.9771875739097595,1.3799488544464111
1774472944386268400,5.656268310546875,0.1510172188282013,0.8186770081520081,1.5494396686553955
1774472944396296400,5.66629638671875,0.21817654371261597,0.48595526814460754,1.646470546722412
1774472944406324500,5.676324462890625,0.3556419909000397,0.17173686623573303,1.608605980873108
1774472944416352500,5.6863525390625,0.5097620487213135,-0.08801960200071335,1.4791367053985596
1774472944426380300,5.69638037109375,0.7022846341133118,-0.5661669969558716,1.155418872833252
1774472944436408600,5.70640869140625,1.0452179908752441,-0.9208340048789978,0.7932667136192322
1774472944446436400,5.716436279296875,1.2736666202545166,-0.9426141381263733,0.6184530854225159
1774472944456464600,5.726464599609375,1.1196826696395874,-0.7616478204727173,0.4873257279396057
1774472944466492400,5.736492431640625,0.8449261784553528,-0.4395669996738434,0.4434530735015869
1774472944476520400,5.7465205078125,0.5730893611907959,-0.08882308006286621,0.3846270442008972
1774472944486548500,5.756548583984375,0.2522580921649933,0.3349846601486206,0.37310460209846497
1774472944496576300,5.766576171875,-0.07534854859113693,0.5838953852653503,0.4285324513912201
1774472944506605300,5.776605224609375,-0.3956719636917114,0.7515522837638855,0.48324334621429443
1774472944516633600,5.786633544921875,-0.6311113834381104,0.9216625094413757,0.5496929287910461
1774472944526661400,5.796661376953125,-0.7376370429992676,0.8383199572563171,0.5754968523979187
1774472944536689400,5.806689453125,-0.8040597438812256,0.8368754386901855,0.6176691055297852
1774472944546717400,5.816717529296875,-0.8487470149993896,0.6563736200332642,0.5963832139968872
1774472944556745500,5.826745361328125,-0.7868298888206482,0.47447091341018677,0.5590933561325073
1774472944566773500,5.8367734375,-0.659602701663971,0.3253900706768036,0.5829539895057678
1774472944576801500,5.846801513671875,-0.59721440076828,0.26674699783325195,0.6366262435913086
1774472944586829300,5.856829345703125,-0.5986139178276062,0.2280222475528717,0.6253448128700256
1774472944596857300,5.866857421875,-0.6764008402824402,0.36355477571487427,0.6292005777359009
1774472944606885400,5.876885498046875,-0.867841899394989,0.45022308826446533,0.7006558179855347
1774472944616913400,5.886913330078125,-1.0706783533096313,0.49619030952453613,0.758229672908783
1774472944626941400,5.89694140625,-1.2749515771865845,0.7006512880325317,0.8048450946807861
1774472944636969200,5.90696923828125,-1.4575022459030151,0.8572084307670593,0.834138810634613
1774472944646997500,5.91699755859375,-1.4915292263031006,0.8819976449012756,0.8962565064430237
1774472944657025300,5.927025390625,-1.4529227018356323,0.9415536522865295,0.9969892501831055
1774472944667053600,5.937053466796875,-1.3295650482177734,1.1446218490600586,1.0468350648880005
1774472944677081300,5.947081298828125,-1.0508754253387451,0.9495378136634827,0.9344382286071777
1774472944687109400,5.957109375,-0.6535727381706238,0.8190264105796814,0.8775075674057007
1774472944697137400,5.967137451171875,-0.3275163471698761,0.699425995349884,0.8642681837081909
1774472944707165400,5.97716552734375,-0.08843611925840378,0.4386194348335266,0.8344892859458923
1774472944717193500,5.987193359375,-0.06549059599637985,-0.21065470576286316,0.42950424551963806
1774472944727221500,5.997221435546875,-0.47229138016700745,-0.14415131509304047,0.009316536597907543
1774472944737249300,6.007249267578125,-0.9143822193145752,-0.10372745990753174,-0.024698954075574875
1774472944747277600,6.017277587890625,-1.283949375152588,0.07833714783191681,0.13801991939544678
1774472944757305300,6.027305419921875,-1.5132712125778198,0.30859673023223877,0.23990820348262787
1774472944767333600,6.037333740234375,-1.6630498170852661,0.5659582018852234,0.232709139585495
1774472944777361400,6.047361328125,-1.7464954853057861,0.728050172328949,0.0625121146440506
1774472944787389400,6.057389404296875,-1.7417705059051514,0.8311691284179688,-0.1096564531326294
1774472944797417500,6.06741748046875,-1.6998376846313477,0.8808282613754272,-0.22142159938812256
1774472944807445500,6.077445556640625,-1.6090576648712158,0.6499865651130676,-0.29655149579048157
1774472944817473500,6.0874736328125,-1.5414307117462158,0.5250906944274902,-0.3046741485595703
1774472944827501600,6.09750146484375,-1.5509437322616577,0.4810177683830261,-0.2546200454235077
1774472944837529300,6.107529296875,-1.596034288406372,0.45550069212913513,-0.12867994606494904
1774472944847557400,6.117557373046875,-1.660000205039978,0.5633181929588318,-0.04541834816336632
1774472944857585400,6.12758544921875,-1.661805272102356,0.5910358428955078,0.03780889883637428
1774472944867613400,6.137613525390625,-1.568924903869629,0.4862159788608551,0.10022327303886414
1774472944877641500,6.147641357421875,-1.4940259456634521,0.4551587402820587,0.08382166177034378
1774472944887669200,6.157669189453125,-1.3818525075912476,0.41919514536857605,0.06132567673921585
1774472944897697500,6.167697509765625,-1.278481125831604,0.39228469133377075,0.132679745554924
1774472944907725300,6.177725341796875,-1.2091419696807861,0.5228733420372009,0.1675085723400116
1774472944917753300,6.18775341796875,-1.1095962524414062,0.5520762205123901,0.23352301120758057
1774472944927781400,6.197781494140625,-0.9865301847457886,0.5053790211677551,0.30048367381095886
1774472944937809400,6.207809326171875,-0.8371071815490723,0.29333147406578064,0.3221282362937927
1774472944947837400,6.21783740234375,-0.6831120252609253,0.11885208636522293,0.2967943847179413
1774472944957865500,6.227865478515625,-0.5545936822891235,0.04585537314414978,0.26066675782203674
1774472944967893200,6.237893310546875,-0.44228580594062805,0.071813203394413,0.18918749690055847
1774472944977921500,6.247921630859375,-0.3319007158279419,0.07159295678138733,0.1345255821943283
1774472944987949300,6.25794921875,-0.2278563380241394,0.03521231561899185,0.14312998950481415
1774472944997977600,6.2679775390625,-0.12742027640342712,-0.00018455706594977528,0.19224640727043152
1774472945008005400,6.27800537109375,-0.030429277569055557,-0.0030866037122905254,0.22959111630916595
1774472945018033400,6.288033447265625,0.044201549142599106,0.04787697643041611,0.2554442882537842
1774472945028061400,6.2980615234375,0.09796305000782013,0.30093827843666077,0.2964194118976593
1774472945038089500,6.30808935546875,0.14361868798732758,0.38882923126220703,0.4172837734222412
1774472945048117500,6.318117431640625,0.15817126631736755,0.44111695885658264,0.5082749724388123
1774472945058145500,6.3281455078125,0.16752934455871582,0.4975796937942505,0.48101961612701416
1774472945068173300,6.33817333984375,0.18953637778759003,0.5984242558479309,0.3963918089866638
1774472945078201600,6.34820166015625,0.23683065176010132,0.6973276734352112,0.2721833288669586
1774472945088229400,6.3582294921875,0.28322717547416687,0.7527057528495789,0.16537217795848846
1774472945098262000,6.368261962890625,0.3396904468536377,0.7245020270347595,0.1690196543931961
1774472945108290000,6.3782900390625,0.3637116253376007,0.6611707210540771,0.21897922456264496
1774472945118318000,6.388318115234375,0.36063674092292786,0.5976817607879639,0.20635131001472473
1774472945128345900,6.398345947265625,0.31905999779701233,0.5231422781944275,0.14545972645282745
1774472945138374100,6.4083740234375,0.23721681535243988,0.436420202255249,0.05793547257781029
1774472945148402000,6.41840185546875,0.11168285459280014,0.3600737452507019,0.015148326754570007
1774472945158430200,6.42843017578125,0.0054578823037445545,0.35479989647865295,0.057618554681539536
1774472945168458000,6.4384580078125,-0.07565081864595413,0.3204701542854309,0.08861002326011658
1774472945178486000,6.448486083984375,-0.14191105961799622,0.2862013876438141,0.04874223843216896
1774472945188514000,6.45851416015625,-0.22508744895458221,0.2624662518501282,-0.047206927090883255
1774472945198542000,6.4685419921875,-0.35972195863723755,0.25237151980400085,-0.10807880014181137
1774472945208570000,6.478570068359375,-0.416735976934433,0.45305004715919495,-0.13620470464229584
1774472945218598100,6.48859814453125,-0.5531361699104309,0.3587685525417328,-0.17922541499137878
1774472945228626000,6.4986259765625,-0.6780967116355896,0.4464280903339386,-0.15267929434776306
1774472945238654200,6.508654296875,-0.7836247682571411,0.6974318027496338,-0.1284852772951126
1774472945248682000,6.518681884765625,-0.9347535371780396,1.0474052429199219,-0.10537222772836685
1774472945258710300,6.528710205078125,-0.9573842883110046,1.7574210166931152,-0.000910268456209451
1774472945268738000,6.538738037109375,-0.8787094354629517,1.8472161293029785,0.06346286088228226
1774472945278766000,6.54876611328125,-0.8749019503593445,1.3593453168869019,0.22926993668079376
1774472945288794000,6.558794189453125,-0.9271462559700012,0.7722341418266296,0.3098050057888031
1774472945298822100,6.568822265625,-1.0527249574661255,0.272756427526474,0.28676626086235046
1774472945308850200,6.57885009765625,-1.1286436319351196,-0.3886129856109619,0.27610403299331665
1774472945318878000,6.5888779296875,-1.4419810771942139,-0.9234724044799805,0.24105602502822876
1774472945328906000,6.598906005859375,-1.6590702533721924,-1.3079402446746826,0.19345948100090027
1774472945338934000,6.60893408203125,-1.8240307569503784,-1.3956899642944336,0.22200776636600494
1774472945348962000,6.618962158203125,-1.9089034795761108,-1.529158115386963,0.28824618458747864
1774472945358990000,6.628989990234375,-1.9566569328308105,-1.779994249343872,0.3693372905254364
1774472945369018000,6.63901806640625,-1.9534528255462646,-2.130359649658203,0.49365952610969543
1774472945379046000,6.6490458984375,-1.9569439888000488,-2.3109495639801025,0.6511332988739014
1774472945389074200,6.65907421875,-1.919044852256775,-2.333977699279785,0.7828665375709534
1774472945399102000,6.66910205078125,-1.9188661575317383,-2.4258921146392822,0.8564086556434631
1774472945409130000,6.6791298828125,-1.999983310699463,-2.4935638904571533,0.8912108540534973
1774472945419158000,6.689157958984375,-2.1172733306884766,-2.3431732654571533,1.002047061920166
1774472945429186000,6.69918603515625,-2.2107608318328857,-2.1483514308929443,1.1357578039169312
1774472945439214000,6.709214111328125,-2.3093388080596924,-1.991281270980835,1.2791684865951538
1774472945449242000,6.7192421875,-2.394692897796631,-1.7223211526870728,1.4164533615112305
1774472945459270000,6.729269775390625,-2.4748713970184326,-1.5543638467788696,1.4955841302871704
1774472945469298200,6.739298095703125,-2.5763602256774902,-1.4791377782821655,1.518481969833374
1774472945479326000,6.749325927734375,-2.6864144802093506,-1.46722412109375,1.5278115272521973
1774472945489354200,6.759354248046875,-2.8401882648468018,-1.500086784362793,1.5014140605926514
1774472945499382000,6.769382080078125,-3.013927936553955,-1.518695592880249,1.4344781637191772
1774472945509411000,6.7794111328125,-3.129244089126587,-1.4308823347091675,1.3722952604293823
1774472945519439000,6.789439208984375,-3.1904778480529785,-1.1796996593475342,1.2940163612365723
1774472945529467100,6.799467041015625,-3.221452236175537,-1.108356237411499,1.11598801612854
1774472945539495000,6.809494873046875,-3.229128360748291,-1.057342290878296,0.888921856880188
1774472945549523200,6.819523193359375,-3.1938347816467285,-0.8943856358528137,0.722213089466095
1774472945559551000,6.829551025390625,-3.1594741344451904,-0.6330773234367371,0.691729724407196
1774472945569579000,6.8395791015625,-3.129100799560547,-0.6093224883079529,0.7084181308746338
1774472945579607000,6.84960693359375,-3.0713813304901123,-0.5637741684913635,0.7519217133522034
1774472945589635000,6.859635009765625,-2.9951484203338623,-0.6011872887611389,0.7341264486312866
1774472945599663000,6.8696630859375,-2.9188382625579834,-0.578544020652771,0.5934394001960754
1774472945609691100,6.879691162109375,-2.847890853881836,-0.3960147202014923,0.333577960729599
1774472945619719000,6.889718994140625,-2.752835988998413,-0.4951056241989136,0.06731006503105164
1774472945629747200,6.899747314453125,-2.7786405086517334,-0.38768380880355835,-0.2506149113178253
1774472945639775000,6.90977490234375,-2.8391804695129395,-0.34806981682777405,-0.5053888559341431
1774472945649803300,6.91980322265625,-2.898308515548706,-0.33623820543289185,-0.732452929019928
1774472945659831000,6.9298310546875,-2.9454293251037598,-0.3091756999492645,-0.9335759282112122
1774472945669858800,6.93985888671875,-2.9411962032318115,-0.2495800107717514,-1.0965744256973267
1774472945679887000,6.94988720703125,-2.8941879272460938,-0.2608228027820587,-1.2376774549484253
1774472945689915000,6.959914794921875,-2.8137049674987793,-0.3930748403072357,-1.3700530529022217
1774472945699943200,6.969943115234375,-2.696514844894409,-0.5030668377876282,-1.4684531688690186
1774472945709971000,6.979970947265625,-2.515742778778076,-0.30630266666412354,-1.4685298204421997
1774472945719999000,6.9899990234375,-2.2827725410461426,0.027657993137836456,-1.3647887706756592
1774472945730027000,7.000027099609375,-2.0612633228302,-0.09072084724903107,-1.279837727546692
1774472945740055000,7.010054931640625,-1.8492127656936646,-0.323338121175766,-1.2251675128936768
1774472945750083000,7.0200830078125,-1.6724331378936768,-0.5006284713745117,-1.1421879529953003
1774472945760111000,7.030111083984375,-1.519097924232483,-0.43233463168144226,-1.0132241249084473
1774472945770139000,7.040138916015625,-1.3963606357574463,-0.23906265199184418,-0.8352330923080444
1774472945780167200,7.050167236328125,-1.3385097980499268,-0.05483129248023033,-0.6215189695358276
1774472945790195000,7.06019482421875,-1.364494800567627,0.15066008269786835,-0.3794519901275635
1774472945800223200,7.07022314453125,-1.4823532104492188,0.33574363589286804,-0.14092649519443512
1774472945810251000,7.0802509765625,-1.664703130722046,0.3761589825153351,0.043901678174734116
1774472945820279000,7.090279052734375,-1.8439016342163086,0.1883257031440735,0.12747353315353394
1774472945830307000,7.10030712890625,-1.9526115655899048,-0.07349099218845367,0.1123901903629303
1774472945840335000,7.110335205078125,-2.087263584136963,-0.3235061466693878,-0.041678205132484436
1774472945850363100,7.120363037109375,-2.174043655395508,-0.5829595923423767,-0.23911377787590027
1774472945860391200,7.13039111328125,-2.075138807296753,-0.7814087271690369,-0.27929794788360596
1774472945870419000,7.1404189453125,-1.9091626405715942,-0.6722127199172974,-0.1675059050321579
1774472945880447200,7.150447265625,-1.793503999710083,-0.6838001608848572,0.017831195145845413
1774472945890475000,7.16047509765625,-1.7530406713485718,-0.8637571334838867,0.2201387584209442
1774472945900503000,7.1705029296875,-1.7194912433624268,-1.0489946603775024,0.38878077268600464
1774472945910531000,7.180531005859375,-1.6362980604171753,-1.170920491218567,0.50612473487854
1774472945920558800,7.190558837890625,-1.49284827709198,-1.2129489183425903,0.5697169899940491
1774472945930587100,7.200587158203125,-1.3302860260009766,-1.1946309804916382,0.6011926531791687
1774472945940615000,7.210614990234375,-1.2158286571502686,-1.1320618391036987,0.6275020241737366
1774472945950643000,7.220642822265625,-1.104097843170166,-1.0143916606903076,0.6489492654800415
1774472945960671000,7.2306708984375,-0.959000289440155,-0.8896579742431641,0.6582252979278564
1774472945970699000,7.240698974609375,-0.7682322263717651,-0.797900915145874,0.6607459783554077
1774472945980727000,7.25072705078125,-0.5362746119499207,-0.8150082230567932,0.6457175016403198
1774472945990755000,7.260755126953125,-0.2663014531135559,-0.9044960737228394,0.5960764288902283
1774472946000782800,7.270782958984375,0.04956941679120064,-1.0347424745559692,0.49340519309043884
1774472946010811100,7.28081103515625,0.40177032351493835,-1.1516683101654053,0.30518415570259094
1774472946020839000,7.2908388671875,0.7254221439361572,-1.4464261531829834,0.016819193959236145
1774472946030867200,7.3008671875,0.9090093374252319,-1.883181095123291,-0.38480812311172485
1774472946040895000,7.31089501953125,0.8966336250305176,-2.2758285999298096,-0.8675273656845093
1774472946050923000,7.320923095703125,0.6965788006782532,-2.481440305709839,-1.3726238012313843
1774472946060951000,7.330950927734375,0.2835440933704376,-2.5423834323883057,-1.7755193710327148
1774472946070979000,7.34097900390625,-0.13877332210540771,-2.522090435028076,-1.9690086841583252
1774472946081007000,7.351007080078125,-0.4274035394191742,-2.374687671661377,-1.8937994241714478
1774472946091035100,7.36103515625,-0.7345541715621948,-1.861650824546814,-1.6620029211044312
1774472946101058300,7.371058349609375,-1.134885311126709,-1.010318636894226,-1.3431421518325806
1774472946111086000,7.381086181640625,-1.600531816482544,-0.13658767938613892,-1.0216301679611206
1774472946121114400,7.3911142578125,-2.0528340339660645,0.46859464049339294,-0.7462385296821594
1774472946131142100,7.40114208984375,-2.403878927230835,0.7263633608818054,-0.5332205295562744
1774472946141170200,7.411170166015625,-2.614687204360962,0.6644427180290222,-0.38737648725509644
1774472946151198200,7.4211982421875,-2.6878206729888916,0.39825522899627686,-0.2811296880245209
1774472946161226200,7.431226318359375,-2.6184608936309814,0.31103405356407166,-0.2066274732351303
1774472946171254300,7.441254150390625,-2.458991527557373,0.32189521193504333,-0.028730981051921844
1774472946181282300,7.4512822265625,-2.2587203979492188,-0.2984063923358917,0.17152728140354156
1774472946191310000,7.46131005859375,-2.0319039821624756,-1.1048240661621094,0.3356586992740631
1774472946201338000,7.471338134765625,-1.8367116451263428,-1.1252204179763794,0.5531563758850098
1774472946211366100,7.4813662109375,-1.6102393865585327,-0.36172571778297424,0.7744360566139221
1774472946221394200,7.491394287109375,-1.3638825416564941,0.530494749546051,1.0830188989639282
1774472946231422200,7.501422119140625,-1.0679336786270142,1.2122802734375,1.395343542098999
1774472946241450000,7.511449951171875,-0.7773357033729553,1.4592870473861694,1.6800767183303833
1774472946251478300,7.521478271484375,-0.5521105527877808,1.111284613609314,1.8140305280685425
1774472946261506000,7.531506103515625,-0.47581952810287476,0.24577833712100983,1.8366197347640991
1774472946271534000,7.5415341796875,-0.5333936214447021,-0.6179735064506531,1.8773295879364014
1774472946281562000,7.55156201171875,-0.6312274932861328,-1.2065563201904297,1.8719420433044434
1774472946291590100,7.561590087890625,-0.5698602795600891,-1.2771226167678833,1.940100908279419
1774472946301618200,7.5716181640625,-0.27204668521881104,-1.1165251731872559,1.994799017906189
1774472946311646200,7.581646240234375,0.13807611167430878,-0.8889392018318176,2.0261168479919434
1774472946321674000,7.591674072265625,0.541854202747345,-0.7515200972557068,1.977763056755066
1774472946331702300,7.601702392578125,0.8806352019309998,-0.6766298413276672,1.8810803890228271
1774472946341730000,7.61172998046875,1.1594215631484985,-0.6851016283035278,1.7399874925613403
1774472946351759000,7.621759033203125,1.302621841430664,-0.9772429466247559,1.3723093271255493
1774472946361787100,7.631787109375,1.3818210363388062,-1.3313688039779663,0.9204462766647339
1774472946371815200,7.641815185546875,1.5870658159255981,-1.4413917064666748,0.5560342073440552
1774472946381843200,7.65184326171875,1.877780795097351,-1.5139399766921997,0.2919681966304779
1774472946391871200,7.661871337890625,2.183061122894287,-1.6345915794372559,0.08198274672031403
1774472946401899000,7.67189892578125,2.3705382347106934,-1.7559802532196045,-0.07709451764822006
1774472946411927300,7.68192724609375,2.2793426513671875,-1.8745462894439697,-0.20888717472553253
1774472946421955000,7.691955078125,1.9293071031570435,-1.880638599395752,-0.418159157037735
1774472946431983400,7.7019833984375,1.5453559160232544,-1.639727234840393,-0.6064448952674866
1774472946442011100,7.71201123046875,1.2325469255447388,-1.0348743200302124,-0.6959012746810913
1774472946452039200,7.7220390625,0.9760352373123169,-0.07581939548254013,-0.6518999934196472
1774472946462067200,7.732067138671875,0.5980961918830872,0.9391288757324219,-0.443859726190567
1774472946472095200,7.74209521484375,0.06264474242925644,1.263113021850586,-0.1341618001461029
1774472946482123300,7.752123291015625,-0.34830525517463684,0.7029144763946533,0.18951666355133057
1774472946492151300,7.7621513671875,-0.40841811895370483,0.3364350199699402,0.5815398097038269
1774472946502179000,7.772178955078125,-0.277392715215683,0.4238167703151703,0.9417725801467896
1774472946512207400,7.782207275390625,-0.09627646952867508,0.6747472882270813,1.198775291442871
1774472946522235100,7.792235107421875,0.12476590275764465,0.9593853950500488,1.375402808189392
1774472946532263200,7.80226318359375,0.3048640191555023,0.9212151169776917,1.3877718448638916
1774472946542291200,7.812291259765625,0.48772332072257996,0.6764743328094482,1.2747998237609863
1774472946552319200,7.8223193359375,0.6581440567970276,0.5885196924209595,1.1004122495651245
1774472946562347300,7.83234716796875,0.7543544769287109,0.5357853770256042,0.8394731283187866
1774472946572375000,7.842375,0.7808084487915039,0.5093277096748352,0.4632161259651184
1774472946582403000,7.852403076171875,0.7331653237342834,0.5550171732902527,0.033012811094522476
1774472946592431000,7.86243115234375,0.5419069528579712,0.4349123239517212,-0.3145936131477356
1774472946602459100,7.872459228515625,0.19511756300926208,0.09755691885948181,-0.46975311636924744
1774472946612487200,7.882487060546875,-0.14700596034526825,-0.1064678505063057,-0.452530175447464
1774472946622515200,7.89251513671875,-0.293300598859787,-0.07860320061445236,-0.3414098024368286
1774472946632543000,7.90254296875,-0.34866583347320557,-0.15768949687480927,-0.18706576526165009
1774472946642571300,7.9125712890625,-0.3690169155597687,-0.3160082995891571,-0.023253656923770905
1774472946652599000,7.92259912109375,-0.35830914974212646,-0.32385531067848206,0.1512686163187027
1774472946662627300,7.93262744140625,-0.27556100487709045,-0.16283179819583893,0.3013041913509369
1774472946672655000,7.942655029296875,-0.1627415120601654,-0.06276591122150421,0.4326624870300293
1774472946682683100,7.95268310546875,-0.08226877450942993,-0.05749072507023811,0.5577759146690369
1774472946692711200,7.962711181640625,-0.03550552949309349,-0.06776946038007736,0.6492288708686829
1774472946702739200,7.9727392578125,-0.009443302638828754,-0.15079882740974426,0.6967819929122925
1774472946712767200,7.982767333984375,-0.014700382947921753,-0.24844150245189667,0.7044811844825745
1774472946722795300,7.992795166015625,-0.014385596849024296,-0.1854875683784485,0.6238095164299011
1774472946732823000,8.002822998046875,0.03104446828365326,0.034941207617521286,0.4723222553730011
1774472946742851300,8.012851318359376,0.08398571610450745,0.3008405268192291,0.33050015568733215
1774472946752879000,8.022879150390626,0.14001676440238953,0.47573110461235046,0.24231863021850586
1774472946762907400,8.032907470703124,0.21095724403858185,0.4154762923717499,0.16832482814788818
1774472946772935200,8.04293505859375,0.2836223840713501,0.17229853570461273,0.13814562559127808
1774472946782963200,8.052963134765625,0.35806334018707275,-0.06840861588716507,0.17214620113372803
1774472946792991200,8.0629912109375,0.4088743329048157,-0.23563861846923828,0.22373056411743164
1774472946803019300,8.073019287109375,0.3786381185054779,-0.35035189986228943,0.23192697763442993
1774472946813047300,8.08304736328125,0.29985249042510986,-0.31938597559928894,0.21070797741413116
1774472946823075000,8.093074951171875,0.19242644309997559,-0.13480842113494873,0.20764054358005524
1774472946833103000,8.10310302734375,0.08691012859344482,0.11235050857067108,0.17755214869976044
1774472946843131100,8.113131103515625,0.02526887133717537,0.3185039460659027,0.12380769848823547
1774472946853159200,8.1231591796875,-0.003142263740301132,0.41764944791793823,0.05940873175859451
1774472946863187200,8.133187255859376,-0.001627457677386701,0.38605156540870667,0.00729519734159112
1774472946873215200,8.14321533203125,0.019767312332987785,0.2781442701816559,-0.007478156127035618
1774472946883243000,8.153242919921874,0.05307227373123169,0.12403566390275955,0.022062690928578377
1774472946893271300,8.163271240234375,0.10138361155986786,-0.049071140587329865,0.046421028673648834
1774472946903299000,8.173299072265625,0.1307162046432495,-0.15116076171398163,0.035352397710084915
1774472946913327000,8.1833271484375,0.16580654680728912,-0.06968347728252411,0.031859394162893295
1774472946923355100,8.193355224609375,0.1924770325422287,0.1536462903022766,0.06744801253080368
1774472946933383200,8.203383056640625,0.21311120688915253,0.37312084436416626,0.133575901389122
1774472946943411200,8.2134111328125,0.23777393996715546,0.5359510183334351,0.2226346731185913
1774472946953439200,8.223439208984376,0.28201836347579956,0.6331090331077576,0.28213927149772644
1774472946963467000,8.233467041015626,0.35876959562301636,0.6879613399505615,0.26695045828819275
1774472946973495300,8.243495361328126,0.45986106991767883,0.7160766124725342,0.15627029538154602
1774472946983523000,8.253523193359374,0.5383486747741699,0.7882131338119507,0.09949729591608047
1774472946993552100,8.26355224609375,0.4630046784877777,0.6612892746925354,0.13301077485084534
1774472947003580200,8.273580078125,0.45484286546707153,0.3190900981426239,0.1268082857131958
1774472947013608200,8.283608154296875,0.5388126373291016,-0.015512380748987198,0.14437076449394226
1774472947023636200,8.29363623046875,0.6242207288742065,-0.15203213691711426,0.19807447493076324
1774472947033664300,8.303664306640625,0.6702294945716858,-0.08070097118616104,0.2106935977935791
1774472947043692000,8.313692138671875,0.6807223558425903,0.10099798440933228,0.18145979940891266
1774472947053720300,8.32372021484375,0.644655704498291,0.2557542622089386,0.12764477729797363
1774472947063748000,8.333748046875,0.558512270450592,0.35602709650993347,0.08816394954919815
1774472947073776000,8.343776123046876,0.42921528220176697,0.4150579273700714,0.09442956745624542
1774472947083804200,8.35380419921875,0.249796524643898,0.3667697310447693,0.12239275872707367
1774472947093832200,8.363832275390624,0.07901998609304428,0.21851396560668945,0.15180949866771698
1774472947103860700,8.37386083984375,-0.04001213237643242,0.09225429594516754,0.18421271443367004
1774472947113889000,8.383888916015625,-0.1080484390258789,0.015964053571224213,0.20944909751415253
1774472947123916800,8.393916748046875,-0.11291509866714478,-0.028053738176822662,0.2311227023601532
1774472947133945000,8.403945068359375,-0.0880049541592598,-0.06199119985103607,0.23540453612804413
1774472947143972900,8.413972900390625,-0.03833886608481407,-0.07731050252914429,0.1999264359474182
1774472947154001000,8.4240009765625,0.02966495044529438,-0.07223983854055405,0.1332283616065979
1774472947164029000,8.43402880859375,0.08020509034395218,-0.04615231603384018,0.034862641245126724
1774472947174057000,8.444056884765626,0.10277058929204941,-0.002406165935099125,-0.07257779687643051
1774472947184085000,8.4540849609375,0.1147119328379631,0.07122491300106049,-0.17233555018901825
1774472947194113000,8.464113037109374,0.10849984735250473,0.1090569794178009,-0.2626883387565613
1774472947204140800,8.474140869140625,0.08411114662885666,0.06595771014690399,-0.3080129623413086
1774472947214169000,8.484169189453125,0.0471922792494297,0.05295109748840332,-0.2793152630329132
1774472947224196900,8.49419677734375,0.02178572304546833,0.11065115034580231,-0.17221757769584656
1774472947234225200,8.50422509765625,-0.00944969430565834,0.1589670181274414,-0.039632365107536316
1774472947244253000,8.5142529296875,-0.03681899979710579,0.17182156443595886,0.05235055461525917
1774472947254280700,8.52428076171875,-0.04078125208616257,0.11808456480503082,0.08123280107975006
1774472947264309000,8.53430908203125,-0.0180549006909132,0.011740279383957386,0.06916975229978561
1774472947274336800,8.544336669921876,0.007426224648952484,-0.10380229353904724,0.013310745358467102
1774472947284365000,8.554364990234374,0.01986105553805828,-0.16230528056621552,-0.06534704566001892
1774472947294392800,8.564392822265624,0.019834425300359726,-0.14084632694721222,-0.13733814656734467
1774472947304420900,8.5744208984375,0.030428213998675346,-0.05493169277906418,-0.16283018887043
1774472947314449000,8.584448974609375,0.04922773316502571,0.05218837037682533,-0.15614593029022217
1774472947324477000,8.594476806640625,0.07643352448940277,0.10927668958902359,-0.13252289593219757
1774472947334505000,8.6045048828125,0.09787676483392715,0.12049205601215363,-0.10689129680395126
1774472947344533000,8.614532958984375,0.10826601833105087,0.09732682257890701,-0.07504201680421829
1774472947354560800,8.624560791015625,0.10775868594646454,0.07069547474384308,-0.03840784355998039
1774472947364589000,8.634589111328125,0.09744426608085632,0.03646400198340416,-0.018492724746465683
1774472947374616800,8.644616943359376,0.07539036124944687,-0.010222011245787144,-0.020651748403906822
1774472947384644900,8.654644775390626,0.04734514653682709,-0.050210971385240555,-0.035958267748355865
1774472947394673000,8.6646728515625,0.0275056604295969,-0.08266478776931763,-0.06375554203987122
1774472947404701000,8.674700927734374,0.013265205547213554,-0.10654854774475098,-0.10047334432601929
1774472947414729000,8.68472900390625,-0.0034059167373925447,-0.10886629670858383,-0.1375970095396042
1774472947424757000,8.694757080078125,-0.011985289864242077,-0.06599047034978867,-0.16794265806674957
1774472947434784800,8.70478466796875,-0.013332849368453026,0.030182136222720146,-0.17433051764965057
1774472947444813000,8.71481298828125,-0.00669252360239625,0.13690432906150818,-0.17455582320690155
1774472947454840800,8.7248408203125,-0.008330101147294044,0.22315478324890137,-0.19584007561206818
1774472947464869000,8.734869140625,-0.01521969959139824,0.27315881848335266,-0.25102609395980835
1774472947474897000,8.74489697265625,-0.015873504802584648,0.2895157039165497,-0.32445505261421204
1774472947484925000,8.754925048828126,0.001597630325704813,0.27718207240104675,-0.39644214510917664
1774472947494953000,8.764952880859376,0.0214147437363863,0.23231446743011475,-0.43904128670692444
1774472947504980700,8.774980712890626,0.034208837896585464,0.1720319539308548,-0.4693051874637604
1774472947515009000,8.785009033203124,0.02509789541363716,0.0864507332444191,-0.4818822145462036
1774472947525036800,8.795036865234374,0.00782703049480915,-0.0043984767980873585,-0.49464061856269836
1774472947535064800,8.80506494140625,-0.010557835921645164,-0.04235677793622017,-0.5048328042030334
1774472947545092900,8.8150927734375,-0.025960760191082954,-0.01811748556792736,-0.49814242124557495
1774472947555121000,8.825120849609375,-0.03545466437935829,0.0689963772892952,-0.472698837518692
1774472947565149000,8.83514892578125,-0.03921185061335564,0.1970752477645874,-0.4227595031261444
1774472947575177000,8.845177001953125,-0.047205861657857895,0.30055317282676697,-0.3509500324726105
1774472947585204700,8.855204833984375,-0.0641574114561081,0.33265918493270874,-0.2740691006183624
1774472947595233000,8.86523291015625,-0.0653260126709938,0.2853531837463379,-0.19961270689964294
1774472947605260800,8.8752607421875,-0.045585595071315765,0.20676995813846588,-0.13046400249004364
1774472947615289000,8.8852890625,-0.016164056956768036,0.13152474164962769,-0.08486509323120117
1774472947625316900,8.89531689453125,0.007023022044450045,0.07847989350557327,-0.06558673083782196
1774472947635345000,8.905344970703124,0.016385365277528763,0.036439232528209686,-0.05999755859375
1774472947645373000,8.915373046875,0.02461719512939453,0.02213672734797001,-0.05518389493227005
1774472947655401000,8.92540087890625,0.025116005912423134,0.02347310073673725,-0.04547826945781708
1774472947665429800,8.9354296875,0.03106098063290119,0.028652949258685112,-0.021798772737383842
1774472947675458000,8.9454580078125,0.029821012169122696,0.03443360701203346,0.0018192053539678454
1774472947685485800,8.95548583984375,0.0023963123094290495,0.026559172198176384,0.013787184841930866
1774472947695513900,8.965513916015626,-0.0342373326420784,0.010193249210715294,0.007306382525712252
1774472947705542000,8.9755419921875,-0.06437738984823227,0.010632670484483242,0.006304234731942415
1774472947715570000,8.98556982421875,-0.08323230594396591,0.02214711345732212,0.02081420086324215
1774472947725598000,8.995597900390624,-0.08674128353595734,0.05745423957705498,0.04995078220963478
1774472947735626000,9.0056259765625,-0.07783380895853043,0.0802421048283577,0.0913861021399498
1774472947745653800,9.01565380859375,-0.07459088414907455,0.06700806319713593,0.12871217727661133
1774472947755682000,9.02568212890625,-0.08544139564037323,0.04428490623831749,0.13945455849170685
1774472947765709800,9.035709716796875,-0.12385403364896774,0.05320969223976135,0.14251106977462769
1774472947775738000,9.045738037109375,-0.145065575838089,0.07180015742778778,0.1421896368265152
1774472947785766000,9.055765869140625,-0.15377651154994965,0.09739206731319427,0.13260304927825928
1774472947795794000,9.0657939453125,-0.15762504935264587,0.0968589037656784,0.14207644760608673
1774472947805822000,9.075822021484376,-0.1638248860836029,0.057856373488903046,0.18036630749702454
1774472947815850000,9.08585009765625,-0.18148164451122284,0.019638681784272194,0.24530403316020966
1774472947825878000,9.0958779296875,-0.20028036832809448,0.01378239132463932,0.3288908004760742
1774472947835906000,9.105906005859374,-0.2206101417541504,0.05092683061957359,0.3984573781490326
1774472947845933800,9.115933837890625,-0.27093642950057983,0.14605121314525604,0.4311913549900055
1774472947855962000,9.125962158203125,-0.34824931621551514,0.28004151582717896,0.4555526077747345
1774472947865990000,9.135989990234375,-0.44651010632514954,0.448717325925827,0.47423627972602844
1774472947876018000,9.146017822265625,-0.5408448576927185,0.5133208632469177,0.5245361924171448
1774472947886046000,9.1560458984375,-0.5880510210990906,0.3811822533607483,0.5951011776924133
1774472947896073700,9.16607373046875,-0.6098273992538452,0.09220502525568008,0.6394862532615662
1774472947906102000,9.17610205078125,-0.6897243857383728,-0.1477138251066208,0.6611102819442749
1774472947916129800,9.1861298828125,-0.7414048910140991,-0.3881533145904541,0.731261134147644
1774472947926157800,9.19615771484375,-0.7899295091629028,-0.7194191217422485,0.8454420566558838
1774472947936185900,9.206185791015624,-0.9473151564598083,-1.1100348234176636,0.9297404289245605
1774472947946214000,9.2162138671875,-1.243826985359192,-1.4653021097183228,0.961083710193634
1774472947956242000,9.226241943359375,-1.5902416706085205,-1.7111915349960327,0.9414958953857422
1774472947966270000,9.23627001953125,-1.8791192770004272,-1.7307063341140747,0.8069995641708374
1774472947976297700,9.246297607421875,-1.9359036684036255,-1.4268649816513062,0.5420613884925842
1774472947986326000,9.256325927734375,-1.7289116382598877,-0.890998363494873,0.22562140226364136
1774472947996353800,9.266353759765625,-1.3946201801300049,-0.30001574754714966,-0.07799280434846878
1774472948006382000,9.276382080078125,-1.0606135129928589,0.19884784519672394,-0.33033156394958496
1774472948016409900,9.286409912109375,-0.7792675495147705,0.5619749426841736,-0.4970521032810211
1774472948026438000,9.29643798828125,-0.5157927870750427,0.6999945640563965,-0.5487217307090759
1774472948036466000,9.3064658203125,-0.27064934372901917,0.5792529582977295,-0.5082115530967712
1774472948046494000,9.316493896484374,-0.06775347888469696,0.2860703766345978,-0.39929360151290894
1774472948056522000,9.32652197265625,0.03380190581083298,-0.054550591856241226,-0.2608790099620819
1774472948066550000,9.336550048828125,0.061339788138866425,-0.2236565202474594,-0.1428287923336029
1774472948076577800,9.346577880859375,0.110030896961689,-0.1167290136218071,-0.15395388007164001
1774472948086606000,9.356606201171875,0.22523924708366394,0.13928918540477753,-0.22837857902050018
1774472948096633900,9.3666337890625,0.4740985929965973,0.6617752909660339,-0.3641555905342102
1774472948106661600,9.37666162109375,0.8361334800720215,1.183754801750183,-0.5137147307395935
1774472948116689400,9.386689453125,1.0372014045715332,1.3325691223144531,-0.5837979316711426
1774472948126717400,9.396717529296875,1.0096666812896729,1.3779221773147583,-0.6776759624481201
1774472948136745500,9.406745361328126,0.9615886211395264,1.3193323612213135,-0.7090914249420166
1774472948146773500,9.4167734375,0.909301221370697,1.2052383422851562,-0.6685783267021179
1774472948156801500,9.426801513671874,0.872249960899353,1.1085455417633057,-0.6219474673271179
1774472948166829600,9.43682958984375,0.885182797908783,1.0963011980056763,-0.578548014163971
1774472948176857300,9.446857421875,0.9459412097930908,1.0914510488510132,-0.5384565591812134
1774472948186885600,9.4568857421875,1.0069206953048706,1.1162303686141968,-0.503815770149231
1774472948196913400,9.466913330078125,1.0889010429382324,1.1599560976028442,-0.4923385977745056
1774472948206941700,9.476941650390625,1.143925428390503,1.2409573793411255,-0.4782954752445221
1774472948216969500,9.486969482421875,1.1149557828903198,1.3171627521514893,-0.45800724625587463
1774472948226997500,9.49699755859375,1.026764154434204,1.4035197496414185,-0.4149167537689209
1774472948237025500,9.507025634765625,0.911034107208252,1.5311557054519653,-0.3124295473098755
1774472948247053600,9.517053466796876,0.7880930304527283,1.5763729810714722,-0.16942152380943298
1774472948257081600,9.52708154296875,0.6860182881355286,1.4982049465179443,-0.020955881103873253
1774472948267109600,9.537109619140624,0.6497689485549927,1.3347108364105225,0.09884855151176453
1774472948277137400,9.547137451171874,0.6779395937919617,1.1334363222122192,0.17459736764431
1774472948287165700,9.557165771484375,0.7026785016059875,0.9299534559249878,0.2170601487159729
1774472948297193500,9.567193359375,0.7053872346878052,0.8187702298164368,0.23480957746505737
1774472948307221800,9.5772216796875,0.653551459312439,0.7394642233848572,0.22865821421146393
1774472948317249500,9.58724951171875,0.5925389528274536,0.6774144172668457,0.23005875945091248
1774472948327277600,9.597277587890625,0.5442896485328674,0.6655785441398621,0.24796266853809357
1774472948337305600,9.6073056640625,0.47945448756217957,0.6302895545959473,0.28406020998954773
1774472948347333400,9.61733349609375,0.41921111941337585,0.4642278552055359,0.32586970925331116
1774472948357362400,9.627362548828126,0.3363566994667053,0.1727704405784607,0.3377615213394165
1774472948367390700,9.637390625,0.2811291515827179,-0.10650859773159027,0.28497421741485596
1774472948377418500,9.64741845703125,0.2802758514881134,-0.22732768952846527,0.15751639008522034
1774472948387446500,9.657446533203125,0.3163957893848419,-0.17741605639457703,-0.03975912928581238
1774472948397474600,9.667474609375,0.33780866861343384,0.011426292359828949,-0.2738102376461029
1774472948407502600,9.677502685546875,0.33201175928115845,0.2979547381401062,-0.45694437623023987
1774472948417530600,9.687530517578125,0.29450300335884094,0.6728529930114746,-0.5048836469650269
1774472948427558700,9.69755859375,0.3065900206565857,1.1068317890167236,-0.39936310052871704
1774472948437586400,9.70758642578125,0.4082298278808594,1.5433236360549927,-0.18531818687915802
1774472948447614500,9.717614501953125,0.5678650140762329,1.8966995477676392,0.08799456804990768
1774472948457642500,9.727642578125,0.6815042495727539,1.9776349067687988,0.36035391688346863
1774472948467670500,9.73767041015625,0.7459069490432739,1.6975414752960205,0.5652098655700684
1774472948477698600,9.747698486328124,0.6326807737350464,1.228446125984192,0.7572624087333679
1774472948487726300,9.757726318359374,0.4602392315864563,0.874047040939331,0.9054907560348511
1774472948497754600,9.767754638671875,0.38423022627830505,0.6696246862411499,0.9324089288711548
1774472948507782400,9.777782470703125,0.41405364871025085,0.4382641613483429,0.8675678372383118
1774472948517810700,9.787810791015625,0.4978657066822052,0.1672089695930481,0.7992628216743469
1774472948527838500,9.79783837890625,0.4804350435733795,-0.12827754020690918,0.7399545311927795
1774472948537866500,9.807866455078125,0.4101015031337738,-0.30092307925224304,0.6567245721817017
1774472948547894500,9.81789453125,0.389126718044281,-0.39519792795181274,0.5337941646575928
1774472948557922600,9.827922607421876,0.36125168204307556,-0.45100605487823486,0.39905843138694763
1774472948567950600,9.83795068359375,0.25531166791915894,-0.5066754221916199,0.2870381772518158
1774472948577978600,9.847978515625,0.1380382925271988,-0.6665031909942627,0.18713979423046112
1774472948588006400,9.85800634765625,0.11498437821865082,-0.9704364538192749,0.09918783605098724
1774472948598034700,9.86803466796875,0.18135966360569,-1.2337775230407715,0.05752081796526909
1774472948608062500,9.8780625,0.2987217307090759,-1.4118703603744507,0.030281206592917442
1774472948618090800,9.8880908203125,0.4093345105648041,-1.5360740423202515,-0.012293417938053608
1774472948628118500,9.898118408203125,0.5332415699958801,-1.569220781326294,-0.053340185433626175
1774472948638146600,9.908146484375,0.6420657634735107,-1.6010907888412476,-0.0822456032037735
1774472948648174600,9.918174560546875,0.70451819896698,-1.6772305965423584,-0.13172900676727295
1774472948658202600,9.92820263671875,0.6688907146453857,-1.6368660926818848,-0.15757311880588531
1774472948668230700,9.938230712890626,0.519436240196228,-1.4239296913146973,-0.16314338147640228
1774472948678258700,9.9482587890625,0.2731180787086487,-1.2025498151779175,-0.2115471363067627
1774472948688286500,9.958286376953126,0.09604557603597641,-1.0499600172042847,-0.318672776222229
1774472948698314500,9.968314453125,0.012261992320418358,-0.9603481292724609,-0.4498893916606903
1774472948708342500,9.978342529296874,-0.018373414874076843,-0.9255134463310242,-0.5973076224327087
1774472948718370600,9.98837060546875,-0.04736298695206642,-0.9720990657806396,-0.6940085887908936
1774472948728398600,9.998398681640625,-0.06908639520406723,-1.1234776973724365,-0.7230953574180603
1774472948738426400,10.00842626953125,-0.10108693689107895,-1.443833589553833,-0.7013370990753174
1774472948748454700,10.01845458984375,-0.15712277591228485,-1.7641364336013794,-0.6659210324287415
1774472948758482400,10.028482421875,-0.20441758632659912,-1.8121178150177002,-0.5910646319389343
1774472948768510500,10.038510498046875,-0.13982528448104858,-1.662449836730957,-0.41894108057022095
1774472948778538500,10.04853857421875,0.14741049706935883,-1.4249309301376343,-0.21800290048122406
1774472948788566500,10.05856640625,0.5158684253692627,-1.0474292039871216,-0.08588854223489761
1774472948798594600,10.068594482421876,0.8098025918006897,-0.6585003733634949,-0.13105441629886627
1774472948808622600,10.07862255859375,0.9509663581848145,-0.34926530718803406,-0.3642043173313141
1774472948818650400,10.088650390625,1.0141820907592773,-0.17007052898406982,-0.6527146697044373
1774472948828678700,10.0986787109375,1.01218843460083,0.16824467480182648,-0.9348664879798889
1774472948838706400,10.10870654296875,0.9673490524291992,0.6981884241104126,-1.1869271993637085
1774472948848734700,10.118734619140625,1.0086644887924194,1.2589191198349,-1.3797528743743896
1774472948858762500,10.128762451171875,1.1668599843978882,1.804194688796997,-1.57893967628479
1774472948868790500,10.13879052734375,1.4195748567581177,2.2036292552948,-1.8608702421188354
1774472948878818600,10.148818603515625,1.7704687118530273,2.4331703186035156,-2.276026725769043
1774472948888846600,10.1588466796875,1.9309310913085938,2.734534740447998,-2.823607921600342
1774472948898874600,10.16887451171875,1.9415980577468872,2.7959249019622803,-3.398456573486328
1774472948908902700,10.178902587890626,1.8999760150909424,2.470130205154419,-3.957458734512329
1774472948918930400,10.188930419921874,1.8121626377105713,1.7319105863571167,-4.442966461181641
1774472948928958700,10.198958740234374,1.634819746017456,0.5356642007827759,-4.773330211639404
1774472948938986500,10.208986572265625,1.4701101779937744,-0.274954617023468,-4.8190765380859375
1774472948949014800,10.219014892578125,1.3978642225265503,-0.08698602765798569,-4.4893927574157715
1774472948959042600,10.22904248046875,1.3545897006988525,0.26668602228164673,-3.8431339263916016
1774472948969070300,10.2390703125,1.185622215270996,0.7926504611968994,-3.145528793334961
1774472948979098600,10.2490986328125,0.846402108669281,1.1435768604278564,-2.4363484382629395
1774472948989126400,10.25912646484375,0.03253663703799248,1.419114589691162,-1.765190839767456
1774472948999154700,10.26915478515625,-0.732301652431488,1.515642523765564,-1.308669924736023
1774472949009182500,10.279182373046876,-1.046482801437378,1.2357935905456543,-0.9099419713020325
1774472949019210500,10.28921044921875,-1.0225731134414673,0.6465334892272949,-0.43445292115211487
1774472949029239600,10.299239501953124,-0.9376798272132874,0.15897420048713684,-0.04615364596247673
1774472949039267600,10.309267578125,-0.859537661075592,-0.09365937858819962,0.3276449739933014
1774472949049295600,10.319295654296875,-0.8088278770446777,-0.07317514717578888,0.6899417042732239
1774472949059323600,10.32932373046875,-0.8051716089248657,-0.07857390493154526,0.9396545886993408
1774472949069351400,10.339351318359375,-0.8293006420135498,-0.2898280918598175,0.9970992207527161
1774472949079379500,10.34937939453125,-0.8754169940948486,-0.5183009505271912,0.9398093223571777
1774472949089407500,10.359407470703125,-0.9634794592857361,-0.660584032535553,0.8123642802238464
1774472949099435500,10.369435546875,-1.0455524921417236,-0.7938573956489563,0.659904956817627
1774472949109463300,10.37946337890625,-1.043261170387268,-0.8681207299232483,0.5693737268447876
1774472949119491000,10.389490966796876,-0.9684827327728271,-0.8578582406044006,0.5711726546287537
1774472949129519000,10.39951904296875,-0.8352267146110535,-0.8766082525253296,0.6105778813362122
1774472949139547100,10.409547119140624,-0.663263738155365,-0.952491283416748,0.6260141134262085
1774472949149575200,10.4195751953125,-0.5019930601119995,-1.0125287771224976,0.5704954266548157
1774472949159603200,10.429603271484375,-0.3833063840866089,-0.9479231834411621,0.4889385402202606
1774472949169631200,10.43963134765625,-0.2658689618110657,-0.8434547781944275,0.4082396924495697
1774472949179659000,10.449658935546875,-0.11403149366378784,-0.6638309955596924,0.3446926772594452
1774472949189687300,10.459687255859375,0.09868369996547699,-0.43879202008247375,0.3182123303413391
1774472949199715000,10.469715087890625,0.33203572034835815,-0.19320248067378998,0.3303605914115906
1774472949209743400,10.479743408203126,0.5198453068733215,0.01647830940783024,0.3535367548465729
1774472949219771100,10.489771240234376,0.6384883522987366,0.16778767108917236,0.36867764592170715
1774472949229799200,10.499799072265626,0.6859248280525208,0.26221829652786255,0.3454609811306
1774472949239827200,10.5098271484375,0.6820417046546936,0.29884395003318787,0.28482240438461304
1774472949249855200,10.519855224609374,0.6410588026046753,0.30389702320098877,0.193536177277565
1774472949259883300,10.52988330078125,0.5890419483184814,0.25328418612480164,0.08949872106313705
1774472949269911300,10.539911376953125,0.5442689061164856,0.13333489000797272,-0.012631372548639774
1774472949279939000,10.54993896484375,0.5044389367103577,-0.009664611890912056,-0.08488292992115021
1774472949289967400,10.55996728515625,0.4251725971698761,-0.13936641812324524,-0.09842164814472198
1774472949299995100,10.5699951171875,0.3040595054626465,-0.32944926619529724,-0.06252463161945343
1774472949310023400,10.5800234375,0.18380604684352875,-0.5499107837677002,0.01203881949186325
1774472949320051200,10.59005126953125,0.07818002253770828,-0.750083327293396,0.08753278106451035
1774472949330079200,10.600079345703126,-0.019226957112550735,-0.8075727224349976,0.1558937281370163
1774472949340107300,10.610107177734376,-0.10586384683847427,-0.747997522354126,0.2040814906358719
1774472949350135300,10.62013525390625,-0.14987285435199738,-0.6873722672462463,0.19212204217910767
1774472949360163300,10.630163330078124,-0.17244979739189148,-0.6547823548316956,0.10894166678190231
1774472949370191000,10.640191162109375,-0.19247250258922577,-0.6351311802864075,-0.023919181898236275
1774472949380219100,10.65021923828125,-0.21436023712158203,-0.6262766718864441,-0.18618690967559814
1774472949390247200,10.6602470703125,-0.23653344810009003,-0.6054244041442871,-0.32044246792793274
1774472949400275200,10.670275146484375,-0.25121837854385376,-0.56425940990448,-0.3707943260669708
1774472949410303200,10.68030322265625,-0.24887986481189728,-0.5147227048873901,-0.3448902666568756
1774472949420331300,10.690331298828125,-0.23093201220035553,-0.4523882269859314,-0.26647695899009705
1774472949430359000,10.700359130859376,-0.21512269973754883,-0.4114131033420563,-0.16286055743694305
1774472949440387300,10.71038720703125,-0.17468126118183136,-0.4287385642528534,-0.06228814274072647
1774472949450415000,10.7204150390625,-0.13798104226589203,-0.4529784023761749,0.022549783810973167
1774472949460443100,10.730443115234374,-0.11110468208789825,-0.4486459791660309,0.06750607490539551
1774472949470471200,10.74047119140625,-0.07661674916744232,-0.3879871368408203,0.055457133799791336
1774472949480499200,10.750499267578125,-0.06274247914552689,-0.2559489607810974,-0.015744341537356377
1774472949490527200,10.76052734375,-0.08169832825660706,-0.066190205514431,-0.13177508115768433
1774472949500555300,10.77055517578125,-0.11477718502283096,0.09358028322458267,-0.2569284737110138
1774472949510583000,10.7805830078125,-0.15885968506336212,0.1787223368883133,-0.3500717282295227
1774472949520611300,10.790611328125,-0.2076445370912552,0.21074844896793365,-0.3837535083293915
1774472949530640100,10.80064013671875,-0.24629393219947815,0.20529642701148987,-0.35990598797798157
1774472949540668200,10.810668212890626,-0.2722368538379669,0.20491214096546173,-0.30474579334259033
1774472949550696200,10.8206962890625,-0.2897402048110962,0.20132911205291748,-0.22276410460472107
1774472949560724200,10.83072412109375,-0.2982468903064728,0.2005261778831482,-0.1301417499780655
1774472949570752300,10.840752197265624,-0.28045108914375305,0.1924746334552765,-0.05515699461102486
1774472949580780300,10.8507802734375,-0.24613600969314575,0.16626593470573425,0.00358860963024199
1774472949590808000,10.86080810546875,-0.20265164971351624,0.14048174023628235,0.03543495759367943
1774472949600836400,10.87083642578125,-0.15420421957969666,0.10247577726840973,0.041614823043346405
1774472949610864000,10.880864013671875,-0.12194640934467316,0.05807182565331459,-0.0010391654213890433
1774472949620892200,10.89089208984375,-0.11450900137424469,0.001975266495719552,-0.09127078950405121
1774472949630920200,10.900920166015625,-0.13296736776828766,-0.04324920475482941,-0.22000133991241455
1774472949640948200,10.9109482421875,-0.17620591819286346,-0.04001932218670845,-0.3563799560070038
1774472949650976300,10.920976318359376,-0.20678752660751343,-0.004688761197030544,-0.45473501086235046
1774472949661004300,10.93100439453125,-0.21564680337905884,0.025902170687913895,-0.5073527097702026
1774472949671032000,10.941031982421874,-0.20191074907779694,0.079246886074543,-0.5137842297554016
1774472949681060400,10.951060302734374,-0.1676609069108963,0.1292937994003296,-0.4970633089542389
1774472949691088100,10.961088134765625,-0.5409567356109619,0.10187043994665146,-0.42599764466285706
1774472949701116400,10.971116455078125,-0.6794400215148926,-0.05517590418457985,-0.007229150738567114
1774472949711144200,10.981144287109375,-0.32890573143959045,0.0029497172217816114,0.2246759831905365
1774472949721172000,10.991171875,-0.1997900754213333,-0.07581726461648941,0.28076109290122986
1774472949731200300,11.0012001953125,-0.2664197087287903,-0.03623683378100395,0.33218619227409363
1774472949741228000,11.01122802734375,-0.31369346380233765,0.11419554799795151,0.2846221327781677
1774472949751256300,11.02125634765625,-0.2140268087387085,0.3210930824279785,0.15287131071090698
1774472949761284000,11.0312841796875,-0.02299506403505802,0.624492883682251,-0.054239802062511444
1774472949771312000,11.04131201171875,0.16532637178897858,0.9031208157539368,-0.29177671670913696
1774472949781340200,11.051340087890624,0.26537254452705383,1.4145878553390503,-0.3665175437927246
1774472949791368200,11.0613681640625,0.34618324041366577,1.6732587814331055,-0.412704199552536
1774472949801396200,11.071396240234375,0.4484259784221649,1.4570261240005493,-0.5128675699234009
1774472949811424300,11.08142431640625,0.5323211550712585,1.2471064329147339,-0.4178211987018585
1774472949821452000,11.0914521484375,0.524285078048706,1.1118489503860474,-0.22252574563026428
1774472949831480300,11.101480224609375,0.5157227516174316,0.8640953898429871,-0.07327953726053238
1774472949841508000,11.111508056640625,0.46146348118782043,0.7232556939125061,0.1077248677611351
1774472949851536400,11.121536376953125,0.3969428241252899,0.45240023732185364,0.3902345895767212
1774472949861564200,11.131564208984376,0.36414092779159546,0.42322608828544617,0.5746803283691406
1774472949871592200,11.14159228515625,0.32271280884742737,0.3847878873348236,0.6345476508140564
1774472949881620200,11.1516201171875,0.29311469197273254,0.3922889530658722,0.6689788699150085
1774472949891648300,11.161648193359374,0.26527827978134155,0.4315500855445862,0.6972525715827942
1774472949901676300,11.17167626953125,0.10164380073547363,0.3189047574996948,0.6327460408210754
1774472949911705300,11.181705322265625,0.18329524993896484,0.5352434515953064,0.6716154217720032
1774472949921733000,11.191733154296875,0.1507285237312317,0.4624786972999573,0.6550814509391785
1774472949931761200,11.20176123046875,0.11950615793466568,0.4450315237045288,0.6841658353805542
1774472949941789200,11.2117890625,0.01489559281617403,0.4427156448364258,0.7817416191101074
1774472949951817200,11.221817138671875,-0.144990473985672,0.5058621168136597,0.8119775652885437
1774472949961845200,11.23184521484375,-0.32510140538215637,0.5604332089424133,0.820020854473114
1774472949971873300,11.241873291015626,-0.49067598581314087,0.5889338254928589,0.8220142126083374
1774472949981901000,11.251901123046874,-0.669179379940033,0.523027777671814,0.8504762053489685
1774472949991929300,11.261929443359374,-0.7523533701896667,0.5894217491149902,0.8310561776161194
1774472950001957000,11.27195703125,-0.9097627401351929,0.4797455668449402,0.8110308051109314
1774472950011985400,11.2819853515625,-1.061888337135315,0.5120129585266113,0.7673725485801697
1774472950022013200,11.29201318359375,-1.2003892660140991,0.49610909819602966,0.7319785952568054
1774472950032041200,11.302041259765625,-1.281913161277771,0.4958760738372803,0.7325817942619324
1774472950042069200,11.3120693359375,-1.3121179342269897,0.4447726607322693,0.7422171235084534
1774472950052097300,11.32209716796875,-1.3145722150802612,0.4219842553138733,0.7679640650749207
1774472950062125300,11.332125244140625,-1.326524019241333,0.43921729922294617,0.8143400549888611
1774472950072153300,11.3421533203125,-1.35527765750885,0.44878071546554565,0.887486457824707
1774472950082181000,11.35218115234375,-1.403952956199646,0.4923068881034851,1.0047705173492432
1774472950092209200,11.362209228515624,-1.4861091375350952,0.4946792423725128,1.1514315605163574
1774472950102237200,11.3722373046875,-1.5684833526611328,0.4409443736076355,1.3248616456985474
1774472950112266000,11.382265869140625,-1.644688606262207,0.34157437086105347,1.4510449171066284
1774472950122294300,11.392294189453125,-1.7494430541992188,0.2851790189743042,1.5588656663894653
1774472950132322000,11.402322021484375,-1.9029287099838257,0.12830443680286407,1.69607675075531
1774472950142350000,11.41235009765625,-2.0844171047210693,-0.22280457615852356,1.925690770149231
1774472950152378000,11.422378173828125,-2.1831507682800293,-0.5866664052009583,2.187821865081787
1774472950162406100,11.43240625,-2.0768823623657227,-0.6906577944755554,2.059640407562256
1774472950172434200,11.44243408203125,-1.9757038354873657,-0.26968127489089966,1.7164008617401123
1774472950182462200,11.452462158203126,-1.8795685768127441,0.18273359537124634,1.2960808277130127
1774472950192490000,11.462489990234374,-1.8735835552215576,0.618809163570404,0.9535514712333679
1774472950202518300,11.472518310546874,-1.9374650716781616,0.9047919511795044,0.6945460438728333
1774472950212546000,11.482546142578125,-1.996842384338379,1.1301536560058594,0.41711705923080444
1774472950222574300,11.49257421875,-2.1173839569091797,1.4948704242706299,0.27595755457878113
1774472950232602000,11.50260205078125,-2.278301239013672,1.679799199104309,0.31645411252975464
1774472950242631200,11.512631103515625,-2.345165729522705,1.6701620817184448,0.3256092667579651
1774472950252659200,11.5226591796875,-2.5581252574920654,2.0562095642089844,0.6252697110176086
1774472950262687200,11.532687255859376,-2.744758129119873,1.9765323400497437,0.9646704196929932
1774472950272715000,11.542715087890626,-2.941467523574829,1.7892756462097168,1.3173015117645264
1774472950282743300,11.552743408203124,-3.0531280040740967,1.5555340051651,1.6204447746276855
1774472950292771000,11.56277099609375,-3.0823020935058594,1.3722736835479736,1.8506101369857788
1774472950302799000,11.572799072265624,-3.0943922996520996,1.1705138683319092,2.0336380004882812
1774472950312827100,11.5828271484375,-3.2107906341552734,0.34661972522735596,1.9939121007919312
1774472950322855200,11.592855224609375,-3.3628315925598145,0.05986413359642029,1.8422975540161133
1774472950332883200,11.60288330078125,-3.5028557777404785,-0.3525434136390686,1.420596957206726
1774472950342911200,11.6129111328125,-3.68416166305542,-0.731194019317627,0.9387642741203308
1774472950352939000,11.62293896484375,-3.832379102706909,-1.0766485929489136,0.40574589371681213
1774472950362967300,11.63296728515625,-3.9245529174804688,-1.338479995727539,-0.13857892155647278
1774472950372995000,11.6429951171875,-3.997399091720581,-1.5003114938735962,-0.6669124960899353
1774472950383023400,11.6530234375,-4.096648216247559,-1.5114363431930542,-1.1653103828430176
1774472950393051100,11.663051025390626,-4.16063928604126,-1.347524881362915,-1.6050101518630981
1774472950403079200,11.6730791015625,-4.1298604011535645,-1.1378302574157715,-1.900890827178955
1774472950413107200,11.683107177734374,-3.9993252754211426,-0.971251368522644,-2.0955517292022705
1774472950423135200,11.69313525390625,-3.8036251068115234,-0.8288505673408508,-2.228208541870117
1774472950433163300,11.703163330078125,-3.574237823486328,-0.6665298342704773,-2.3051583766937256
1774472950443191000,11.71319091796875,-3.3166208267211914,-0.48582184314727783,-2.3075673580169678
1774472950453219000,11.723218994140625,-3.005336046218872,-0.1991913914680481,-2.214329719543457
1774472950463247000,11.7332470703125,-2.602715015411377,0.16128689050674438,-2.0697152614593506
1774472950473275100,11.743275146484375,-2.0612075328826904,0.6768072247505188,-1.832514762878418
1774472950483303200,11.75330322265625,-1.4155817031860352,1.4941684007644653,-1.3653632402420044
1774472950493331200,11.763331298828126,-0.6551269888877869,1.8740522861480713,-0.7775349020957947
1774472950503359000,11.77335888671875,0.0003981425834354013,1.8340383768081665,-0.16977225244045258
1774472950513387300,11.78338720703125,0.566349446773529,1.9466074705123901,0.4109624922275543
1774472950523415000,11.7934150390625,1.0154247283935547,2.326427936553955,0.9488872289657593
1774472950533443300,11.803443359375,1.306964635848999,2.654353380203247,1.3588817119598389
1774472950543471000,11.81347119140625,1.4205373525619507,2.987982749938965,1.6516658067703247
1774472950553499100,11.8234990234375,1.3414214849472046,3.2279648780822754,1.9238015413284302
1774472950563527200,11.833527099609375,1.1409506797790527,2.9454495906829834,2.1158719062805176
1774472950573556200,11.84355615234375,0.8350021839141846,2.1422014236450195,2.0220987796783447
1774472950583584000,11.853583984375,0.4665304124355316,2.348419666290283,1.9893139600753784
1774472950593612300,11.8636123046875,0.0792175903916359,2.7691617012023926,1.7537213563919067
1774472950603640000,11.87364013671875,-0.1471681445837021,2.8582346439361572,1.2810406684875488
1774472950613668000,11.883668212890624,-0.37902215123176575,2.920844078063965,0.7639461159706116
1774472950623696100,11.893696044921874,-0.7365507483482361,3.1360251903533936,0.31708499789237976
1774472950633724200,11.90372412109375,-1.233596682548523,3.435037851333618,0.020907677710056305
1774472950643752200,11.913752197265625,-1.7794214487075806,3.4507648944854736,-0.10115218162536621
1774472950653780200,11.9237802734375,-2.1230292320251465,3.2739338874816895,-0.11960282921791077
1774472950663808000,11.93380810546875,-2.2787530422210693,3.049438714981079,-0.0735088363289833
1774472950673836300,11.943836181640625,-2.3233351707458496,2.794710636138916,-0.012010856531560421
1774472950683864000,11.953864013671875,-2.265789747238159,2.6051247119903564,-0.0005917543894611299
1774472950693892400,11.963892333984376,-2.09493350982666,2.4577276706695557,-0.07004353404045105
1774472950703920000,11.973920166015626,-1.920837163925171,2.550549030303955,-0.16502997279167175
1774472950713948200,11.9839482421875,-1.9414273500442505,2.8135573863983154,-0.2672295570373535
1774472950723976200,11.99397607421875,-2.345215082168579,2.933060884475708,-0.37136903405189514
1774472950734004200,12.004004150390625,-3.1719765663146973,2.9376306533813477,-0.4619671106338501
1774472950744032300,12.0140322265625,-4.151465892791748,2.8021209239959717,-0.5072709321975708
1774472950754060300,12.024060302734375,-4.958454608917236,2.5552358627319336,-0.5249218344688416
1774472950764088000,12.034088134765625,-5.454960346221924,2.311873435974121,-0.5233138203620911
1774472950774116400,12.044116455078125,-5.62711763381958,1.938778042793274,-0.551042377948761
1774472950784144100,12.05414404296875,-5.542701721191406,1.0660204887390137,-0.5586379766464233
1774472950794172200,12.064172119140625,-5.2155914306640625,0.3255741000175476,-0.48896488547325134
1774472950804200200,12.0742001953125,-4.892320156097412,-0.49151355028152466,-0.46625852584838867
1774472950814228000,12.08422802734375,-4.693699359893799,-1.28556489944458,-0.42717769742012024
1774472950824256300,12.09425634765625,-4.685132026672363,-1.770066499710083,-0.3466311991214752
1774472950834284000,12.104283935546874,-4.82896089553833,-2.029867172241211,-0.23852229118347168
1774472950844312000,12.11431201171875,-4.877068042755127,-2.0978572368621826,-0.11370206624269485
1774472950854340000,12.124340087890625,-4.769504070281982,-2.1339306831359863,0.036072514951229095
1774472950864368000,12.1343681640625,-4.598265171051025,-2.1809988021850586,0.30509039759635925
1774472950874396200,12.144396240234375,-4.462144374847412,-2.0548548698425293,0.7777727246284485
1774472950884424200,12.154424072265625,-4.265044689178467,-1.871965765953064,1.3845665454864502
1774472950894453200,12.164453369140626,-3.9301295280456543,-1.648553729057312,2.072688102722168
1774472950904481300,12.174481201171876,-3.53173565864563,-1.424106240272522,2.802593946456909
1774472950914509000,12.184509033203126,-3.106848955154419,-1.3965073823928833,3.4784131050109863
1774472950924537000,12.194537109375,-2.6914517879486084,-1.5289192199707031,3.9907729625701904
1774472950934565000,12.204565185546874,-2.2979836463928223,-1.573237419128418,4.297327518463135
1774472950944593200,12.21459326171875,-1.96343195438385,-1.3914084434509277,4.457072734832764
1774472950954621200,12.22462109375,-1.7762943506240845,-1.0286022424697876,4.53092098236084
1774472950964649200,12.234649169921875,-1.7897417545318604,-0.5714288949966431,4.490520000457764
1774472950974677000,12.244677001953125,-1.8375656604766846,-0.29258421063423157,4.3357744216918945
1774472950984705300,12.254705322265625,-1.7806438207626343,0.0029971215408295393,4.1549391746521
1774472950994733000,12.264733154296875,-1.5810731649398804,0.3612074553966522,3.968456983566284
1774472951004761300,12.27476123046875,-1.1825401782989502,0.48575499653816223,3.6334877014160156
1774472951014789000,12.2847890625,-0.503743588924408,-0.3775251805782318,2.481523036956787
1774472951024817200,12.294817138671876,0.2848397195339203,-1.0996341705322266,0.714671790599823
1774472951034845200,12.30484521484375,0.9582415819168091,-1.2699520587921143,-0.7747007608413696
1774472951044873200,12.314873291015624,1.339914083480835,-0.9136272072792053,-1.8928124904632568
1774472951054901200,12.3249013671875,1.59940767288208,-1.1555975675582886,-2.7017383575439453
1774472951064929300,12.33492919921875,1.8708748817443848,-1.471104383468628,-2.8972253799438477
1774472951074957000,12.34495703125,2.059220314025879,-1.6235426664352417,-2.5647449493408203
1774472951084985300,12.3549853515625,2.120435953140259,-1.684738039970398,-1.9867346286773682
1774472951095013000,12.36501318359375,2.054093360900879,-1.8427228927612305,-1.4908785820007324
1774472951105041000,12.375041015625,1.6865612268447876,-1.967376470565796,-1.2722580432891846
1774472951115068700,12.385068603515625,1.1095259189605713,-1.5186617374420166,-1.0761349201202393
1774472951125096700,12.3950966796875,0.7258456349372864,-0.8961398601531982,-0.9541909098625183
1774472951135124700,12.405124755859376,0.7656577229499817,-0.559112548828125,-0.9869115948677063
1774472951145152800,12.41515283203125,1.0446078777313232,-0.5946516394615173,-1.0253891944885254
1774472951155180800,12.425180908203124,1.3037137985229492,-0.975292444229126,-0.951536238193512
1774472951165208800,12.435208740234375,1.5254408121109009,-1.4699751138687134,-0.7934550046920776
1774472951175236600,12.445236572265625,1.722609519958496,-1.821015477180481,-0.5791538953781128
1774472951185265000,12.455264892578125,1.9322477579116821,-1.8548911809921265,-0.43457701802253723
1774472951195293700,12.465293701171875,2.1663177013397217,-1.4950735569000244,-0.36597105860710144
1774472951205321700,12.47532177734375,2.455990791320801,-0.8808115124702454,-0.4137202203273773
1774472951215349800,12.485349853515626,2.84850811958313,-0.043828174471855164,-0.5623970627784729
1774472951225377800,12.495377685546876,3.218574285507202,0.8769669532775879,-0.6241485476493835
1774472951235405600,12.505405517578126,3.46638822555542,1.4193521738052368,-0.6735451221466064
1774472951245433900,12.515433837890624,3.4989421367645264,1.2787551879882812,-0.8526027798652649
1774472951255461600,12.525461669921874,3.2911534309387207,0.7175996899604797,-1.232304573059082
1774472951265490000,12.535489990234375,3.048018455505371,0.16839779913425446,-1.8140074014663696
1774472951275517700,12.545517578125,2.9656383991241455,-0.07461830973625183,-2.560760021209717
1774472951285545700,12.555545654296875,3.120574474334717,-0.08407919108867645,-3.2620723247528076
