time,seconds_elapsed,z,y,x
1774469811996993100,0.09857763671875,-0.0872315019369125,0.020470306277275,0.1344960182905197
1774469812007020100,0.108604736328125,0.0242529492825269,-0.1508295536041259,0.1191729828715324
1774469812017046900,0.118631591796875,0.0882929563522338,-0.3254457116127014,-0.0284599866718053
1774469812027072900,0.128657470703125,0.0971753969788551,-0.4541725218296051,-0.1989784687757492
1774469812037100100,0.138684814453125,0.1025635972619056,-0.5332452058792114,-0.2751629054546356
1774469812047127100,0.148711669921875,0.1095144525170326,-0.4959167242050171,-0.2246933281421661
1774469812057153900,0.158738525390625,0.1270762383937835,-0.3048825860023498,-0.0879875943064689
1774469812067179900,0.168764404296875,0.1739899516105651,-0.3104491233825683,0.0174562744796276
1774469812077207100,0.178791748046875,0.2207440435886383,-0.275984913110733,0.0805542021989822
1774469812087234200,0.18881884765625,0.2384508550167083,-0.195828303694725,0.0649675205349922
1774469812097260900,0.198845458984375,0.2174353301525116,-0.1770689636468887,0.0019746711477637
1774469812107288200,0.208872802734375,0.2190998047590255,-0.2320832163095474,-0.0860838145017623
1774469812117314200,0.218898681640625,0.2702613472938537,-0.2893489003181457,-0.1289787292480468
1774469812127341200,0.22892578125,0.3192949593067169,-0.2803077399730682,-0.1026238203048706
1774469812137367900,0.238952392578125,0.3190715909004211,-0.1332354396581649,2.30129808187e-05
1774469812147395200,0.248979736328125,0.2347199767827987,0.2061050832271576,0.1571846753358841
1774469812157421200,0.259005859375,0.0875532627105712,0.5200721025466919,0.3130262494087219
1774469812167448200,0.26903271484375,-0.0215857401490211,0.6424675583839417,0.3867944777011871
1774469812177475200,0.279059814453125,-0.0996825769543647,0.550320029258728,0.351919412612915
1774469812187501900,0.28908642578125,-0.1317126750946045,0.5617319345474243,0.2510899901390075
1774469812197528200,0.29911279296875,-0.1556461453437805,0.6307163834571838,0.1204052716493606
1774469812207555200,0.309139892578125,-0.1238322854042053,0.5638249516487122,0.0235056318342685
1774469812217582200,0.319166748046875,-0.0446634255349636,0.341354638338089,-0.038203302770853
1774469812227608900,0.329193603515625,0.0242482647299766,0.3201659917831421,-0.0116369388997554
1774469812237635200,0.3392197265625,0.1199823468923568,0.0282255336642265,-0.0016670762561261
1774469812247662200,0.349246826171875,0.1018206551671028,-0.1588191837072372,0.0453377179801464
1774469812257689200,0.359273681640625,0.0233626328408718,-0.1211382821202278,0.1200957745313644
1774469812267715900,0.369300537109375,-0.0535878092050552,0.0431478582322597,0.1758120357990265
1774469812277741900,0.379326416015625,-0.058198906481266,0.1126541942358017,0.1693362295627594
1774469812287769200,0.389353759765625,0.0093761412426829,0.0125888446345925,0.072646714746952
1774469812297796200,0.399380859375,0.0527932867407798,-0.0233548153191804,-0.0681778416037559
1774469812307823000,0.409407470703125,0.029799822717905,0.0911267548799514,-0.1582328975200653
1774469812317848900,0.41943359375,-0.0118697648867964,0.1399779319763183,-0.1622685641050338
1774469812327876200,0.429460693359375,-0.0426218174397945,0.1150411590933799,-0.0885016620159149
1774469812337903200,0.43948779296875,-0.0432216823101043,0.0783411189913749,0.0129771968349814
1774469812347930000,0.4495146484375,-0.033809270709753,0.0524181723594665,0.0913183391094207
1774469812357957200,0.459541748046875,-0.0144194401800632,-0.0079706758260726,0.1097048223018646
1774469812367983200,0.46956787109375,-0.0037894332781434,-0.1260315328836441,0.0702463686466217
1774469812378010200,0.4795947265625,-0.0012947545619681,-0.1933628916740417,0.0077087683603167
1774469812388037000,0.48962158203125,0.0032999971881508,-0.142275720834732,-0.0411812774837017
1774469812398064200,0.49964892578125,0.002098781755194,0.0163073949515819,-0.0590319260954856
1774469812408090200,0.5096748046875,-0.0042861471883952,0.1637003123760223,-0.0518837347626686
1774469812418117200,0.519701904296875,-0.0061487900093197,0.2072801887989044,-0.0190141610801219
1774469812428144000,0.529728515625,0.0020452241878956,0.1875222027301788,0.0246550235897302
1774469812438171000,0.539755615234375,0.0147667359560728,0.1341765373945236,0.05472082644701
1774469812448197200,0.54978173828125,0.0325625091791152,0.011310527101159,0.0414947643876075
1774469812458224200,0.559808837890625,0.044697917997837,-0.0952971205115318,0.0139476740732789
1774469812468251000,0.569835693359375,0.0382432155311107,-0.1012956276535987,-0.0197338573634624
1774469812478278000,0.579862548828125,0.0212287046015262,-0.0524783469736576,-0.032262448221445
1774469812488304000,0.589888671875,0.0180672649294137,-0.0075252526439726,-0.0195913948118686
1774469812498331200,0.599915771484375,0.0323757827281951,0.0181099791079759,-0.0128805031999945
1774469812508358000,0.609942626953125,0.0439442843198776,0.0105844186618924,-0.0155463274568319
1774469812518385000,0.619969482421875,0.055104948580265,-0.036271046847105,-0.0342793315649032
1774469812528411000,0.62999560546875,0.0541310310363769,-0.1207867190241813,-0.0519563294947147
1774469812538438200,0.64002294921875,0.0667587667703628,-0.220277339220047,-0.0718330144882202
1774469812548465000,0.650049560546875,0.0655068159103393,-0.2991860210895538,-0.0801612511277198
1774469812558492000,0.66007666015625,0.064205102622509,-0.268644779920578,-0.0571572333574295
1774469812568518000,0.6701025390625,0.0676776021718978,-0.1438599377870559,-0.0235286988317966
1774469812578545300,0.6801298828125,0.0572735182940959,0.0112611968070268,0.0122475232928991
1774469812588572000,0.690156494140625,0.0477409996092319,0.134694442152977,0.0198748167604208
1774469812598599000,0.70018359375,0.130068838596344,0.5619420409202576,-0.0642929747700691
1774469812608626400,0.7102109375,0.1380556523799896,0.5617359280586243,-0.118653155863285
1774469812618652300,0.72023681640625,0.0792401283979415,0.3670288026332855,-0.1134665757417678
1774469812628679000,0.730263671875,0.0391590222716331,0.3256254494190216,-0.0994820520281791
1774469812638706000,0.74029052734375,0.0128661748021841,0.3578484058380127,-0.0594856552779674
1774469812648733000,0.750317626953125,-0.0390870384871959,0.5375659465789795,-0.033823437988758
1774469812658759300,0.76034375,-0.1148535683751106,0.4550264477729797,0.0562651641666889
1774469812668786000,0.77037060546875,-0.0491946637630462,0.7436108589172363,0.1066686809062957
1774469812678813000,0.780397705078125,0.0275111980736255,0.9248623847961426,0.1111792251467704
1774469812688840000,0.790424560546875,0.0474169962108135,0.8584162592887878,0.0327328816056251
1774469812698866400,0.800450927734375,0.0357441008090972,0.436881810426712,-0.0890441834926605
1774469812708893000,0.8104775390625,0.0360173396766185,0.0385583937168121,-0.1346905082464218
1774469812718920000,0.820504638671875,0.046040941029787,-0.2435273826122284,-0.0629619508981704
1774469812728947000,0.83053173828125,0.0454305447638034,-0.2322406321763992,-0.0102004706859588
1774469812738973000,0.8405576171875,0.0155771132558584,-0.0370725132524967,-0.0185224898159503
1774469812749000000,0.850584716796875,-0.0190732758492231,0.0553271919488906,-0.0010606744326651
1774469812759027000,0.860611572265625,-0.0669669285416603,0.0113054448738694,0.0686649307608604
1774469812769054100,0.870638671875,-0.066762663424015,0.1492465287446975,0.0723906904458999
1774469812779081100,0.880665771484375,0.0005401072558015,0.3789097666740417,0.0138229327276349
1774469812789107000,0.890691650390625,0.034650407731533,0.5297749042510986,-0.0668599307537078
1774469812799134100,0.90071875,0.0287455655634403,0.467461496591568,-0.1144826412200927
1774469812809161100,0.91074560546875,0.0331136807799339,0.2531848847866058,-0.0982096642255783
1774469812819188100,0.920772705078125,0.0525982044637203,0.1681247055530548,-0.0857610553503036
1774469812829214100,0.930798583984375,0.0223705247044563,0.1027329117059707,-0.0535290800034999
1774469812839241100,0.94082568359375,-0.0303857270628213,-0.0365046262741088,0.0119523759931325
1774469812849268100,0.950852783203125,-0.0736740827560424,-0.4534432590007782,0.0720884203910827
1774469812859295100,0.960879638671875,-0.0989079624414444,-0.5425078272819519,0.0503922328352928
1774469812869321100,0.97090576171875,-0.0479092225432395,-0.4299869239330292,0.0202143564820289
1774469812879348100,0.9809326171875,0.0159427877515554,-0.4128077328205108,0.013036492280662
1774469812889375100,0.990959716796875,0.0259051397442817,-0.407566100358963,0.0065410425886511
1774469812899402400,1.000987060546875,0.0276888310909271,-0.3237588405609131,0.0153549565002322
1774469812909428100,1.0110126953125,0.0620635822415351,-0.2308182418346405,0.0415250398218631
1774469812919455100,1.021039794921875,0.0963419675827026,-0.2314825654029846,0.0654457435011863
1774469812929482100,1.031066650390625,0.1253461986780166,-0.2352181822061538,0.0591079518198967
1774469812939509400,1.041093994140625,0.1572283655405044,-0.3028660416603088,0.063357800245285
1774469812949535100,1.05111962890625,0.2245482802391052,-0.2944789528846741,0.0851206183433532
1774469812959562100,1.061146728515625,0.2677681744098663,-0.2831582129001617,0.1129158362746238
1774469812969589100,1.071173583984375,0.2893267273902893,-0.2915229201316833,0.1608498096466064
1774469812979616400,1.081200927734375,0.3171558082103729,-0.3386658430099487,0.2083619236946106
1774469812989643100,1.091227783203125,0.3804985582828522,-0.3473109900951385,0.2075776308774948
1774469812999669100,1.101253662109375,0.4465034306049347,-0.3184880912303924,0.1510967314243316
1774469813009696100,1.11128076171875,0.4643594026565552,-0.2711786329746246,0.0858511552214622
1774469813019723400,1.121307861328125,0.4291399419307709,-0.2317519783973693,0.0424793064594268
1774469813029750100,1.131334716796875,0.4439002275466919,-0.212017685174942,0.0426779761910438
1774469813039776100,1.141360595703125,0.4857656955718994,-0.173442542552948,0.0515513941645622
1774469813049803100,1.1513876953125,0.642175555229187,-0.2054287046194076,0.0865136384963989
1774469813059830100,1.161414794921875,0.6614367365837097,-0.202242836356163,0.1096727102994918
1774469813069857100,1.171441650390625,0.6454796195030212,-0.1975207924842834,0.1185503527522087
1774469813079883100,1.1814677734375,0.6331403255462646,-0.1707234233617782,0.1422704309225082
1774469813089910100,1.19149462890625,0.5879504680633545,-0.109542079269886,0.1702248305082321
1774469813099937100,1.201521728515625,0.4780010282993316,-0.0566600412130355,0.1453474909067154
1774469813109964100,1.211548828125,0.3760371208190918,0.0381660684943199,0.0820404216647148
1774469813119990100,1.22157470703125,0.2905257940292358,0.190968707203865,-0.0065482426434755
1774469813130017100,1.231601806640625,0.2436695992946624,0.3031735420227051,-0.0918290540575981
1774469813140044100,1.241628662109375,0.2214555442333221,0.3297353386878967,-0.163261741399765
1774469813150071100,1.25165576171875,0.2034645676612854,0.3321468234062195,-0.1577609926462173
1774469813160097100,1.261681640625,0.1938990950584411,0.307904303073883,-0.0671246945858001
1774469813170124100,1.271708740234375,0.2263997793197631,0.2351512610912323,0.0425509363412857
1774469813180151100,1.28173583984375,0.2898668348789215,0.1719377785921096,0.0721355825662612
1774469813190178200,1.2917626953125,0.3082218766212463,0.1144861951470375,0.0160829611122608
1774469813200205200,1.301789794921875,0.3389283716678619,0.099471241235733,-0.023031398653984
1774469813210231100,1.311815673828125,0.3195583820343017,0.1266501247882843,-0.016951136291027
1774469813220258200,1.3218427734375,0.2946894466876983,0.1596586257219314,0.0199935361742973
1774469813230285200,1.331869873046875,0.2229419946670532,0.184316024184227,0.0605215206742286
1774469813240312200,1.341896728515625,0.1719397455453872,0.1690612584352493,0.0826604962348938
1774469813250338200,1.3519228515625,0.1599659025669098,0.0920386388897895,0.0891072079539299
1774469813260365200,1.36194970703125,0.1495577096939087,0.0370211154222488,0.0337105691432952
1774469813270391900,1.3719765625,0.1866494268178939,0.0612960942089557,0.0086821801960468
1774469813280419200,1.382003662109375,0.2225110977888107,0.0792061164975166,0.0083579197525978
1774469813290445200,1.39202978515625,0.2609298825263977,0.0980511754751205,0.0004009259864687
1774469813300472200,1.402056884765625,0.2859246730804443,0.1372221857309341,-0.0186033211648464
1774469813310498900,1.41208349609375,0.2689023017883301,0.1724075973033905,-0.0200443565845489
1774469813320526200,1.42211083984375,0.2153833657503128,0.1768696457147598,-0.0426550842821598
1774469813330552200,1.43213671875,0.2218702882528305,0.0840872377157211,-0.0288947969675064
1774469813340579200,1.442163818359375,0.264263242483139,-0.0450450107455253,0.0108415028080344
1774469813350605900,1.4521904296875,0.3572581708431244,-0.2091953456401825,0.0388030968606472
1774469813360633200,1.4622177734375,0.5283929705619812,-0.2996382415294647,0.0747497975826263
1774469813370660200,1.472244873046875,0.6545237302780151,-0.2802903652191162,0.1045910492539405
1774469813380686200,1.482270751953125,0.6150040030479431,-0.2527655363082886,0.1069660261273384
1774469813390712900,1.492297607421875,0.4088263809680938,-0.1796028912067413,0.1107274815440177
1774469813400740200,1.50232470703125,0.1399174332618713,-0.0603466965258121,0.1573854684829712
1774469813410767200,1.512351806640625,-0.0219162050634622,0.1231078207492828,0.1302441209554672
1774469813420793200,1.522377685546875,-0.0314366593956947,0.2357696294784546,0.073131151497364
1774469813430819900,1.532404541015625,-0.0124043794348835,0.2457735240459442,0.0787893086671829
1774469813440847200,1.542431884765625,0.01430778298527,0.1673749685287475,0.0654481872916221
1774469813450874200,1.552458740234375,0.1395210921764373,0.0180954616516828,-0.0077019240707159
1774469813460900200,1.56248486328125,0.2588580548763275,-0.1027230843901634,-0.0019359863363206
1774469813470927000,1.572511474609375,0.2522254586219787,-0.1652863323688507,0.0456517711281776
1774469813480954200,1.582538818359375,0.2736999094486236,-0.1924530565738678,0.1049836799502372
1774469813490981200,1.59256591796875,0.4509500563144684,-0.3245498239994049,0.1978502422571182
1774469813501007200,1.602591796875,0.6209349036216736,-0.4218162000179291,0.2136002629995346
1774469813511034000,1.61261865234375,0.6233853101730347,-0.4517283141613006,0.1982958763837814
1774469813521061000,1.6226455078125,0.4388903677463531,-0.3471845686435699,0.195863127708435
1774469813531088200,1.6326728515625,0.156829684972763,-0.1850134879350662,0.1632005274295807
1774469813541114200,1.64269873046875,-0.0253385938704013,-0.0734163075685501,0.1192763149738311
1774469813551141200,1.652725830078125,-0.0999808683991432,-0.0728527829051017,0.1173753589391708
1774469813561168000,1.662752685546875,-0.1835976392030716,-0.0767353773117065,0.1357232928276062
1774469813571195200,1.67277978515625,-0.3009312152862549,-0.0180510282516479,0.1347344517707824
1774469813581222200,1.682806884765625,-0.4168569445610046,-0.0389322228729724,0.1815910637378692
1774469813591248200,1.692832763671875,-0.470775306224823,-0.1519961953163147,0.2556221783161163
1774469813601275000,1.702859619140625,-0.4313861131668091,-0.2371295243501663,0.2688182294368744
1774469813611302200,1.712886962890625,-0.3496702313423157,-0.2311131805181503,0.1698687374591827
1774469813621329300,1.722913818359375,-0.2394687086343765,-0.0782589316368103,-0.0281251296401023
1774469813631355200,1.73293994140625,-0.155183658003807,0.1459217071533203,-0.2199313044548034
1774469813641382000,1.742966552734375,-0.105484738945961,0.3285396099090576,-0.3121337890625
1774469813651409300,1.752993896484375,-0.0685565546154975,0.3921047449111938,-0.2657460570335388
1774469813661436300,1.763020751953125,-0.0015520233428105,0.4924383461475372,-0.1339450180530548
1774469813671462200,1.773046875,0.0379692874848842,0.4442812204360962,-0.1223879605531692
1774469813681489000,1.783073486328125,-0.0596369244158268,0.2976288497447967,-0.2160076200962066
1774469813691516300,1.793100830078125,-0.1112639009952545,-0.0036788089200854,-0.1861815452575683
1774469813701543400,1.8031279296875,-0.0862455144524574,0.4123600423336029,-0.062594324350357
1774469813711569300,1.81315380859375,-0.0061181848868727,1.189379334449768,-0.002529390156269
1774469813721596000,1.8231806640625,0.0356739088892936,1.1554179191589355,0.0157065279781818
1774469813731623400,1.833207763671875,0.0013931663706898,0.447093516588211,0.0540890730917453
1774469813741650400,1.84323486328125,0.0107756806537508,-0.0668571069836616,0.1275554299354553
1774469813751676300,1.8532607421875,0.1416873633861541,-0.2760230898857116,0.1825166791677475
1774469813761703000,1.86328759765625,0.190232366323471,-0.3694438338279724,0.1452085226774215
1774469813771730000,1.873314697265625,0.0547064915299415,-0.091793306171894,0.0701795518398284
1774469813781757400,1.883341796875,-0.0811044871807098,0.1577436327934265,0.0718429684638977
1774469813791784000,1.89336865234375,-0.0342357829213142,0.2589267194271087,0.1167140379548072
1774469813801810400,1.903394775390625,0.0775087550282478,0.4849624633789062,0.1298889070749282
1774469813811837400,1.913421875,0.100756287574768,0.7821717858314514,0.1135331019759178
1774469813821864600,1.92344921875,0.0438766404986381,1.0685086250305176,0.1225665435194969
1774469813831891400,1.933475830078125,-0.1177290305495262,1.1812522411346436,0.2365428954362869
1774469813841917400,1.943501953125,-0.4306348860263824,1.338256597518921,0.4552803039550781
1774469813851944400,1.95352880859375,-0.783744215965271,1.5420478582382202,0.8073041439056396
1774469813861971600,1.96355615234375,-1.0331096649169922,1.910271167755127,1.30193030834198
1774469813871998400,1.9735830078125,-1.2477375268936155,2.3058178424835205,1.917758107185364
1774469813882024400,1.98360888671875,-1.4417976140975952,2.5956344604492188,2.569648265838623
1774469813892051400,1.993635986328125,-1.656793236732483,2.74782943725586,3.171622037887573
1774469813902078400,2.003662841796875,-1.915182113647461,3.016779661178589,3.664003133773804
1774469813912105400,2.01368994140625,-2.139007329940796,3.2464053630828857,3.999971628189087
1774469813922131400,2.0237158203125,-2.2311346530914307,3.599135160446167,4.284904956817627
1774469813932158400,2.033742919921875,-2.256718158721924,4.056666851043701,4.4970550537109375
1774469813942185400,2.04377001953125,-2.232578992843628,4.170428276062012,4.590627193450928
1774469813952212400,2.053796875,-2.169662475585937,3.899260044097901,4.519927501678467
1774469813962238400,2.063822998046875,-2.1175715923309326,3.526455402374268,4.313852310180664
1774469813972265400,2.073849853515625,-2.0271270275115967,3.103783369064331,4.010245800018311
1774469813982292400,2.083876953125,-1.892974853515625,2.527729034423828,3.640509366989136
1774469813992319400,2.093904052734375,-1.763923406600952,1.9960707426071167,3.2564072608947754
1774469814002346400,2.103930908203125,-1.715068221092224,1.753953456878662,2.9130825996398926
1774469814012372400,2.11395703125,-1.742655873298645,1.699135184288025,2.613158226013184
1774469814022399400,2.12398388671875,-1.8636929988861084,1.5729562044143677,2.3838374614715576
1774469814032426400,2.134010986328125,-1.935968279838562,1.061221480369568,2.2605793476104736
1774469814042453400,2.144037841796875,-1.9246829748153689,0.5382969379425049,2.161388397216797
1774469814052479400,2.15406396484375,-1.908865451812744,0.2831202745437622,2.0139753818511963
1774469814062506400,2.164091064453125,-1.9085559844970703,-0.3205374479293823,1.514989733695984
1774469814072533400,2.174117919921875,-1.8115774393081665,-1.1150044202804563,0.664681077003479
1774469814082560400,2.18414501953125,-1.668068528175354,-1.4227217435836792,-0.3343236148357391
1774469814092586400,2.1941708984375,-1.457167387008667,-1.7337042093276978,-1.1563408374786377
1774469814102613400,2.204197998046875,-1.1124032735824585,-2.29950213432312,-1.5795634984970093
1774469814112640400,2.214224853515625,-0.5974403023719788,-2.5792112350463867,-1.384556770324707
1774469814122667400,2.224251953125,-0.2881014347076416,-2.1632566452026367,-0.353215217590332
1774469814132693400,2.23427783203125,-0.1903780549764633,-2.15454649925232,0.9588810801506042
1774469814142720400,2.244304931640625,-0.194656029343605,-2.162849187850952,1.869251370429993
1774469814152747100,2.254331787109375,-0.3382150530815124,-2.0359654426574707,2.23635196685791
1774469814162774400,2.26435888671875,-0.6561936140060425,-1.9766925573349,2.098618984222412
1774469814172800400,2.274385009765625,-0.9687097072601318,-1.752615213394165,1.613149642944336
1774469814182827400,2.284411865234375,-1.2516014575958252,-1.4941613674163818,0.9680250287055968
1774469814192854100,2.294438720703125,-1.4499680995941162,-1.0901720523834229,0.3853621184825897
1774469814202881400,2.304466064453125,-1.6523375511169434,-0.5589065551757812,-0.058480430394411
1774469814212908400,2.314492919921875,-1.9634432792663572,-0.0313753597438335,-0.4640505611896515
1774469814222934400,2.32451904296875,-2.330054759979248,0.3748285472393036,-0.9069804549217224
1774469814232961100,2.334545654296875,-2.696688175201416,-0.0542133525013923,-1.468272089958191
1774469814242988400,2.344572998046875,-3.1784610748291016,-3.2919671535491943,-2.391462802886963
1774469814253015400,2.35460009765625,-3.363358736038208,-9.263418197631836,-3.755364179611206
1774469814263041400,2.3646259765625,-2.855161190032959,-13.697957038879396,-3.6925148963928223
1774469814273068400,2.374653076171875,-2.548675060272217,-17.836894989013672,-4.26217794418335
1774469814283095400,2.384679931640625,-2.007981538772583,-18.97481346130371,-4.453967094421387
1774469814293122400,2.39470703125,-1.381715178489685,-18.646982192993164,-4.35553789138794
1774469814303148400,2.40473291015625,-0.0397403053939342,-17.209280014038086,-3.557497978210449
1774469814313175400,2.414760009765625,1.7189151048660278,-15.27521800994873,0.5849457383155823
1774469814323202400,2.424787109375,2.1579737663269043,-12.003399848937988,5.933030605316162
1774469814333229400,2.43481396484375,1.4933336973190308,-4.903918266296387,8.83622932434082
1774469814343255400,2.444840087890625,1.4070028066635132,2.7622828483581543,9.168416023254396
1774469814353282400,2.454866943359375,1.3090900182724,7.536398887634277,7.483725070953369
1774469814363309400,2.46489404296875,0.4833267331123352,10.30296802520752,5.393062114715576
1774469814373336400,2.474921142578125,-0.6156498789787292,11.662801742553713,5.064565181732178
1774469814383363400,2.484947998046875,-1.5983294248580933,10.366955757141112,5.3886919021606445
1774469814393389400,2.49497412109375,-2.0769474506378174,8.088743209838867,5.796220779418945
1774469814403416200,2.505000732421875,-1.955749034881592,5.340781211853027,6.249006271362305
1774469814413443400,2.515028076171875,-1.5799996852874756,2.1611714363098145,6.310718536376953
1774469814423470400,2.525054931640625,-1.3000222444534302,-0.2385705113410949,5.585403919219971
1774469814433496400,2.5350810546875,-1.0483756065368652,-1.6916255950927734,4.218201160430908
1774469814443523200,2.545107666015625,-0.6733497381210327,-2.5173513889312744,2.5728864669799805
1774469814453550400,2.555135009765625,-0.2325840890407562,-2.385589599609375,1.2293288707733154
1774469814463577400,2.565162109375,0.0100476071238517,-0.9939230680465698,0.398409754037857
1774469814473603400,2.57518798828125,0.1615867912769317,0.9136720299720764,-0.1838246136903762
1774469814483630200,2.58521484375,0.6069703698158264,2.4271082878112797,-0.9381977319717408
1774469814493657400,2.595241943359375,1.1478471755981443,3.319794178009033,-2.1438229084014893
1774469814503684400,2.60526904296875,1.443989872932434,3.575488328933716,-3.592228651046753
1774469814513710400,2.615294921875,1.4766430854797363,2.929880380630493,-4.770016193389893
1774469814523737200,2.62532177734375,1.2586016654968262,0.8387148976325989,-5.081389904022217
1774469814533764400,2.63534912109375,0.7619101405143738,-1.1393147706985474,-4.902217864990234
1774469814543791400,2.6453759765625,0.1419847160577774,-2.356680154800415,-4.783477306365967
1774469814553817400,2.655402099609375,-0.363604187965393,-2.2496609687805176,-4.837201118469238
1774469814563844200,2.6654287109375,-0.3983501195907593,-1.5601756572723389,-4.65868091583252
1774469814573871400,2.6754560546875,0.2378242015838623,-1.3437740802764893,-3.957815170288086
1774469814583898400,2.685483154296875,1.2049977779388428,-1.984540104866028,-2.487334728240967
1774469814593925200,2.695509765625,2.27158260345459,-2.3079938888549805,-0.2630733251571655
1774469814603951200,2.705535888671875,3.297600269317627,-1.791728377342224,2.082303047180176
1774469814613978400,2.71556298828125,3.8298375606536874,-0.4539799988269806,3.88900637626648
1774469814624005400,2.725590087890625,3.2415542602539062,1.047353982925415,4.477641582489014
1774469814634032200,2.735616943359375,2.305060863494873,1.686273455619812,4.005539894104004
1774469814644058200,2.745642822265625,1.5142253637313845,1.6806493997573853,2.7978827953338623
1774469814654085200,2.755669921875,0.041937731206417,1.1730273962020874,1.144636869430542
1774469814664112400,2.765697021484375,-1.987293720245361,0.4639300405979156,-0.8305630683898926
1774469814674139200,2.775723876953125,-3.606203079223633,0.4958040714263916,-2.9587507247924805
1774469814684165200,2.785749755859375,-4.253503322601318,0.6162410378456116,-4.565682888031006
1774469814694192200,2.79577685546875,-3.977346420288086,0.9346999526023864,-5.482523441314697
1774469814704219400,2.80580419921875,-3.340320348739624,1.105072021484375,-5.975903511047363
1774469814714246200,2.815830810546875,-2.680497407913208,1.0482888221740725,-6.094399929046631
1774469814724272200,2.82585693359375,-1.7630141973495483,0.9326425194740297,-5.653885841369629
1774469814734299200,2.8358837890625,-0.7200076580047607,0.9797024130821228,-4.282718181610107
1774469814744326400,2.8459111328125,0.03730159252882,1.0728541612625122,-2.15506649017334
1774469814754353300,2.855937744140625,0.6384532451629639,1.090550661087036,0.1508979797363281
1774469814764380300,2.86596484375,1.246308207511902,0.9394353628158568,2.080254554748535
1774469814774406200,2.875990966796875,1.6913293600082395,0.9754224419593812,3.053317070007324
1774469814784433400,2.88601806640625,1.9408926963806152,0.4518193006515503,2.922032356262207
1774469814794460300,2.896044921875,2.135810375213623,0.1444731950759887,2.2611653804779053
1774469814804492900,2.906077392578125,2.066615104675293,0.2171887159347534,1.4903723001480105
1774469814814518900,2.916103515625,1.7445287704467771,0.3057856857776642,0.7178534269332886
1774469814824545600,2.926130126953125,1.3261877298355105,0.4523005783557892,-0.000154779292643
1774469814834572600,2.9361572265625,1.0395056009292605,0.7465806603431702,-0.6075097322463989
1774469814844599900,2.9461845703125,0.8565337657928467,0.8466231226921082,-1.123703956604004
1774469814854625900,2.95621044921875,0.7850760817527771,0.6530632376670837,-1.4964227676391602
1774469814864652600,2.9662373046875,0.7901067733764648,0.2870500087738037,-1.4356932640075684
1774469814874679700,2.97626416015625,0.7883400321006775,-0.1189291849732399,-1.135369896888733
1774469814884706900,2.98629150390625,0.7525659799575806,-0.2939135432243347,-0.8911455869674683
1774469814894732900,2.9963173828125,0.6886343955993652,-0.4035947620868683,-0.7121508121490479
1774469814904759700,3.00634423828125,0.6289590001106262,-0.508321225643158,-0.581209659576416
1774469814914786700,3.016371337890625,0.5450060367584229,-0.6175201535224915,-0.5403623580932617
1774469814924813900,3.0263984375,0.5458686351776123,-0.6076965928077698,-0.4734535813331604
1774469814934839900,3.036424560546875,0.5699004530906677,-0.4125590622425079,-0.3745751976966858
1774469814944866700,3.046451171875,0.637058436870575,-0.1347008198499679,-0.3095828890800476
1774469814954893700,3.056478271484375,0.689208984375,0.0836954414844513,-0.2192708253860473
1774469814964920900,3.066505615234375,0.7679157853126526,0.2039804607629776,-0.1588653922080993
1774469814974947700,3.0765322265625,0.9001872539520264,0.2430397123098373,-0.0841245651245117
1774469814984973700,3.086558349609375,1.1833069324493408,0.2258989363908767,0.0582298375666141
1774469814995000700,3.096585205078125,1.554823398590088,0.0846845507621765,0.317898154258728
1774469815005027700,3.1066123046875,1.9981688261032104,-0.1971685886383056,0.5545302629470825
1774469815015054700,3.116639404296875,2.200599670410156,-0.5332832336425781,0.7152035236358643
1774469815025080700,3.126665283203125,2.325040578842163,-0.9168874621391296,0.5775485038757324
1774469815035107700,3.1366923828125,2.254037618637085,-1.1836557388305664,0.6556592583656311
1774469815045134700,3.14671923828125,2.282134532928467,-0.9303098320961,1.024613857269287
1774469815055161700,3.156746337890625,2.4535317420959477,-0.8445642590522766,1.1377148628234863
1774469815065187700,3.166772216796875,2.526888132095337,-0.7161570191383362,1.1792460680007937
1774469815075214700,3.17679931640625,2.568428039550781,-0.5816769599914551,1.3109138011932373
1774469815085241700,3.186826416015625,2.5409183502197266,-0.8290916681289673,1.559403657913208
1774469815095268700,3.196853271484375,2.4704043865203857,-1.3155620098114014,2.153034210205078
1774469815105295700,3.20688037109375,2.1679024696350098,-1.6764247417449951,2.9315130710601807
1774469815115321700,3.21690625,1.6926863193511963,-1.732562780380249,3.6538245677948
1774469815125348700,3.226933349609375,1.3126336336135864,-1.9652005434036253,4.094798564910889
1774469815135375700,3.236960205078125,1.1021232604980469,-2.216512441635132,4.292680263519287
1774469815145402700,3.2469873046875,1.0952917337417605,-2.0496761798858643,4.035336017608643
1774469815155428700,3.257013427734375,1.192615032196045,-1.0857480764389038,2.784399509429932
1774469815165455700,3.267040283203125,1.0789748430252075,0.2418196946382522,0.3102427423000335
1774469815175482700,3.2770673828125,0.6068582534790039,-1.0977904796600342,-0.591357409954071
1774469815185509700,3.28709423828125,-0.1118289232254028,-1.827701210975647,-0.2114990949630737
1774469815195535700,3.297120361328125,-0.6105185747146606,-1.6816846132278442,-0.034974917769432
1774469815205562700,3.307147216796875,-0.8073716759681702,-1.496016263961792,-0.0289794839918613
1774469815215589400,3.317174072265625,-0.9455854892730712,-1.5627743005752563,0.2247582376003265
1774469815225616700,3.327201416015625,-0.7728230357170105,-1.6499518156051636,0.3629164099693298
1774469815235642700,3.337227294921875,-0.6770443320274353,-1.5950638055801392,0.5056450963020325
1774469815245669700,3.34725439453125,-0.8021048903465271,-1.6098569631576538,0.872483491897583
1774469815255696400,3.357281005859375,-0.99981290102005,-1.2168593406677246,1.2671674489974976
1774469815265723800,3.367308349609375,-1.1268396377563477,-0.2564945518970489,1.863971710205078
1774469815275750800,3.37733544921875,-1.2844314575195312,0.9915005564689636,2.324780941009521
1774469815285776700,3.387361328125,-1.5451854467391968,-1.99506950378418,0.2371614426374435
1774469815295803400,3.39738818359375,-1.3300297260284424,-2.8578648567199707,-2.383127927780152
1774469815305830800,3.407415283203125,-1.6537868976593018,-0.0305903907865285,-2.2478318214416504
1774469815315857800,3.4174423828125,-1.5955954790115356,1.1900449991226196,-1.9035234451293943
1774469815325883800,3.42746826171875,-1.349735140800476,2.4307785034179688,-1.3149679899215698
1774469815335910800,3.437495361328125,-1.102786898612976,3.0089690685272217,-0.6840319037437439
1774469815345937800,3.4475224609375,-0.7844757437705994,2.9970529079437256,-0.4360277950763702
1774469815355964800,3.45754931640625,-0.34930619597435,2.5637152194976807,-0.4684214293956756
1774469815365990800,3.467575439453125,-0.1164976730942726,1.9997860193252563,-0.6853820085525513
1774469815376017800,3.477602294921875,-0.1465285420417785,1.7838395833969116,-0.7531890273094177
1774469815386044800,3.48762939453125,-0.2157467305660247,1.5380078554153442,-0.7949605584144592
1774469815396071800,3.497656494140625,-0.1183450743556022,1.058047890663147,-0.8605539202690125
1774469815406097800,3.507682373046875,0.0223288889974355,0.4086616933345794,-1.1605110168457031
1774469815416124800,3.51770947265625,-0.450693279504776,-0.1376962065696716,-1.6078219413757324
1774469815426151800,3.527736328125,-0.3713933527469635,-0.8840518593788147,-2.197740077972412
1774469815436178800,3.537763427734375,0.2040257453918457,-1.3509013652801514,-2.4637651443481445
1774469815446205800,3.547790283203125,0.7438548803329468,-1.353482961654663,-1.727544903755188
1774469815456231800,3.55781640625,0.9421914219856262,-0.7526618242263794,-0.4878465831279754
1774469815466258500,3.567843017578125,0.9587440490722656,-0.6244315505027771,0.3457104861736297
1774469815476285800,3.577870361328125,1.0315048694610596,-0.743459939956665,0.7794443368911743
1774469815486312800,3.5878974609375,1.1738545894622805,-0.7508583068847656,1.1606630086898804
1774469815496338800,3.59792333984375,1.2474528551101685,-0.5550901293754578,1.540115475654602
1774469815506365500,3.6079501953125,1.1062703132629397,-0.1615992188453674,1.7466384172439575
1774469815516392800,3.617977294921875,0.9278923869132996,-0.0118906861171126,1.7425662279129028
1774469815526419800,3.62800439453125,0.7997324466705322,0.1546391099691391,1.3691858053207395
1774469815536445800,3.638030517578125,0.6318097114562988,0.2738722860813141,0.6940013766288757
1774469815546472600,3.64805712890625,0.4781655371189117,-0.1286631524562835,-0.1480471938848495
1774469815556499800,3.65808447265625,0.4012952446937561,-0.8719221353530884,-0.8129099011421204
1774469815566526800,3.668111328125,0.3878436684608459,-1.6983178853988647,-1.253307223320007
1774469815576552800,3.678137451171875,0.3463242053985595,-2.72646164894104,-1.6790486574172974
1774469815586579600,3.6881640625,0.8208529949188232,-4.770519733428955,-2.822988271713257
1774469815596606800,3.69819140625,0.5648899674415588,-4.954648494720459,-3.145198345184326
1774469815606633800,3.708218505859375,-0.2096010148525238,-2.7180099487304688,-1.2060304880142212
1774469815616660600,3.7182451171875,-0.0483575388789176,-0.312421441078186,1.0980775356292725
1774469815626686600,3.728271240234375,0.3968171775341034,0.7653483152389526,2.164656639099121
1774469815636713800,3.73829833984375,0.7481200695037842,0.5789161324501038,1.5493680238723757
1774469815646740800,3.748325439453125,0.9315958023071288,-0.4086897373199463,0.553059458732605
1774469815656767600,3.758352294921875,0.9273805618286132,-1.1786704063415527,0.1962640732526779
1774469815666793600,3.768378173828125,0.9571664333343506,-1.5057724714279177,0.3966879248619079
1774469815676820800,3.778405517578125,1.0191820859909058,-2.002363443374634,0.4248806834220886
1774469815686847800,3.788432373046875,1.3983495235443115,-1.9334574937820437,0.3637897670269012
1774469815696874600,3.798459228515625,1.4281399250030518,-1.0544252395629885,0.7456796169281006
1774469815706900600,3.808485107421875,1.5224860906600952,-0.7162622213363647,0.4670816361904144
1774469815716927600,3.81851220703125,1.3133256435394287,-1.3612909317016602,-0.7410818934440613
1774469815726954900,3.82853955078125,0.9919251799583436,-0.9170105457305908,-1.1471697092056274
1774469815736981600,3.838566162109375,0.8608217835426331,-0.4794368743896484,-1.1545239686965942
1774469815747007600,3.84859228515625,0.6911383271217346,-0.0313961133360862,-1.3574647903442385
1774469815757034600,3.858619140625,0.4462039172649383,0.6173563003540039,-1.462822437286377
1774469815767061900,3.868646484375,0.1239305660128593,1.0727216005325315,-1.796324610710144
1774469815777088600,3.878673095703125,-0.2070737183094024,1.229600191116333,-2.175632238388061
1774469815787115600,3.8887001953125,-0.5680651664733887,1.2579258680343628,-1.998335003852844
1774469815797141600,3.898726318359375,-0.9736422300338744,1.5339771509170532,-0.7993295192718506
1774469815807166600,3.908751220703125,-1.3444007635116575,1.8323553800582888,0.3860316574573517
1774469815817193800,3.9187783203125,-1.6674158573150637,1.8230502605438232,0.9595718383789062
1774469815827220800,3.928805419921875,-2.1454086303710938,1.3061113357543943,1.270593523979187
1774469815837246800,3.93883154296875,-2.6023974418640137,0.11785938590765,1.310408592224121
1774469815847273600,3.948858154296875,-2.9784419536590576,-0.9268680214881896,0.9875533580780028
1774469815857300800,3.958885498046875,-3.122342109680176,-1.0819391012191772,0.4586415886878967
1774469815867327800,3.968912353515625,-2.8509268760681152,-0.3952436447143554,0.0591895766556263
1774469815877353800,3.9789384765625,-2.381978273391724,0.6684348583221436,-0.1057977825403213
1774469815887380600,3.988965087890625,-1.9014630317687988,1.4704331159591677,-0.1457909643650055
1774469815897407800,3.998992431640625,-1.461890459060669,1.6032135486602783,-0.2133180797100067
1774469815907434900,4.00901953125,-0.938062310218811,1.1746588945388794,-0.267815500497818
1774469815917460800,4.01904541015625,-0.3240982294082641,0.4544040560722351,-0.2979731261730194
1774469815927487600,4.029072265625,0.2170420438051223,-0.0581783540546894,-0.2590703666210174
1774469815937514900,4.039099365234375,0.5004055500030518,-0.1697291135787964,-0.0493189841508865
1774469815947541900,4.04912646484375,0.4965193569660187,0.0264705866575241,0.2832193076610565
1774469815957567800,4.05915234375,0.3511208593845367,0.3619931936264038,0.5934685468673706
1774469815967594600,4.06917919921875,0.2066222727298736,0.4895199239253998,0.8906885385513306
1774469815977621900,4.07920654296875,0.1531388014554977,0.4436190128326416,1.0847760438919067
1774469815987648900,4.0892333984375,0.1397814154624939,0.3506860136985779,1.1384470462799072
1774469815997675600,4.09926025390625,0.1580634713172912,0.2820736765861511,1.1385698318481443
1774469816007701600,4.1092861328125,0.3014883995056152,0.0363508537411689,1.0989272594451904
1774469816017728600,4.119313232421875,0.4723757207393646,-0.2352148741483688,1.027157187461853
1774469816027755900,4.129340576171875,0.5977323651313782,-0.4650814831256866,0.8252407908439636
1774469816037782600,4.1393671875,0.6485180854797363,-0.6298009753227234,0.422487735748291
1774469816047808600,4.149393310546875,0.5605608820915222,-0.9288250803947448,-0.0319489426910877
1774469816057835600,4.159420166015625,0.2200211435556411,-1.1603163480758667,-0.3545240461826324
1774469816067862900,4.169447509765625,-0.335949033498764,-1.2353572845458984,-0.4990660548210144
1774469816077889600,4.17947412109375,-0.8880164623260498,-1.4824708700180054,-0.692916750907898
1774469816087915600,4.189500244140625,-1.327173113822937,-1.807853102684021,-0.9569900035858154
1774469816097942600,4.19952734375,-1.647349834442139,-2.159083366394043,-1.2299444675445557
1774469816107969900,4.209554443359375,-1.7441720962524414,-2.7553088665008545,-1.587805151939392
1774469816117996600,4.219581298828125,-1.638542890548706,-3.3136026859283447,-2.049652338027954
1774469816128022600,4.229607177734375,-1.3963024616241455,-3.2813639640808105,-2.4575533866882324
1774469816138049600,4.23963427734375,-1.1994913816452026,-2.712323904037476,-2.6380629539489746
1774469816148076900,4.24966162109375,-1.0977214574813845,-1.8278138637542725,-2.4653823375701904
1774469816158103700,4.259688232421875,-1.1136375665664673,-0.8058108687400818,-1.9473072290420528
1774469816168130700,4.26971533203125,-1.254514217376709,0.1049524024128913,-1.3049379587173462
1774469816178156600,4.2797412109375,-1.4543404579162598,0.6237348318099976,-0.5275315046310425
1774469816188183900,4.2897685546875,-1.6643084287643433,1.1247295141220093,0.1887165307998657
1774469816198210700,4.299795166015625,-1.9195369482040403,1.7275605201721191,0.8746456503868103
1774469816208237700,4.309822265625,-2.0894994735717773,2.0389232635498047,1.3112579584121704
1774469816218263700,4.31984814453125,-2.150303363800049,1.7830651998519895,1.178802728652954
1774469816228290900,4.32987548828125,-1.6175535917282104,0.6480700373649597,-0.0903564840555191
1774469816238317900,4.339902587890625,-0.3866860270500183,-0.7805643677711487,-3.747225522994995
1774469816248344700,4.34992919921875,-0.4022224545478821,0.0486663319170475,-2.869237184524536
1774469816258370700,4.359955322265625,-0.5252346992492676,1.7447748184204102,-0.8143550157546997
1774469816268397700,4.369982177734375,0.058317482471466,3.317291021347046,0.0493200272321701
1774469816278424900,4.380009521484375,0.638276219367981,3.1599106788635254,0.4101309478282928
1774469816288451700,4.390036376953125,0.7543966174125671,1.9631917476654053,0.2843065559864044
1774469816298477700,4.400062255859375,0.5803343057632446,1.359053134918213,0.0589597262442112
1774469816308504700,4.41008935546875,0.4833394885063171,0.6274248957633972,-0.0909432992339134
1774469816318531900,4.420116455078125,0.3123866617679596,0.0062465853989124,-0.0478504225611686
1774469816328558700,4.430143310546875,-0.0559873953461647,0.1825558394193649,0.0191105026751756
1774469816338584700,4.440169189453125,-0.4407981932163238,1.9892014265060425,0.0588256940245628
1774469816348611700,4.4501962890625,-0.7667919993400574,3.0276248455047607,0.3664268851280212
1774469816358639000,4.4602236328125,-1.0859482288360596,3.2699453830718994,0.5007586479187012
1774469816368665700,4.470250244140625,-1.1412266492843628,2.590768575668335,0.3903893828392029
1774469816378692700,4.48027734375,-0.8433201313018799,0.943795680999756,-0.145306259393692
1774469816388718700,4.49030322265625,-0.7611556649208069,0.1868036240339279,-0.603164792060852
1774469816398746000,4.50033056640625,-0.6365567445755005,0.4553061723709106,-0.995052933692932
1774469816408772700,4.510357421875,-0.6054502129554749,1.3388713598251345,-1.2887600660324097
1774469816418799700,4.52038427734375,-0.6350988745689392,2.335432529449463,-1.5439682006835938
1774469816428825700,4.530410400390625,-0.6793888211250305,2.6727685928344727,-1.9133366346359253
1774469816438853000,4.5404375,-0.7183907628059387,2.392749309539795,-2.32600736618042
1774469816448879700,4.55046435546875,-0.6437838673591614,1.6745193004608154,-2.7306325435638428
1774469816458906700,4.5604912109375,-0.2968578338623047,1.2068833112716677,-3.099736452102661
1774469816468932700,4.570517333984375,0.0601188391447067,0.4409254789352417,-3.291963577270508
1774469816478960000,4.580544677734375,-0.0295037198811769,-0.7187746167182922,-2.964850902557373
1774469816488986700,4.5905712890625,-0.6353424787521362,-1.5767802000045776,-2.8210389614105225
1774469816499013700,4.600598388671875,-0.990491271018982,-1.41241717338562,-3.066823959350586
1774469816509039700,4.610624267578125,-1.424396276473999,-1.1344796419143677,-3.461017370223999
1774469816519066700,4.6206513671875,-1.6911081075668335,-1.1345436573028564,-4.102064609527588
1774469816529093700,4.63067822265625,-1.6240507364273071,-0.9330963492393494,-4.888850688934326
1774469816539120700,4.640705322265625,-1.2972697019577026,-0.2563357651233673,-5.539602279663086
1774469816549146700,4.6507314453125,-0.9251214265823364,0.4355652034282684,-5.845883846282959
1774469816559173700,4.66075830078125,-0.7773498296737671,0.9073598980903624,-6.050559997558594
1774469816569200700,4.670785400390625,-0.4995989799499511,0.8583176732063293,-6.398614406585693
1774469816579227800,4.680812255859375,-0.1169959232211113,-0.467885673046112,-5.946770191192627
1774469816589254800,4.69083935546875,1.393285036087036,-4.592023849487305,-2.9310433864593506
1774469816599280700,4.700865234375,2.1024298667907715,-2.6269662380218506,-0.852945864200592
1774469816609307800,4.710892333984375,1.1758456230163574,-0.2445364296436309,0.284198522567749
1774469816619334800,4.72091943359375,0.4488950967788696,0.3029362559318542,1.4196330308914185
1774469816629361800,4.7309462890625,0.1888030767440796,0.4581063985824585,2.3400707244873047
1774469816639387800,4.740972412109375,0.0727531686425209,0.5050121545791626,2.872082471847534
1774469816649414800,4.750999267578125,-0.0159281957894563,0.6042937636375427,2.9015586376190186
1774469816659441800,4.7610263671875,-0.0563387386500835,0.7245736122131348,2.81013560295105
1774469816669468800,4.771053466796875,-0.0156363695859909,0.7519236207008362,2.906656265258789
1774469816679494800,4.781079345703125,0.2020387053489685,0.7286832928657532,3.035151481628418
1774469816689521800,4.7911064453125,0.5875585079193115,0.7781107425689697,2.959362268447876
1774469816699548800,4.80113330078125,1.081941843032837,0.6544985175132751,2.7421112060546875
1774469816709575800,4.811160400390625,1.6342992782592771,0.1045713946223259,2.520036220550537
1774469816719601800,4.821186279296875,2.1729283332824707,-0.28675377368927,2.223628282546997
1774469816729628800,4.83121337890625,2.213789463043213,-0.2962819933891296,1.844477295875549
1774469816739655800,4.841240478515625,2.0561392307281494,-0.1798293888568878,1.647366285324097
1774469816749682800,4.851267333984375,2.0414929389953613,-0.2929653823375702,1.8659998178482056
1774469816759708800,4.86129345703125,1.986371636390686,-1.2595075368881226,2.410384178161621
1774469816769735400,4.871320068359375,1.8985737562179563,-2.598199844360352,3.05422592163086
1774469816779762800,4.881347412109375,1.6966912746429443,-3.29221773147583,3.5219061374664307
1774469816789789800,4.89137451171875,1.3667736053466797,-3.411888360977173,3.7163259983062735
1774469816799815800,4.901400390625,1.008399248123169,-3.8634629249572754,3.633439302444458
1774469816809839200,4.911423828125,0.930570125579834,-4.111985206604004,3.25081205368042
1774469816819866000,4.921450439453125,0.723081648349762,-3.708425521850586,2.7859580516815186
1774469816829893000,4.9314775390625,0.497580736875534,-3.4918365478515625,2.144001245498657
1774469816839919000,4.941503662109375,0.3045037090778351,-3.4771430492401123,1.4973515272140503
1774469816849946000,4.951530517578125,0.0818636491894722,-3.790430784225464,0.8499228358268738
1774469816859973000,4.9615576171875,-0.0686939060688018,-4.158052921295166,0.1798232942819595
1774469816870000000,4.97158447265625,-0.2212197333574295,-4.447311878204346,-0.3640702366828918
1774469816880027000,4.981611572265625,-0.4952123761177063,-4.365579605102539,-0.9693364500999452
1774469816890053000,4.991637451171875,-0.903076708316803,-3.121157169342041,-1.6125670671463013
1774469816900080000,5.00166455078125,-1.2063785791397097,-2.343010663986206,-2.2470149993896484
1774469816910107000,5.011691650390625,-1.323810577392578,-1.5754077434539795,-2.785943984985352
1774469816920134000,5.021718505859375,-1.2622079849243164,-0.9402254819869996,-3.3351144790649414
1774469816930160000,5.03174462890625,-0.8510268926620483,0.0427985154092311,-3.855356454849243
1774469816940187000,5.041771484375,-0.353881299495697,1.432648777961731,-3.6995787620544434
1774469816950214000,5.051798583984375,-0.2262495458126068,1.1348427534103394,-3.23688006401062
1774469816960241000,5.06182568359375,-0.1733312010765075,-0.0361420325934886,-2.4586586952209477
1774469816970267000,5.0718515625,0.1461895555257797,-1.1137086153030396,-1.7851499319076538
1774469816980294000,5.081878662109375,0.4168292880058288,-1.375402331352234,-1.6099025011062622
1774469816990321000,5.091905517578125,0.500673770904541,-1.9434531927108765,-1.4279087781906128
1774469817000348000,5.1019326171875,0.4744309782981872,-2.3478026390075684,-1.0941542387008667
1774469817010374000,5.11195849609375,0.4517861902713775,-2.129124164581299,-0.7592877745628357
1774469817020401000,5.121985595703125,0.463635116815567,-1.7999662160873413,-0.5492541193962097
1774469817030428000,5.1320126953125,0.4564954340457916,-1.82302725315094,-0.3973037004470825
1774469817040455000,5.14203955078125,0.600398063659668,-2.1097567081451416,-0.029325682669878
1774469817050481000,5.152065673828125,0.7554119229316711,-2.295367479324341,0.53144770860672
1774469817060507800,5.16209228515625,0.7017103433609009,-1.9386519193649288,1.0455105304718018
1774469817070535000,5.17211962890625,0.3939217031002044,-1.5904879570007324,1.4096311330795288
1774469817080562000,5.182146728515625,0.0733929425477981,-1.3085012435913086,1.5854392051696775
1774469817090588000,5.192172607421875,-0.1241506338119506,-0.7215449810028076,1.7140713930130005
1774469817100614800,5.202199462890625,-0.2269870042800903,0.166645348072052,1.741438627243042
1774469817110642000,5.2122265625,-0.2333531826734542,0.9771412014961244,1.718199610710144
1774469817120669000,5.222253662109375,-0.2084616869688034,1.4920092821121216,1.6892406940460205
1774469817130695800,5.2322802734375,-0.2391519546508789,1.9688760042190552,1.6012709140777588
1774469817140721800,5.242306396484375,-0.231727585196495,2.497420310974121,1.4029253721237185
1774469817150749000,5.252333740234375,-0.1282701790332794,2.763359308242798,1.2330702543258667
1774469817160776000,5.262360595703125,-0.0181695073843002,2.674022912979126,1.1050965785980225
1774469817170802800,5.272387451171875,0.110541820526123,2.506678342819214,0.9251099228858948
1774469817180828800,5.282413330078125,0.4341779351234436,2.9574644565582275,0.2755001783370971
1774469817190856000,5.292440673828125,0.4953236877918243,4.073237419128418,-0.5501418113708496
1774469817200883000,5.302467529296875,0.1535644680261612,3.943711757659912,-0.8927081823348999
1774469817210909800,5.312494384765625,-0.0066112163476645,3.5566565990448,-1.3018019199371338
1774469817220935800,5.322520263671875,0.3456016778945923,4.267999172210693,-2.1435554027557373
1774469817230963000,5.332547607421875,0.7346354126930237,3.692785263061523,-2.409743070602417
1774469817240990100,5.34257470703125,0.8880944848060608,2.1987102031707764,-1.971891045570373
1774469817251016800,5.352601318359375,0.8480010032653809,0.4994438886642456,-1.2330892086029053
1774469817261042800,5.36262744140625,0.8077302575111389,-0.641525149345398,-0.9651421308517456
1774469817271070100,5.372654541015625,0.6584476828575134,-0.7235313653945923,-0.5917723774909973
1774469817281097100,5.382681640625,0.4086450338363647,-0.4091856479644775,-0.2994627952575683
1774469817291123800,5.39270849609375,0.1543149501085281,0.2160258293151855,0.2245126962661743
1774469817301149800,5.402734375,-0.027197053655982,0.4974828064441681,0.7848764061927795
1774469817311176800,5.412761474609375,-0.0268720537424087,0.7938311100006104,1.169464111328125
1774469817321204100,5.42278857421875,0.0717005878686904,1.3360230922698977,1.3467925786972046
1774469817331231100,5.432815673828125,0.0038811599370092,1.9808545112609863,1.43446683883667
1774469817341256800,5.44284130859375,-0.4323411583900451,2.9998421669006348,1.1014481782913208
1774469817351283800,5.452868408203125,-0.7722020745277405,3.016744375228882,0.8044590950012207
1774469817361311100,5.462895751953125,-0.9828309416770936,1.7694330215454102,0.7219210863113403
1774469817371338100,5.472922607421875,-1.0390557050704956,1.065601110458374,0.7336559295654297
1774469817381364800,5.482949462890625,-1.0285290479660034,0.455253541469574,0.8971790671348572
1774469817391390800,5.492975341796875,-1.022359848022461,-0.4189803302288055,0.985930562019348
1774469817401418100,5.503002685546875,-0.9318873286247252,-0.6729670166969299,0.7273849844932556
1774469817411445100,5.51302978515625,-1.0548770427703855,-0.5976013541221619,0.3046608865261078
1774469817421471800,5.523056396484375,-1.2962063550949097,-0.2563161849975586,0.1903766691684723
1774469817431497800,5.53308251953125,-1.4393664598464966,0.2801107168197632,0.0614468865096569
1774469817441525100,5.543109619140625,-1.54192054271698,0.7255440950393677,0.0516784153878688
1774469817451552100,5.55313671875,-1.615206599235535,1.0593657493591309,0.0186228714883327
1774469817461578900,5.56316357421875,-1.7152169942855835,1.5434447526931765,-0.1270608305931091
1774469817471604800,5.573189453125,-1.7489560842514038,2.3025925159454346,-0.1642085015773773
1774469817481632100,5.583216796875,-1.6413952112197876,2.989572286605835,-0.059922307729721
1774469817491659100,5.59324365234375,-1.3533846139907837,3.929632425308228,-0.0074669891037046
1774469817501685900,5.6032705078125,-0.6137003302574158,4.024531841278076,0.6403336524963379
1774469817511711800,5.61329638671875,1.0340672731399536,3.6404080390930176,1.7045344114303589
1774469817521739100,5.62332373046875,2.509697914123535,3.4483039379119877,2.1032326221466064
1774469817531766100,5.633350830078125,2.797471046447754,3.286038875579834,2.0791711807250977
1774469817541792900,5.64337744140625,2.4234261512756348,3.2223305702209477,1.9063776731491089
1774469817551818900,5.653403564453125,1.9486242532730105,3.2118680477142334,1.727745532989502
1774469817561845900,5.663430419921875,1.386841893196106,2.908681631088257,1.5785075426101685
1774469817571873100,5.673457763671875,0.7346451282501221,2.6685662269592285,0.96979820728302
1774469817581899900,5.683484375,0.1691114157438278,2.303028345108032,-0.2114982903003692
1774469817591925900,5.693510498046875,-0.1268480122089386,1.532875895500183,-1.1283611059188845
1774469817601952900,5.703537353515625,-0.0504901260137558,0.7410067915916443,-1.6622196435928345
1774469817611980100,5.713564697265625,0.1789792478084564,0.2485599666833877,-1.8146153688430784
1774469817622006900,5.723591552734375,0.5200569033622742,0.0701505467295646,-1.5755335092544556
1774469817632032900,5.733617431640625,0.8251894116401672,-0.0409221351146698,-0.983413815498352
1774469817642059900,5.74364453125,0.9983135461807252,0.3213284611701965,-0.3845471441745758
1774469817652087100,5.753671630859375,1.041105031967163,0.8523662090301514,0.1686373949050903
1774469817662113900,5.763698486328125,1.0685675144195557,1.240777611732483,0.6113383769989014
1774469817672139900,5.773724365234375,0.9574399590492249,1.569493293762207,0.7095716595649719
1774469817682166900,5.78375146484375,0.7356244921684265,1.6901893615722656,0.4200189411640167
1774469817692194200,5.79377880859375,0.4766891598701477,1.9494783878326416,0.2211285382509231
1774469817702220900,5.803805419921875,0.3803378641605377,1.9146692752838133,0.3035176992416382
1774469817712246900,5.81383154296875,0.3456054627895355,1.2720732688903809,0.4881519675254822
1774469817722273900,5.8238583984375,0.4090286493301391,0.7039873003959656,0.6392735838890076
1774469817732301200,5.8338857421875,0.485250860452652,0.3990392386913299,0.8084343671798706
1774469817742327900,5.84391259765625,0.6177201867103577,0.033777117729187,1.1057827472686768
1774469817752354900,5.853939453125,0.934208333492279,-0.2825807332992553,1.5192372798919678
1774469817762380900,5.863965576171875,1.2681658267974854,-0.4664384424686432,2.096914768218994
1774469817772408200,5.87399267578125,1.537958025932312,-0.6844096779823303,2.744065999984741
1774469817782434900,5.88401953125,1.6811434030532837,-1.0576159954071045,3.3460426330566406
1774469817792461900,5.894046630859375,1.7078627347946167,-1.3482149839401243,3.8507931232452393
1774469817802488700,5.9040732421875,1.6101404428482056,-1.6933467388153076,4.25058650970459
1774469817812515700,5.914100341796875,1.3646013736724854,-2.2331063747406006,4.579007625579834
1774469817822542400,5.924126953125,1.04073965549469,-2.672349214553833,4.826254367828369
1774469817832569700,5.934154296875,1.114898443222046,-3.0365264415740967,5.050712585449219
1774469817842595700,5.94418017578125,1.039796233177185,-1.65147864818573,4.095540523529053
1774469817852622700,5.954207275390625,-0.2663793861865997,3.46007776260376,-2.348170518875122
1774469817862649400,5.964234130859375,-0.45461505651474,1.5288959741592407,-4.070478439331055
1774469817872676700,5.97426123046875,-0.351392388343811,-1.696220636367798,-1.342456936836243
1774469817882702700,5.984287353515625,-0.32986980676651,-2.4464821815490723,0.0518921501934528
1774469817892729700,5.994314208984375,-0.4318869411945343,-1.1926207542419434,-0.2907819747924804
1774469817902756400,6.004341064453125,-0.6745712161064148,0.7001594305038452,-0.676291823387146
1774469817912783700,6.014368408203125,-0.7862306833267212,2.0840563774108887,-0.8235983848571777
1774469817922809700,6.024394287109375,-0.8447555303573608,3.1288695335388184,-0.6870906352996826
1774469817932836700,6.03442138671875,-0.6497389674186707,3.178018093109131,-0.728874146938324
1774469817942863400,6.044447998046875,-0.5458072423934937,2.7836697101593018,-0.3618594110012054
1774469817952890700,6.054475341796875,-0.4710132181644439,1.8275657892227173,0.0259787179529666
1774469817962916700,6.064501220703125,-0.4103471934795379,0.5940679311752319,-0.0936648547649383
1774469817972943700,6.0745283203125,-0.6326593160629272,-0.6229519844055176,-0.8997250199317932
1774469817982970400,6.08455517578125,-0.7601525783538818,-1.397533655166626,-0.8359412550926208
1774469817992997400,6.09458203125,-0.7755478024482727,-1.7742576599121094,-0.1359103471040725
1774469818003023700,6.1046083984375,-0.7038635015487671,-1.7117727994918823,0.1231521070003509
1774469818013050700,6.11463525390625,-0.6127994656562805,-1.24357807636261,-0.0525316335260868
1774469818023077400,6.124662109375,-0.6503766775131226,-0.8140465021133423,-0.0390634946525096
1774469818033104400,6.134689208984375,-0.6189522743225098,-0.6593199968338013,0.1493356227874755
1774469818043130700,6.14471533203125,-0.4320292174816131,-0.4487169682979584,0.2327644675970077
1774469818053157700,6.154742431640625,-0.4110806584358215,-0.0215548314154148,0.0167562775313854
1774469818063184400,6.16476904296875,-0.3849092423915863,0.375832200050354,-0.1777769923210144
1774469818073211400,6.174796142578125,-0.3998858332633972,0.8854775428771973,-0.2773275077342987
1774469818083237400,6.184822021484375,-0.2720415890216827,1.666803956031799,-0.4930318593978882
1774469818093264700,6.194849365234375,-0.1798349916934967,2.4839158058166504,-0.7802914977073669
1774469818103291400,6.2048759765625,-0.1556356549263,2.611102819442749,-0.8596568703651428
1774469818113318400,6.214903076171875,-0.0756369605660438,1.6541244983673096,-0.7308514714241028
1774469818123344400,6.22492919921875,-0.0200128499418497,0.2931040227413177,-0.5191157460212708
1774469818133371800,6.234956298828125,-0.0591715276241302,-0.5571247935295105,-0.2868101894855499
1774469818143398400,6.244983154296875,-0.0789465680718422,-0.6068337559700012,-0.1422002762556076
1774469818153425400,6.255010009765625,0.0614055767655372,-0.1604528129100799,-0.1369257718324661
1774469818163451400,6.2650361328125,0.2808268964290619,0.1052052229642868,-0.1644333004951477
1774469818173478800,6.2750634765625,0.4667437076568603,0.0712087303400039,-0.2094480693340301
1774469818183505400,6.285090087890625,0.5211901664733887,-0.0637576133012771,-0.2849460244178772
1774469818193532400,6.2951171875,0.4853103756904602,-0.1731434315443039,-0.2404604256153106
1774469818203558400,6.30514306640625,0.3816103339195251,-0.0951439663767814,-0.1000513881444931
1774469818213585800,6.31517041015625,0.2865911722183227,0.4201583862304687,-0.1204462125897407
1774469818223612400,6.325197021484375,0.4181649088859558,0.721565842628479,-0.1671029329299926
1774469818233639500,6.33522412109375,0.4324666559696197,0.47583869099617,-0.0116803487762808
1774469818243665400,6.34525,0.3778122067451477,0.5232725143432617,-0.1253232955932617
1774469818253692800,6.35527734375,-0.2035632878541946,0.6118767857551575,-0.005226232111454
1774469818263719500,6.36530419921875,0.0842674374580383,0.1743782758712768,0.2760294079780578
1774469818273746500,6.3753310546875,0.4193546175956726,0.3542516231536865,0.0081444485113024
1774469818283773500,6.385358154296875,0.3663731515407562,0.8446208238601685,-0.3033593893051147
1774469818293799500,6.395384033203125,0.3510628044605255,1.4359322786331177,-0.5059226751327515
1774469818303826500,6.4054111328125,0.2868760824203491,2.381376266479492,-0.7316141128540039
1774469818313853500,6.415438232421875,0.2277908325195312,3.198847770690918,-0.8752930760383606
1774469818323880600,6.425465087890625,0.2262978702783584,3.6174376010894775,-0.8671637773513794
1774469818333906500,6.4354912109375,0.1416225582361221,3.4043877124786377,-0.9747635126113892
1774469818343933500,6.44551806640625,-0.0591494292020797,2.8049118518829346,-1.0285491943359375
1774469818353960600,6.455545166015625,-0.2147469073534011,2.3296456336975098,-0.8499176502227783
1774469818363987600,6.465572265625,-0.1938767731189727,1.7421395778656006,-0.48115935921669
1774469818374013500,6.47559814453125,-0.1714823544025421,0.8283868432044983,-0.2585550844669342
1774469818384040600,6.485625244140625,-0.1520255655050277,0.1399091184139251,0.0745778679847717
1774469818394067600,6.495652099609375,-0.2002448141574859,-0.4412705302238464,0.2667343616485595
1774469818404094600,6.50567919921875,-0.2453536987304687,-0.7849583625793457,0.4293275475502014
1774469818414120600,6.515705078125,-0.2068940550088882,-0.9865501523017884,0.5282085537910461
1774469818424147600,6.525732177734375,-0.1593140214681625,-0.8686184883117676,0.516341507434845
1774469818434174600,6.53575927734375,-0.1003095209598541,-0.2347487658262252,0.2852424383163452
1774469818444201600,6.5457861328125,-0.0284683518111705,0.2578920722007751,-0.0077031408436596
1774469818454227600,6.555812255859375,0.0442508310079574,0.3128255605697632,-0.10333002358675
1774469818464254600,6.565839111328125,0.0870643407106399,0.2391771674156189,-0.0884986147284507
1774469818474281600,6.5758662109375,0.1142373457551002,0.0893729552626609,-0.0365097150206565
1774469818484308600,6.58589306640625,0.2190529704093933,-0.0754977539181709,-0.0352058261632919
1774469818494334600,6.595919189453125,0.2940788269042969,-0.3421022295951843,-0.0111936535686254
1774469818504361800,6.605946533203125,0.2793302536010742,-0.5539934635162354,-0.0005412762984633
1774469818514388600,6.61597314453125,0.1515506654977798,-0.5079665184020996,0.0498464480042457
1774469818524415600,6.626000244140625,0.1187786012887954,-0.4460736215114593,0.0552691780030727
1774469818534441600,6.636026123046875,0.3212546110153198,-0.2948261499404907,-0.1194451302289962
1774469818544468600,6.64605322265625,0.2280863225460052,0.0238034948706626,-0.2982431054115295
1774469818554495600,6.656080078125,0.1387347280979156,0.4113156497478485,-0.33859983086586
1774469818564522600,6.666107177734375,0.0671159401535987,0.2717404365539551,-0.1650232374668121
1774469818574548600,6.67613330078125,0.0934906229376792,-0.1512023508548736,-0.0452328063547611
1774469818584575600,6.68616015625,0.1404682546854019,-0.1073371469974517,-0.0848071128129959
1774469818594602600,6.696187255859375,0.1515373140573501,0.0908882915973663,-0.168905034661293
1774469818604629600,6.706214111328125,0.2275202274322509,0.0560783855617046,-0.1514014154672622
1774469818614655600,6.716240234375,0.3072259128093719,-0.1821285337209701,-0.1385744214057922
1774469818624682600,6.72626708984375,0.3385492265224457,-0.3643590807914734,-0.1368177980184555
1774469818634709600,6.736294189453125,0.3111510574817657,-0.5802702307701111,-0.1243822574615478
1774469818644736600,6.7463212890625,0.2989450097084045,-0.8579365015029907,-0.0845794528722763
1774469818654762600,6.75634716796875,0.3051599562168121,-1.172187089920044,-0.001780065242201
1774469818664789600,6.766374267578125,0.3139747679233551,-1.421517252922058,0.0257261283695697
1774469818674816600,6.776401123046875,0.1498158574104309,-1.5914770364761353,0.0820047035813331
1774469818684843600,6.78642822265625,-0.0428041815757751,-1.4373277425765991,0.2231602370738983
1774469818694869600,6.7964541015625,-0.2128818184137344,-1.2887612581253052,0.3625805079936981
1774469818704896600,6.806481201171875,-0.4966259300708771,-1.2963978052139282,0.5600054264068604
1774469818714923600,6.81650830078125,-0.7028680443763733,-1.4238028526306152,0.7578386664390564
1774469818724950600,6.82653515625,-0.680550217628479,-1.5769528150558472,0.8591501116752625
1774469818734976600,6.836561279296875,-0.5693187713623047,-1.505513072013855,0.844322144985199
1774469818745003600,6.846588134765625,-0.3247721791267395,-1.0054888725280762,0.8381356000900269
1774469818755030600,6.856615234375,0.0925023779273033,-0.117508128285408,0.7527945041656494
1774469818765057600,6.866642333984375,0.4423306882381439,0.6822159886360168,0.6236554384231567
1774469818775083600,6.876668212890625,0.3560320734977722,0.9969852566719056,0.5372990965843201
1774469818785110600,6.8866953125,0.1872731298208236,0.9596333503723145,0.5365867018699646
1774469818795137400,6.896721923828125,0.1418556571006775,1.0084972381591797,0.5539681911468506
1774469818805164400,6.9067490234375,0.047872707247734,1.518272042274475,0.4826817512512207
1774469818815191700,6.9167763671875,0.0217733904719352,2.1997761726379395,0.3205652236938476
1774469818825217600,6.92680224609375,-0.0158458910882473,2.631913661956787,0.2548400163650512
1774469818835244400,6.9368291015625,-0.0876529067754745,2.4901669025421143,0.3000872433185577
1774469818845271400,6.94685595703125,-0.1435217559337616,1.869007468223572,0.3276626765727997
1774469818855298400,6.956883056640625,-0.1407331079244613,1.0925720930099487,0.2252882868051529
1774469818865324600,6.9669091796875,-0.1833234429359436,0.6981168389320374,0.144713282585144
1774469818875351400,6.97693603515625,-0.3093584477901459,0.5641480684280396,0.1543163359165191
1774469818885378400,6.986962890625,-0.4413119554519653,0.2618672847747803,0.1869174242019653
1774469818895405400,6.996989990234375,-0.4328565001487732,0.0443853512406349,0.0841397941112518
1774469818905431700,7.007016357421875,-0.3810263276100158,0.0590436533093452,-0.0914930179715156
1774469818915458400,7.01704296875,-0.345780074596405,0.2365793287754058,-0.167231410741806
1774469818925485400,7.027070068359375,-0.2356027215719223,0.3243483603000641,-0.1974838525056839
1774469818935512400,7.037096923828125,-0.0939194783568382,0.3100976645946502,-0.2084814757108688
1774469818945538400,7.047123046875,-0.0108099449425935,0.2215310335159301,-0.2022291719913482
1774469818955565400,7.05714990234375,0.0825119614601135,0.0592349097132682,-0.27022585272789
1774469818965592400,7.067177001953125,0.0816746652126312,0.1866043210029602,-0.4107155799865722
1774469818975619400,7.0772041015625,0.0590492896735668,0.4420500695705414,-0.5021633505821228
1774469818985645400,7.08722998046875,0.1094402894377708,0.3998064696788788,-0.5501703023910522
1774469818995672400,7.097257080078125,0.1850894391536712,0.2786662578582763,-0.6045739054679871
1774469819005699400,7.107283935546875,0.2677702009677887,0.2494095712900161,-0.6151706576347351
1774469819015726400,7.11731103515625,0.4087807238101959,0.1302199363708496,-0.6107170581817627
1774469819025752400,7.1273369140625,0.4608974456787109,-0.13178052008152,-0.4680326282978058
1774469819035779400,7.137364013671875,0.4786112010478973,-0.3891529142856598,-0.2777556180953979
1774469819045806400,7.14739111328125,0.5033926963806152,-0.6623786091804504,-0.1805515885353088
1774469819055833400,7.15741796875,0.4919258058071136,-0.7498965859413147,-0.0602025985717773
1774469819065859400,7.167444091796875,0.4899348318576813,-0.6280705332756042,0.0620492808520793
1774469819075886400,7.177470947265625,0.5158863663673401,-0.5875588655471802,0.19093818962574
1774469819085913400,7.187498046875,0.5771390795707703,-0.7044700384140015,0.2377480268478393
1774469819095940400,7.197525146484375,0.7357699871063232,-1.154395580291748,0.3209192752838135
1774469819105966400,7.207551025390625,1.0485832691192627,-1.438634753227234,0.0985820814967155
1774469819115993400,7.217578125,2.212286233901977,-1.3067466020584106,-0.8061715960502625
1774469819126020400,7.22760498046875,3.015923261642456,-2.3135793209075928,-1.118214130401611
1774469819136047400,7.237632080078125,3.5605976581573486,-3.0379421710968018,-1.226746916770935
1774469819146073400,7.247657958984375,3.954416751861572,-1.9138208627700808,-1.2972970008850098
1774469819156100700,7.257685302734375,3.8269174098968506,-0.8277328610420227,-1.371790885925293
1774469819166127400,7.267712158203125,3.326094388961792,-0.5421743392944336,-0.9990801811218262
1774469819176154400,7.277739013671875,2.534161329269409,-0.4923663139343261,-0.4039645195007324
1774469819186180400,7.28776513671875,1.6156203746795654,-0.3791942000389099,0.1902762055397033
1774469819196207400,7.2977919921875,0.6670598983764648,-0.2385590672492981,0.7037404775619507
1774469819206234400,7.307819091796875,-0.1163664683699607,-0.1340606212615966,1.1346300840377808
1774469819216261400,7.31784619140625,-0.6507191061973572,-0.2447074949741363,1.363159418106079
1774469819226287400,7.3278720703125,-0.9684704542160034,-0.3661465644836426,1.370276689529419
1774469819236314400,7.337899169921875,-1.346438765525818,-0.3078476190567016,1.1006373167037964
1774469819246341400,7.347926025390625,-1.673999547958374,0.0396112650632858,0.8033978939056396
1774469819256368400,7.357953125,-1.8496184349060056,1.0510839223861694,0.5127492547035217
1774469819266394400,7.36797900390625,-1.938097715377808,2.6701600551605225,0.1754407584667205
1774469819276421400,7.378006103515625,-1.8555878400802608,3.940969467163086,0.0776046440005302
1774469819286448400,7.388033203125,-1.5151489973068235,4.075697898864746,0.3659773170948028
1774469819296475400,7.39806005859375,-0.9747742414474488,3.1751017570495605,0.3553449213504791
1774469819306501400,7.408086181640625,-0.2263925075531005,0.6999427676200867,-0.8814800977706909
1774469819316528400,7.418113037109375,0.4776619374752044,-2.225496768951416,-1.6541987657546997
1774469819326555400,7.42814013671875,0.9087643623352052,-2.9188601970672607,-0.6065497994422913
1774469819336582400,7.4381669921875,0.9906342029571532,-2.096240520477295,0.2720550298690796
1774469819346608400,7.448193115234375,0.8971607089042664,-0.5841023325920105,0.2224762886762619
1774469819356635400,7.45822021484375,0.7976166605949402,0.2180210053920745,0.1954783946275711
1774469819366662400,7.4682470703125,0.6877601742744446,1.0267101526260376,0.0730882957577705
1774469819376689400,7.478274169921875,0.7061527371406555,1.506783127784729,0.0471921972930431
1774469819386715400,7.488300048828125,0.7077562212944031,1.208492398262024,-0.0024640373885631
1774469819396742400,7.4983271484375,0.697845458984375,0.3099827170372009,-0.3103325366973877
1774469819406769300,7.508353759765625,0.6862045526504517,-0.7507743239402771,-0.5882706642150879
1774469819416796400,7.518381103515625,0.6452637910842896,-1.367011547088623,-0.5590623021125793
1774469819426822400,7.528406982421875,0.5403160452842712,-1.4603928327560425,-0.5304974913597107
1774469819436849400,7.53843408203125,0.3804367482662201,-1.109756588935852,-0.5550158023834229
1774469819446876300,7.5484609375,0.1562249362468719,-0.3657617568969726,-0.5565156936645508
1774469819456903400,7.558488037109375,0.0591739304363727,0.4704519212245941,-0.5038307905197144
1774469819466929400,7.56851416015625,0.0603843368589878,1.1591719388961792,-0.4857103824615478
1774469819476956400,7.578541015625,0.0731044933199882,1.6159236431121826,-0.4703108370304107
1774469819486983300,7.58856787109375,0.1000287905335426,1.6519428491592407,-0.444105863571167
1774469819497010500,7.59859521484375,0.1085685715079307,1.1891083717346191,-0.3110507428646087
1774469819507036400,7.60862109375,0.1553488671779632,0.1827674359083175,-0.0442600771784782
1774469819517063400,7.618648193359375,0.1498119533061981,-0.5522906184196472,0.2068899422883987
1774469819527090400,7.6286748046875,0.1168425530195236,-0.7854725122451782,0.4076533913612366
1774469819537117500,7.6387021484375,0.0999422892928123,-0.7831103205680847,0.5760900974273682
1774469819547143400,7.64872802734375,0.0847273841500282,-0.7266494631767273,0.5991370677947998
1774469819557170500,7.658755126953125,0.04696886241436,-0.7118996381759644,0.5434236526489258
1774469819567197400,7.668781982421875,0.024248369038105,-0.6716353297233582,0.388183981180191
1774469819577224600,7.67880908203125,0.0092857331037521,-0.6487380862236023,0.204349547624588
1774469819587250500,7.688835205078125,0.0042044222354888,-0.5987734794616699,0.0634885728359222
1774469819597277500,7.698862060546875,0.0022532171569764,-0.4212396740913391,-0.045860156416893
1774469819607304400,7.708888916015625,-0.015324710868299,-0.0696177184581756,-0.0922801196575164
1774469819617331600,7.718916259765625,-0.0187382493168115,0.3323276340961456,-0.0774246901273727
1774469819627357500,7.728942138671875,-0.0105247944593429,0.550595223903656,-0.0103729497641325
1774469819637384600,7.73896923828125,-0.0096004791557788,0.5291427969932556,0.1079727411270141
1774469819647411400,7.748995849609375,-0.0222584828734397,0.2929283678531647,0.1866425126791
1774469819657438400,7.75902294921875,-0.0393603630363941,-0.0190251171588897,0.2602232098579407
1774469819667464600,7.769049072265625,-0.0524972043931484,-0.1750847548246383,0.3640830218791961
1774469819677491600,7.779076171875,-0.0943266153335571,-0.1978575140237808,0.3965857028961181
1774469819687518400,7.78910302734375,-0.1246554851531982,-0.2085165381431579,0.3769171833992004
1774469819697545400,7.7991298828125,-0.1775000393390655,-0.2476295381784439,0.3423478007316589
1774469819707571600,7.80915625,-0.2546614110469818,-0.2752537131309509,0.2806354463100433
1774469819717598600,7.81918310546875,-0.3225665390491485,-0.3104962706565857,0.0972440242767334
1774469819727625400,7.8292099609375,-0.3403740525245666,-0.2876516580581665,-0.0129927396774292
1774469819737652400,7.83923681640625,-0.2948638796806335,-0.2730121314525604,-0.1090622544288635
1774469819747678400,7.849262939453125,-0.2197984158992767,-0.1184939444065094,-0.2359807938337326
1774469819757705600,7.859290283203125,-0.1888697892427444,0.1443478018045425,-0.2973013818264007
1774469819767732600,7.869317138671875,-0.1754735559225082,0.462097018957138,-0.4092657566070556
1774469819777759400,7.879343994140625,-0.1402411460876464,0.7954865097999573,-0.4507883787155151
1774469819787785400,7.889369873046875,-0.1076041013002395,0.9445548057556152,-0.3644883632659912
1774469819797812600,7.899397216796875,-0.01289021410048,0.8632162809371948,-0.2377235442399978
1774469819807839100,7.909423583984375,0.054971657693386,0.4847160875797272,-0.1629987061023712
1774469819817865800,7.919450439453125,0.1092315763235092,0.121946595609188,-0.1059653609991073
1774469819827891800,7.929476318359375,0.1496708691120147,0.0684684589505195,-0.1550689935684204
1774469819837919100,7.939503662109375,0.1061455979943275,0.1021076589822769,-0.3876725137233734
1774469819847946100,7.94953076171875,0.1004791930317878,0.2281284481287002,-0.6942085027694702
1774469819857972800,7.959557373046875,0.1516786515712738,0.3853690028190613,-0.846163272857666
1774469819867998800,7.96958349609375,0.1929168999195099,0.4009836316108703,-0.8552585244178772
1774469819878026100,7.979610595703125,0.2171308100223541,0.2417268306016922,-0.8727068305015564
1774469819888053100,7.9896376953125,0.1777575761079788,-0.0561794266104698,-0.799148440361023
1774469819898079800,7.99966455078125,0.0999662950634956,-0.3611997067928314,-0.5652189254760742
1774469819908105800,8.0096904296875,0.0746774524450302,-0.3946700394153595,-0.3770082592964172
1774469819918132800,8.019717529296875,-0.0142621686682105,-0.2303116917610168,-0.2369991689920425
1774469819928160100,8.02974462890625,-0.0703211799263954,-0.080622062087059,-0.1284913271665573
1774469819938186900,8.039771484375,-0.0504565052688121,0.066234678030014,-0.1328258663415908
1774469819948212800,8.04979736328125,-0.074037991464138,0.145152136683464,-0.1247279942035675
1774469819958239800,8.059824462890624,-0.1312922835350036,0.1099425852298736,-0.0534321628510952
1774469819968267100,8.069851806640624,-0.1676660031080246,0.0115262605249881,0.0798787474632263
1774469819978293900,8.07987841796875,-0.2286094576120376,-0.2032684087753296,0.2517018020153045
1774469819988319800,8.089904541015626,-0.1937992721796035,-0.4225240647792816,0.3512028455734253
1774469819998346900,8.099931396484376,-0.1713863015174865,-0.5082374215126038,0.314395397901535
1774469820008374100,8.109958740234376,-0.1537639051675796,-0.3954011797904968,0.2000536471605301
1774469820018400900,8.1199853515625,-0.2071418762207031,-0.2134317904710769,0.04075713083148
1774469820028426900,8.130011474609375,-0.2495439201593399,-0.1326080560684204,-0.1165778934955596
1774469820038453900,8.14003857421875,0.0444943234324455,-0.1139625459909439,-0.3277958333492279
1774469820048481100,8.150065673828125,0.1147509068250656,-0.3128418028354645,-0.5156442523002625
1774469820058507900,8.160092529296875,-0.043182335793972,-0.5962590575218201,-0.5624681115150452
1774469820068533900,8.170118408203125,-0.066985934972763,-0.7279686331748962,-0.5269961357116699
1774469820078560900,8.1801455078125,-0.0934736728668212,-0.6424117684364319,-0.3878143429756164
1774469820088588100,8.1901728515625,-0.1461443454027176,-0.4038492441177368,-0.1569111049175262
1774469820098614100,8.20019873046875,0.1805307269096374,0.0705854594707489,-0.0901169627904892
1774469820108640900,8.2102255859375,0.4177499115467071,0.2820724248886108,-0.2304136306047439
1774469820118667900,8.22025244140625,0.3837537765502929,0.3077033758163452,-0.4595162868499756
1774469820128695100,8.23027978515625,0.42402184009552,0.2768413424491882,-0.6187477707862854
1774469820138721900,8.240306396484375,0.590927004814148,0.3002358675003052,-0.5992627739906311
1774469820148747900,8.25033251953125,0.758672833442688,0.4923163652420044,-0.5878303647041321
1774469820158774900,8.260359375,0.8065541982650757,0.8008401393890381,-0.6624038219451904
1774469820168801900,8.270386474609374,0.8074048161506653,0.8724512457847595,-0.7077683210372925
1774469820178828100,8.280412841796876,0.7564858198165894,0.7229102253913879,-0.6496605277061462
1774469820188854900,8.290439453125,0.6504096984863281,0.5519393086433411,-0.5463919043540955
1774469820198881900,8.300466552734376,0.505014955997467,0.4185210168361664,-0.3954955637454986
1774469820208908900,8.310493408203126,0.3656006157398224,0.4134601950645447,-0.2335873693227768
1774469820218934900,8.32051953125,0.1958566308021545,0.2422114163637161,0.0246771425008773
1774469820228961900,8.33054638671875,0.048330295830965,-0.0892887637019157,0.2185456901788711
1774469820238988900,8.340573486328125,-0.0636902377009391,-0.3899913132190704,0.3333419859409332
1774469820249015900,8.3506005859375,-0.1914098560810089,-0.2997122704982757,0.4461910128593445
1774469820259041900,8.36062646484375,-0.279375284910202,0.0843672677874565,0.6079591512680054
1774469820269068900,8.370653564453125,-0.2843268811702728,0.4777622520923614,0.8052557110786438
1774469820279095900,8.380680419921875,-0.2355493158102035,0.6352355480194092,0.9222807884216307
1774469820289122900,8.39070751953125,-0.2352739423513412,0.5960404872894287,0.8742061853408813
1774469820299148900,8.4007333984375,-0.2583724558353424,0.4097767770290375,0.6776665449142456
1774469820309176200,8.4107607421875,-0.2268283665180206,0.3038506209850311,0.4175355732440948
1774469820319202900,8.42078759765625,-0.2432416081428527,0.7535037398338318,0.1815044432878494
1774469820329229900,8.430814453125,-0.2804350554943084,0.6532735228538513,0.0146291786804795
1774469820339255900,8.440840576171874,-0.1905432939529419,0.2899767160415649,-0.1285919994115829
1774469820349283200,8.45086767578125,-0.0798492729663848,0.0919879972934722,-0.2530074417591095
1774469820359309900,8.46089453125,0.0248411893844604,0.2134233564138412,-0.4582578241825104
1774469820369336900,8.470921630859374,0.0809233635663986,0.1552079916000366,-0.6060081124305725
1774469820379362900,8.480947509765626,0.1615336239337921,0.0022610835731029,-0.6542186737060547
1774469820389390200,8.490974853515626,0.1376530528068542,-0.0801690742373466,-0.6482524275779724
1774469820399416900,8.50100146484375,0.1169504821300506,-0.0468924865126609,-0.6425832509994507
1774469820409443900,8.511028564453126,0.185870423913002,0.000167166814208,-0.6496757864952087
1774469820419469900,8.521054443359375,0.2440252751111984,-0.0140836350619792,-0.6640750169754028
1774469820429497200,8.531081787109375,0.2415724992752075,-0.1270631849765777,-0.6098586916923523
1774469820439523900,8.541108642578125,0.2287930846214294,-0.2546734809875488,-0.5557126402854919
1774469820449551000,8.551135498046875,0.2008639872074127,-0.2403768599033355,-0.5652406215667725
1774469820459576900,8.56116162109375,0.1635616868734359,-0.1355594247579574,-0.6201016306877136
1774469820469603900,8.5711884765625,0.1466793715953827,-0.0149414017796516,-0.6447668075561523
1774469820479631000,8.581215576171875,0.1318020969629287,0.1344511061906814,-0.5247694849967957
1774469820489658000,8.59124267578125,0.1247194185853004,0.0871395170688629,-0.2767796218395233
1774469820499683900,8.6012685546875,0.229046881198883,-0.0009182160720229,-0.0966949686408042
1774469820509711000,8.611295654296875,0.2608585953712463,0.0393386594951152,0.1014431491494178
1774469820519738000,8.621322509765625,0.2117984294891357,0.0773945748805999,0.2765140831470489
1774469820529765000,8.631349609375,0.2044299989938736,0.1316703259944915,0.3425847291946411
1774469820539791000,8.64137548828125,0.2245979756116867,0.3189402222633362,0.3841742575168609
1774469820549818000,8.651402587890624,0.2345217168331146,0.4877566695213318,0.3535354137420654
1774469820559845000,8.6614296875,0.2173894643783569,0.0676964074373245,0.391162633895874
1774469820569872000,8.67145654296875,0.2161106169223785,-0.0834033638238906,0.3926902413368225
1774469820579898000,8.681482666015626,0.2081993222236633,0.056216787546873,0.2931692600250244
1774469820589925000,8.691509521484376,0.2376405745744705,0.1577966809272766,0.1600887328386306
1774469820599952000,8.70153662109375,0.2509234249591827,0.1011794432997703,0.0947493836283683
1774469820609979000,8.7115634765625,0.2399597316980362,-0.0303303785622119,0.0507371798157691
1774469820620005000,8.721589599609375,0.176773726940155,-0.1125398427248001,-0.0261782780289649
1774469820630032000,8.731616455078125,0.2181757539510727,-0.0088046565651893,-0.1118966490030288
1774469820640059000,8.7416435546875,0.1792261004447937,-0.0679570659995079,-0.1580902189016342
1774469820650085000,8.751669677734375,0.156619593501091,-0.0770392417907714,-0.2628264725208282
1774469820660112000,8.761696533203125,0.218340590596199,-0.1420259028673172,-0.2960912883281708
1774469820670139000,8.7717236328125,0.3191476166248321,-0.5997093319892883,-0.2612212002277374
1774469820680166000,8.78175048828125,0.371288388967514,-0.8182047009468079,-0.3336959779262543
1774469820690192000,8.791776611328125,0.3851719796657562,-0.9965675473213196,-0.4009647667407989
1774469820700219000,8.801803466796875,0.3835274875164032,-1.091068148612976,-0.39850914478302
1774469820710246000,8.81183056640625,0.3782576322555542,-0.6992169618606567,-0.3075877726078033
1774469820720272700,8.821857421875,0.4107011258602142,-0.3803040981292724,-0.2563487291336059
1774469820730299000,8.831883544921874,0.4108380079269409,-0.1377897411584854,-0.2637491226196289
1774469820740326000,8.84191064453125,0.4157852530479431,-0.0356900356709957,-0.2190644741058349
1774469820750353000,8.8519375,0.3975495100021362,-0.0382669121026992,-0.1798395663499832
1774469820760379800,8.86196435546875,0.3615807294845581,-0.1353483200073242,-0.2324361801147461
1774469820770406000,8.871990478515626,0.3010540306568146,-0.0896940231323242,-0.203000783920288
1774469820780433000,8.882017578125,0.2325890511274337,0.0522318296134471,-0.2212346792221069
1774469820790460000,8.892044677734376,0.2389526814222335,0.1150392889976501,-0.2264174520969391
1774469820800486800,8.9020712890625,0.3292165100574493,0.0053462139330804,-0.2075804769992828
1774469820810513300,8.912097900390625,0.3488394618034363,0.0648960918188095,-0.3913311660289764
1774469820820540300,8.922124755859375,0.4315422773361206,0.0856832116842269,-0.5337992310523987
1774469820830567500,8.932152099609375,0.4998193383216858,-0.0722635462880134,-0.5952879190444946
1774469820840594400,8.942178955078125,0.4733285307884216,-0.1705256253480911,-0.6710711121559143
1774469820850620300,8.952204833984375,0.3817493319511413,-0.416330337524414,-0.7263866066932678
1774469820860647400,8.96223193359375,0.3073622286319732,-0.721132755279541,-0.757266640663147
1774469820870674500,8.972259033203125,0.267444372177124,-1.08464515209198,-0.7513336539268494
1774469820880701400,8.982285888671875,0.1957357823848724,-1.3769335746765137,-0.6904506087303162
1774469820890727400,8.992311767578125,0.106197640299797,-1.4842723608016968,-0.6121315360069275
1774469820900754400,9.0023388671875,-0.0015736775239929,-1.354230284690857,-0.5147806406021118
1774469820910781500,9.0123662109375,-0.1378939598798751,-0.9414592385292052,-0.4565812647342682
1774469820920808400,9.022392822265624,-0.2645999491214752,-0.3791712820529938,-0.3655043840408325
1774469820930834400,9.0324189453125,-0.2858200073242187,0.3377873599529266,-0.2583329081535339
1774469820940861400,9.04244580078125,-0.1699235886335373,0.9590980410575868,-0.0807072222232818
1774469820950888400,9.052472900390624,-0.0009193958248943,1.4487733840942385,0.0547771044075489
1774469820960915400,9.0625,0.1234175041317939,1.609453558921814,0.1294201612472534
1774469820970941400,9.07252587890625,0.143798679113388,1.3814704418182373,0.2157755494117736
1774469820980968400,9.082552978515626,0.106343500316143,1.084584355354309,0.2381417900323867
1774469820990995400,9.092579833984376,0.0861559435725212,0.840871274471283,0.2644631564617157
1774469821001021500,9.102606201171875,0.0721688866615295,0.6554581522941589,0.3046095371246338
1774469821011048400,9.1126328125,-0.0101693980395793,0.3038223683834076,0.3793495297431946
1774469821021075400,9.122659912109375,-0.022352086380124,-0.0618069395422935,0.3157977759838104
1774469821031102400,9.13268701171875,-0.050631396472454,-0.4752211272716522,0.1942330002784729
1774469821041128400,9.142712890625,-0.1280186921358108,-0.784744918346405,0.1740589290857315
1774469821051155400,9.152739990234377,-0.2153908759355545,-0.8534901738166809,0.1208263412117958
1774469821061182400,9.162766845703125,-0.2962193191051483,-0.6772426962852478,0.0825472250580787
1774469821071209400,9.1727939453125,-0.3700363039970398,-0.4622214436531067,0.1284004598855972
1774469821081235400,9.18281982421875,-0.389658659696579,-0.2885259091854095,0.1123145595192909
1774469821091262400,9.192846923828125,-0.3643410503864288,-0.0965657830238342,0.0687140822410583
1774469821101289400,9.2028740234375,-0.3215002715587616,0.136632353067398,0.1009962111711502
1774469821111316400,9.21290087890625,-0.2871255278587341,0.3510572910308838,0.1194593757390976
1774469821121342400,9.222927001953124,-0.2777358293533325,0.5265971422195435,0.1223866418004036
1774469821131369400,9.232953857421874,-0.183137446641922,0.6419253349304199,0.1633380502462387
1774469821141396400,9.24298095703125,-0.1709598749876022,0.8694982528686523,0.0783561021089553
1774469821151423400,9.253008056640626,-0.115758940577507,0.8664915561676025,0.0120447222143411
1774469821161449400,9.263033935546876,-0.0087493583559989,0.7390798926353455,-0.1039837300777435
1774469821171476400,9.27306103515625,0.0536783337593078,0.5190985798835754,-0.2114737033843994
1774469821181503400,9.283087890625,0.0910407528281211,0.2695863246917724,-0.3153524100780487
1774469821191530400,9.293114990234375,0.1480529010295868,0.0978401526808738,-0.3969239592552185
1774469821201556400,9.303140869140623,0.1911841630935669,-0.0822432339191436,-0.4191563725471496
1774469821211583400,9.31316796875,0.1677153259515762,-0.1240703165531158,-0.4111903309822082
1774469821221610400,9.32319482421875,0.1543486267328262,-0.0563379563391208,-0.3285617232322693
1774469821231637400,9.333221923828123,0.1473692804574966,0.1218679919838905,-0.2304788529872894
1774469821241663400,9.343248046875,0.1058286875486373,0.3907391726970672,-0.1457842737436294
1774469821251690400,9.35327490234375,0.042328804731369,0.6116129755973816,-0.0701486319303512
1774469821261717400,9.363302001953125,-0.007321810349822,0.9499474167823792,-0.0709870308637619
1774469821271744400,9.373328857421876,-0.0446824990212917,1.0397628545761108,-0.1093994006514549
1774469821281770400,9.38335498046875,-0.0354449823498725,0.5893929600715637,-0.1455347836017608
1774469821291797400,9.3933818359375,-0.0095782307907938,-0.1165929362177848,-0.1244404166936874
1774469821301824400,9.403408935546874,-0.0433834083378315,-0.3115759789943695,0.0133733926340937
1774469821311850400,9.41343505859375,0.0020410649012774,-0.2062237113714218,0.0337926484644413
1774469821321877400,9.4234619140625,0.0240329504013061,-0.0886240229010582,-0.0047103413380682
1774469821331904400,9.433489013671876,0.0086958054453134,-0.2143377363681793,0.0001390082761645
1774469821341931400,9.443515869140626,-0.0585679113864898,-0.3151237070560455,-0.0864431038498878
1774469821351957400,9.4535419921875,-0.0952106118202209,-0.2845306694507599,-0.0814179852604866
1774469821361984400,9.46356884765625,-0.1086684316396713,-0.2866914570331573,-0.0817451477050781
1774469821372011400,9.473595947265624,-0.1120477169752121,-0.2996645271778106,-0.0619165785610675
1774469821382038400,9.483623046875,-0.1796405017375946,-0.2808641791343689,-0.0063112806528806
1774469821392064400,9.49364892578125,-0.1951595395803451,-0.1694662868976593,0.020835917443037
1774469821402091400,9.503676025390623,-0.2113364338874817,-0.070081740617752,0.034286018460989
1774469821412118400,9.513702880859377,-0.2285300642251968,-0.0316909477114677,0.0513614080846309
1774469821422145400,9.52372998046875,-0.2589112520217895,-0.0460337921977043,0.0458489097654819
1774469821432171400,9.533755859375,-0.258466511964798,-0.0563948228955268,0.0253705345094203
1774469821442198400,9.543782958984377,-0.2824729382991791,-0.111109621822834,0.0601173900067806
1774469821452225400,9.55381005859375,-0.2957722246646881,-0.1360027194023132,0.0487273149192333
1774469821462252400,9.5638369140625,-0.2959111034870147,-0.1440733969211578,0.0639686360955238
1774469821472278400,9.573863037109374,-0.3103960454463959,-0.1452670246362686,0.0768918916583061
1774469821482305400,9.583889892578124,-0.2824795246124267,-0.0948806628584861,0.0526729524135589
1774469821492332400,9.5939169921875,-0.2420324832201004,-0.086278922855854,0.0329437181353569
1774469821502359100,9.60394384765625,-0.1909250617027282,-0.0721139535307884,-0.0042059798724949
1774469821512385400,9.613969970703126,-0.1554445624351501,-0.0824291780591011,-0.0423975735902786
1774469821522412400,9.6239970703125,-0.1441171020269394,-0.161578431725502,-0.082565426826477
1774469821532439400,9.63402392578125,-0.1545654833316803,-0.2191948592662811,-0.1181372627615928
1774469821542466200,9.64405078125,-0.2036656439304351,-0.187226265668869,-0.1365130394697189
1774469821552492400,9.654076904296875,-0.2200632691383361,-0.0909159779548645,-0.1856041550636291
1774469821562519400,9.66410400390625,-0.1810585856437683,-0.0508781969547271,-0.2687541842460632
1774469821572546400,9.674131103515624,-0.1788436323404312,-0.2552118897438049,-0.3426859378814697
1774469821582572400,9.684156982421875,-0.188201442360878,-0.7272012829780579,-0.6582961082458496
1774469821592599100,9.694183837890623,-0.4906544983386993,-1.2808293104171753,-0.6871849894523621
1774469821602626400,9.7042109375,-1.061628818511963,-0.8061498403549194,-0.2285746335983276
1774469821612653400,9.714238037109377,-1.3161624670028689,-0.4355355501174927,-0.4600739181041717
1774469821622679400,9.724263916015625,-1.3263652324676514,-0.1751026809215545,-1.3970493078231812
1774469821632706200,9.734290771484376,-1.1694868803024292,-0.4209841191768646,-1.39763605594635
1774469821642733400,9.744318115234377,-1.0562474727630615,-0.749276340007782,-0.8466047048568726
1774469821652760400,9.754344970703125,-1.0865780115127563,-0.5164417624473572,-0.7202377319335938
1774469821662786400,9.76437109375,-1.276301383972168,0.9067136645317078,-1.0881181955337524
1774469821672813200,9.774397705078124,-1.2942036390304563,2.2487130165100098,-0.3894340991973877
1774469821682840400,9.784425048828124,-1.0437886714935305,2.596856117248535,0.3138801455497741
1774469821692867400,9.7944521484375,-0.5017911791801453,1.4561805725097656,0.1954048871994018
1774469821702893400,9.80447802734375,0.0199772603809833,0.0925975516438484,-0.1428358405828476
1774469821712920200,9.8145048828125,0.3422993719577789,-0.8773581981658936,-0.2631513178348541
1774469821722947400,9.824531982421876,0.4270971715450287,-1.2845790386199951,-0.5204825401306152
1774469821732974400,9.83455908203125,0.4650235176086426,-1.2547457218170166,-0.93278568983078
1774469821743000400,9.8445849609375,0.4494695961475372,-0.7444233894348145,-1.2731540203094482
1774469821753027200,9.85461181640625,0.51094651222229,-0.2043085098266601,-1.3642735481262207
1774469821763054400,9.86463916015625,0.6087034344673157,0.2271666526794433,-1.27208149433136
1774469821773081400,9.874666015625,0.7193271517753601,0.6719262599945068,-1.0201070308685305
1774469821783107400,9.884692138671875,0.6852104663848877,0.7338492274284363,-0.7202898859977722
1774469821793134200,9.89471875,0.5626725554466248,0.648540735244751,-0.3314118683338165
1774469821803161400,9.90474609375,0.4446576237678528,0.1915768384933471,-0.0293314717710018
1774469821813188400,9.91477294921875,0.294462502002716,-0.1497227102518081,0.2039342671632766
1774469821823214400,9.924799072265625,0.1145164743065834,-0.1499492824077606,0.250692218542099
1774469821833241400,9.934825927734376,-0.0543433874845504,-0.0060456409119069,0.1871369630098343
1774469821843268400,9.94485302734375,-0.1139049082994461,0.1557964980602264,0.1045084446668624
1774469821853294400,9.954879150390624,-0.0503344535827636,0.1056097522377967,-0.0458674803376197
1774469821863321400,9.964906005859374,0.0442726835608482,-0.0343949310481548,-0.1531198620796203
1774469821873348400,9.97493310546875,0.0592345893383026,-0.0840165540575981,-0.134839653968811
1774469821883375400,9.9849599609375,0.0145749095827341,-0.0361552201211452,-0.0423284769058227
1774469821893401400,9.994986083984376,-0.01240717433393,0.0068066297098994,0.0422758907079696
1774469821903428400,10.005012939453126,-0.0105800982564687,0.0305741745978593,0.0733843743801117
1774469821913455400,10.0150400390625,0.0080982483923435,0.045961920171976,0.0424965061247348
1774469821923482400,10.025067138671876,0.0072621181607246,0.0224877931177616,-0.0028101988136768
1774469821933508400,10.035093017578124,-0.0013598656514659,-0.0318140611052513,-0.0349662713706493
1774469821943535400,10.0451201171875,-0.015196269378066,-0.0397897996008396,-0.0330431759357452
1774469821953562400,10.05514697265625,-0.0095250681042671,0.009455244988203,-0.0051819826476275
1774469821963589400,10.065174072265624,-0.0014511643676087,0.0337182283401489,0.0287267714738845
1774469821973615400,10.075199951171877,-0.0028964621014893,0.0161432307213544,0.0237522535026073
1774469821983642400,10.08522705078125,-0.0121587067842483,-0.0070543475449085,0.0044348631054162
1774469821993669400,10.095254150390623,-0.0087477304041385,-0.0181376263499259,-0.0091986581683158
1774469822003696400,10.105281005859377,0.0012419922277331,-0.0046150716952979,-0.0167750343680381
1774469822013722400,10.11530712890625,0.0034177945926785,0.010532721877098,-0.0092912856489419
1774469822023749400,10.125333984375,0.0021843812428414,0.0064761466346681,0.0056684892624616
1774469822033776200,10.13536083984375,0.0071873953565955,-0.0047429515980184,0.0183291584253311
1774469822043803400,10.14538818359375,0.0063141114078462,-0.0078991651535034,0.0049116909503936
1774469822053829400,10.1554140625,0.0004133452312089,-0.0003336574882268,-0.0053966068662703
1774469822063856400,10.165441162109374,-0.00087892182637,0.0062946453690528,-0.0140860201790928
1774469822073883400,10.175468017578124,-0.0009809209732338,0.0058277933858335,-0.0124393878504633
1774469822083910400,10.1854951171875,-0.0009474931284785,-0.007812232710421,0.0014100465923547
1774469822093936400,10.19552099609375,-0.0025288781616836,-0.0029378496110439,0.007659419439733
1774469822103963400,10.205548095703126,-0.0018398178508505,0.0057134660892188,0.0061638364568352
1774469822113990400,10.2155751953125,-0.0021458151750266,0.0087489373981952,-0.0016267085447907
1774469822124016200,10.225600830078124,-0.0034928740933537,0.0045176143757998,-0.0067253112792968
1774469822134043400,10.235628173828124,-0.0042132590897381,-0.0067315781489014,-0.0035201972350478
1774469822144070400,10.245655029296875,-0.0002122587757185,-0.0063239773735404,0.0012899078428745
1774469822154097400,10.25568212890625,0.0009302372927777,0.0057017928920686,0.0056750690564513
1774469822164123400,10.2657080078125,0.0010864299256354,0.0034387595951557,0.0046040965244174
1774469822174150400,10.275735107421877,-3.90219502151e-05,-0.0005099093541502,-0.0012489985674619
1774469822184177400,10.28576220703125,-0.0001345648197457,-0.0026775305159389,-0.0035551250912249
1774469822194204400,10.2957890625,8.14175000414e-05,-0.0009179799817502,-0.0040613920427858
1774469822204230400,10.305815185546876,-0.0007294140523299,0.0042762868106365,-0.0005606189370155
1774469822214257400,10.315842041015625,-0.0005347370170056,0.005236089695245,0.0029558185487985
1774469822224284400,10.325869140625,-0.0007684617303311,0.0015441868454217,0.0010152207687497
1774469822234311400,10.335896240234376,-0.0003937550354748,-0.0001045763492584,-0.0012205028906464
1774469822244337400,10.345922119140624,0.002058315789327,0.0022350372746586,-0.0023775487206876
1774469822254364400,10.35594921875,0.0023419423960149,0.0025420999154448,-0.0024792812764644
1774469822264391400,10.36597607421875,8.14175000414e-05,0.0015374543145298,-0.0008560111746191
1774469822274418500,10.376003173828124,0.0015461561270058,-4.7823414206e-06,0.0003200406208634
1774469822284444400,10.386029052734376,-0.0006338715320453,-0.0030268267728388,0.0012360429391264
1774469822294471400,10.39605615234375,-0.0016746348701417,0.0026132161729037,0.000855210237205
1774469822304498500,10.406083251953126,-0.0005198882427066,0.0002461983822286,-7.50320032238e-05
1774469822314525500,10.416110107421876,0.0016777522396296,0.0010704468004405,-0.0007743779569864
1774469822324551400,10.42613623046875,-0.000218185596168,-0.0010149087756872,0.0014923131093382
1774469822334578400,10.436162841796875,0.0010374948615208,0.0008658156730234,0.0026662349700927
1774469822344605500,10.446190185546875,0.0007487719412893,0.0014784969389438,0.0019614184275269
1774469822354632600,10.456217041015623,0.0027080595027655,0.0011386778205633,-0.0002399506047368
1774469822364658500,10.4662431640625,-0.0027329809963703,-0.0006774086505174,-0.0006094304844737
1774469822374685400,10.476269775390625,0.0005594850517809,-0.0034596128389239,0.0005285376682877
1774469822384712600,10.486297119140623,0.0001853817375376,0.0031351221259683,-3.33134084939e-05
1774469822394739600,10.49632421875,-0.0006154307629913,0.0036288721021264,0.0009086467325687
1774469822404765500,10.50635009765625,0.0008610900258645,0.0043726181611418,0.0035661170259118
1774469822414792400,10.516376953125,0.0009143532952293,0.0020293025299906,-0.0028542312793433
1774469822424819600,10.526404052734376,-0.0009243910899385,-4.3138861656e-06,-0.0025816187262535
1774469822434845500,10.53643017578125,0.0013198547530919,0.0008897092193365,-0.0011853231117129
1774469822444872600,10.54645703125,-0.0012310220627114,8.9649111032e-06,-0.0011984221637248
1774469822454899400,10.55648388671875,0.0009168173419311,0.0017653196118772,0.0002926820889115
1774469822464926600,10.56651123046875,-0.0020267409272491,0.0017888569273054,-0.0002887574955821
1774469822474952600,10.576537109375,-0.0010275227250531,0.0027097777929157,0.002255892381072
1774469822484979600,10.586564208984376,-0.001540282391943,0.0014050574973225,0.0043709250167012
1774469822495006400,10.5965908203125,-9.65826911851e-05,0.0016727051697671,-0.0025069550611078
1774469822505033600,10.6066181640625,0.0004251333884894,0.0004444662481546,-0.001996474340558
1774469822515059600,10.61664404296875,-0.0003748801536858,-0.0004069465212523,0.0004701456055045
1774469822525086600,10.626671142578124,-0.0016100191278383,0.0017564487643539,0.001005845144391
1774469822535113400,10.636697998046875,-3.92866786569e-05,0.0011108987964689,0.000925950706005
1774469822545140600,10.64672509765625,-0.0011336148018017,-0.0005616759881377,-0.000778610818088
1774469822555166600,10.656751220703123,0.000332189083565,0.0015558032318949,0.0013444609940052
1774469822565193600,10.666778076171877,-6.01987121626e-05,0.0014998274855315,-0.0026252488605678
1774469822575220400,10.676804931640625,-8.20365967229e-05,0.0013661365956068,0.0004717409610748
1774469822585247400,10.68683203125,5.45835355296e-05,-0.0002541304565966,-0.0003636926412582
1774469822595273600,10.696858154296876,-0.0015752710169181,0.0023629576899111,0.0008416539058089
1774469822605300600,10.70688525390625,-0.0021738484501838,4.7674402594e-06,0.0023738201707601
1774469822615327400,10.716911865234374,0.0027676471509039,0.0027811129111796,-0.0010872241109609
1774469822625354400,10.72693896484375,-0.0005268794484436,0.0004731640219688,-0.0001278817653656
1774469822635380600,10.736965087890624,0.0004941765801049,0.0011397534981369,-0.0013356250710785
1774469822645407600,10.7469921875,-0.0001872617285698,-0.0018870029598474,-0.0024672970175743
1774469822655434400,10.75701904296875,-0.0007981908274814,0.0018552704714238,0.0010747071355581
1774469822665460400,10.767044921875,0.0008315535378642,0.0052757640369236,-0.0020648641511797
1774469822675487400,10.777072021484376,-0.0011495720827952,-0.0011195507831871,0.0023400038480758
1774469822685514600,10.78709912109375,-0.0022255931980907,0.00248259678483,0.0005291411653161
1774469822695541400,10.7971259765625,0.0016727419570088,-0.0002988087944686,-0.0009337328374385
1774469822705567400,10.80715185546875,-0.0001635737717151,0.0003292527981102,-0.001465247478336
1774469822715594400,10.817178955078123,-0.0016245839651674,-0.0001325393095612,-0.0018098605796694
1774469822725621600,10.827206298828123,0.0006070181261748,-0.0007429397664964,0.0022982452064752
1774469822735648400,10.83723291015625,-0.0011509344913065,0.0001042117364704,0.0002896897494792
1774469822745674400,10.847259033203123,5.29817771166e-05,0.0009635160677134,0.000417947769165
1774469822755701400,10.857285888671877,-0.0002484881551936,-0.0025795535184442,-0.0006811395287513
1774469822765728600,10.867313232421877,-0.0010669429320842,-0.0007279217243194,-0.002791307400912
1774469822775755400,10.877340087890625,-0.0002490861807018,0.0036354013718664,0.0023629749193787
1774469822785781400,10.887365966796876,-0.0013630735920742,0.0003036987036466,0.0015240404754877
1774469822795808400,10.89739306640625,0.0001237692777067,0.0004533682949841,0.0002007158473134
1774469822805835600,10.907420166015624,-0.0010249082697555,0.0027067395858466,0.0011860560625791
1774469822815862400,10.917447021484374,-0.0007612552726641,0.0018321573734283,0.0003024190664291
1774469822825888400,10.927472900390624,0.0003805197775363,0.0004367642104625,-0.0002163462340831
1774469822835915400,10.9375,-0.0006823476869612,-0.0022831219248473,-0.0033506210893392
1774469822845942400,10.94752685546875,0.002426613587886,0.0011212551034986,0.0013705426827073
1774469822855969400,10.957553955078126,-0.0005718393949791,-0.0005520088598132,-8.14134255051e-05
1774469822865995400,10.967580078125,0.0002560646971687,-0.0013632853515446,0.0014399643987417
1774469822876022400,10.97760693359375,0.0010824436321854,0.0014905580319464,0.0028469124808907
1774469822886049400,10.987634033203124,0.0017946866573765,0.0003774301148951,-0.002195497509092
1774469822896076400,10.997660888671875,-0.0003246568376198,-0.0013951701112091,-0.0006066556088626
1774469822906102400,11.00768701171875,0.0010714851086959,0.0010700095444917,0.0007538953796029
1774469822916129400,11.0177138671875,-4.54446999356e-05,0.0027182400226593,-0.0009161727502942
1774469822926156400,11.027740966796877,0.0010188680607825,0.0014979727566242,0.0026965737342834
1774469822936182400,11.03776708984375,-0.0032677557319402,-0.0023955688811838,-0.0005719237960875
1774469822946209400,11.0477939453125,0.0004402889171615,0.0006871279329061,0.0006267772987484
1774469822956236400,11.057821044921877,-0.0023440457880496,0.0002639517188072,-0.0020361170172691
1774469822966263400,11.067847900390625,0.001843457808718,0.0009998036548495,-0.0003797933459281
1774469822976289400,11.0778740234375,-0.0007600483950227,0.0040845433250069,0.0030690003186464
1774469822986316400,11.08790087890625,-0.00212566065602,0.0014522969722747,0.0019792020320892
1774469822996343400,11.097927978515624,0.0004309740616008,-0.0037456611171364,0.0014753313735127
1774469823006370400,11.107955078125,0.0004593780031427,0.0020193154923617,-0.00215081917122
1774469823016396400,11.11798095703125,0.0013339600991457,0.0013551227748394,-0.0018781111575663
1774469823026423400,11.128008056640626,0.0024525942280888,0.0002858573570847,4.1564926505e-05
1774469823036450400,11.138034912109376,0.0001747925998643,0.0005180849693715,-0.0021637990139424
1774469823046477400,11.14806201171875,-0.0002396166091784,-0.0010509802959859,0.0009213080629706
1774469823056503400,11.158087890625,-0.0005349612329155,-4.8566609621e-05,0.0005343509837985
1774469823066530400,11.168114990234375,0.0006364852306433,0.0011342978104948,0.0002248752862215
1774469823076557400,11.17814208984375,-2.9397197067e-06,0.0032059708610177,0.0033410405740141
1774469823086584400,11.1881689453125,0.0014690211974084,-0.0010466696694493,-5.54407015442e-05
1774469823096610400,11.198195068359375,0.0001843123463913,-0.0025862427428364,-0.0010996665805578
1774469823106637400,11.208221923828123,0.0002266111550852,0.0032207567710429,0.0005273288115859
1774469823116664400,11.2182490234375,0.0001946531701833,0.0003898167051374,-0.0019033378921449
1774469823126691400,11.228276123046877,0.0015486477641388,4.28124330937e-05,0.0015552164986729
1774469823136717400,11.238302001953125,0.0017790112178772,0.0033169025555253,-0.0001228414475917
1774469823146744400,11.2483291015625,-0.000815536477603,0.0018368870951235,-0.0019705137237906
1774469823156771400,11.25835595703125,0.0003525258507579,4.59114089608e-05,0.0008945148438215
1774469823166798400,11.268383056640625,-0.0007623685523867,-0.0018501873128116,-0.0005352534353733
1774469823176824400,11.278408935546874,-0.0010502561926841,0.0015296302735805,0.0006181616336107
1774469823186851400,11.28843603515625,0.0010453996947035,-0.0010011955164372,0.00111367367208
1774469823196878200,11.298462890625,-0.0008537004468962,0.0042470963671803,0.004996296018362
1774469823206904400,11.308489013671876,-0.0013121623778715,0.0006571030244231,-0.0013201050460338
1774469823216931400,11.31851611328125,-0.0009228080743923,-0.0013953950256109,-0.0051036579534411
1774469823226958400,11.32854296875,0.0005166004993952,-0.0002646413631737,-0.0018730331212282
1774469823236985200,11.33856982421875,-0.0024038217961788,-0.0004638456739485,0.0016428725793957
1774469823247011400,11.348595947265624,-0.0005977193359285,0.0012109829112887,0.0041722990572452
1774469823257038400,11.358623046875,-0.001025955658406,0.0018434836529195,0.0003061881288886
1774469823267065400,11.368650146484375,0.0011894984636455,0.0007718107663094,-0.0001020077615976
1774469823277092200,11.3786767578125,-0.0020041642710566,0.0004996354691684,9.93274152278e-05
1774469823287118200,11.388702880859377,-0.0019887348171323,-0.0011169714853167,0.0001987554132938
1774469823297145400,11.39872998046875,0.0002898658858612,0.0009621581993997,0.0011622868478298
1774469823307172400,11.408757080078123,-0.0013001037295907,-0.0017790053971111,0.0021282033994793
1774469823317199200,11.41878369140625,0.0004400057950988,0.0032562327105551,-0.0004800967872142
1774469823327225200,11.428809814453125,-0.0002102105645462,0.0030101924203336,-0.0014211554080247
1774469823337252400,11.438837158203125,-0.0022587142884731,0.000886055175215,-3.39150428771e-05
1774469823347279400,11.448864013671876,0.0006433104281313,0.0009958208538591,0.0014110915362834
1774469823357306200,11.458890869140625,-0.0003873328678309,0.0006285710260272,0.0005452977493405
1774469823367332200,11.468916748046874,-0.0010034652659669,0.001611921004951,-0.0003899615257978
1774469823377359400,11.478944091796874,-0.0017057409277185,0.0016454765573143,-5.22723421454e-05
1774469823387386400,11.48897119140625,-0.0017198345158249,-0.0015981257893145,-0.0015604048967361
1774469823397413200,11.498997802734374,-0.0007605638820677,0.0009143003262579,0.0015003662556409
1774469823407439200,11.50902392578125,0.0016840932657942,0.0010685129091143,-0.0019289753399789
1774469823417466400,11.519051025390626,-0.0007202086271718,0.0008834227919578,-0.0002487869933247
1774469823427493400,11.529078125,0.0031790141947567,0.0019699428230524,0.0018967716023325
1774469823437519400,11.53910400390625,0.0002340907230973,-0.0017664725892245,0.000206196680665
1774469823447546200,11.549130859375,0.0018185446970164,0.0011514751240611,-0.0015065423212945
1774469823457573400,11.559157958984375,-0.0010707188630476,0.0006460072472691,-0.0018266546539962
1774469823467600400,11.56918505859375,-0.001071113278158,0.0015525347553193,0.0024429038166999
1774469823477626400,11.579211181640623,0.0017731427215039,0.0007650381885468,0.0004593813791871
1774469823487653200,11.58923779296875,-0.0008673719130456,0.0002948162145912,0.001546861603856
1774469823497680400,11.59926513671875,0.0008237353758886,-0.0003371518105268,-0.000319748185575
1774469823507707400,11.6092919921875,-0.0003510930109769,0.0008001290261745,0.0010100184008479
1774469823517733400,11.619318115234377,0.0001072370214387,0.0006083813495934,-0.0003042519092559
1774469823527760200,11.6293447265625,-0.0011329459957778,0.0003367331810295,0.0020604180172085
1774469823537787200,11.639371826171876,-0.0014448021538555,0.0021974840201437,0.0009594671428203
1774469823547814400,11.649399169921876,-0.0011213758261874,0.0032800305634737,0.0011256327852606
1774469823557840400,11.659425048828124,0.0019742827862501,0.0014581619761884,0.0007530562579631
1774469823567867200,11.669451904296874,0.0013571183662861,-0.0014063362032175,-0.0013197250664234
1774469823577894200,11.679478759765624,-1.36106973513e-05,-0.001361861359328,-0.0006289011798799
1774469823587921400,11.689506103515624,0.0006967286462895,0.0010784026235342,0.0001269374042749
1774469823597947400,11.699531982421876,-0.0010535009205341,0.0013987813144922,-0.0003729383461177
1774469823607974200,11.709558837890626,0.0006582247442565,-0.0013938308693468,-0.0003371387720108
1774469823618001300,11.7195859375,0.0004544928669929,-0.0005895565263926,9.16300341486e-05
1774469823628028400,11.729613037109376,-0.0017723817145451,-0.0001103621907532,0.0011371979489922
1774469823638054400,11.73963916015625,-0.0001308091450482,0.0020731636323034,-0.00059465598315
1774469823648081300,11.749665771484375,0.000824044982437,0.0004286412149667,0.000258807092905
1774469823658108300,11.75969287109375,0.0001646463060751,-0.0001852172426879,0.0016252752393484
1774469823668135500,11.76972021484375,0.0002443209523335,-0.0015208371914923,0.0062736766412854
1774469823678161400,11.77974609375,0.0012360820546746,0.0024350222665816,0.0021420484408736
1774469823688188300,11.78977294921875,0.0005134919192641,-2.38344073295e-05,9.62615013122e-05
1774469823698215400,11.7997998046875,-3.05918511003e-05,-0.0008092005737125,-0.0009540896862745
1774469823708241300,11.809825927734376,0.0001764748012647,-0.0014830795116722,-0.0005630343221127
1774469823718268400,11.81985302734375,-0.0006554967258125,0.0017204368487,0.0018729595467448
1774469823728295500,11.829880126953125,0.0016677253879606,0.0027864568401128,-0.0014402833767235
1774469823738322400,11.839906982421876,-0.0006769216852262,0.0005568582564592,-0.0019191200844943
1774469823748348300,11.849932861328124,0.0020166779868304,0.0011567058973014,-0.0029395343735814
1774469823758375500,11.859960205078124,-0.0002731077838689,-0.0003375937230885,-0.0004337658174335
1774469823768402500,11.869987060546874,-0.0032160556875169,-0.0007063746452331,0.0010633235797286
1774469823778429400,11.880013916015624,-0.001298579503782,0.0023663807660341,0.0032335333526134
1774469823788455400,11.890039794921876,-0.0016726674512028,0.0007226318120956,0.0038296794518828
1774469823798482500,11.900067138671876,-0.0007197884842753,0.0006864126771688,2.72188335657e-05
1774469823808512900,11.910097412109376,-2.71472381427e-05,0.0009866240434348,-0.0028996523469686
1774469823818539600,11.920124267578124,-0.0008466019062325,4.78602014482e-05,0.0034144362434744
1774469823828565600,11.930150146484374,5.0404225476e-05,-0.0009732116013765,-0.0005664299242198
1774469823838592900,11.940177490234374,-0.0014918323140591,0.0022140594664961,0.0033798422664403
1774469823848619900,11.95020458984375,-0.0021182154305279,-0.0014322428032755,0.0013292487710714
1774469823858646600,11.960231201171876,-0.0039845588617026,0.0029566464945673,0.0001670448109507
1774469823868672600,11.97025732421875,0.0005066267913207,0.0011688699014484,-0.0006816489621996
1774469823878699900,11.980284423828126,0.0001225989544764,0.0023651618976145,-0.0004688622429966
1774469823888726900,11.9903115234375,0.0010657394304871,0.0022510457783937,0.0020313486456871
1774469823898753600,12.000338134765624,0.0010516246547922,-0.0016323756426572,0.0008667474612593
1774469823908779600,12.0103642578125,0.0004836473381146,0.0030841545667499,0.0001764856278896
1774469823918806900,12.0203916015625,0.0005523569416254,0.0002036797814071,0.0007956707850098
1774469823928833900,12.03041845703125,-0.0002009767340496,-0.0011898130178451,0.0002158796414732
1774469823938860600,12.0404453125,3.07182781398e-05,-0.0003791470080614,0.0018143095076084
1774469823948886600,12.05047119140625,-0.0030235850717872,0.000542439520359,0.0008690012618899
1774469823958913900,12.06049853515625,4.1180406697e-05,-0.0006397375836968,-9.95900481939e-05
1774469823968940900,12.070525390625,0.0013971579028293,-0.0037763868458569,-0.0004768217913806
1774469823978966900,12.080551513671876,0.0014139357954263,0.0014942749403417,0.0029304260388016
1774469823988993600,12.090578125,-0.000687934923917,-0.0018481537699699,0.001558213494718
1774469823999020600,12.100605224609374,0.0018391385674476,-0.0007666442543268,1.62431970238e-05
1774469824009047900,12.110632568359376,0.0004766471683979,0.0030503820162266,0.0003225086256861
1774469824019073900,12.120658447265624,-0.0011718495516106,0.0012492863461375,0.0011504851281642
1774469824029100600,12.130685302734374,0.0012311355676501,-0.0004706811159849,0.0006896965205669
1774469824039127700,12.140712158203126,0.0019935986492782,-0.000474942382425,0.0014494964852929
1774469824049154900,12.150739501953124,0.0010366295464336,-0.0001930329017341,-0.0006446721963584
1774469824059180900,12.160765625,0.0013138646027073,-0.0009360550902783,-0.0001575797796249
1774469824069207700,12.170792236328126,0.0005113889928907,0.0020998779218643,-0.000680589582771
1774469824079234700,12.1808193359375,0.000855469435919,-5.88805414736e-05,0.000596928410232
1774469824089261900,12.190846435546876,-0.0005963339935988,0.0010996526107192,0.0047315992414951
1774469824099287900,12.20087255859375,-0.0004498602356761,0.0012818127870559,0.0018692342564463
1774469824109314700,12.210899169921875,-4.99703455716e-05,0.0001372136175632,-0.000595134217292
1774469824119341700,12.22092626953125,-0.0022614593617618,0.0027809333987534,-0.0011578602716326
1774469824129368900,12.23095361328125,0.0012482730671763,-0.0009785792790353,-0.0021205013617873
1774469824139394900,12.2409794921875,0.0015835650265216,-0.0011799139901995,0.0006992537528276
1774469824149421700,12.25100634765625,-0.0002034958451986,5.3350813686e-06,0.0005072625353932
1774469824159448700,12.261033203125,0.0007794768898747,-0.001843431033194,0.001106739975512
1774469824169475900,12.271060546875,-0.0004853779682889,0.0003092233091592,0.0006159860640764
1774469824179501900,12.28108642578125,0.0001812112750485,-0.0027970876544713,-0.0026461193338036
1774469824189529700,12.2911142578125,0.0004817465087398,0.0019345101900398,-0.0001514563336968
1774469824199556700,12.301141357421876,-0.0018503835890442,-0.0005430285818874,0.0001159254461526
1774469824209583700,12.311168212890625,-0.0012012175284326,0.0021217910107225,0.0031242854893207
1774469824219609700,12.3211943359375,-0.0012355723883956,-0.0009403117001056,0.0001798951998353
1774469824229636700,12.33122119140625,0.0007180192624218,-0.0004418399184942,-0.0008527133613824
1774469824239663700,12.341248291015624,0.0001262648729607,-0.0003156061284244,-0.0020037316717207
1774469824249689700,12.3512744140625,-0.0015611473936587,0.0022677765227854,0.0007077800109982
1774469824259716700,12.36130126953125,0.0008852322935126,-0.0006545102223753,0.000531212426722
1774469824269743700,12.371328369140626,0.0028666811995208,-0.0005770605057477,0.0011577876284718
1774469824279770700,12.381355224609376,0.000493804574944,0.000237067695707,-0.0032042036764323
1774469824289796700,12.39138134765625,0.0003355850931257,-0.0008390345610678,-0.0031882962211966
1774469824299823700,12.401408203125,4.31700609624e-05,0.0028742109425365,0.0010493258014321
1774469824309850700,12.411435302734375,0.0020067871082574,0.0005342555232346,0.0011266600340604
1774469824319877700,12.42146240234375,2.2258609533e-06,-0.0057763708755373,-0.0020997594110667
1774469824329903700,12.43148828125,0.0014328169636428,-0.0011283331550657,-0.000782202463597
1774469824339930700,12.441515380859377,-0.0008833343163132,0.0030040938872843,-0.0021497355774044
1774469824349957700,12.451542236328123,0.0008368665585294,0.0008225757628679,-0.0010403785854578
1774469824359984700,12.4615693359375,0.0017378139309585,-0.0011857138015329,-0.0004696631804108
1774469824370010700,12.47159521484375,0.0017302558990195,-0.0015238975174725,-0.0007143868133425
1774469824380037700,12.481622314453125,0.001220793230459,-0.0022426843643188,-0.0016640704125165
1774469824390064700,12.4916494140625,0.0005798503989353,-0.0030826493166387,-0.0011650179512798
1774469824400091800,12.50167626953125,-0.0003232274902984,0.0026798986364156,0.0028651440516114
1774469824410117700,12.511702392578124,0.0008674584678374,0.0009727026335895,0.0021180640906095
1774469824420144700,12.521729248046874,0.0008674584678374,-0.0018065725453197,0.0002682330086827
1774469824430171800,12.53175634765625,0.004146865569055,0.0033499435521662,0.0019059032201766
1774469824440198800,12.541783447265624,0.0004072544397786,-0.0014213756658136,-0.0024124127812683
1774469824450224700,12.551809326171876,0.0011616862611845,-0.001123955938965,0.0019389316439628
1774469824460251800,12.56183642578125,0.0005337129114195,0.0002457075752317,-0.0012411489151418
1774469824470278800,12.57186328125,-3.71426576748e-05,0.0005163261666893,0.0009240824729204
1774469824480304700,12.581889404296875,0.0007612730260007,-0.0006338930688798,-0.0007776776328682
1774469824490331800,12.591916259765624,-0.0025064921937882,-0.0018648719415068,0.0004792353138327
1774469824500358800,12.601943359375,0.000142021337524,-0.0016475580632686,0.0008576698601245
1774469824510385800,12.611970458984375,0.0006822782452218,-0.0002927933819591,-0.0020491080358624
1774469824520411800,12.621996337890623,0.0015398161485791,-0.0002443240955471,-0.0010594772174954
1774469824530438800,12.6320234375,-0.000907085253857,-0.0014389818534255,0.0021476577967405
1774469824540465800,12.64205029296875,0.0009739053784869,0.0011890255846083,-0.0008846172131597
1774469824550492800,12.652077392578123,-0.0002323531080037,-0.0004049954004585,0.0014002677053213
1774469824560518800,12.662103271484376,-0.0005284965736791,0.0007369681261479,0.0018018726259469
1774469824570545800,12.67213037109375,-0.0007288794731721,-0.0002907668240368,-0.0009306520223617
1774469824580572800,12.682157470703125,-0.0013667064486071,-0.0005445657297968,-0.0005761855281889
1774469824590599800,12.692184326171876,-5.80146443098e-05,0.0012650620192289,0.0022737523540854
1774469824600625800,12.70221044921875,0.0014783630613237,0.0009374935179948,0.0015405835583806
1774469824610652800,12.7122373046875,0.0003042782191187,-0.0007519144564867,-0.0005109431222081
1774469824620679800,12.722264404296874,-0.0007830904796719,-0.0017018639482557,8.69370996952e-05
1774469824630706800,12.73229150390625,0.0007043012883514,0.0008258931338787,0.0003660423681139
1774469824640732800,12.7423173828125,-0.0021063988097012,0.0020549420733004,0.0004006642848253
