time,seconds_elapsed,z,y,x
1773258446462028800,0.05802880859375,-1.004669189453125,-0.280853271484375,0.16510009765625
1773258446472041700,0.068041748046875,-0.9890899658203125,-0.291778564453125,0.1731414794921875
1773258446482053600,0.0780537109375,-0.9659271240234375,-0.2997894287109375,0.18597412109375
1773258446492065800,0.088065673828125,-0.9520721435546875,-0.3013763427734375,0.2051239013671875
1773258446502078700,0.09807861328125,-0.9551239013671875,-0.3035430908203125,0.232147216796875
1773258446512090600,0.108090576171875,-0.95587158203125,-0.29290771484375,0.24853515625
1773258446522102800,0.118102783203125,-0.9541778564453125,-0.2791290283203125,0.25616455078125
1773258446532115700,0.12811572265625,-0.954681396484375,-0.273406982421875,0.278289794921875
1773258446542127900,0.1381279296875,-0.9586639404296875,-0.2799530029296875,0.2788238525390625
1773258446552139800,0.148139892578125,-0.9547882080078125,-0.2879486083984375,0.260162353515625
1773258446562153000,0.158153076171875,-0.953155517578125,-0.3021240234375,0.252655029296875
1773258446572164900,0.168164794921875,-0.9605255126953125,-0.3234405517578125,0.2580413818359375
1773258446582176800,0.1781767578125,-0.9692535400390625,-0.3389739990234375,0.25830078125
1773258446592189000,0.18818896484375,-0.98284912109375,-0.3601837158203125,0.25604248046875
1773258446602201600,0.19820166015625,-0.9966888427734375,-0.3791046142578125,0.253509521484375
1773258446612213800,0.2082138671875,-0.9932098388671875,-0.38043212890625,0.2410430908203125
1773258446622225700,0.2182255859375,-0.98162841796875,-0.3852996826171875,0.2458038330078125
1773258446632238800,0.22823876953125,-0.9691925048828125,-0.394195556640625,0.2676849365234375
1773258446642250800,0.238250732421875,-0.9446563720703125,-0.3945770263671875,0.27093505859375
1773258446652262700,0.2482626953125,-0.893524169921875,-0.396942138671875,0.2294158935546875
1773258446662275800,0.25827587890625,-0.8303070068359375,-0.40869140625,0.223907470703125
1773258446672287700,0.268287841796875,-0.7750701904296875,-0.42547607421875,0.2631072998046875
1773258446682300000,0.2782998046875,-0.7464447021484375,-0.4467926025390625,0.267486572265625
1773258446692312800,0.288312744140625,-0.7415008544921875,-0.4438018798828125,0.1621551513671875
1773258446702325000,0.298324951171875,-0.7941741943359375,-0.449066162109375,0.1483001708984375
1773258446712337000,0.3083369140625,-0.8303680419921875,-0.48223876953125,0.232513427734375
1773258446722349800,0.318349853515625,-0.85809326171875,-0.4813232421875,0.2346954345703125
1773258446732361700,0.32836181640625,-0.899078369140625,-0.4915008544921875,0.2830963134765625
1773258446742373600,0.33837353515625,-0.8806915283203125,-0.5091094970703125,0.294708251953125
1773258446752385800,0.3483857421875,-0.844818115234375,-0.5097198486328125,0.300079345703125
1773258446762398700,0.358398681640625,-0.8229522705078125,-0.4907379150390625,0.323822021484375
1773258446772411000,0.368410888671875,-0.81719970703125,-0.468597412109375,0.3236846923828125
1773258446782422800,0.3784228515625,-0.8260040283203125,-0.450347900390625,0.31280517578125
1773258446792436000,0.38843603515625,-0.8273468017578125,-0.4499969482421875,0.3269195556640625
1773258446802448000,0.39844775390625,-0.82952880859375,-0.478546142578125,0.3543243408203125
1773258446812459800,0.408459716796875,-0.80877685546875,-0.4896697998046875,0.3366546630859375
1773258446822472700,0.41847265625,-0.7957611083984375,-0.4866485595703125,0.32171630859375
1773258446832484600,0.428484619140625,-0.7806396484375,-0.4783935546875,0.30908203125
1773258446842496800,0.438496826171875,-0.7757568359375,-0.472503662109375,0.2701263427734375
1773258446852509700,0.448509765625,-0.7867584228515625,-0.4806671142578125,0.240386962890625
1773258446862521900,0.45852197265625,-0.8452911376953125,-0.4801788330078125,0.26348876953125
1773258446872533800,0.46853369140625,-0.9549560546875,-0.4712371826171875,0.32080078125
1773258446882546700,0.478546630859375,-0.9993743896484375,-0.4631500244140625,0.3067626953125
1773258446892558800,0.488558837890625,-1.0155181884765625,-0.431610107421875,0.3048248291015625
1773258446902570800,0.49857080078125,-1.0362396240234375,-0.41046142578125,0.3084259033203125
1773258446912583000,0.5085830078125,-1.0435333251953125,-0.4146881103515625,0.3255767822265625
1773258446922595800,0.518595947265625,-1.036346435546875,-0.4073944091796875,0.404815673828125
1773258446932608000,0.52860791015625,-1.02239990234375,-0.3670501708984375,0.441070556640625
1773258446942620000,0.538619873046875,-0.9775238037109375,-0.3019866943359375,0.470001220703125
1773258446952632600,0.548632568359375,-0.90338134765625,-0.3091583251953125,0.49462890625
1773258446962644700,0.558644775390625,-0.8353118896484375,-0.3792266845703125,0.475830078125
1773258446972656600,0.56865673828125,-0.7908172607421875,-0.4292755126953125,0.4518585205078125
1773258446982669800,0.578669921875,-0.7243499755859375,-0.4640045166015625,0.4123382568359375
1773258446992681700,0.588681640625,-0.517974853515625,-0.53814697265625,0.4248504638671875
1773258447002694000,0.59869384765625,-0.274566650390625,-0.6164398193359375,0.4801025390625
1773258447012706800,0.608706787109375,-0.237457275390625,-0.56341552734375,0.4803924560546875
1773258447022718700,0.61871875,-0.356903076171875,-0.4946136474609375,0.4548797607421875
1773258447032731000,0.62873095703125,-0.4551544189453125,-0.431976318359375,0.4085540771484375
1773258447042743800,0.638743896484375,-0.49200439453125,-0.3868560791015625,0.4936370849609375
1773258447052755700,0.648755615234375,-0.56884765625,-0.36376953125,0.5830230712890625
1773258447062767900,0.658767822265625,-0.6758270263671875,-0.287017822265625,0.5721282958984375
1773258447072780300,0.6687802734375,-0.71759033203125,-0.215545654296875,0.591552734375
1773258447082792200,0.678792236328125,-0.7299957275390625,-0.188323974609375,0.6233978271484375
1773258447092804400,0.688804443359375,-0.671234130859375,-0.252899169921875,0.5995330810546875
1773258447102817300,0.6988173828125,-0.589324951171875,-0.194244384765625,0.4278106689453125
1773258447112829200,0.7088291015625,-0.6157989501953125,-0.31475830078125,0.3935394287109375
1773258447122841300,0.71884130859375,-0.56884765625,-0.3243255615234375,0.20819091796875
1773258447132853200,0.728853271484375,-0.520294189453125,-0.2720794677734375,0.13397216796875
1773258447142866400,0.738866455078125,-0.515411376953125,-0.263671875,0.283294677734375
1773258447152878300,0.74887841796875,-0.6026153564453125,-0.2602691650390625,0.5495452880859375
1773258447162890500,0.758890380859375,-0.69268798828125,-0.091033935546875,0.4480133056640625
1773258447172903400,0.7689033203125,-0.8101959228515625,0.04193115234375,0.2199554443359375
1773258447182915300,0.778915283203125,-1.443572998046875,-0.227874755859375,0.2117767333984375
1773258447192927500,0.788927490234375,-1.3919219970703125,-0.212493896484375,0.2458953857421875
1773258447202940200,0.798940185546875,-1.1954345703125,-0.24188232421875,0.1220245361328125
1773258447212952300,0.808952392578125,-0.859527587890625,-0.3614044189453125,0.186553955078125
1773258447222964200,0.818964111328125,-0.7252960205078125,-0.332977294921875,0.2026519775390625
1773258447232977400,0.828977294921875,-0.78118896484375,-0.3514556884765625,0.17431640625
1773258447242989300,0.8389892578125,-1.022796630859375,-0.248382568359375,0.014739990234375
1773258447253001200,0.849001220703125,-1.1096954345703125,-0.2796783447265625,-0.129730224609375
1773258447263014400,0.859014404296875,-1.198883056640625,-0.328857421875,-0.166900634765625
1773258447273026300,0.8690263671875,-1.1889801025390625,-0.344146728515625,-0.130767822265625
1773258447283038500,0.87903857421875,-1.0747833251953125,-0.3688201904296875,-0.0620269775390625
1773258447293051100,0.889051025390625,-1.0273284912109375,-0.3671417236328125,-0.0853118896484375
1773258447303063300,0.899063232421875,-1.0133209228515625,-0.3507537841796875,-0.1807403564453125
1773258447313075200,0.9090751953125,-1.023895263671875,-0.370697021484375,-0.2482452392578125
1773258447323088400,0.91908837890625,-1.034820556640625,-0.40850830078125,-0.2885589599609375
1773258447333100300,0.929100341796875,-1.1087493896484375,-0.457611083984375,-0.29779052734375
1773258447343112200,0.9391123046875,-1.1872406005859375,-0.4818267822265625,-0.32110595703125
1773258447353124400,0.949124267578125,-1.1776580810546875,-0.506744384765625,-0.3655242919921875
1773258447363137300,0.95913720703125,-1.0891265869140625,-0.5309906005859375,-0.400146484375
1773258447373149400,0.9691494140625,-0.97186279296875,-0.4961395263671875,-0.5135498046875
1773258447383161300,0.979161376953125,-0.875579833984375,-0.506103515625,-0.4889678955078125
1773258447393174500,0.989174560546875,-0.771026611328125,-0.5835723876953125,-0.3723297119140625
1773258447403186400,0.9991865234375,-0.6126708984375,-0.621337890625,-0.4558868408203125
1773258447413198300,1.0091982421875,-0.5429840087890625,-0.65545654296875,-0.4541168212890625
1773258447423211300,1.019211181640625,-0.5845184326171875,-0.652740478515625,-0.4029541015625
1773258447433223200,1.02922314453125,-0.6645660400390625,-0.6323089599609375,-0.361297607421875
1773258447443235300,1.0392353515625,-0.7555084228515625,-0.5727691650390625,-0.330322265625
1773258447453248300,1.049248291015625,-0.802642822265625,-0.490936279296875,-0.3037872314453125
1773258447463260400,1.059260498046875,-0.7694854736328125,-0.444732666015625,-0.2797393798828125
1773258447473272300,1.069272216796875,-0.6883087158203125,-0.456390380859375,-0.287109375
1773258447483285500,1.079285400390625,-0.6468963623046875,-0.5063934326171875,-0.28350830078125
1773258447493297400,1.08929736328125,-0.6264190673828125,-0.552978515625,-0.283111572265625
1773258447503309300,1.099309326171875,-0.6207733154296875,-0.5945587158203125,-0.29541015625
1773258447513322200,1.109322265625,-0.63916015625,-0.64617919921875,-0.3027496337890625
1773258447523334100,1.119334228515625,-0.659942626953125,-0.6884918212890625,-0.3358001708984375
1773258447533346300,1.12934619140625,-0.689910888671875,-0.701446533203125,-0.33929443359375
1773258447543358200,1.139358154296875,-0.732025146484375,-0.6804351806640625,-0.3451080322265625
1773258447553371400,1.149371337890625,-0.7781982421875,-0.634307861328125,-0.3526153564453125
1773258447563383300,1.15938330078125,-0.79620361328125,-0.5883636474609375,-0.3356475830078125
1773258447573395200,1.169395263671875,-0.79742431640625,-0.5577545166015625,-0.3468017578125
1773258447583408400,1.179408447265625,-0.765716552734375,-0.5424346923828125,-0.36181640625
1773258447593420300,1.189420166015625,-0.6956329345703125,-0.563934326171875,-0.331146240234375
1773258447603432400,1.199432373046875,-0.5905609130859375,-0.6063995361328125,-0.2670440673828125
1773258447613445400,1.2094453125,-0.4938812255859375,-0.6448211669921875,-0.2176361083984375
1773258447623457500,1.21945751953125,-0.4464874267578125,-0.6695404052734375,-0.1950225830078125
1773258447633469400,1.229469482421875,-0.4426116943359375,-0.6974639892578125,-0.176422119140625
1773258447643482000,1.239482177734375,-0.4324493408203125,-0.7379150390625,-0.1799468994140625
1773258447653494300,1.249494384765625,-0.40399169921875,-0.70697021484375,-0.205169677734375
1773258447663506200,1.259506103515625,-0.4268798828125,-0.6996612548828125,-0.2348175048828125
1773258447673519400,1.269519287109375,-0.4429931640625,-0.7183380126953125,-0.27923583984375
1773258447683531300,1.27953125,-0.444244384765625,-0.7298583984375,-0.32769775390625
1773258447693543400,1.28954345703125,-0.4696044921875,-0.7594146728515625,-0.337860107421875
1773258447703556400,1.299556396484375,-0.48626708984375,-0.7860260009765625,-0.3775787353515625
1773258447713568300,1.309568359375,-0.479705810546875,-0.7927093505859375,-0.3522186279296875
1773258447723580400,1.319580322265625,-0.4060821533203125,-0.7993927001953125,-0.3143310546875
1773258447733592300,1.32959228515625,-0.290008544921875,-0.853515625,-0.30059814453125
1773258447743605200,1.339605224609375,-0.199554443359375,-0.8411865234375,-0.2879638671875
1773258447753617400,1.349617431640625,-0.19879150390625,-0.811859130859375,-0.279754638671875
1773258447763629300,1.35962939453125,-0.3024139404296875,-0.7856597900390625,-0.3751068115234375
1773258447773642200,1.369642333984375,-0.4651641845703125,-0.767608642578125,-0.45489501953125
1773258447783654100,1.379654052734375,-0.6215362548828125,-0.7351226806640625,-0.449676513671875
1773258447793666300,1.389666259765625,-0.7484588623046875,-0.709930419921875,-0.4657135009765625
1773258447803679200,1.39967919921875,-0.7223663330078125,-0.704498291015625,-0.468414306640625
1773258447813691400,1.40969140625,-0.6947479248046875,-0.6970367431640625,-0.4580078125
1773258447823703300,1.419703369140625,-0.62713623046875,-0.717681884765625,-0.4603118896484375
1773258447833716500,1.429716552734375,-0.6003265380859375,-0.78912353515625,-0.5341796875
1773258447843728400,1.439728271484375,-0.6484375,-0.766815185546875,-0.497802734375
1773258447853740300,1.449740234375,-0.652740478515625,-0.670684814453125,-0.4947967529296875
1773258447863753200,1.459753173828125,-0.69720458984375,-0.675811767578125,-0.5189208984375
1773258447873765000,1.46976513671875,-0.676513671875,-0.648406982421875,-0.488067626953125
1773258447883777300,1.47977734375,-0.6530303955078125,-0.64056396484375,-0.4514312744140625
1773258447893790200,1.489790283203125,-0.6321868896484375,-0.65716552734375,-0.4351806640625
1773258447903802400,1.49980224609375,-0.608978271484375,-0.6722412109375,-0.4459991455078125
1773258447913814300,1.509814208984375,-0.5867919921875,-0.67529296875,-0.467132568359375
1773258447923827500,1.519827392578125,-0.6049652099609375,-0.6842498779296875,-0.48638916015625
1773258447933839400,1.52983935546875,-0.622528076171875,-0.67230224609375,-0.502197265625
1773258447943851300,1.539851318359375,-0.6164703369140625,-0.665618896484375,-0.5034027099609375
1773258447953863400,1.549863525390625,-0.612518310546875,-0.661163330078125,-0.4942626953125
1773258447963876400,1.55987646484375,-0.609283447265625,-0.65777587890625,-0.49114990234375
1773258447973888500,1.569888427734375,-0.6131439208984375,-0.62908935546875,-0.4849700927734375
1773258447983900400,1.579900390625,-0.6134185791015625,-0.5924224853515625,-0.4659576416015625
1773258447993913300,1.589913330078125,-0.595916748046875,-0.571075439453125,-0.4367523193359375
1773258448003925200,1.59992529296875,-0.5622711181640625,-0.5640106201171875,-0.414642333984375
1773258448013937200,1.609937255859375,-0.51495361328125,-0.56964111328125,-0.414703369140625
1773258448023950300,1.619950439453125,-0.4945526123046875,-0.5698089599609375,-0.4412384033203125
1773258448033962200,1.629962158203125,-0.5216217041015625,-0.5483856201171875,-0.465087890625
1773258448043974400,1.639974365234375,-0.5475311279296875,-0.528289794921875,-0.4799041748046875
1773258448053987300,1.6499873046875,-0.554779052734375,-0.5134735107421875,-0.4887237548828125
1773258448063999500,1.65999951171875,-0.64501953125,-0.54736328125,-0.50616455078125
1773258448074012000,1.670011962890625,-0.7664642333984375,-0.5962371826171875,-0.535858154296875
1773258448084024600,1.680024658203125,-0.780364990234375,-0.590240478515625,-0.4935302734375
1773258448094036700,1.69003662109375,-0.7411956787109375,-0.575103759765625,-0.41290283203125
1773258448104048600,1.700048583984375,-0.705352783203125,-0.601318359375,-0.372161865234375
1773258448114061800,1.710061767578125,-0.6536407470703125,-0.6190185546875,-0.3513031005859375
1773258448124073700,1.72007373046875,-0.53704833984375,-0.6444549560546875,-0.3179473876953125
1773258448134085600,1.730085693359375,-0.393035888671875,-0.7173309326171875,-0.3047637939453125
1773258448144097800,1.740097900390625,-0.302947998046875,-0.788238525390625,-0.302276611328125
1773258448154110700,1.75011083984375,-0.1343536376953125,-0.901702880859375,-0.2921295166015625
1773258448164123000,1.760122802734375,0.041656494140625,-0.965301513671875,-0.315582275390625
1773258448174134800,1.770134765625,-0.063446044921875,-0.8768463134765625,-0.3251190185546875
1773258448184147700,1.780147705078125,-0.2645416259765625,-0.8883514404296875,-0.3563079833984375
1773258448194159900,1.790159912109375,-0.4711761474609375,-0.913726806640625,-0.3701019287109375
1773258448204171800,1.800171875,-0.554931640625,-0.8629608154296875,-0.3198089599609375
1773258448214184700,1.810184814453125,-0.5567779541015625,-0.8357086181640625,-0.2753143310546875
1773258448224196600,1.820196533203125,-0.5239105224609375,-0.845123291015625,-0.305816650390625
1773258448234208800,1.830208740234375,-0.459747314453125,-0.8491363525390625,-0.3672637939453125
1773258448244221700,1.8402216796875,-0.3988037109375,-0.8494873046875,-0.408203125
1773258448254233900,1.85023388671875,-0.3775634765625,-0.8689422607421875,-0.4547271728515625
1773258448264245800,1.860245849609375,-0.3699188232421875,-0.8969573974609375,-0.5033111572265625
1773258448274259000,1.870259033203125,-0.34539794921875,-0.908233642578125,-0.5227508544921875
1773258448284270800,1.880270751953125,-0.3347625732421875,-0.89166259765625,-0.5607452392578125
1773258448294282800,1.89028271484375,-0.3474578857421875,-0.8674163818359375,-0.6429901123046875
1773258448304295700,1.900295654296875,-0.34600830078125,-0.8570556640625,-0.68621826171875
1773258448314307600,1.9103076171875,-0.3260498046875,-0.805267333984375,-0.651885986328125
1773258448324319700,1.92031982421875,-0.330413818359375,-0.7257232666015625,-0.58148193359375
1773258448334331600,1.93033154296875,-0.348785400390625,-0.6429595947265625,-0.50921630859375
1773258448344344800,1.9403447265625,-0.35394287109375,-0.578704833984375,-0.4439697265625
1773258448354356700,1.950356689453125,-0.341796875,-0.6242828369140625,-0.300384521484375
1773258448364368600,1.96036865234375,-0.183685302734375,-0.829254150390625,-0.1510772705078125
1773258448374381800,1.9703818359375,-0.1203765869140625,-0.9859619140625,-0.1978759765625
1773258448384393700,1.980393798828125,-0.2700653076171875,-1.05645751953125,-0.37335205078125
1773258448394406000,1.990406005859375,-0.452789306640625,-0.890228271484375,-0.3818359375
1773258448404418800,2.000418701171875,-0.6021270751953125,-0.7638397216796875,-0.3387451171875
1773258448414431000,2.010430908203125,-0.7970123291015625,-0.733734130859375,-0.269744873046875
1773258448424443000,2.02044287109375,-0.80450439453125,-0.787689208984375,-0.305633544921875
1773258448434455800,2.030455810546875,-0.4687347412109375,-0.7239227294921875,-0.452880859375
1773258448444467700,2.0404677734375,-0.367950439453125,-0.818511962890625,-0.5135498046875
1773258448454479600,2.050479736328125,-0.4390716552734375,-0.81280517578125,-0.6248016357421875
1773258448464492800,2.060492919921875,-0.4750213623046875,-0.7161865234375,-0.6709136962890625
1773258448474504700,2.070504638671875,-0.486846923828125,-0.670318603515625,-0.6129150390625
1773258448484516900,2.080516845703125,-0.507781982421875,-0.742218017578125,-0.600921630859375
1773258448494529800,2.09052978515625,-0.5827789306640625,-0.8574371337890625,-0.5726318359375
1773258448504542000,2.1005419921875,-0.5803375244140625,-0.877197265625,-0.5134429931640625
1773258448514553900,2.110553955078125,-0.4746246337890625,-0.7127227783203125,-0.48870849609375
1773258448524566800,2.12056689453125,-0.3579559326171875,-0.61236572265625,-0.4183502197265625
1773258448534578700,2.13057861328125,-0.3168792724609375,-0.595703125,-0.32470703125
1773258448544590600,2.140590576171875,-0.379241943359375,-0.5896759033203125,-0.2629852294921875
1773258448554603800,2.150603759765625,-0.4461669921875,-0.62139892578125,-0.2781982421875
1773258448564615700,2.16061572265625,-0.45703125,-0.7274169921875,-0.3647308349609375
1773258448574627800,2.1706279296875,-0.44598388671875,-0.6336212158203125,-0.26031494140625
1773258448584639700,2.1806396484375,-0.431060791015625,-0.7057952880859375,-0.29071044921875
1773258448594653000,2.19065283203125,-0.428009033203125,-0.6638336181640625,-0.3454742431640625
1773258448604664800,2.200664794921875,-0.42572021484375,-0.6367034912109375,-0.353729248046875
1773258448614676700,2.2106767578125,-0.392181396484375,-0.672698974609375,-0.2825927734375
1773258448624690000,2.22068994140625,-0.3508453369140625,-0.7110748291015625,-0.310760498046875
1773258448634701800,2.230701904296875,-0.3220062255859375,-0.689239501953125,-0.25604248046875
1773258448644714000,2.2407138671875,-0.28155517578125,-0.7404632568359375,-0.0494384765625
1773258448654726700,2.2507265625,-0.2506103515625,-0.8399658203125,0.0355987548828125
1773258448664738600,2.260738525390625,-0.287872314453125,-0.9151458740234375,0.0047454833984375
1773258448674750700,2.270750732421875,-0.34039306640625,-0.9675445556640625,-0.0777435302734375
1773258448684763600,2.280763671875,-0.3730010986328125,-0.869354248046875,-0.1169586181640625
1773258448694775800,2.29077587890625,-0.430206298828125,-0.7892608642578125,-0.173309326171875
1773258448704787700,2.30078759765625,-0.4990234375,-0.807403564453125,-0.2317657470703125
1773258448714801000,2.31080078125,-0.3429718017578125,-0.7788543701171875,-0.12811279296875
1773258448724812800,2.320812744140625,-0.1189727783203125,-0.7116851806640625,0.0401153564453125
1773258448734824700,2.33082470703125,-0.0586090087890625,-0.7252960205078125,0.0496368408203125
1773258448744838000,2.340837890625,-0.0661773681640625,-0.9398040771484375,-0.201812744140625
1773258448754849800,2.350849853515625,-0.0537567138671875,-1.96563720703125,-0.3281097412109375
1773258448764861700,2.36086181640625,-0.018951416015625,-2.5560455322265625,-0.36322021484375
1773258448774874600,2.37087451171875,0.2411346435546875,-2.0128936767578125,-0.2795257568359375
1773258448784886800,2.38088671875,0.318817138671875,-1.626068115234375,-0.188934326171875
1773258448794898700,2.390898681640625,0.103515625,-1.34130859375,-0.3888702392578125
1773258448804911900,2.400911865234375,0.0834197998046875,-1.0612335205078125,-0.397735595703125
1773258448814923800,2.410923828125,-0.0352783203125,-0.965362548828125,-0.377716064453125
1773258448824935700,2.420935791015625,-0.0673980712890625,-1.0210418701171875,-0.4088592529296875
1773258448834948900,2.430948974609375,-0.0270843505859375,-1.0736083984375,-0.3275299072265625
1773258448844960800,2.440960693359375,-0.044189453125,-1.110992431640625,-0.2295074462890625
1773258448854973000,2.450972900390625,-0.09136962890625,-1.114471435546875,-0.1701202392578125
1773258448864985600,2.460985595703125,-0.1249237060546875,-1.0840301513671875,-0.1684722900390625
1773258448874997800,2.470997802734375,-0.1563720703125,-1.037811279296875,-0.1893463134765625
1773258448885009700,2.481009765625,-0.1215972900390625,-0.9218902587890625,-0.2264556884765625
1773258448895022800,2.49102294921875,-0.1259307861328125,-0.91522216796875,-0.2518463134765625
1773258448905034800,2.50103466796875,-0.072601318359375,-0.9108734130859375,-0.275726318359375
1773258448915048000,2.5110478515625,0.0786590576171875,-0.904449462890625,-0.2557220458984375
1773258448925059800,2.521059814453125,0.1456146240234375,-0.8930816650390625,-0.20135498046875
1773258448935071700,2.53107177734375,0.0629119873046875,-0.895263671875,-0.21673583984375
1773258448945085000,2.5410849609375,0.031463623046875,-0.8902740478515625,-0.240081787109375
1773258448955096800,2.551096923828125,0.0755157470703125,-0.831024169921875,-0.2593841552734375
1773258448965109000,2.56110888671875,0.0806884765625,-0.802581787109375,-0.2356719970703125
1773258448975121700,2.57112158203125,0.0354156494140625,-0.864654541015625,-0.2132110595703125
1773258448985133800,2.5811337890625,-0.117340087890625,-0.9373321533203125,-0.246734619140625
1773258448995145700,2.591145751953125,-0.2571868896484375,-0.995819091796875,-0.2870635986328125
1773258449005158700,2.60115869140625,-0.304473876953125,-1.0140533447265625,-0.2458343505859375
1773258449015170800,2.6111708984375,-0.2890777587890625,-1.0321807861328125,-0.2032928466796875
1773258449025182700,2.6211826171875,-0.289154052734375,-1.031219482421875,-0.215087890625
1773258449035196000,2.63119580078125,-0.303466796875,-1.0264129638671875,-0.2481536865234375
1773258449045207800,2.641207763671875,-0.2972259521484375,-0.9988861083984375,-0.249786376953125
1773258449055220700,2.651220703125,-0.222412109375,-0.955718994140625,-0.21881103515625
1773258449065232600,2.661232666015625,-0.1548919677734375,-0.9110260009765625,-0.1193695068359375
1773258449075244500,2.67124462890625,-0.4670867919921875,-0.8929595947265625,-0.0924224853515625
1773258449085257500,2.681257568359375,-0.8808746337890625,-0.99212646484375,-0.1309814453125
1773258449095269600,2.69126953125,-0.3347930908203125,-0.9983978271484375,-0.2207183837890625
1773258449105281500,2.701281494140625,0.0933837890625,-0.942352294921875,-0.2974090576171875
1773258449115294700,2.711294677734375,0.0856475830078125,-0.9362640380859375,-0.462738037109375
1773258449125306600,2.721306640625,-0.1178436279296875,-0.888916015625,-0.35601806640625
1773258449135318800,2.73131884765625,-0.3395538330078125,-0.85546875,-0.2471466064453125
1773258449145331700,2.741331787109375,-0.4969482421875,-0.8124847412109375,-0.15240478515625
1773258449155343600,2.751343505859375,-0.5332794189453125,-0.7845306396484375,-0.116546630859375
1773258449165356500,2.7613564453125,-0.46014404296875,-0.789093017578125,-0.153472900390625
1773258449175368400,2.771368408203125,-0.400543212890625,-0.8272552490234375,-0.190704345703125
1773258449185380600,2.781380615234375,-0.3641815185546875,-0.861419677734375,-0.2022247314453125
1773258449195393500,2.7913935546875,-0.3434906005859375,-0.880859375,-0.2216033935546875
1773258449205405700,2.80140576171875,-0.3011474609375,-0.84429931640625,-0.2604522705078125
1773258449215418600,2.811418701171875,-0.3016204833984375,-0.5942230224609375,-0.327667236328125
1773258449225430800,2.8214306640625,-0.3858795166015625,-0.7091827392578125,-0.242156982421875
1773258449235442700,2.831442626953125,-0.402862548828125,-0.740966796875,-0.2542724609375
1773258449245455600,2.84145556640625,-0.3890838623046875,-0.7190704345703125,-0.3131103515625
1773258449255467800,2.8514677734375,-0.4139556884765625,-0.806304931640625,-0.30853271484375
1773258449265479700,2.861479736328125,-0.417144775390625,-0.91827392578125,-0.3121185302734375
1773258449275492600,2.87149267578125,-0.40020751953125,-0.88671875,-0.28765869140625
1773258449285504500,2.88150439453125,-0.3834381103515625,-0.8186798095703125,-0.2521820068359375
1773258449295517700,2.891517578125,-0.3582000732421875,-0.863250732421875,-0.297698974609375
1773258449305529600,2.901529541015625,-0.3119354248046875,-0.9088134765625,-0.3486785888671875
1773258449315541800,2.911541748046875,-0.1868896484375,-1.0033416748046875,-0.426910400390625
1773258449325554700,2.9215546875,-0.1606597900390625,-1.0467071533203125,-0.4782867431640625
1773258449335566800,2.93156689453125,-0.2093963623046875,-1.0363311767578125,-0.439239501953125
1773258449345578800,2.941578857421875,-0.3066253662109375,-1.0695953369140625,-0.3343505859375
1773258449355591400,2.95159130859375,0.0046844482421875,-1.235137939453125,-0.4332427978515625
1773258449365603600,2.961603515625,0.0210113525390625,-0.8590850830078125,-0.459808349609375
1773258449375616500,2.971616455078125,-0.2003173828125,-0.761383056640625,-0.16290283203125
1773258449385628700,2.981628662109375,-0.206512451171875,-0.911102294921875,-0.2505950927734375
1773258449395640600,2.991640625,0.1038665771484375,-0.9027099609375,-0.17608642578125
1773258449405653800,3.00165380859375,-0.390106201171875,-0.9070281982421875,-0.265472412109375
1773258449415665700,3.011665771484375,-0.6533660888671875,-1.0359039306640625,-0.2705078125
1773258449425678800,3.021678955078125,-0.3460235595703125,-0.985107421875,-0.2486114501953125
1773258449435690800,3.031690673828125,-0.0292816162109375,-0.904327392578125,-0.2826080322265625
1773258449445702700,3.04170263671875,0.0314178466796875,-0.7984771728515625,-0.288330078125
1773258449455715600,3.051715576171875,0.0300750732421875,-0.728607177734375,-0.4026947021484375
1773258449465727500,3.0617275390625,0.03692626953125,-0.76885986328125,-0.4869384765625
1773258449475739600,3.07173974609375,-0.093780517578125,-0.8291168212890625,-0.651031494140625
1773258449485752600,3.081752685546875,-0.254791259765625,-0.7973175048828125,-0.73858642578125
1773258449495764700,3.0917646484375,-0.2067718505859375,-0.7370147705078125,-0.7652587890625
1773258449505777700,3.101777587890625,0.16473388671875,-0.6731109619140625,-0.6912078857421875
1773258449515789800,3.111789794921875,0.2158050537109375,-0.651123046875,-0.6559295654296875
1773258449525801700,3.1218017578125,0.0884857177734375,-0.6961212158203125,-0.6832427978515625
1773258449535814700,3.131814697265625,0.126312255859375,-0.7741241455078125,-0.6626434326171875
1773258449545826600,3.14182666015625,0.1763916015625,-0.83905029296875,-0.649139404296875
1773258449555839500,3.151839599609375,0.079620361328125,-0.8687591552734375,-0.64422607421875
1773258449565851600,3.1618515625,0.009002685546875,-0.92340087890625,-0.636566162109375
1773258449575863600,3.171863525390625,0.043365478515625,-1.0336456298828125,-0.569488525390625
1773258449585876700,3.181876708984375,0.0192718505859375,-1.143585205078125,-0.509613037109375
1773258449595888600,3.191888671875,-0.0042877197265625,-1.145050048828125,-0.5330963134765625
1773258449605901800,3.20190185546875,-0.0322113037109375,-1.0726776123046875,-0.5969696044921875
1773258449615913700,3.211913818359375,-0.0368804931640625,-0.973846435546875,-0.695465087890625
1773258449625925600,3.221925537109375,-0.032257080078125,-0.8986358642578125,-0.73455810546875
1773258449635938600,3.2319384765625,-0.069854736328125,-0.8430938720703125,-0.71575927734375
1773258449645950500,3.241950439453125,-0.0032958984375,-0.8616180419921875,-0.722137451171875
1773258449655963600,3.251963623046875,0.010284423828125,-0.8644256591796875,-0.6704559326171875
1773258449665975600,3.2619755859375,-0.0411529541015625,-0.8831024169921875,-0.6849212646484375
1773258449675987700,3.27198779296875,-0.0272674560546875,-0.8968048095703125,-0.6364898681640625
1773258449686000600,3.282000732421875,0.053558349609375,-0.87689208984375,-0.6082763671875
1773258449696012800,3.2920126953125,0.073974609375,-0.85723876953125,-0.627899169921875
1773258449706025700,3.302025634765625,0.089141845703125,-0.8518829345703125,-0.582489013671875
1773258449716037600,3.31203759765625,0.1052093505859375,-0.8475189208984375,-0.5350494384765625
1773258449726049500,3.322049560546875,0.0762786865234375,-0.81689453125,-0.50042724609375
1773258449736062700,3.332062744140625,0.010162353515625,-0.77081298828125,-0.4362945556640625
1773258449746074600,3.34207470703125,-0.0317840576171875,-0.7653656005859375,-0.4482421875
1773258449756087600,3.352087646484375,0.016845703125,-0.8347930908203125,-0.5342864990234375
1773258449766099700,3.362099609375,0.017822265625,-0.8813018798828125,-0.5540924072265625
1773258449776111600,3.372111572265625,0.0425872802734375,-0.7870330810546875,-0.57391357421875
1773258449786124800,3.382124755859375,0.0630645751953125,-0.7060699462890625,-0.5767822265625
1773258449796136700,3.39213671875,0.080474853515625,-0.6506500244140625,-0.499420166015625
1773258449806149600,3.402149658203125,-0.05181884765625,-0.6504364013671875,-0.5303192138671875
1773258449816161500,3.41216162109375,0.0384521484375,-0.7908172607421875,-0.3179931640625
1773258449826173400,3.42217333984375,0.2584381103515625,-0.71826171875,-0.1972198486328125
1773258449836186600,3.4321865234375,0.27593994140625,-0.75543212890625,-0.33673095703125
1773258449846198500,3.442198486328125,0.0860595703125,-0.949005126953125,-0.4600677490234375
1773258449856211700,3.452211669921875,0.0278778076171875,-0.988067626953125,-0.458038330078125
1773258449866223600,3.4622236328125,0.1465606689453125,-0.934478759765625,-0.3533477783203125
1773258449876235800,3.47223583984375,0.1376190185546875,-0.9373931884765625,-0.393707275390625
1773258449886248700,3.482248779296875,-0.002471923828125,-1.0006103515625,-0.4365386962890625
1773258449896260900,3.4922607421875,-0.0677032470703125,-1.0108795166015625,-0.4022674560546875
1773258449906273500,3.5022734375,-0.1449127197265625,-0.936676025390625,-0.42364501953125
1773258449916285700,3.51228564453125,-0.1208648681640625,-0.9485931396484375,-0.4342498779296875
1773258449926297600,3.522297607421875,-0.0009002685546875,-0.9792633056640625,-0.3653717041015625
1773258449936310800,3.532310791015625,-0.009735107421875,-0.9390716552734375,-0.368072509765625
1773258449946322700,3.54232275390625,-0.0058746337890625,-0.9391021728515625,-0.3619842529296875
1773258449956335600,3.552335693359375,0.000701904296875,-1.013763427734375,-0.369415283203125
1773258449966347800,3.56234765625,-0.03662109375,-1.0102996826171875,-0.392669677734375
1773258449976359700,3.572359619140625,0.006683349609375,-0.8830413818359375,-0.34088134765625
1773258449986372600,3.58237255859375,0.10760498046875,-0.8252716064453125,-0.314453125
1773258449996384500,3.592384521484375,0.115142822265625,-0.8708343505859375,-0.389434814453125
1773258450006397700,3.602397705078125,0.067657470703125,-0.9298553466796875,-0.374542236328125
1773258450016409600,3.61240966796875,0.090057373046875,-1.0009765625,-0.364654541015625
1773258450026421500,3.62242138671875,0.1317596435546875,-0.9630279541015625,-0.3248748779296875
1773258450036434700,3.6324345703125,0.16363525390625,-1.012359619140625,-0.324310302734375
1773258450046446600,3.642446533203125,0.2140045166015625,-0.9971923828125,-0.3801422119140625
1773258450056459800,3.652459716796875,-0.1443939208984375,-0.929046630859375,-0.4706573486328125
1773258450066471700,3.6624716796875,-0.4155120849609375,-0.959625244140625,-0.3590850830078125
1773258450076483800,3.67248388671875,-0.4263763427734375,-0.992828369140625,-0.1679229736328125
1773258450086496500,3.68249658203125,-0.1164398193359375,-0.92431640625,-0.292388916015625
1773258450096508700,3.6925087890625,0.1248321533203125,-0.82611083984375,-0.3827362060546875
1773258450106521600,3.702521484375,-0.2054443359375,-1.0060577392578125,-0.0401763916015625
1773258450116533800,3.71253369140625,-0.3341217041015625,-1.04876708984375,-0.1285858154296875
1773258450126545700,3.722545654296875,-0.1938629150390625,-0.97955322265625,-0.2537841796875
1773258450136558600,3.73255859375,-0.14508056640625,-0.9482574462890625,-0.3104705810546875
1773258450146570800,3.74257080078125,-0.2065277099609375,-0.8701019287109375,-0.3462677001953125
1773258450156583400,3.75258349609375,-0.166229248046875,-0.86639404296875,-0.304046630859375
1773258450166595600,3.762595703125,-0.065032958984375,-0.95245361328125,-0.20941162109375
1773258450176607500,3.772607421875,0.0348358154296875,-1.02825927734375,-0.2032470703125
1773258450186620700,3.78262060546875,-0.0364990234375,-1.07122802734375,-0.206329345703125
1773258450196632600,3.792632568359375,-0.2402191162109375,-1.0873870849609375,-0.155059814453125
1773258450206645800,3.802645751953125,-0.2065582275390625,-1.0773468017578125,-0.13458251953125
1773258450216657700,3.81265771484375,-0.1156768798828125,-1.05718994140625,-0.2436370849609375
1773258450226669600,3.822669677734375,-0.1816558837890625,-1.0506591796875,-0.2406158447265625
1773258450236682800,3.832682861328125,-0.21307373046875,-1.04754638671875,-0.2038726806640625
1773258450246694700,3.842694580078125,-0.19451904296875,-1.02032470703125,-0.1697845458984375
1773258450256707600,3.85270751953125,-0.18780517578125,-1.042327880859375,-0.1614532470703125
1773258450266719500,3.862719482421875,-0.0792388916015625,-1.075531005859375,-0.1383209228515625
1773258450276731600,3.872731689453125,0.078521728515625,-1.2090301513671875,-0.18682861328125
1773258450286744600,3.88274462890625,-0.0074462890625,-1.3561248779296875,-0.1506500244140625
1773258450296756700,3.8927568359375,-0.1795806884765625,-1.3667449951171875,-0.217803955078125
1773258450306769700,3.902769775390625,-0.2974090576171875,-1.2580413818359375,-0.2251129150390625
1773258450316781800,3.91278173828125,-0.2020263671875,-1.1517791748046875,-0.1591796875
1773258450326793700,3.922793701171875,-0.13385009765625,-1.14752197265625,-0.1254119873046875
1773258450336806700,3.932806640625,-0.1320343017578125,-1.128082275390625,-0.1176910400390625
1773258450346818600,3.942818603515625,-0.10943603515625,-1.0107269287109375,-0.0884552001953125
1773258450356831500,3.95283154296875,-0.03973388671875,-0.8408203125,-0.0846099853515625
1773258450366843600,3.96284375,-0.0418243408203125,-0.7113037109375,-0.077301025390625
1773258450376855600,3.97285546875,-0.24359130859375,-0.4741058349609375,0.1975555419921875
1773258450386868700,3.98286865234375,-0.7933197021484375,-0.4196014404296875,0.1370697021484375
1773258450396880600,3.992880615234375,0.638916015625,-0.8120269775390625,-0.3712310791015625
1773258450406893800,4.002893798828125,0.14117431640625,-0.8728485107421875,-0.102752685546875
1773258450416905700,4.01290576171875,-0.1087799072265625,-0.6826019287109375,0.0645599365234375
1773258450426917600,4.022917724609375,-0.03515625,-0.69403076171875,-0.0250701904296875
1773258450436930600,4.0329306640625,-0.10272216796875,-0.8275299072265625,-0.0701446533203125
1773258450446942500,4.0429423828125,-0.098663330078125,-0.8528594970703125,-0.0326690673828125
1773258450456954600,4.05295458984375,-0.0877838134765625,-0.822845458984375,-0.025421142578125
1773258450466967600,4.062967529296875,-0.0357513427734375,-0.75811767578125,-0.07684326171875
1773258450476979700,4.072979736328125,-0.1219024658203125,-0.7242584228515625,-0.0902862548828125
1773258450486992600,4.08299267578125,-0.2335662841796875,-0.6537628173828125,-0.148162841796875
1773258450497004800,4.0930048828125,-0.3283843994140625,-0.657989501953125,-0.0338897705078125
1773258450507017700,4.103017822265625,-0.3430328369140625,-0.766998291015625,-0.0244598388671875
1773258450517030000,4.11302978515625,-0.326324462890625,-0.8392181396484375,-0.0619049072265625
1773258450527041800,4.123041748046875,-0.089996337890625,-0.9383087158203125,0.094085693359375
1773258450537054500,4.133054443359375,-0.291534423828125,-1.1214752197265625,0.009429931640625
1773258450547066600,4.143066650390625,-0.546112060546875,-1.1305999755859375,0.07989501953125
1773258450557079600,4.15307958984375,-0.3174896240234375,-1.084747314453125,0.199554443359375
1773258450567091700,4.163091796875,-0.2587127685546875,-1.1684417724609375,0.1154022216796875
1773258450577103600,4.173103515625,-0.3702545166015625,-1.289306640625,0.1614837646484375
1773258450587116800,4.18311669921875,-0.3411712646484375,-1.27764892578125,-0.018890380859375
1773258450597128700,4.193128662109375,-0.162811279296875,-1.2323455810546875,-0.0988311767578125
1773258450607140600,4.203140625,-0.1655120849609375,-1.1595611572265625,-0.0104827880859375
1773258450617153500,4.213153564453125,-0.2172393798828125,-1.1053466796875,0.02490234375
1773258450627165400,4.22316552734375,-0.2440643310546875,-1.0446319580078125,0.0206451416015625
1773258450637178600,4.2331787109375,-0.269317626953125,-0.9854736328125,-0.031463623046875
1773258450647190500,4.2431904296875,-0.3414459228515625,-0.96270751953125,-0.027923583984375
1773258450657202700,4.25320263671875,-0.4246673583984375,-0.9467926025390625,0.0544281005859375
1773258450667215600,4.263215576171875,-0.4364013671875,-0.9258880615234375,0.060089111328125
1773258450677227800,4.273227783203125,-0.39862060546875,-0.935791015625,0.05950927734375
1773258450687240700,4.28324072265625,-0.35174560546875,-0.97528076171875,0.0528411865234375
1773258450697252900,4.2932529296875,-0.3170928955078125,-1.044097900390625,-0.0110626220703125
1773258450707264800,4.3032646484375,-0.26556396484375,-1.083953857421875,-0.0205535888671875
1773258450717277700,4.313277587890625,-0.265472412109375,-1.1011962890625,0.0687713623046875
1773258450727289600,4.32328955078125,-0.221405029296875,-1.077972412109375,0.225250244140625
1773258450737302500,4.333302490234375,0.0375823974609375,-0.964080810546875,0.5397796630859375
1773258450747314700,4.343314697265625,-0.0894927978515625,-1.0135040283203125,0.13818359375
1773258450757326600,4.35332666015625,-0.2212677001953125,-1.2714691162109375,-0.3550567626953125
1773258450767339800,4.36333984375,-0.213226318359375,-1.127593994140625,-0.0478973388671875
1773258450777351700,4.3733515625,-0.2451934814453125,-1.0474395751953125,0.0861663818359375
1773258450787363800,4.38336376953125,-0.2387237548828125,-1.03662109375,0.0378875732421875
1773258450797376500,4.39337646484375,-0.19097900390625,-1.0300140380859375,0.058990478515625
1773258450807388700,4.403388671875,-0.1929168701171875,-1.04327392578125,-0.0900726318359375
1773258450817401600,4.413401611328125,-0.19549560546875,-1.027923583984375,-0.1321258544921875
1773258450827413500,4.42341357421875,-0.19805908203125,-1.0316925048828125,0.0177459716796875
1773258450837425700,4.43342578125,-0.13226318359375,-1.005889892578125,0.0336761474609375
1773258450847438600,4.4434384765625,0.0367889404296875,-0.9122772216796875,-0.0232391357421875
1773258450857450800,4.45345068359375,0.0979156494140625,-0.8909912109375,-0.1370697021484375
1773258450867463700,4.463463623046875,0.0714874267578125,-0.9564056396484375,-0.128631591796875
1773258450877475800,4.473475830078125,0.1661376953125,-1.0201873779296875,-0.1097259521484375
1773258450887487700,4.48348779296875,0.243927001953125,-1.104705810546875,-0.1468048095703125
1773258450897500700,4.493500732421875,0.2637939453125,-1.1308135986328125,-0.1808929443359375
1773258450907512600,4.5035126953125,0.2149200439453125,-1.1194915771484375,-0.1898040771484375
1773258450917524500,4.5135244140625,0.179473876953125,-1.0751190185546875,-0.2352294921875
1773258450927537700,4.52353759765625,0.175628662109375,-1.034881591796875,-0.23046875
1773258450937549600,4.533549560546875,0.1344146728515625,-1.013153076171875,-0.2330474853515625
1773258450947562800,4.543562744140625,0.1182098388671875,-0.9913330078125,-0.1975555419921875
1773258450957574700,4.55357470703125,0.1222686767578125,-0.9737701416015625,-0.1688385009765625
1773258450967586800,4.5635869140625,0.1444854736328125,-0.9823455810546875,-0.1616668701171875
1773258450977599700,4.573599853515625,0.1148834228515625,-0.9985504150390625,-0.0892333984375
1773258450987611600,4.583611572265625,-0.15106201171875,-0.98779296875,0.0008087158203125
1773258450997624600,4.59362451171875,-0.198699951171875,-0.931182861328125,-0.083953857421875
1773258451007636500,4.603636474609375,-0.18304443359375,-0.880462646484375,-0.1531219482421875
1773258451017648600,4.613648681640625,-0.184844970703125,-0.868988037109375,-0.162628173828125
1773258451027661600,4.62366162109375,-0.382843017578125,-0.924896240234375,0.0125885009765625
1773258451037673700,4.633673828125,-0.5720672607421875,-1.081634521484375,0.2608642578125
1773258451047685600,4.643685546875,-0.3678131103515625,-1.170928955078125,-0.159637451171875
1773258451057698800,4.65369873046875,-0.385162353515625,-1.160675048828125,0.0531463623046875
1773258451067710700,4.663710693359375,-0.251007080078125,-0.9971771240234375,-0.0408935546875
1773258451077723400,4.673723388671875,-0.3001708984375,-0.8777923583984375,-0.3760986328125
1773258451087735300,4.6837353515625,-0.1292877197265625,-0.793914794921875,-0.324920654296875
1773258451097747200,4.693747314453125,-0.187103271484375,-0.79595947265625,-0.3593902587890625
1773258451107760000,4.703760009765625,-0.044708251953125,-0.8598480224609375,-0.25531005859375
1773258451117772300,4.713772216796875,0.05792236328125,-0.9036407470703125,-0.1885833740234375
1773258451127784200,4.7237841796875,-0.07989501953125,-1.00927734375,-0.2384185791015625
1773258451137797400,4.73379736328125,0.02490234375,-0.9287567138671875,-0.3556671142578125
1773258451147809300,4.743809326171875,0.223876953125,-0.8744659423828125,-0.436431884765625
1773258451157822500,4.753822509765625,0.38580322265625,-1.12939453125,-0.320556640625
1773258451167834400,4.76383447265625,0.3048095703125,-1.2049560546875,-0.2882843017578125
1773258451177846300,4.77384619140625,0.2649078369140625,-1.16021728515625,-0.46978759765625
1773258451187859200,4.783859130859375,0.17279052734375,-1.0838623046875,-0.5738372802734375
1773258451197871000,4.79387109375,0.026824951171875,-1.0935211181640625,-0.4148712158203125
1773258451207884300,4.80388427734375,-0.0359344482421875,-1.0551300048828125,-0.3479766845703125
1773258451217896200,4.813896240234375,0.002410888671875,-1.054962158203125,-0.42889404296875
1773258451227908400,4.823908447265625,0.00506591796875,-1.0907135009765625,-0.43194580078125
1773258451237921300,4.83392138671875,-0.024139404296875,-1.0589141845703125,-0.397613525390625
1773258451247933400,4.843933349609375,-0.10943603515625,-0.7553558349609375,-0.17205810546875
1773258451257945300,4.8539453125,-0.0106048583984375,-0.443878173828125,-0.141815185546875
1773258451267958300,4.863958251953125,0.06109619140625,-0.5077972412109375,-0.255035400390625
1773258451277970400,4.873970458984375,0.1774139404296875,-0.6195831298828125,-0.17962646484375
1773258451287983000,4.883983154296875,0.3132476806640625,-0.7335205078125,-0.15667724609375
1773258451297995300,4.893995361328125,0.3969879150390625,-0.90362548828125,-0.3355865478515625
1773258451308007200,4.904007080078125,0.4321746826171875,-1.20928955078125,-0.460296630859375
1773258451318020400,4.914020263671875,0.3614044189453125,-1.36651611328125,-0.4386444091796875
1773258451328032300,4.9240322265625,0.23675537109375,-1.1869354248046875,-0.4154052734375
1773258451338044200,4.934044189453125,0.18115234375,-1.0512237548828125,-0.37200927734375
1773258451348057300,4.944057373046875,0.1429443359375,-0.6381683349609375,-0.0815582275390625
1773258451358069200,4.9540693359375,0.152923583984375,-0.1999664306640625,-0.06817626953125
1773258451368082200,4.964082275390625,0.09039306640625,-0.3385467529296875,-0.0738983154296875
1773258451378094000,4.974093994140625,0.1568450927734375,-0.6136016845703125,-0.1369171142578125
1773258451388106200,4.984106201171875,0.2212066650390625,-0.5163116455078125,-0.059814453125
1773258451398119200,4.994119140625,0.453460693359375,-0.4947662353515625,-0.0660400390625
1773258451408131300,5.00413134765625,0.6697998046875,-0.5532379150390625,-0.0598907470703125
1773258451418143200,5.014143310546875,0.8521575927734375,-0.5831756591796875,-0.067535400390625
1773258451428156400,5.024156494140625,0.951629638671875,-0.523345947265625,-0.065277099609375
1773258451438168300,5.034168212890625,0.967498779296875,-0.4340972900390625,-0.0487060546875
1773258451448181500,5.044181396484375,0.8535308837890625,-0.4503936767578125,0.034576416015625
1773258451458193400,5.054193359375,0.665557861328125,-0.4493255615234375,0.08612060546875
1773258451468205300,5.064205322265625,0.59661865234375,-0.430908203125,0.1080322265625
1773258451478218200,5.07421826171875,0.715423583984375,-0.4761810302734375,0.0656280517578125
1773258451488230100,5.084230224609375,0.8778533935546875,-0.539581298828125,-0.0030517578125
1773258451498242300,5.0942421875,1.0320587158203125,-0.56591796875,-0.0588226318359375
1773258451508255200,5.104255126953125,1.277313232421875,-0.5617828369140625,-0.1353759765625
1773258451518267400,5.114267333984375,1.2933349609375,-0.541534423828125,-0.0749969482421875
1773258451528280300,5.1242802734375,1.142364501953125,-0.525604248046875,0.0199737548828125
1773258451538292200,5.134292236328125,0.9955902099609375,-0.498138427734375,0.077239990234375
1773258451548304400,5.144304443359375,0.930572509765625,-0.4698486328125,0.107574462890625
1773258451558317300,5.1543173828125,0.8726806640625,-0.4661865234375,0.1129608154296875
1773258451568329200,5.1643291015625,0.856048583984375,-0.4200897216796875,0.1866455078125
1773258451578341000,5.174341064453125,0.88641357421875,-0.395965576171875,0.1586151123046875
1773258451588354300,5.184354248046875,0.9640350341796875,-0.4418487548828125,-0.002655029296875
1773258451598366200,5.1943662109375,0.9974212646484375,-0.45806884765625,0.0269317626953125
1773258451608378000,5.204378173828125,1.0454864501953125,-0.4132232666015625,0.1434478759765625
1773258451618391300,5.214391357421875,0.9973602294921875,-0.3249969482421875,0.21331787109375
1773258451628403200,5.2244033203125,0.9203643798828125,-0.2461395263671875,0.243743896484375
1773258451638416400,5.23441650390625,0.8787994384765625,-0.095794677734375,0.2993621826171875
1773258451648428300,5.24442822265625,0.9911041259765625,-0.18609619140625,0.177001953125
1773258451658440400,5.2544404296875,1.24176025390625,-0.3515472412109375,0.0502777099609375
1773258451668453000,5.264453125,1.2409210205078125,-0.2037200927734375,0.228546142578125
1773258451678465300,5.27446533203125,1.0280609130859375,0.0228118896484375,0.4121246337890625
1773258451688477200,5.284477294921875,1.0340118408203125,0.0025482177734375,0.360504150390625
1773258451698490400,5.294490478515625,1.2052764892578125,-0.156036376953125,0.2236785888671875
1773258451708502300,5.304502197265625,1.1672210693359375,-0.123992919921875,0.3289794921875
1773258451718515200,5.31451513671875,0.999176025390625,-0.0666046142578125,0.432098388671875
1773258451728527400,5.32452734375,0.9028778076171875,-0.1160736083984375,0.3606719970703125
1773258451738539300,5.334539306640625,0.8474884033203125,-0.2136077880859375,0.2395782470703125
1773258451748552400,5.344552490234375,0.7607269287109375,-0.306976318359375,0.1488037109375
1773258451758564400,5.354564453125,0.6796417236328125,-0.3838653564453125,0.1355133056640625
1773258451768576300,5.364576171875,0.6038665771484375,-0.433502197265625,0.2178955078125
1773258451778589200,5.374589111328125,1.3334197998046875,-0.6326141357421875,0.095855712890625
1773258451788601000,5.38460107421875,1.37396240234375,-0.6151580810546875,0.08013916015625
1773258451798613200,5.39461328125,0.5133056640625,-0.3258209228515625,0.49102783203125
1773258451808626200,5.404626220703125,0.640106201171875,-0.356689453125,0.5704498291015625
1773258451818638300,5.414638427734375,0.51422119140625,-0.313507080078125,0.6522369384765625
1773258451828651300,5.4246513671875,0.6420135498046875,-0.4448699951171875,0.5205841064453125
1773258451838663400,5.434663330078125,0.6781005859375,-0.6055755615234375,0.3957672119140625
1773258451848675300,5.44467529296875,0.7210540771484375,-0.67578125,0.3812255859375
1773258451858688300,5.454688232421875,0.745025634765625,-0.6537322998046875,0.5113067626953125
1773258451868700200,5.4647001953125,0.9629974365234375,-0.54559326171875,0.6061248779296875
1773258451878712000,5.474712158203125,0.67205810546875,-0.4454803466796875,0.492584228515625
1773258451888725200,5.484725341796875,0.5314788818359375,-0.514190673828125,0.3310089111328125
1773258451898737200,5.494737060546875,0.681671142578125,-0.65191650390625,0.25286865234375
1773258451908749300,5.504749267578125,0.69830322265625,-0.6598968505859375,0.3962860107421875
1773258451918762200,5.51476220703125,0.671051025390625,-0.60980224609375,0.5120849609375
1773258451928774400,5.5247744140625,0.7413787841796875,-0.608978271484375,0.4936676025390625
1773258451938787300,5.534787353515625,0.7815093994140625,-0.6046905517578125,0.4488525390625
1773258451948799500,5.544799560546875,0.783935546875,-0.57354736328125,0.377593994140625
1773258451958811400,5.554811279296875,0.76568603515625,-0.545318603515625,0.315582275390625
1773258451968824300,5.56482421875,0.7583160400390625,-0.5308074951171875,0.286895751953125
1773258451978836200,5.574836181640625,0.77349853515625,-0.4990386962890625,0.275421142578125
1773258451988848000,5.58484814453125,0.796295166015625,-0.447113037109375,0.251953125
1773258451998861300,5.594861328125,0.823333740234375,-0.38653564453125,0.20318603515625
1773258452008873200,5.604873291015625,0.8511962890625,-0.331695556640625,0.1460418701171875
1773258452018886400,5.614886474609375,0.882080078125,-0.2704925537109375,0.1194915771484375
1773258452028898300,5.624898193359375,0.917510986328125,-0.21051025390625,0.0944366455078125
1773258452038910500,5.634910400390625,0.918060302734375,-0.16522216796875,0.049224853515625
1773258452048923100,5.644923095703125,0.991973876953125,-0.14422607421875,0.07952880859375
1773258452058935000,5.65493505859375,1.066192626953125,-0.1305084228515625,0.1595306396484375
1773258452068947200,5.664947265625,1.0522308349609375,-0.1210784912109375,0.1735687255859375
1773258452078960600,5.674960693359375,1.008392333984375,-0.132049560546875,0.1222381591796875
1773258452088972500,5.68497265625,0.9916534423828125,-0.1433563232421875,0.0867156982421875
1773258452098984700,5.694984619140625,0.9994964599609375,-0.1466522216796875,0.077789306640625
1773258452108997600,5.70499755859375,1.021820068359375,-0.1451568603515625,0.0710906982421875
1773258452119009800,5.715009765625,1.027069091796875,-0.146881103515625,0.0542755126953125
1773258452129022700,5.725022705078125,1.0307464599609375,-0.151947021484375,0.038116455078125
1773258452139034600,5.73503466796875,1.0400390625,-0.1641998291015625,0.0498199462890625
1773258452149046800,5.745046875,1.04107666015625,-0.1762237548828125,0.0666656494140625
1773258452159059700,5.755059814453125,1.0283050537109375,-0.1748199462890625,0.0542755126953125
1773258452169071600,5.765071533203125,1.0145721435546875,-0.170440673828125,0.0174713134765625
1773258452179083500,5.77508349609375,0.999176025390625,-0.16778564453125,-0.0003662109375
1773258452189096700,5.7850966796875,1.00811767578125,-0.166900634765625,0.0064239501953125
1773258452199108600,5.795108642578125,1.0345001220703125,-0.1595916748046875,0.0078887939453125
1773258452209120800,5.805120849609375,1.0321502685546875,-0.1485137939453125,-0.0053863525390625
1773258452219133700,5.8151337890625,1.0333099365234375,-0.1380767822265625,-0.0230865478515625
1773258452229145900,5.825145751953125,1.036865234375,-0.1285247802734375,-0.0354461669921875
1773258452239158500,5.835158447265625,1.06671142578125,-0.119842529296875,-0.0546417236328125
1773258452249170400,5.84517041015625,1.091522216796875,-0.1167755126953125,-0.082794189453125
1773258452259182600,5.8551826171875,1.0993194580078125,-0.12432861328125,-0.1009063720703125
1773258452269195500,5.865195556640625,1.11907958984375,-0.1390838623046875,-0.110198974609375
1773258452279207700,5.875207763671875,1.145172119140625,-0.14166259765625,-0.130157470703125
1773258452289219600,5.885219482421875,1.1638031005859375,-0.1320343017578125,-0.1620025634765625
1773258452299232800,5.895232666015625,1.170654296875,-0.12548828125,-0.2080841064453125
1773258452309244700,5.90524462890625,1.1713409423828125,-0.119110107421875,-0.253173828125
1773258452319257900,5.9152578125,1.1832275390625,-0.1006317138671875,-0.283966064453125
1773258452329269800,5.925269775390625,1.2050018310546875,-0.0681304931640625,-0.30938720703125
1773258452339281700,5.93528173828125,1.2169342041015625,-0.0386810302734375,-0.32513427734375
1773258452349294600,5.945294677734375,1.2151641845703125,-0.0103607177734375,-0.336181640625
1773258452359306500,5.955306396484375,1.1935272216796875,0.01361083984375,-0.3388824462890625
1773258452369318700,5.965318603515625,1.1649627685546875,0.03564453125,-0.3589935302734375
1773258452379331600,5.97533154296875,1.12225341796875,0.0461578369140625,-0.39263916015625
1773258452389343700,5.98534375,1.0907745361328125,0.0680084228515625,-0.436065673828125
1773258452399355600,5.995355712890625,1.0560302734375,0.08673095703125,-0.4435882568359375
1773258452409368800,6.005368896484375,1.0352325439453125,0.07891845703125,-0.434539794921875
1773258452419380700,6.015380615234375,1.0047607421875,0.05474853515625,-0.4442138671875
1773258452429393400,6.025393310546875,0.965057373046875,0.0253143310546875,-0.4532623291015625
1773258452439405600,6.035405517578125,0.93585205078125,0.0006561279296875,-0.4489898681640625
1773258452449417500,6.04541748046875,0.90618896484375,-0.0224609375,-0.4405975341796875
1773258452459430700,6.0554306640625,0.8741607666015625,-0.0451812744140625,-0.4358978271484375
1773258452469442600,6.065442626953125,0.845458984375,-0.0582733154296875,-0.423797607421875
1773258452479454700,6.075454833984375,0.8302001953125,-0.0607452392578125,-0.3918304443359375
1773258452489467600,6.085467529296875,0.8460845947265625,-0.0724945068359375,-0.35894775390625
1773258452499479600,6.0954794921875,0.8546905517578125,-0.079620361328125,-0.3641204833984375
1773258452509492700,6.10549267578125,0.844696044921875,-0.0929107666015625,-0.39630126953125
1773258452519504600,6.115504638671875,0.8341217041015625,-0.105438232421875,-0.3966064453125
1773258452529516800,6.125516845703125,0.84710693359375,-0.1267852783203125,-0.3166656494140625
1773258452539529500,6.135529541015625,0.868682861328125,-0.141143798828125,-0.2313079833984375
1773258452549541600,6.145541748046875,0.8978118896484375,-0.1330108642578125,-0.204864501953125
1773258452559553500,6.155553466796875,0.931243896484375,-0.1216278076171875,-0.2123260498046875
1773258452569566700,6.165566650390625,0.93798828125,-0.10211181640625,-0.20965576171875
1773258452579578600,6.17557861328125,0.9250640869140625,-0.0822906494140625,-0.195709228515625
1773258452589590500,6.185590576171875,0.9172210693359375,-0.0857391357421875,-0.1888427734375
1773258452599603700,6.195603759765625,0.9305572509765625,-0.105865478515625,-0.1907196044921875
1773258452609615600,6.20561572265625,0.9172515869140625,-0.108245849609375,-0.1590728759765625
1773258452619628500,6.215628662109375,0.8922882080078125,-0.108612060546875,-0.108856201171875
1773258452629640700,6.225640625,0.8726654052734375,-0.1122283935546875,-0.0717926025390625
1773258452639652600,6.235652587890625,0.8799591064453125,-0.10736083984375,-0.057586669921875
1773258452649665500,6.24566552734375,0.8978271484375,-0.1000518798828125,-0.0748291015625
1773258452659677700,6.255677734375,0.91680908203125,-0.1068115234375,-0.096221923828125
1773258452669689600,6.265689697265625,0.9292449951171875,-0.121826171875,-0.0883941650390625
1773258452679702800,6.275702880859375,0.9002532958984375,-0.1161651611328125,-0.0752410888671875
1773258452689714700,6.285714599609375,0.846527099609375,-0.1067657470703125,-0.0854949951171875
1773258452699727600,6.2957275390625,0.7972564697265625,-0.11993408203125,-0.120513916015625
1773258452709739800,6.30573974609375,0.7637939453125,-0.1403656005859375,-0.1586761474609375
1773258452719751700,6.315751708984375,0.7577056884765625,-0.1592864990234375,-0.1745147705078125
1773258452729764600,6.3257646484375,0.7620849609375,-0.1757354736328125,-0.1614990234375
1773258452739776500,6.335776611328125,0.7668304443359375,-0.1909637451171875,-0.1378326416015625
1773258452749788700,6.34578857421875,0.78717041015625,-0.2144775390625,-0.1098175048828125
1773258452759801600,6.355801513671875,0.8305816650390625,-0.2484283447265625,-0.0849456787109375
1773258452769813500,6.3658134765625,0.84710693359375,-0.27862548828125,-0.0704803466796875
1773258452779825700,6.37582568359375,0.822479248046875,-0.313079833984375,-0.089324951171875
1773258452789838600,6.385838623046875,0.7845611572265625,-0.3533477783203125,-0.126953125
1773258452799850800,6.395850830078125,0.7518310546875,-0.388031005859375,-0.179473876953125
1773258452809863700,6.40586376953125,0.7261199951171875,-0.404388427734375,-0.2373046875
1773258452819875800,6.415875732421875,0.7189788818359375,-0.415496826171875,-0.2864532470703125
1773258452829887700,6.4258876953125,0.7298583984375,-0.430084228515625,-0.3133544921875
1773258452839900700,6.435900634765625,0.7541351318359375,-0.433013916015625,-0.3163604736328125
1773258452849912600,6.44591259765625,0.78472900390625,-0.4210357666015625,-0.2964630126953125
1773258452859924500,6.455924560546875,0.82977294921875,-0.4106903076171875,-0.2687835693359375
1773258452869937700,6.465937744140625,0.889190673828125,-0.3926239013671875,-0.2462615966796875
1773258452879949600,6.475949462890625,0.93389892578125,-0.3624267578125,-0.2277374267578125
1773258452889961700,6.485961669921875,0.97125244140625,-0.3307342529296875,-0.223602294921875
1773258452899974700,6.495974609375,1.013275146484375,-0.300689697265625,-0.231719970703125
1773258452909986800,6.50598681640625,1.044403076171875,-0.2700042724609375,-0.24359130859375
1773258452919999500,6.51599951171875,1.0648651123046875,-0.2414398193359375,-0.2621002197265625
1773258452930011600,6.52601171875,1.0736541748046875,-0.2238006591796875,-0.2823638916015625
1773258452940023600,6.5360234375,1.0677490234375,-0.2105712890625,-0.2865447998046875
1773258452950036700,6.54603662109375,1.05450439453125,-0.206146240234375,-0.26678466796875
1773258452960048600,6.556048583984375,1.0438385009765625,-0.2112274169921875,-0.23876953125
1773258452970060500,6.566060546875,1.028656005859375,-0.21856689453125,-0.2156829833984375
1773258452980073700,6.57607373046875,1.0191650390625,-0.23431396484375,-0.197723388671875
1773258452990085600,6.586085693359375,1.0134124755859375,-0.2436065673828125,-0.19366455078125
1773258453000098800,6.596098876953125,1.0034027099609375,-0.2548065185546875,-0.1988067626953125
1773258453010110700,6.60611083984375,1.00030517578125,-0.27410888671875,-0.2094879150390625
1773258453020123000,6.616122802734375,0.98065185546875,-0.2895965576171875,-0.2191009521484375
1773258453030135600,6.626135498046875,0.952423095703125,-0.305755615234375,-0.223236083984375
1773258453040147500,6.6361474609375,0.93798828125,-0.323486328125,-0.2218780517578125
1773258453050159600,6.64615966796875,0.9248046875,-0.34356689453125,-0.216766357421875
1773258453060172500,6.656172607421875,0.911712646484375,-0.3611297607421875,-0.2046356201171875
1773258453070184700,6.666184814453125,0.9010162353515625,-0.3814849853515625,-0.188201904296875
1773258453080198400,6.676198486328125,0.8917999267578125,-0.400787353515625,-0.180694580078125
1773258453090210600,6.68621044921875,0.879180908203125,-0.4120025634765625,-0.1905670166015625
1773258453100222500,6.696222412109375,0.87322998046875,-0.4169769287109375,-0.202392578125
1773258453110235400,6.7062353515625,0.8725738525390625,-0.4190216064453125,-0.205108642578125
1773258453120247300,6.716247314453125,0.8697662353515625,-0.41644287109375,-0.2086029052734375
1773258453130259500,6.726259521484375,0.8599090576171875,-0.413970947265625,-0.213592529296875
1773258453140272400,6.7362724609375,0.8591156005859375,-0.4137115478515625,-0.2207794189453125
1773258453150284300,6.7462841796875,0.864501953125,-0.403594970703125,-0.2295684814453125
1773258453160297500,6.75629736328125,0.86724853515625,-0.3867950439453125,-0.2308807373046875
1773258453170309400,6.766309326171875,0.868682861328125,-0.3718719482421875,-0.2305145263671875
1773258453180321500,6.776321533203125,0.8765716552734375,-0.36492919921875,-0.2310943603515625
1773258453190334200,6.786334228515625,0.8800201416015625,-0.3590087890625,-0.2210540771484375
1773258453200346400,6.796346435546875,0.874603271484375,-0.360687255859375,-0.205535888671875
1773258453210358300,6.806358154296875,0.8738250732421875,-0.3631591796875,-0.208465576171875
1773258453220371500,6.816371337890625,0.8756256103515625,-0.3579254150390625,-0.2163238525390625
1773258453230383400,6.82638330078125,0.87548828125,-0.35162353515625,-0.227142333984375
1773258453240395300,6.836395263671875,0.8762359619140625,-0.3503570556640625,-0.2427215576171875
1773258453250408400,6.846408447265625,0.8679962158203125,-0.349212646484375,-0.24884033203125
1773258453260420400,6.85642041015625,0.8634033203125,-0.3513031005859375,-0.246002197265625
1773258453270433500,6.86643359375,0.8674468994140625,-0.356719970703125,-0.2418212890625
1773258453280445400,6.876445556640625,0.8747406005859375,-0.365447998046875,-0.2369842529296875
1773258453290457600,6.88645751953125,0.876739501953125,-0.3692626953125,-0.2327423095703125
1773258453300470300,6.89647021484375,0.8713226318359375,-0.3762664794921875,-0.2326202392578125
1773258453310482400,6.906482421875,0.8662109375,-0.387786865234375,-0.2271575927734375
1773258453320494300,6.916494384765625,0.859771728515625,-0.3942718505859375,-0.21630859375
1773258453330507500,6.926507568359375,0.8583831787109375,-0.3909759521484375,-0.20989990234375
1773258453340519400,6.93651953125,0.8650970458984375,-0.3838653564453125,-0.2054290771484375
1773258453350532400,6.946532470703125,0.8726043701171875,-0.3780670166015625,-0.2017059326171875
1773258453360544500,6.95654443359375,0.880645751953125,-0.370391845703125,-0.200531005859375
1773258453370556400,6.966556396484375,0.8842926025390625,-0.36773681640625,-0.2018280029296875
1773258453380569300,6.9765693359375,0.8833465576171875,-0.367767333984375,-0.2006683349609375
1773258453390581200,6.986581298828125,0.8815155029296875,-0.372589111328125,-0.1979827880859375
1773258453400593400,6.996593505859375,0.8817596435546875,-0.381927490234375,-0.2004241943359375
1773258453410606300,7.0066064453125,0.88470458984375,-0.389739990234375,-0.20037841796875
1773258453420618200,7.0166181640625,0.8840789794921875,-0.394195556640625,-0.1937255859375
1773258453430631400,7.02663134765625,0.881927490234375,-0.3990325927734375,-0.19146728515625
1773258453440643300,7.036643310546875,0.88946533203125,-0.41033935546875,-0.189300537109375
1773258453450655500,7.046655517578125,0.89227294921875,-0.4132080078125,-0.1827392578125
1773258453460668400,7.05666845703125,0.8922576904296875,-0.4157867431640625,-0.1765594482421875
1773258453470680600,7.0666806640625,0.8939208984375,-0.42071533203125,-0.172271728515625
1773258453480692500,7.0766923828125,0.8910980224609375,-0.4219207763671875,-0.1663818359375
1773258453490705400,7.086705322265625,0.887664794921875,-0.4266357421875,-0.16534423828125
1773258453500717300,7.09671728515625,0.886199951171875,-0.43292236328125,-0.1698150634765625
1773258453510730500,7.10673046875,0.89111328125,-0.4365997314453125,-0.17333984375
1773258453520742400,7.116742431640625,0.889251708984375,-0.436737060546875,-0.1748199462890625
1773258453530754300,7.12675439453125,0.88409423828125,-0.435089111328125,-0.178497314453125
1773258453540767500,7.136767578125,0.8872528076171875,-0.431793212890625,-0.1806182861328125
1773258453550779400,7.146779296875,0.89239501953125,-0.4286956787109375,-0.1796722412109375
1773258453560791600,7.15679150390625,0.8964691162109375,-0.42193603515625,-0.1749420166015625
1773258453570804500,7.166804443359375,0.897857666015625,-0.416046142578125,-0.1671295166015625
1773258453580816400,7.17681640625,0.9025726318359375,-0.414306640625,-0.1610565185546875
1773258453590828500,7.18682861328125,0.904144287109375,-0.414886474609375,-0.15838623046875
1773258453600841200,7.19684130859375,0.90106201171875,-0.4110260009765625,-0.1636199951171875
1773258453610853400,7.206853271484375,0.894500732421875,-0.4133148193359375,-0.176025390625
1773258453620866300,7.2168662109375,0.8915557861328125,-0.4171142578125,-0.183624267578125
1773258453630878500,7.22687841796875,0.8895263671875,-0.41778564453125,-0.18475341796875
1773258453640890400,7.236890380859375,0.890472412109375,-0.4136810302734375,-0.187255859375
1773258453650903600,7.246903564453125,0.89111328125,-0.41119384765625,-0.1895599365234375
1773258453660915500,7.25691552734375,0.8963165283203125,-0.411529541015625,-0.1919097900390625
1773258453670927400,7.26692724609375,0.899627685546875,-0.4069671630859375,-0.191741943359375
1773258453680940300,7.276940185546875,0.8997039794921875,-0.40045166015625,-0.195037841796875
1773258453690952200,7.2869521484375,0.9051361083984375,-0.399200439453125,-0.1949310302734375
1773258453700965400,7.29696533203125,0.90216064453125,-0.3946533203125,-0.18939208984375
1773258453710977300,7.306977294921875,0.894012451171875,-0.39068603515625,-0.186553955078125
1773258453720989400,7.316989501953125,0.892242431640625,-0.3927154541015625,-0.1834869384765625
1773258453731002400,7.32700244140625,0.8908843994140625,-0.3958282470703125,-0.1843719482421875
1773258453741014500,7.3370146484375,0.88739013671875,-0.39935302734375,-0.194732666015625
1773258453751026400,7.3470263671875,0.8824462890625,-0.40093994140625,-0.20269775390625
1773258453761039600,7.35703955078125,0.876678466796875,-0.4028778076171875,-0.2045440673828125
1773258453771051500,7.367051513671875,0.8803558349609375,-0.4023284912109375,-0.206817626953125
1773258453781064400,7.377064453125,0.8867645263671875,-0.39898681640625,-0.2080535888671875
1773258453791076400,7.387076416015625,0.888916015625,-0.3924560546875,-0.206268310546875
1773258453801088300,7.397088134765625,0.8940887451171875,-0.38873291015625,-0.2077484130859375
1773258453811101400,7.407101318359375,0.89990234375,-0.38726806640625,-0.2087554931640625
1773258453821113300,7.41711328125,0.9004669189453125,-0.38494873046875,-0.20660400390625
1773258453831125500,7.42712548828125,0.903533935546875,-0.3847198486328125,-0.205810546875
1773258453841138400,7.437138427734375,0.904998779296875,-0.3862152099609375,-0.2044525146484375
1773258453851150600,7.447150634765625,0.8984222412109375,-0.3838348388671875,-0.2029571533203125
1773258453861163300,7.457163330078125,0.8974609375,-0.3858642578125,-0.1982574462890625
1773258453871175200,7.467175048828125,0.8998870849609375,-0.389190673828125,-0.1895294189453125
1773258453881187300,7.477187255859375,0.8982391357421875,-0.39019775390625,-0.18377685546875
1773258453891200300,7.4872001953125,0.8992462158203125,-0.394775390625,-0.1864166259765625
1773258453901212400,7.49721240234375,0.89990234375,-0.3986358642578125,-0.184906005859375
1773258453911224300,7.507224365234375,0.89617919921875,-0.39959716796875,-0.17974853515625
1773258453921237500,7.517237548828125,0.8910980224609375,-0.39990234375,-0.174163818359375
1773258453931249400,7.52724951171875,0.8893280029296875,-0.40362548828125,-0.16827392578125
1773258453941262600,7.5372626953125,0.8849639892578125,-0.4058074951171875,-0.16796875
1773258453951274500,7.5472744140625,0.87603759765625,-0.4050140380859375,-0.1720428466796875
1773258453961286400,7.557286376953125,0.8699493408203125,-0.4068145751953125,-0.1752471923828125
1773258453971299300,7.56729931640625,0.86810302734375,-0.4078216552734375,-0.1776885986328125
1773258453981311200,7.577311279296875,0.8708038330078125,-0.4095306396484375,-0.178863525390625
1773258453991323400,7.587323486328125,0.87371826171875,-0.4109344482421875,-0.17706298828125
1773258454001336300,7.59733642578125,0.879730224609375,-0.4119873046875,-0.17315673828125
1773258454011348500,7.607348388671875,0.881927490234375,-0.4130401611328125,-0.1701202392578125
1773258454021361400,7.617361328125,0.886322021484375,-0.4149169921875,-0.16876220703125
1773258454031373600,7.62737353515625,0.8856048583984375,-0.4157562255859375,-0.163909912109375
1773258454041385500,7.637385498046875,0.88470458984375,-0.41790771484375,-0.157135009765625
1773258454051398400,7.6473984375,0.8809051513671875,-0.422149658203125,-0.1542510986328125
1773258454061410300,7.657410400390625,0.88128662109375,-0.4289093017578125,-0.159698486328125
1773258454071422500,7.66742236328125,0.8795166015625,-0.43243408203125,-0.166259765625
1773258454081435400,7.677435302734375,0.879730224609375,-0.4345550537109375,-0.17156982421875
1773258454091447300,7.687447265625,0.882232666015625,-0.43634033203125,-0.172576904296875
1773258454101459500,7.69745947265625,0.888885498046875,-0.4383544921875,-0.1707000732421875
1773258454111472400,7.707472412109375,0.896240234375,-0.43524169921875,-0.168792724609375
1773258454121484500,7.717484619140625,0.905059814453125,-0.42877197265625,-0.1641387939453125
1773258454131497500,7.72749755859375,0.9120941162109375,-0.421783447265625,-0.1549835205078125
1773258454141509600,7.737509521484375,0.9191741943359375,-0.4170379638671875,-0.148040771484375
1773258454151521500,7.747521484375,0.93035888671875,-0.4108734130859375,-0.1511077880859375
1773258454161534500,7.757534423828125,0.935791015625,-0.404449462890625,-0.1610107421875
1773258454171546400,7.76754638671875,0.943817138671875,-0.3985137939453125,-0.1703033447265625
1773258454181558300,7.777558349609375,0.9455413818359375,-0.3917999267578125,-0.1771392822265625
1773258454191571500,7.787571533203125,0.9447174072265625,-0.3848724365234375,-0.1787261962890625
1773258454201583400,7.797583251953125,0.9410858154296875,-0.3823394775390625,-0.1786346435546875
1773258454211596500,7.807596435546875,0.9393310546875,-0.37896728515625,-0.1754913330078125
1773258454221608400,7.8176083984375,0.9361419677734375,-0.37322998046875,-0.1676025390625
1773258454231620600,7.82762060546875,0.92718505859375,-0.3690643310546875,-0.160003662109375
1773258454241633500,7.837633544921875,0.92169189453125,-0.3697662353515625,-0.1580352783203125
1773258454251645400,7.8476455078125,0.9173126220703125,-0.368072509765625,-0.1641387939453125
1773258454261657600,7.85765771484375,0.912200927734375,-0.36468505859375,-0.1716461181640625
1773258454271670300,7.867670166015625,0.9030914306640625,-0.36260986328125,-0.1765899658203125
1773258454281682400,7.877682373046875,0.8932342529296875,-0.3659820556640625,-0.1785430908203125
1773258454291695400,7.8876953125,0.886627197265625,-0.3717193603515625,-0.1782684326171875
1773258454301707500,7.89770751953125,0.8802032470703125,-0.379974365234375,-0.1732940673828125
1773258454311719400,7.907719482421875,0.8712921142578125,-0.38525390625,-0.1677093505859375
1773258454321732600,7.917732666015625,0.8648223876953125,-0.392730712890625,-0.16571044921875
1773258454331744500,7.92774462890625,0.8633575439453125,-0.4015655517578125,-0.1664276123046875
1773258454341756400,7.93775634765625,0.867767333984375,-0.4080352783203125,-0.17303466796875
1773258454351769300,7.947769287109375,0.8746490478515625,-0.412109375,-0.184356689453125
1773258454361781200,7.95778125,0.8779296875,-0.41790771484375,-0.1931610107421875
1773258454371794400,7.96779443359375,0.8817138671875,-0.4214324951171875,-0.19073486328125
1773258454381806300,7.977806396484375,0.885650634765625,-0.4185791015625,-0.1861724853515625
1773258454391818500,7.987818603515625,0.885528564453125,-0.413116455078125,-0.180084228515625
1773258454401831400,7.99783154296875,0.8890838623046875,-0.410247802734375,-0.177734375
1773258454411843600,8.007843505859375,0.8861846923828125,-0.416656494140625,-0.1743621826171875
1773258454421855500,8.01785546875,0.8803863525390625,-0.4220733642578125,-0.16656494140625
1773258454431868700,8.02786865234375,0.86846923828125,-0.4334564208984375,-0.16033935546875
1773258454441880600,8.037880615234375,0.85906982421875,-0.451202392578125,-0.158050537109375
1773258454451893200,8.047893310546876,0.8428497314453125,-0.4691314697265625,-0.153900146484375
1773258454461905400,8.057905517578124,0.8321685791015625,-0.4856414794921875,-0.1495208740234375
1773258454471917300,8.067917236328125,0.8270263671875,-0.4947967529296875,-0.145904541015625
1773258454481930500,8.077930419921875,0.8317108154296875,-0.4986724853515625,-0.140594482421875
1773258454491942400,8.0879423828125,0.8441925048828125,-0.5006561279296875,-0.141204833984375
1773258454501954600,8.09795458984375,0.8553619384765625,-0.4947967529296875,-0.1458587646484375
1773258454511967500,8.107967529296875,0.8732147216796875,-0.4838409423828125,-0.1504669189453125
1773258454521979400,8.1179794921875,0.889923095703125,-0.4667205810546875,-0.1561126708984375
1773258454531992300,8.127992431640624,0.9017181396484375,-0.4452972412109375,-0.159820556640625
1773258454542004200,8.138004150390625,0.910400390625,-0.42901611328125,-0.161041259765625
1773258454552016400,8.148016357421875,0.91253662109375,-0.416473388671875,-0.1594085693359375
1773258454562029300,8.158029296875,0.9045257568359375,-0.4077301025390625,-0.153533935546875
1773258454572041500,8.16804150390625,0.8911285400390625,-0.408599853515625,-0.1480712890625
1773258454582053400,8.178053466796875,0.8729095458984375,-0.41815185546875,-0.1510467529296875
1773258454592066600,8.188066650390626,0.8525238037109375,-0.42877197265625,-0.156768798828125
1773258454602078500,8.198078369140624,0.834075927734375,-0.4426116943359375,-0.161102294921875
1773258454612091600,8.208091552734375,0.8196258544921875,-0.4552459716796875,-0.1632843017578125
1773258454622103600,8.218103515625,0.8172607421875,-0.4650115966796875,-0.1667938232421875
1773258454632115500,8.228115478515624,0.831390380859375,-0.4694976806640625,-0.1714324951171875
1773258454642128400,8.23812841796875,0.8609466552734375,-0.4648895263671875,-0.1721954345703125
1773258454652140300,8.248140380859375,0.890716552734375,-0.453826904296875,-0.17352294921875
1773258454662152400,8.25815234375,0.915679931640625,-0.439453125,-0.1747894287109375
1773258454672165400,8.268165283203125,0.92999267578125,-0.4283905029296875,-0.1731719970703125
1773258454682177500,8.278177490234375,0.9349365234375,-0.413543701171875,-0.1692962646484375
1773258454692190500,8.2881904296875,0.9368438720703125,-0.398529052734375,-0.159515380859375
1773258454702202600,8.29820263671875,0.941070556640625,-0.3906707763671875,-0.15081787109375
1773258454712214500,8.308214599609375,0.9446868896484375,-0.387908935546875,-0.1468048095703125
1773258454722227500,8.3182275390625,0.9471893310546875,-0.3867340087890625,-0.146240234375
1773258454732239400,8.3282392578125,0.939361572265625,-0.3897552490234375,-0.1448974609375
1773258454742251500,8.33825146484375,0.9310302734375,-0.3939361572265625,-0.1465301513671875
1773258454752264400,8.348264404296875,0.91424560546875,-0.4032745361328125,-0.1506805419921875
1773258454762276400,8.3582763671875,0.8928375244140625,-0.41693115234375,-0.15277099609375
1773258454772289500,8.36828955078125,0.8759002685546875,-0.4353790283203125,-0.15557861328125
1773258454782301400,8.378301513671875,0.8607330322265625,-0.4492340087890625,-0.15447998046875
1773258454792313300,8.388313232421876,0.8490753173828125,-0.4594879150390625,-0.1544036865234375
1773258454802326500,8.398326416015625,0.8370513916015625,-0.469635009765625,-0.1555023193359375
1773258454812338400,8.40833837890625,0.8271484375,-0.47662353515625,-0.1542510986328125
1773258454822350600,8.4183505859375,0.8151092529296875,-0.4844512939453125,-0.1507720947265625
1773258454832363300,8.42836328125,0.80731201171875,-0.4936370849609375,-0.1515350341796875
1773258454842375400,8.43837548828125,0.7985076904296875,-0.498077392578125,-0.1521759033203125
1773258454852388400,8.448388427734375,0.80169677734375,-0.5046539306640625,-0.15594482421875
1773258454862400500,8.458400390625,0.8061981201171875,-0.5065460205078125,-0.154327392578125
1773258454872412400,8.468412353515625,0.8128662109375,-0.5023040771484375,-0.1504669189453125
1773258454882425600,8.478425537109375,0.8235015869140625,-0.50286865234375,-0.1425018310546875
1773258454892437500,8.4884375,0.8329010009765625,-0.50537109375,-0.1312255859375
1773258454902449400,8.498449462890624,0.84521484375,-0.5066986083984375,-0.1206512451171875
1773258454912462600,8.508462646484375,0.874420166015625,-0.5058135986328125,-0.0943756103515625
1773258454922474500,8.518474609375,0.9039764404296875,-0.493316650390625,-0.0519256591796875
1773258454932487400,8.5284873046875,0.9264984130859375,-0.4697723388671875,-0.012847900390625
1773258454942499300,8.538499267578125,0.954742431640625,-0.4443511962890625,0.0063629150390625
1773258454952511500,8.548511474609375,0.9765777587890625,-0.4163665771484375,0.0107421875
1773258454962524400,8.5585244140625,0.9907684326171875,-0.393096923828125,-0.0007781982421875
1773258454972536300,8.568536376953125,0.9951171875,-0.3714141845703125,-0.01361083984375
1773258454982548500,8.578548583984375,0.991943359375,-0.3537445068359375,-0.02685546875
1773258454992561400,8.5885615234375,0.981658935546875,-0.3437042236328125,-0.0423583984375
1773258455002573600,8.598573486328124,0.9640655517578125,-0.345458984375,-0.063385009765625
1773258455012586200,8.608586181640625,0.9430389404296875,-0.3540496826171875,-0.0831146240234375
1773258455022598400,8.618598388671876,0.9236602783203125,-0.363983154296875,-0.0922393798828125
1773258455032610300,8.6286103515625,0.909027099609375,-0.374847412109375,-0.0983123779296875
1773258455042623500,8.63862353515625,0.8906707763671875,-0.383697509765625,-0.1044158935546875
1773258455052635400,8.648635498046875,0.8809967041015625,-0.396453857421875,-0.10675048828125
1773258455062647300,8.658647216796876,0.876220703125,-0.4111480712890625,-0.104949951171875
1773258455072660500,8.668660400390625,0.87060546875,-0.426666259765625,-0.10345458984375
1773258455082672400,8.67867236328125,0.8526763916015625,-0.437957763671875,-0.1059417724609375
1773258455092685600,8.688685546875,0.83758544921875,-0.44659423828125,-0.10711669921875
1773258455102697500,8.698697509765625,0.8223419189453125,-0.45135498046875,-0.1072540283203125
1773258455112709400,8.70870947265625,0.80706787109375,-0.4474945068359375,-0.10333251953125
1773258455122722300,8.718722412109376,0.7928924560546875,-0.4456329345703125,-0.100311279296875
1773258455132734200,8.728734130859374,0.786102294921875,-0.4429473876953125,-0.0923004150390625
1773258455142746400,8.738746337890625,0.781341552734375,-0.4360198974609375,-0.0770263671875
1773258455152759300,8.74875927734375,0.772674560546875,-0.4219970703125,-0.060089111328125
1773258455162771500,8.758771484375,0.7622222900390625,-0.4105072021484375,-0.0478363037109375
1773258455172784400,8.768784423828125,0.748687744140625,-0.399017333984375,-0.0460662841796875
1773258455182796500,8.778796630859375,0.72637939453125,-0.3861846923828125,-0.05291748046875
1773258455192808400,8.788808349609376,0.70989990234375,-0.3834381103515625,-0.0653228759765625
1773258455202821400,8.7988212890625,0.70758056640625,-0.3930511474609375,-0.082122802734375
1773258455212833300,8.808833251953125,0.7134857177734375,-0.4039459228515625,-0.09759521484375
1773258455222845400,8.818845458984375,0.7213134765625,-0.41009521484375,-0.095703125
1773258455232858400,8.8288583984375,0.7305450439453125,-0.4129180908203125,-0.0849609375
1773258455242870300,8.838870361328125,0.7392578125,-0.41064453125,-0.0803070068359375
1773258455252883500,8.848883544921875,0.7447052001953125,-0.4121551513671875,-0.0737152099609375
1773258455262895400,8.858895263671876,0.7525482177734375,-0.4141845703125,-0.06964111328125
1773258455272907500,8.868907470703125,0.7593536376953125,-0.4150390625,-0.0675811767578125
1773258455282920400,8.87892041015625,0.76300048828125,-0.4159088134765625,-0.0708770751953125
1773258455292932600,8.8889326171875,0.7700042724609375,-0.4161529541015625,-0.081085205078125
1773258455302944500,8.898944580078124,0.77740478515625,-0.414093017578125,-0.09521484375
1773258455312957200,8.908957275390625,0.77740478515625,-0.41131591796875,-0.10101318359375
1773258455322969300,8.91896923828125,0.7881927490234375,-0.4093780517578125,-0.1110382080078125
1773258455332982300,8.928982177734374,0.8128662109375,-0.411102294921875,-0.11297607421875
1773258455342994400,8.938994384765625,0.8388214111328125,-0.40887451171875,-0.0847930908203125
1773258455353006300,8.94900634765625,0.860595703125,-0.4008026123046875,-0.0510711669921875
1773258455363019500,8.95901953125,0.8711395263671875,-0.393402099609375,-0.0351104736328125
1773258455373031400,8.969031494140625,0.865966796875,-0.4006500244140625,-0.0440826416015625
1773258455383043300,8.979043212890625,0.86083984375,-0.415771484375,-0.0546875
1773258455393056500,8.989056396484376,0.851654052734375,-0.4210662841796875,-0.05291748046875
1773258455403068400,8.999068359375,0.8525848388671875,-0.4324951171875,-0.056060791015625
1773258455413081300,9.009081298828125,0.8708648681640625,-0.4443511962890625,-0.06219482421875
1773258455423093200,9.01909326171875,0.878662109375,-0.445068359375,-0.0639190673828125
1773258455433105400,9.02910546875,0.8819580078125,-0.44683837890625,-0.0727691650390625
1773258455443118300,9.039118408203125,0.8936767578125,-0.4469146728515625,-0.0873260498046875
1773258455453130500,9.049130615234375,0.9137115478515625,-0.439056396484375,-0.08349609375
1773258455463142400,9.059142333984376,0.9402618408203125,-0.4395751953125,-0.055633544921875
1773258455473155600,9.069155517578125,0.9725799560546875,-0.447540283203125,-0.018280029296875
1773258455483167500,9.07916748046875,1.0089111328125,-0.447540283203125,0.004791259765625
1773258455493180400,9.089180419921876,1.038238525390625,-0.442901611328125,0.025238037109375
1773258455503192300,9.0991923828125,1.055938720703125,-0.436126708984375,0.0391845703125
1773258455513204200,9.109204345703125,1.0691375732421875,-0.42889404296875,0.0436248779296875
1773258455523217400,9.119217529296876,1.0758514404296875,-0.419708251953125,0.0412750244140625
1773258455533229300,9.129229248046874,1.0756072998046875,-0.4169921875,0.0381927490234375
1773258455543241500,9.139241455078125,1.073699951171875,-0.4250030517578125,0.04034423828125
1773258455553254400,9.14925439453125,1.0720672607421875,-0.4481658935546875,0.04290771484375
1773258455563266600,9.1592666015625,1.0631103515625,-0.4578857421875,0.0456085205078125
1773258455573279500,9.169279541015625,1.04638671875,-0.4647979736328125,0.047515869140625
1773258455583291400,9.17929150390625,1.0403594970703125,-0.4753570556640625,0.043182373046875
1773258455593303600,9.189303466796876,1.039154052734375,-0.4774932861328125,0.0411834716796875
1773258455603316200,9.199316162109374,1.0384979248046875,-0.467926025390625,0.0424652099609375
1773258455613328400,9.209328369140625,1.0433807373046875,-0.459716796875,0.05157470703125
1773258455623340300,9.21934033203125,1.0594635009765625,-0.4515228271484375,0.06646728515625
1773258455633353500,9.229353515625,1.072357177734375,-0.4376068115234375,0.0875091552734375
1773258455643365400,9.239365478515625,1.08087158203125,-0.43328857421875,0.1020355224609375
1773258455653378600,9.249378662109375,1.0813446044921875,-0.4333648681640625,0.11297607421875
1773258455663390500,9.259390380859376,1.07489013671875,-0.4308319091796875,0.1223907470703125
1773258455673402400,9.26940234375,1.062255859375,-0.4245758056640625,0.12506103515625
1773258455683415300,9.279415283203125,1.05096435546875,-0.421417236328125,0.122314453125
1773258455693427200,9.28942724609375,1.0449981689453125,-0.4201812744140625,0.12677001953125
1773258455703439400,9.299439453125,1.0314483642578125,-0.4108123779296875,0.131195068359375
1773258455713452300,9.309452392578125,1.0154571533203125,-0.4044647216796875,0.1259307861328125
1773258455723464400,9.31946435546875,1.0039215087890625,-0.40350341796875,0.11199951171875
1773258455733476400,9.329476318359376,0.9916839599609375,-0.4012908935546875,0.104278564453125
1773258455743489500,9.339489501953125,0.9775848388671875,-0.39849853515625,0.0983428955078125
1773258455753501400,9.34950146484375,0.9642791748046875,-0.4034576416015625,0.090576171875
1773258455763514400,9.359514404296876,0.9556121826171875,-0.4057769775390625,0.085784912109375
1773258455773526500,9.369526611328125,0.9495391845703125,-0.4078369140625,0.0908660888671875
1773258455783538400,9.379538330078125,0.9407958984375,-0.4056854248046875,0.099517822265625
1773258455793551400,9.38955126953125,0.931304931640625,-0.4013671875,0.1001129150390625
1773258455803563300,9.399563232421874,0.917572021484375,-0.400909423828125,0.0904693603515625
1773258455813576400,9.409576416015625,0.9031829833984375,-0.40576171875,0.0846710205078125
1773258455823588400,9.41958837890625,0.893951416015625,-0.4055023193359375,0.0813751220703125
1773258455833600300,9.429600341796874,0.8830108642578125,-0.406036376953125,0.0813140869140625
1773258455843613400,9.439613525390625,0.8734893798828125,-0.4137115478515625,0.0780792236328125
1773258455853625300,9.449625244140625,0.86810302734375,-0.42364501953125,0.0753936767578125
1773258455863637500,9.459637451171876,0.8608245849609375,-0.4324798583984375,0.0826263427734375
1773258455873650400,9.469650390625,0.855316162109375,-0.442657470703125,0.096099853515625
1773258455883662300,9.479662353515625,0.8520050048828125,-0.4500732421875,0.1031036376953125
1773258455893675300,9.48967529296875,0.84649658203125,-0.455352783203125,0.1080780029296875
1773258455903687400,9.4996875,0.8465728759765625,-0.46173095703125,0.1153717041015625
1773258455913699300,9.50969921875,0.8488922119140625,-0.4685821533203125,0.1279296875
1773258455923712500,9.51971240234375,0.8479766845703125,-0.4688568115234375,0.142364501953125
1773258455933724400,9.529724365234374,0.844268798828125,-0.4708709716796875,0.1483612060546875
1773258455943736300,9.539736328125,0.83935546875,-0.475830078125,0.1421051025390625
1773258455953749500,9.54974951171875,0.8343505859375,-0.4803314208984375,0.1349334716796875
1773258455963761400,9.559761474609376,0.8296356201171875,-0.481048583984375,0.12945556640625
1773258455973774300,9.5697744140625,0.8252410888671875,-0.479949951171875,0.1308746337890625
1773258455983786200,9.5797861328125,0.8230438232421875,-0.4808197021484375,0.130767822265625
1773258455993798400,9.58979833984375,0.822418212890625,-0.48126220703125,0.1316680908203125
1773258456003811300,9.599811279296874,0.822967529296875,-0.476348876953125,0.1397552490234375
1773258456013823500,9.609823486328125,0.828338623046875,-0.475433349609375,0.1442718505859375
1773258456023835400,9.61983544921875,0.831207275390625,-0.4691925048828125,0.1465606689453125
1773258456033848300,9.629848388671874,0.83123779296875,-0.4662933349609375,0.1384429931640625
1773258456043860500,9.639860595703125,0.832061767578125,-0.4615478515625,0.1247711181640625
1773258456053872400,9.649872314453125,0.83856201171875,-0.457763671875,0.1107330322265625
1773258456063885600,9.659885498046876,0.8421173095703125,-0.4521484375,0.101898193359375
1773258456073897500,9.6698974609375,0.843017578125,-0.4493408203125,0.0963592529296875
1773258456083910100,9.67991015625,0.8501129150390625,-0.4548187255859375,0.092376708984375
1773258456093922300,9.68992236328125,0.852935791015625,-0.4571990966796875,0.0936431884765625
1773258456103934200,9.699934326171874,0.8619537353515625,-0.4574737548828125,0.094024658203125
1773258456113947400,9.709947509765625,0.870208740234375,-0.4602813720703125,0.0914154052734375
1773258456123959300,9.719959228515625,0.8718414306640625,-0.4624481201171875,0.0892181396484375
1773258456133972500,9.729972412109374,0.8760986328125,-0.466064453125,0.0872650146484375
1773258456143984400,9.739984375,0.87884521484375,-0.46612548828125,0.086029052734375
1773258456153996300,9.749996337890625,0.880126953125,-0.46099853515625,0.0858001708984375
1773258456164009200,9.76000927734375,0.882843017578125,-0.459716796875,0.0790863037109375
1773258456174021000,9.770021240234374,0.8884735107421875,-0.4534454345703125,0.0773162841796875
1773258456184033300,9.780033203125,0.8912506103515625,-0.44537353515625,0.075408935546875
1773258456194046200,9.790046142578126,0.891815185546875,-0.437774658203125,0.070648193359375
1773258456204058400,9.800058349609374,0.899871826171875,-0.4381561279296875,0.0661773681640625
1773258456214071300,9.8100712890625,0.908935546875,-0.4353179931640625,0.069915771484375
1773258456224083500,9.82008349609375,0.9084320068359375,-0.4321441650390625,0.075408935546875
1773258456234095400,9.830095458984376,0.912567138671875,-0.429656982421875,0.0697021484375
1773258456244108300,9.8401083984375,0.9161224365234375,-0.427703857421875,0.060699462890625
1773258456254120400,9.850120361328125,0.9239654541015625,-0.422149658203125,0.0594482421875
1773258456264132400,9.86013232421875,0.9251708984375,-0.41168212890625,0.056884765625
1773258456274145300,9.870145263671875,0.928924560546875,-0.4065093994140625,0.0493316650390625
1773258456284157200,9.8801572265625,0.93365478515625,-0.404205322265625,0.0475311279296875
1773258456294169300,9.89016943359375,0.9368438720703125,-0.3992156982421875,0.05523681640625
1773258456304182300,9.900182373046874,0.937255859375,-0.394805908203125,0.057220458984375
1773258456314194200,9.910194091796875,0.9392852783203125,-0.3968658447265625,0.0587615966796875
1773258456324207400,9.920207275390625,0.94061279296875,-0.3982696533203125,0.061309814453125
1773258456334219300,9.93021923828125,0.942047119140625,-0.3915863037109375,0.0648040771484375
1773258456344231400,9.9402314453125,0.9443206787109375,-0.3860015869140625,0.0613861083984375
1773258456354244400,9.950244384765625,0.941619873046875,-0.383697509765625,0.0575408935546875
1773258456364256300,9.96025634765625,0.9416351318359375,-0.383148193359375,0.0583343505859375
1773258456374269200,9.970269287109375,0.9394378662109375,-0.381500244140625,0.060699462890625
1773258456384281300,9.98028125,0.935791015625,-0.3801116943359375,0.0626220703125
1773258456394293200,9.990293212890625,0.9300537109375,-0.38067626953125,0.0587615966796875
1773258456404306400,10.000306396484374,0.9292755126953125,-0.378387451171875,0.0548858642578125
1773258456414318300,10.010318359375,0.9262847900390625,-0.3783416748046875,0.056549072265625
1773258456424330200,10.020330322265625,0.92254638671875,-0.3774566650390625,0.0582733154296875
1773258456434343400,10.030343505859374,0.9214630126953125,-0.380859375,0.0643463134765625
1773258456444355300,10.040355224609375,0.922271728515625,-0.3840179443359375,0.0765533447265625
1773258456454368300,10.0503681640625,0.921539306640625,-0.3852081298828125,0.0826568603515625
1773258456464380200,10.060380126953126,0.9152374267578125,-0.385467529296875,0.0821685791015625
1773258456474392300,10.070392333984374,0.909393310546875,-0.3890380859375,0.0730438232421875
1773258456484405200,10.0804052734375,0.905120849609375,-0.3881683349609375,0.067108154296875
1773258456494417400,10.09041748046875,0.9040374755859375,-0.3873443603515625,0.0724334716796875
1773258456504429300,10.10042919921875,0.9004364013671875,-0.3883209228515625,0.07403564453125
1773258456514442200,10.110442138671875,0.8989410400390625,-0.39080810546875,0.076995849609375
1773258456524454400,10.120454345703125,0.8968963623046875,-0.395599365234375,0.07666015625
1773258456534466300,10.13046630859375,0.892547607421875,-0.3971710205078125,0.07708740234375
1773258456544479500,10.1404794921875,0.88592529296875,-0.3980560302734375,0.07672119140625
1773258456554491400,10.150491455078125,0.882904052734375,-0.4041290283203125,0.075469970703125
1773258456564504300,10.16050439453125,0.8872222900390625,-0.409271240234375,0.0771331787109375
1773258456574516200,10.17051611328125,0.8865509033203125,-0.4068603515625,0.0830230712890625
1773258456584528100,10.180528076171875,0.8841705322265625,-0.40899658203125,0.08184814453125
1773258456594541300,10.190541259765626,0.882080078125,-0.4129638671875,0.0809326171875
1773258456604553200,10.20055322265625,0.8837890625,-0.415008544921875,0.0826416015625
1773258456614565400,10.2105654296875,0.8818359375,-0.4151611328125,0.0829925537109375
1773258456624578300,10.220578369140625,0.880828857421875,-0.418121337890625,0.0828704833984375
1773258456634590500,10.230590576171876,0.8750457763671875,-0.4201507568359375,0.08148193359375
1773258456644603100,10.24060302734375,0.8768768310546875,-0.4231109619140625,0.0743865966796875
1773258456654615300,10.250615234375,0.879638671875,-0.422393798828125,0.07440185546875
1773258456664627200,10.260627197265626,0.8781890869140625,-0.4208526611328125,0.072906494140625
1773258456674640400,10.270640380859374,0.88262939453125,-0.424407958984375,0.069580078125
1773258456684652300,10.28065234375,0.887115478515625,-0.4228668212890625,0.069549560546875
1773258456694664200,10.290664306640625,0.889892578125,-0.4165191650390625,0.06988525390625
1773258456704677400,10.300677490234374,0.8915863037109375,-0.414215087890625,0.0695953369140625
1773258456714689300,10.310689208984375,0.894012451171875,-0.414031982421875,0.069000244140625
1773258456724702500,10.320702392578125,0.898590087890625,-0.4139251708984375,0.06781005859375
1773258456734714400,10.33071435546875,0.899169921875,-0.406890869140625,0.0639801025390625
1773258456744726500,10.3407265625,0.8968658447265625,-0.40545654296875,0.059967041015625
1773258456754739200,10.3507392578125,0.903045654296875,-0.4104766845703125,0.05718994140625
1773258456764751400,10.36075146484375,0.90386962890625,-0.4044036865234375,0.059112548828125
1773258456774763300,10.37076318359375,0.9044189453125,-0.402923583984375,0.06378173828125
1773258456784776200,10.380776123046875,0.9097747802734375,-0.4068450927734375,0.0657501220703125
1773258456794788400,10.390788330078125,0.9109954833984375,-0.4080963134765625,0.064483642578125
1773258456804801300,10.40080126953125,0.9084625244140625,-0.4046630859375,0.0594329833984375
1773258456814813400,10.4108134765625,0.90985107421875,-0.401885986328125,0.04876708984375
1773258456824825300,10.420825439453125,0.9102935791015625,-0.396026611328125,0.040618896484375
1773258456834838300,10.43083837890625,0.91510009765625,-0.390838623046875,0.038665771484375
1773258456844850200,10.44085009765625,0.9200439453125,-0.38714599609375,0.0416412353515625
1773258456854862300,10.4508623046875,0.9245452880859375,-0.38336181640625,0.0410003662109375
1773258456864875300,10.460875244140626,0.926849365234375,-0.3798980712890625,0.0440826416015625
1773258456874887200,10.47088720703125,0.929962158203125,-0.3768768310546875,0.0420684814453125
1773258456884900400,10.480900390625,0.9316253662109375,-0.3704071044921875,0.0348968505859375
1773258456894912300,10.490912353515625,0.935028076171875,-0.3653717041015625,0.0321044921875
1773258456904924400,10.50092431640625,0.939697265625,-0.3589019775390625,0.03271484375
1773258456914937300,10.510937255859375,0.94140625,-0.354339599609375,0.0309906005859375
1773258456924949500,10.520949462890625,0.943939208984375,-0.349761962890625,0.028350830078125
1773258456934961400,10.53096142578125,0.9462127685546875,-0.3460845947265625,0.0303497314453125
1773258456944974300,10.540974365234375,0.950103759765625,-0.34393310546875,0.02996826171875
1773258456954986200,10.550986328125,0.9501190185546875,-0.3446044921875,0.0308074951171875
1773258456964999200,10.560999267578126,0.949920654296875,-0.34942626953125,0.0381927490234375
1773258456975011300,10.57101123046875,0.94940185546875,-0.3510894775390625,0.03729248046875
1773258456985023200,10.581023193359375,0.9459991455078125,-0.34765625,0.034149169921875
1773258456995036400,10.591036376953125,0.9437255859375,-0.34722900390625,0.03125
1773258457005048300,10.60104833984375,0.94305419921875,-0.3470611572265625,0.0316314697265625
1773258457015060500,10.611060546875,0.9391937255859375,-0.343780517578125,0.0291748046875
1773258457025073400,10.621073486328125,0.940185546875,-0.34124755859375,0.0244293212890625
1773258457035085300,10.631085205078126,0.9383392333984375,-0.3419647216796875,0.0216827392578125
1773258457045098200,10.64109814453125,0.9381866455078125,-0.3382110595703125,0.021942138671875
1773258457055110100,10.651110107421875,0.93853759765625,-0.3345794677734375,0.0197601318359375
1773258457065122300,10.661122314453126,0.9434051513671875,-0.3332672119140625,0.0215301513671875
1773258457075135200,10.67113525390625,0.947265625,-0.3333282470703125,0.032989501953125
1773258457085147000,10.68114697265625,0.9473114013671875,-0.3299713134765625,0.0363616943359375
1773258457095158800,10.69115869140625,0.9451751708984375,-0.3345947265625,0.0330352783203125
1773258457105172000,10.701171875,0.9431915283203125,-0.3356170654296875,0.0323638916015625
1773258457115183900,10.711183837890625,0.93560791015625,-0.337921142578125,0.0319671630859375
1773258457125197000,10.721197021484375,0.93194580078125,-0.341217041015625,0.02728271484375
1773258457135209000,10.731208984375,0.9305419921875,-0.3440704345703125,0.0213623046875
1773258457145221000,10.74122119140625,0.927154541015625,-0.34271240234375,0.0220184326171875
1773258457155233800,10.75123388671875,0.92633056640625,-0.3407440185546875,0.019287109375
1773258457165246000,10.761245849609375,0.92755126953125,-0.3433990478515625,0.0186767578125
1773258457175257900,10.7712578125,0.9288330078125,-0.3436431884765625,0.0250244140625
1773258457185270800,10.781270751953125,0.9285888671875,-0.3441619873046875,0.0327606201171875
1773258457195283000,10.791282958984375,0.9286041259765625,-0.345703125,0.034149169921875
1773258457205295900,10.8012958984375,0.92608642578125,-0.345672607421875,0.0337677001953125
1773258457215308000,10.81130810546875,0.92315673828125,-0.3464508056640625,0.0306549072265625
1773258457225320000,10.82131982421875,0.9243316650390625,-0.351226806640625,0.033111572265625
1773258457235332900,10.831332763671876,0.923309326171875,-0.352142333984375,0.0369720458984375
1773258457245344800,10.8413447265625,0.9268035888671875,-0.3508148193359375,0.038177490234375
1773258457255356700,10.851356689453125,0.9258880615234375,-0.3478851318359375,0.0347442626953125
1773258457265369900,10.861369873046876,0.9252166748046875,-0.3468780517578125,0.0278167724609375
1773258457275381800,10.8713818359375,0.9266357421875,-0.3483734130859375,0.0276336669921875
1773258457285395000,10.88139501953125,0.9294281005859375,-0.3467864990234375,0.032806396484375
1773258457295406800,10.89140673828125,0.9330902099609375,-0.34710693359375,0.0419769287109375
1773258457305419000,10.9014189453125,0.93359375,-0.3488006591796875,0.0462188720703125
1773258457315432000,10.911431884765625,0.9301605224609375,-0.3524932861328125,0.042877197265625
1773258457325444000,10.921444091796875,0.9275665283203125,-0.3519439697265625,0.0399322509765625
1773258457335456000,10.9314560546875,0.9171295166015625,-0.354248046875,0.030364990234375
1773258457345469000,10.941468994140624,0.915283203125,-0.35894775390625,0.023895263671875
1773258457355480800,10.951480712890625,0.91412353515625,-0.35943603515625,0.02606201171875
1773258457365494000,10.961493896484376,0.9192352294921875,-0.3559417724609375,0.0274200439453125
1773258457375506000,10.971505859375,0.9245147705078125,-0.35723876953125,0.0331878662109375
1773258457385517800,10.981517822265625,0.930633544921875,-0.3559417724609375,0.0361785888671875
1773258457395531000,10.991531005859375,0.9318695068359375,-0.3536224365234375,0.0372772216796875
1773258457405543000,11.00154296875,0.93109130859375,-0.3491668701171875,0.0345001220703125
1773258457415555000,11.01155517578125,0.9317474365234375,-0.3489532470703125,0.02960205078125
1773258457425567700,11.021567626953125,0.9304046630859375,-0.3487396240234375,0.0272216796875
1773258457435580000,11.031579833984376,0.9311065673828125,-0.3448486328125,0.0269927978515625
1773258457445592800,11.0415927734375,0.9364776611328125,-0.3411865234375,0.0312957763671875
1773258457455604700,11.051604736328125,0.9420623779296875,-0.3397674560546875,0.034423828125
1773258457465617000,11.061616943359375,0.948028564453125,-0.3385162353515625,0.0399017333984375
1773258457475629800,11.0716298828125,0.9532928466796875,-0.3436126708984375,0.0448150634765625
1773258457485642000,11.08164208984375,0.9545135498046875,-0.3440093994140625,0.0469818115234375
1773258457495654000,11.09165380859375,0.949676513671875,-0.3433685302734375,0.0458831787109375
1773258457505667000,11.1016669921875,0.9506072998046875,-0.3506927490234375,0.043670654296875
1773258457515679000,11.111678955078125,0.955780029296875,-0.3581390380859375,0.0464935302734375
1773258457525692000,11.12169189453125,0.9566650390625,-0.3657989501953125,0.051177978515625
1773258457535703800,11.131703857421876,0.952728271484375,-0.369903564453125,0.050506591796875
1773258457545715700,11.1417158203125,0.9505462646484375,-0.37469482421875,0.03887939453125
1773258457555729000,11.15172900390625,0.950164794921875,-0.3790435791015625,0.0270843505859375
1773258457565740800,11.16174072265625,0.9536285400390625,-0.3800048828125,0.016754150390625
1773258457575753000,11.1717529296875,0.9578094482421875,-0.3799285888671875,0.0104522705078125
1773258457585766000,11.181765869140625,0.9565887451171875,-0.386962890625,0.0062713623046875
1773258457595778000,11.191778076171875,0.95025634765625,-0.3982391357421875,0.000762939453125
1773258457605791000,11.201791015625,0.9494171142578125,-0.4084930419921875,-0.001129150390625
1773258457615803000,11.211802978515625,0.94873046875,-0.423675537109375,0.0047760009765625
1773258457625815000,11.22181494140625,0.9444732666015625,-0.44256591796875,0.0002288818359375
1773258457635828000,11.231827880859376,0.937469482421875,-0.46337890625,-0.01397705078125
1773258457645840000,11.24183984375,0.9151458740234375,-0.4797821044921875,-0.0263519287109375
1773258457655851800,11.251851806640625,0.8874053955078125,-0.49468994140625,-0.035675048828125
1773258457665865000,11.261864990234375,0.8728790283203125,-0.513641357421875,-0.0342254638671875
1773258457675876900,11.271876953125,0.8571624755859375,-0.5234832763671875,-0.0240020751953125
1773258457685889000,11.281888916015625,0.8419647216796875,-0.5293731689453125,-0.0165252685546875
1773258457695902000,11.29190185546875,0.82464599609375,-0.530609130859375,-0.018402099609375
1773258457705913900,11.301913818359376,0.81341552734375,-0.5306396484375,-0.0168914794921875
1773258457715926800,11.3119267578125,0.834686279296875,-0.5201263427734375,0.0015411376953125
1773258457725938700,11.321938720703125,0.845855712890625,-0.4843292236328125,0.029052734375
1773258457735950800,11.331950927734376,0.8369140625,-0.446380615234375,0.0366058349609375
1773258457745963800,11.3419638671875,0.8275146484375,-0.4272918701171875,0.0128326416015625
1773258457755976000,11.351975830078125,0.8212738037109375,-0.4116363525390625,-0.0109100341796875
1773258457765987800,11.36198779296875,0.8086395263671875,-0.3871307373046875,-0.022369384765625
1773258457776001000,11.3720009765625,0.7988433837890625,-0.36737060546875,-0.038238525390625
1773258457786013000,11.382012939453125,0.7780609130859375,-0.35772705078125,-0.050750732421875
1773258457796026000,11.392026123046875,0.7523345947265625,-0.3648223876953125,-0.0533447265625
1773258457806038000,11.4020380859375,0.740234375,-0.3626861572265625,-0.0509796142578125
1773258457816050000,11.4120498046875,0.7398529052734375,-0.3457183837890625,-0.0505523681640625
1773258457826062800,11.422062744140625,0.7484130859375,-0.325408935546875,-0.0569000244140625
1773258457836074800,11.43207470703125,0.75921630859375,-0.313995361328125,-0.070587158203125
1773258457846087000,11.4420869140625,0.8019866943359375,-0.3022003173828125,-0.0643310546875
1773258457856099800,11.452099853515625,0.8646087646484375,-0.2735748291015625,-0.036346435546875
1773258457866112000,11.462112060546875,0.90777587890625,-0.233428955078125,-0.0125885009765625
1773258457876125000,11.472125,0.9225616455078125,-0.2065277099609375,-0.000274658203125
1773258457886137000,11.48213720703125,0.94610595703125,-0.1940460205078125,-0.0056304931640625
1773258457896149000,11.49214892578125,0.975341796875,-0.1656036376953125,-0.017364501953125
1773258457906161700,11.50216162109375,1.0098724365234375,-0.1300506591796875,-0.006683349609375
1773258457916173800,11.512173828125,1.0579986572265625,-0.0863800048828125,0.0188446044921875
1773258457926185700,11.522185791015625,1.107940673828125,-0.02764892578125,0.0451507568359375
1773258457936199000,11.532198974609376,1.13641357421875,0.0211029052734375,0.055267333984375
1773258457946210800,11.5422109375,1.118316650390625,0.038818359375,0.0563507080078125
1773258457956224000,11.55222412109375,1.082122802734375,0.0328216552734375,0.060333251953125
1773258457966236000,11.56223583984375,1.048126220703125,0.0162811279296875,0.07427978515625
1773258457976247800,11.572247802734376,1.0312042236328125,-0.0078887939453125,0.08258056640625
1773258457986261000,11.582260986328125,1.04913330078125,-0.0172882080078125,0.0692291259765625
1773258457996273000,11.59227294921875,1.058197021484375,-0.008544921875,0.0792083740234375
1773258458006285000,11.60228515625,1.0522613525390625,-0.0104827880859375,0.1354522705078125
1773258458016297700,11.612297607421874,1.08740234375,-0.0072479248046875,0.1684112548828125
1773258458026310000,11.622309814453125,1.13323974609375,0.021240234375,0.1736297607421875
1773258458036322800,11.63232275390625,1.161285400390625,0.0500946044921875,0.18536376953125
1773258458046335000,11.6423349609375,1.1763916015625,0.0683135986328125,0.1929779052734375
1773258458056347000,11.652346923828125,1.174285888671875,0.0821685791015625,0.20245361328125
1773258458066360000,11.662360107421875,1.1745452880859375,0.089508056640625,0.20196533203125
1773258458076372000,11.6723720703125,1.1592864990234375,0.0831146240234375,0.191680908203125
1773258458086384000,11.682384033203125,1.127471923828125,0.0614013671875,0.18023681640625
1773258458096396800,11.692396728515625,1.0955810546875,0.03668212890625,0.1763153076171875
1773258458106409000,11.702408935546876,1.0680389404296875,0.0160064697265625,0.1797027587890625
1773258458116422000,11.712421875,1.0463409423828125,0.001678466796875,0.17626953125
1773258458126434000,11.72243408203125,1.0295562744140625,-0.0111541748046875,0.156341552734375
1773258458136446000,11.732446044921875,1.01629638671875,-0.0231170654296875,0.1253814697265625
1773258458146459100,11.742459228515624,0.9943389892578125,-0.027862548828125,0.1026763916015625
1773258458156471000,11.752470947265625,0.974884033203125,-0.03472900390625,0.0955352783203125
1773258458166483000,11.76248291015625,0.9608001708984375,-0.0399017333984375,0.08819580078125
1773258458176496000,11.77249609375,0.9494781494140625,-0.0465240478515625,0.077392578125
1773258458186508000,11.782508056640625,0.9390411376953125,-0.0611572265625,0.067626953125
1773258458196521000,11.79252099609375,0.93450927734375,-0.072784423828125,0.0658111572265625
1773258458206532900,11.802532958984376,0.936767578125,-0.0793609619140625,0.0607757568359375
1773258458216545000,11.812544921875,0.9349517822265625,-0.0860137939453125,0.0465240478515625
1773258458226558000,11.822557861328125,0.9264373779296875,-0.0994720458984375,0.031982421875
1773258458236570000,11.832570068359376,0.9200592041015625,-0.1122589111328125,0.0257568359375
1773258458246582000,11.84258203125,0.9147186279296875,-0.1241912841796875,0.0291290283203125
1773258458256595200,11.85259521484375,0.907318115234375,-0.1369171142578125,0.0284576416015625
1773258458266607000,11.862607177734375,0.9057769775390625,-0.1489105224609375,0.0240631103515625
1773258458276620000,11.8726201171875,0.9122772216796875,-0.1580810546875,0.024658203125
1773258458286632000,11.8826318359375,0.920074462890625,-0.1649169921875,0.028900146484375
1773258458296644000,11.89264404296875,0.9239654541015625,-0.1707916259765625,0.0300750732421875
1773258458306657000,11.902656982421876,0.9239959716796875,-0.1771697998046875,0.030548095703125
1773258458316669000,11.9126689453125,0.9302825927734375,-0.1831512451171875,0.030426025390625
1773258458326681000,11.92268115234375,0.940826416015625,-0.1870880126953125,0.0352630615234375
1773258458336694000,11.932694091796876,0.949737548828125,-0.1891326904296875,0.0399169921875
1773258458346706000,11.942705810546874,0.9637603759765625,-0.1922149658203125,0.0408172607421875
1773258458356719000,11.952718994140625,0.9749298095703125,-0.1943817138671875,0.043212890625
1773258458366731000,11.96273095703125,0.982269287109375,-0.19122314453125,0.0473175048828125
1773258458376743200,11.9727431640625,0.981536865234375,-0.1883392333984375,0.0450897216796875
1773258458386755800,11.982755859375,0.9819793701171875,-0.1904296875,0.042755126953125
1773258458396768000,11.99276806640625,0.986724853515625,-0.1949005126953125,0.0400848388671875
1773258458406780000,12.00277978515625,0.987640380859375,-0.1976318359375,0.039337158203125
1773258458416793000,12.01279296875,0.9897003173828125,-0.202606201171875,0.0357208251953125
1773258458426805000,12.022804931640625,0.987274169921875,-0.208465576171875,0.0367279052734375
1773258458436817000,12.03281689453125,0.9879302978515625,-0.2125244140625,0.0391998291015625
1773258458446830000,12.042830078125,0.99169921875,-0.2113800048828125,0.0438995361328125
1773258458456842000,12.052842041015625,1.0012359619140625,-0.2078704833984375,0.050140380859375
1773258458466855200,12.062855224609375,1.013458251953125,-0.204376220703125,0.0508880615234375
1773258458476867000,12.0728671875,1.02398681640625,-0.2009735107421875,0.0501861572265625
1773258458486879200,12.082879150390625,1.030548095703125,-0.199188232421875,0.052154541015625
1773258458496892000,12.092891845703125,1.03680419921875,-0.196990966796875,0.050994873046875
1773258458506904000,12.102904052734376,1.0379180908203125,-0.195556640625,0.051910400390625
1773258458516916000,12.112916015625,1.036834716796875,-0.195770263671875,0.0552978515625
1773258458526929200,12.12292919921875,1.038787841796875,-0.1907501220703125,0.0563812255859375
1773258458536941000,12.132941162109375,1.03802490234375,-0.1876068115234375,0.05340576171875
1773258458546954000,12.1429541015625,1.0365753173828125,-0.187286376953125,0.050994873046875
1773258458556966100,12.152966064453125,1.0411834716796875,-0.1876220703125,0.0544586181640625
1773258458566978000,12.16297802734375,1.0416412353515625,-0.18487548828125,0.06109619140625
1773258458576991000,12.172990966796876,1.0402984619140625,-0.1820220947265625,0.060546875
1773258458587003000,12.1830029296875,1.041961669921875,-0.179962158203125,0.0580291748046875
1773258458597015000,12.19301513671875,1.0385894775390625,-0.1756134033203125,0.058868408203125
1773258458607028000,12.203028076171876,1.0348358154296875,-0.1728057861328125,0.0534820556640625
1773258458617040000,12.213039794921874,1.031524658203125,-0.1709136962890625,0.0446624755859375
1773258458627053000,12.223052978515625,1.0271759033203125,-0.1667633056640625,0.0418701171875
1773258458637065000,12.23306494140625,1.0213775634765625,-0.1644287109375,0.0395050048828125
1773258458647077000,12.2430771484375,1.0178070068359375,-0.162078857421875,0.03448486328125
1773258458657090000,12.253090087890625,1.0100555419921875,-0.1656646728515625,0.0324859619140625
1773258458667102200,12.263102294921875,1.0015716552734375,-0.16455078125,0.0333709716796875
1773258458677114000,12.273114013671876,0.991424560546875,-0.1655731201171875,0.02752685546875
1773258458687127000,12.283126953125,0.9827117919921875,-0.1668701171875,0.017364501953125
1773258458697139000,12.293138916015625,0.9698486328125,-0.1645355224609375,0.0065155029296875
1773258458707152100,12.303152099609376,0.961883544921875,-0.168060302734375,-0.0038299560546875
1773258458717164000,12.3131640625,0.9571075439453125,-0.1690521240234375,-0.006103515625
1773258458727176000,12.323176025390625,0.9528961181640625,-0.1697998046875,-0.0015411376953125
1773258458737189000,12.333189208984376,0.95513916015625,-0.171234130859375,0.0010528564453125
1773258458747201000,12.343200927734374,0.9541168212890625,-0.170654296875,0.0039215087890625
1773258458757213200,12.353213134765625,0.9532318115234375,-0.16845703125,0.0063934326171875
1773258458767225900,12.363225830078125,0.9533233642578125,-0.167510986328125,0.0077667236328125
1773258458777238000,12.373238037109376,0.951507568359375,-0.165252685546875,0.004638671875
1773258458787250000,12.38325,0.9452056884765625,-0.1654205322265625,-0.0005035400390625
1773258458797262800,12.393262939453125,0.9450836181640625,-0.1666107177734375,-0.003387451171875
1773258458807275000,12.40327490234375,0.951629638671875,-0.1656341552734375,-0.0041656494140625
1773258458817288000,12.413287841796874,0.952362060546875,-0.16278076171875,-0.0045928955078125
1773258458827300000,12.423300048828125,0.9550323486328125,-0.165313720703125,-0.0048675537109375
1773258458837312000,12.43331201171875,0.9605255126953125,-0.1641082763671875,-0.0031890869140625
1773258458847325200,12.4433251953125,0.96136474609375,-0.1599273681640625,-0.0039215087890625
1773258458857337000,12.453337158203125,0.9637451171875,-0.160369873046875,-0.0092010498046875
1773258458867349000,12.463348876953125,0.9634857177734375,-0.1585235595703125,-0.015625
1773258458877362000,12.47336181640625,0.963409423828125,-0.156768798828125,-0.0230255126953125
1773258458887373800,12.483373779296874,0.9608306884765625,-0.1575775146484375,-0.0260772705078125
1773258458897387000,12.493386962890625,0.9576873779296875,-0.160125732421875,-0.0265655517578125
1773258458907399000,12.50339892578125,0.9554595947265625,-0.16583251953125,-0.0203857421875
1773258458917411000,12.5134111328125,0.957916259765625,-0.1702728271484375,-0.0181884765625
1773258458927424000,12.523424072265625,0.9616851806640625,-0.169097900390625,-0.02587890625
1773258458937436200,12.533436279296875,0.9610137939453125,-0.170684814453125,-0.0342559814453125
1773258458947448000,12.543447998046876,0.9612274169921875,-0.17364501953125,-0.0404815673828125
1773258458957461000,12.5534609375,0.9625091552734375,-0.175018310546875,-0.0371856689453125
1773258458967473200,12.56347314453125,0.965972900390625,-0.178314208984375,-0.030059814453125
1773258458977486000,12.573486083984376,0.975494384765625,-0.1819915771484375,-0.0191192626953125
1773258458987498000,12.583498046875,0.98248291015625,-0.183258056640625,-0.01348876953125
1773258458997510000,12.593510009765625,0.9861297607421875,-0.1842803955078125,-0.0107574462890625
1773258459007523000,12.603523193359376,0.986236572265625,-0.1861419677734375,-0.0128936767578125
1773258459017535000,12.613534912109374,0.9826507568359375,-0.18927001953125,-0.018585205078125
1773258459027547100,12.623547119140625,0.9814453125,-0.190826416015625,-0.0220489501953125
1773258459037560000,12.63356005859375,0.981903076171875,-0.19036865234375,-0.0204010009765625
1773258459047572200,12.643572265625,0.9843597412109375,-0.18792724609375,-0.019012451171875
1773258459057585000,12.6535849609375,0.9799652099609375,-0.188018798828125,-0.020782470703125
1773258459067596800,12.6635966796875,0.9795684814453125,-0.18975830078125,-0.0232696533203125
1773258459077609000,12.67360888671875,0.9771881103515625,-0.1897735595703125,-0.025848388671875
1773258459087622100,12.6836220703125,0.974395751953125,-0.1887054443359375,-0.0282440185546875
1773258459097634000,12.693634033203125,0.9771270751953125,-0.1862030029296875,-0.02618408203125
1773258459107646200,12.703646240234375,0.981292724609375,-0.1815338134765625,-0.0189666748046875
1773258459117659100,12.7136591796875,0.9843292236328125,-0.175140380859375,-0.0185394287109375
1773258459127671300,12.72367138671875,0.98565673828125,-0.1693267822265625,-0.0227813720703125
1773258459137684200,12.733684326171876,0.9823150634765625,-0.163909912109375,-0.0263214111328125
1773258459147696400,12.7436962890625,0.9796600341796875,-0.1590423583984375,-0.029815673828125
1773258459157708300,12.753708251953125,0.978546142578125,-0.1542205810546875,-0.03216552734375
1773258459167721000,12.763720947265625,0.97637939453125,-0.1528778076171875,-0.034759521484375
1773258459177733000,12.773733154296876,0.9767913818359375,-0.1526641845703125,-0.032440185546875
1773258459187745000,12.7837451171875,0.975921630859375,-0.149688720703125,-0.0272674560546875
1773258459197758200,12.79375830078125,0.9731292724609375,-0.1506500244140625,-0.0274200439453125
1773258459207770000,12.80377001953125,0.973541259765625,-0.152435302734375,-0.029144287109375
1773258459217783300,12.813783203125,0.9741363525390625,-0.1486053466796875,-0.0262603759765625
1773258459227795200,12.823795166015625,0.9795379638671875,-0.1429290771484375,-0.027435302734375
1773258459237807000,12.83380712890625,0.982666015625,-0.1409912109375,-0.03155517578125
1773258459247820000,12.843820068359374,0.9799041748046875,-0.1387176513671875,-0.0318450927734375
1773258459257832000,12.85383203125,0.9826202392578125,-0.138671875,-0.027374267578125
1773258459267844000,12.863843994140625,0.9842376708984375,-0.1370086669921875,-0.0255126953125
1773258459277857000,12.87385693359375,0.9832000732421875,-0.140289306640625,-0.02435302734375
1773258459287869200,12.883869140625,0.980804443359375,-0.14593505859375,-0.0227813720703125
1773258459297882000,12.893882080078125,0.9810028076171875,-0.1493072509765625,-0.0221710205078125
1773258459307894300,12.903894287109376,0.9796905517578125,-0.1513519287109375,-0.022064208984375
1773258459317906200,12.91390625,0.9817657470703125,-0.153076171875,-0.0234832763671875
1773258459327919400,12.92391943359375,0.98016357421875,-0.153533935546875,-0.0206451416015625
1773258459337931300,12.93393115234375,0.9839935302734375,-0.1568603515625,-0.0190277099609375
1773258459347943200,12.943943115234376,0.9871826171875,-0.1593780517578125,-0.0203399658203125
