time,seconds_elapsed,z,y,x
1773257345645547800,0.0545478515625,-0.871002197265625,-0.3939056396484375,0.2861175537109375
1773257345655559700,0.0645595703125,-0.8529815673828125,-0.3890380859375,0.28546142578125
1773257345665572900,0.07457275390625,-0.8389434814453125,-0.3883056640625,0.2943572998046875
1773257345675584800,0.084584716796875,-0.8264312744140625,-0.3903350830078125,0.3059539794921875
1773257345685598000,0.094597900390625,-0.8112945556640625,-0.3945770263671875,0.3116302490234375
1773257345695609900,0.10460986328125,-0.80084228515625,-0.398040771484375,0.30126953125
1773257345705621800,0.114621826171875,-0.799560546875,-0.4064788818359375,0.2847747802734375
1773257345715635000,0.124635009765625,-0.814971923828125,-0.4005126953125,0.2777557373046875
1773257345725646800,0.134646728515625,-0.845855712890625,-0.3747406005859375,0.2613372802734375
1773257345735659800,0.14465966796875,-0.8787384033203125,-0.3534393310546875,0.2368621826171875
1773257345745671700,0.154671630859375,-0.919525146484375,-0.363555908203125,0.2577972412109375
1773257345755683800,0.164683837890625,-0.9539794921875,-0.3515167236328125,0.282745361328125
1773257345765696800,0.17469677734375,-0.9892730712890625,-0.34228515625,0.28009033203125
1773257345775709000,0.184708984375,-1.0029449462890625,-0.35736083984375,0.265777587890625
1773257345785721900,0.194721923828125,-1.0025787353515625,-0.348968505859375,0.2546539306640625
1773257345795733800,0.204733642578125,-0.9861907958984375,-0.33544921875,0.223297119140625
1773257345805746000,0.214745849609375,-0.954345703125,-0.3181304931640625,0.221832275390625
1773257345815758600,0.224758544921875,-0.9178009033203125,-0.316314697265625,0.2097930908203125
1773257345825770800,0.234770751953125,-0.8677825927734375,-0.3184356689453125,0.1868896484375
1773257345835783700,0.24478369140625,-0.8440399169921875,-0.2952117919921875,0.2400360107421875
1773257345845795800,0.2547958984375,-0.83416748046875,-0.291778564453125,0.33837890625
1773257345855808800,0.264808837890625,-0.8402862548828125,-0.31817626953125,0.4181365966796875
1773257345865821000,0.274821044921875,-0.813232421875,-0.337066650390625,0.4564971923828125
1773257345875832800,0.284832763671875,-0.7878570556640625,-0.343017578125,0.4870758056640625
1773257345885846000,0.294845947265625,-0.814117431640625,-0.34912109375,0.5093231201171875
1773257345895858000,0.30485791015625,-0.877044677734375,-0.3527679443359375,0.462890625
1773257345905870800,0.314870849609375,-0.846160888671875,-0.3565521240234375,0.3290557861328125
1773257345915882800,0.3248828125,-0.8356475830078125,-0.333709716796875,0.2379913330078125
1773257345925894700,0.334894775390625,-0.8698272705078125,-0.2700958251953125,0.2138519287109375
1773257345935907800,0.344907958984375,-0.8767242431640625,-0.223846435546875,0.225799560546875
1773257345945919700,0.354919677734375,-0.800384521484375,-0.2067718505859375,0.2009429931640625
1773257345955933000,0.364932861328125,-0.7378997802734375,-0.1949920654296875,0.1828460693359375
1773257345965945000,0.374945068359375,-0.7220611572265625,-0.182525634765625,0.18682861328125
1773257345975957200,0.384957275390625,-0.7416229248046875,-0.17132568359375,0.210601806640625
1773257345985970000,0.394969970703125,-0.78228759765625,-0.168853759765625,0.252288818359375
1773257345995982000,0.404982177734375,-0.8702545166015625,-0.19427490234375,0.3090362548828125
1773257346005995000,0.4149951171875,-0.9501190185546875,-0.2198486328125,0.3852386474609375
1773257346016007200,0.425007080078125,-1.020721435546875,-0.272064208984375,0.5663604736328125
1773257346026019000,0.43501904296875,-1.114013671875,-0.3775634765625,0.796142578125
1773257346036032300,0.4450322265625,-1.1184234619140625,-0.407073974609375,0.72100830078125
1773257346046044200,0.455044189453125,-0.984222412109375,-0.368072509765625,0.4500732421875
1773257346056057000,0.46505712890625,-0.834381103515625,-0.2823333740234375,0.225067138671875
1773257346066069200,0.4750693359375,-0.8139495849609375,-0.230072021484375,0.0996246337890625
1773257346076081200,0.4850810546875,-0.893280029296875,-0.249481201171875,0.0417327880859375
1773257346086094000,0.495093994140625,-0.955535888671875,-0.25933837890625,0.0373992919921875
1773257346096106000,0.50510595703125,-0.9695281982421875,-0.3359375,0.0237274169921875
1773257346106119200,0.515119140625,-0.9405517578125,-0.311676025390625,0.00384521484375
1773257346116131000,0.525131103515625,-0.9537353515625,-0.211883544921875,0.06671142578125
1773257346126143200,0.535143310546875,-1.015777587890625,-0.2180633544921875,0.152191162109375
1773257346136156200,0.54515625,-1.072113037109375,-0.20709228515625,0.1750030517578125
1773257346146168000,0.55516796875,-1.0575408935546875,-0.1802978515625,0.1945343017578125
1773257346156181000,0.565180908203125,-1.01031494140625,-0.150634765625,0.2389068603515625
1773257346166193000,0.57519287109375,-0.9517669677734375,-0.140533447265625,0.2809295654296875
1773257346176205000,0.585205078125,-0.914154052734375,-0.1316375732421875,0.28094482421875
1773257346186218000,0.595218017578125,-0.95263671875,-0.1208343505859375,0.301971435546875
1773257346196230100,0.605230224609375,-1.006011962890625,-0.07769775390625,0.3749237060546875
1773257346206243000,0.6152431640625,-1.0091094970703125,-0.051727294921875,0.4154815673828125
1773257346216255200,0.625255126953125,-1.0277099609375,-0.07635498046875,0.3334503173828125
1773257346226267100,0.63526708984375,-1.0513458251953125,-0.14544677734375,0.204376220703125
1773257346236280300,0.6452802734375,-1.0254974365234375,-0.2005157470703125,0.1287078857421875
1773257346246292200,0.655292236328125,-0.9850006103515625,-0.196868896484375,0.0862884521484375
1773257346256305200,0.66530517578125,-0.955963134765625,-0.199798583984375,0.100067138671875
1773257346266317000,0.675317138671875,-0.9305572509765625,-0.222381591796875,0.151031494140625
1773257346276329000,0.685328857421875,-0.8903961181640625,-0.22637939453125,0.19207763671875
1773257346286342100,0.695342041015625,-0.8587646484375,-0.2195587158203125,0.22711181640625
1773257346296354000,0.70535400390625,-0.84002685546875,-0.2151031494140625,0.246307373046875
1773257346306366200,0.7153662109375,-0.8357391357421875,-0.2098388671875,0.2586212158203125
1773257346316379100,0.725379150390625,-0.8409271240234375,-0.1954345703125,0.2732086181640625
1773257346326391000,0.73539111328125,-0.852569580078125,-0.1826934814453125,0.2836151123046875
1773257346336404000,0.745404052734375,-0.879119873046875,-0.185546875,0.2733001708984375
1773257346346415900,0.755415771484375,-0.9090423583984375,-0.2006378173828125,0.2332611083984375
1773257346356428000,0.765427978515625,-0.9417266845703125,-0.216522216796875,0.1716156005859375
1773257346366441000,0.77544091796875,-0.987060546875,-0.2283477783203125,0.1309356689453125
1773257346376453000,0.785453125,-1.0250701904296875,-0.2226104736328125,0.12054443359375
1773257346386466000,0.795466064453125,-1.039276123046875,-0.206512451171875,0.13031005859375
1773257346396478200,0.805478271484375,-1.0376129150390625,-0.190948486328125,0.15875244140625
1773257346406490000,0.815489990234375,-1.0191802978515625,-0.176666259765625,0.1831207275390625
1773257346416503300,0.82550341796875,-0.9810943603515625,-0.16766357421875,0.169830322265625
1773257346426515200,0.83551513671875,-0.94927978515625,-0.181732177734375,0.1324920654296875
1773257346436528000,0.845528076171875,-0.9386444091796875,-0.1935272216796875,0.10650634765625
1773257346446540000,0.8555400390625,-0.948333740234375,-0.1936798095703125,0.0910186767578125
1773257346456552000,0.865552001953125,-0.971221923828125,-0.189666748046875,0.08251953125
1773257346466565000,0.875565185546875,-0.9817047119140625,-0.174041748046875,0.0839080810546875
1773257346476577000,0.885576904296875,-0.9926300048828125,-0.1644744873046875,0.0730133056640625
1773257346486589200,0.895589111328125,-1.0040130615234375,-0.16387939453125,0.0353851318359375
1773257346496602000,0.90560205078125,-1.0133056640625,-0.1702117919921875,-0.0146636962890625
1773257346506614300,0.9156142578125,-1.04168701171875,-0.170318603515625,-0.0494384765625
1773257346516627200,0.925627197265625,-1.0796356201171875,-0.16064453125,-0.0818023681640625
1773257346526639000,0.93563916015625,-1.10614013671875,-0.16351318359375,-0.10107421875
1773257346536651000,0.945651123046875,-1.1221771240234375,-0.1640625,-0.1141204833984375
1773257346546664000,0.955663818359375,-1.1335601806640625,-0.1837310791015625,-0.120941162109375
1773257346556676000,0.965676025390625,-1.1109771728515625,-0.1843719482421875,-0.1092987060546875
1773257346566689000,0.97568896484375,-1.078460693359375,-0.1811065673828125,-0.10455322265625
1773257346576701200,0.985701171875,-1.086334228515625,-0.2046356201171875,-0.1149749755859375
1773257346586713000,0.995713134765625,-1.0954437255859375,-0.2438507080078125,-0.12884521484375
1773257346596726300,1.005726318359375,-1.0582275390625,-0.2692718505859375,-0.1350250244140625
1773257346606738200,1.01573828125,-0.9830169677734375,-0.3260040283203125,-0.154693603515625
1773257346616751000,1.025751220703125,-0.8768157958984375,-0.38629150390625,-0.1641845703125
1773257346626763000,1.035762939453125,-0.7741546630859375,-0.413360595703125,-0.156768798828125
1773257346636775000,1.04577490234375,-0.7062225341796875,-0.4376068115234375,-0.1430816650390625
1773257346646788000,1.0557880859375,-0.6951446533203125,-0.4599151611328125,-0.119537353515625
1773257346656800000,1.065800048828125,-0.7088775634765625,-0.476318359375,-0.098846435546875
1773257346666812200,1.075812255859375,-0.7247314453125,-0.4855194091796875,-0.0810394287109375
1773257346676825000,1.0858251953125,-0.748291015625,-0.477447509765625,-0.06781005859375
1773257346686837200,1.095837158203125,-0.7830352783203125,-0.4762725830078125,-0.070587158203125
1773257346696850200,1.10585009765625,-0.8134765625,-0.482818603515625,-0.0894775390625
1773257346706862300,1.1158623046875,-0.8293609619140625,-0.4934539794921875,-0.12786865234375
1773257346716874200,1.125874267578125,-0.829986572265625,-0.5148773193359375,-0.17059326171875
1773257346726887000,1.135886962890625,-0.847991943359375,-0.52459716796875,-0.210357666015625
1773257346736899000,1.145899169921875,-0.8701934814453125,-0.5163421630859375,-0.2342376708984375
1773257346746912000,1.155912109375,-0.878143310546875,-0.518096923828125,-0.2361297607421875
1773257346756924200,1.165924072265625,-0.869232177734375,-0.511993408203125,-0.219696044921875
1773257346766936000,1.17593603515625,-0.868377685546875,-0.498443603515625,-0.192962646484375
1773257346776949200,1.18594921875,-0.873046875,-0.484649658203125,-0.1446533203125
1773257346786961200,1.195961181640625,-0.8829345703125,-0.4626007080078125,-0.1049041748046875
1773257346796973000,1.20597314453125,-0.894775390625,-0.4482269287109375,-0.0903472900390625
1773257346806986000,1.215986083984375,-0.8966522216796875,-0.4436492919921875,-0.083709716796875
1773257346816998000,1.225997802734375,-0.900238037109375,-0.435089111328125,-0.0803375244140625
1773257346827011000,1.236010986328125,-0.92767333984375,-0.418212890625,-0.0758056640625
1773257346837023000,1.24602294921875,-0.9718475341796875,-0.3988189697265625,-0.05999755859375
1773257346847035100,1.25603515625,-0.99957275390625,-0.3811187744140625,-0.03533935546875
1773257346857048000,1.266048095703125,-1.0120391845703125,-0.36785888671875,-0.01495361328125
1773257346867060200,1.276060302734375,-1.001373291015625,-0.3644256591796875,-0.0134124755859375
1773257346877072100,1.286072021484375,-0.9806060791015625,-0.3690185546875,-0.0228729248046875
1773257346887085300,1.296085205078125,-0.972747802734375,-0.3671722412109375,-0.0240631103515625
1773257346897097200,1.30609716796875,-0.9838104248046875,-0.361968994140625,-0.02984619140625
1773257346907110100,1.316110107421875,-1.0016937255859375,-0.35552978515625,-0.022918701171875
1773257346917122000,1.3261220703125,-1.007598876953125,-0.3416595458984375,-0.0131072998046875
1773257346927134000,1.336134033203125,-1.0041961669921875,-0.332183837890625,-0.01226806640625
1773257346937147100,1.346147216796875,-1.0054779052734375,-0.322723388671875,-0.0165557861328125
1773257346947159000,1.356158935546875,-1.0048828125,-0.322296142578125,-0.0106353759765625
1773257346957172200,1.366172119140625,-0.9898529052734375,-0.320465087890625,-0.00836181640625
1773257346967184600,1.3761845703125,-0.9778594970703125,-0.316864013671875,-0.0147247314453125
1773257346977196500,1.386196533203125,-0.9715576171875,-0.316680908203125,-0.0104522705078125
1773257346987209200,1.396209228515625,-0.9601898193359375,-0.313079833984375,0.0087127685546875
1773257346997221400,1.406221435546875,-0.965362548828125,-0.3060302734375,0.0324249267578125
1773257347007233300,1.4162333984375,-0.9671783447265625,-0.2991180419921875,0.06085205078125
1773257347017246500,1.42624658203125,-0.9624176025390625,-0.2967071533203125,0.0909576416015625
1773257347027258400,1.43625830078125,-0.96142578125,-0.2867584228515625,0.1061859130859375
1773257347037271600,1.446271484375,-0.9625244140625,-0.2733306884765625,0.1046142578125
1773257347047283500,1.456283447265625,-0.9662322998046875,-0.27288818359375,0.1033782958984375
1773257347057295400,1.46629541015625,-0.9711456298828125,-0.31549072265625,0.0635833740234375
1773257347067308500,1.47630859375,-0.9708709716796875,-0.3388519287109375,0.037261962890625
1773257347077320400,1.486320556640625,-0.95880126953125,-0.3367462158203125,0.0318603515625
1773257347087332600,1.49633251953125,-0.9458160400390625,-0.34307861328125,0.030059814453125
1773257347097345300,1.50634521484375,-0.9244384765625,-0.353515625,0.0373992919921875
1773257347107357400,1.516357421875,-0.89764404296875,-0.360137939453125,0.0503082275390625
1773257347117370400,1.526370361328125,-0.888214111328125,-0.3616943359375,0.0573577880859375
1773257347127382500,1.536382568359375,-0.89337158203125,-0.3716583251953125,0.058197021484375
1773257347137394400,1.54639453125,-0.8856048583984375,-0.3910675048828125,0.069244384765625
1773257347147407600,1.55640771484375,-0.885650634765625,-0.403350830078125,0.0744171142578125
1773257347157419500,1.56641943359375,-0.9080047607421875,-0.4019927978515625,0.071533203125
1773257347167431400,1.576431396484375,-0.9317169189453125,-0.39642333984375,0.0634002685546875
1773257347177444400,1.5864443359375,-0.9699554443359375,-0.40228271484375,0.0476531982421875
1773257347187456300,1.596456298828125,-1.0040130615234375,-0.4083251953125,0.019622802734375
1773257347197469400,1.606469482421875,-1.014801025390625,-0.4196014404296875,0.0047149658203125
1773257347207481300,1.6164814453125,-1.0067291259765625,-0.4240264892578125,0.0084381103515625
1773257347217493500,1.626493408203125,-1.0052032470703125,-0.4267120361328125,0.0126190185546875
1773257347227506400,1.63650634765625,-1.0040740966796875,-0.431427001953125,0.0190582275390625
1773257347237518600,1.6465185546875,-0.9982452392578125,-0.43341064453125,0.0257415771484375
1773257347247530500,1.656530517578125,-1.0024261474609375,-0.4271087646484375,0.0339202880859375
1773257347257543400,1.66654345703125,-1.01116943359375,-0.41766357421875,0.0385284423828125
1773257347267555600,1.6765556640625,-1.00482177734375,-0.4195098876953125,0.037109375
1773257347277568300,1.686568359375,-0.9958343505859375,-0.424591064453125,0.023529052734375
1773257347287580400,1.696580322265625,-0.9856109619140625,-0.430206298828125,0.01397705078125
1773257347297592300,1.70659228515625,-0.970123291015625,-0.4306640625,0.0152435302734375
1773257347307605500,1.71660546875,-0.9504547119140625,-0.4322509765625,0.0205230712890625
1773257347317617400,1.726617431640625,-0.9174652099609375,-0.4353179931640625,0.0348663330078125
1773257347327629300,1.73662939453125,-0.8840484619140625,-0.4273681640625,0.0595855712890625
1773257347337642500,1.746642578125,-0.8620452880859375,-0.41162109375,0.0944366455078125
1773257347347654400,1.756654296875,-0.8530426025390625,-0.3915252685546875,0.139373779296875
1773257347357667300,1.766667236328125,-0.85211181640625,-0.367584228515625,0.1895294189453125
1773257347367679200,1.77667919921875,-0.85772705078125,-0.3378753662109375,0.2346649169921875
1773257347377691400,1.78669140625,-0.8618011474609375,-0.3091583251953125,0.268951416015625
1773257347387704300,1.796704345703125,-0.863983154296875,-0.29571533203125,0.29107666015625
1773257347397716500,1.806716552734375,-0.863311767578125,-0.28765869140625,0.2957763671875
1773257347407728400,1.816728271484375,-0.866302490234375,-0.285675048828125,0.2933502197265625
1773257347417741600,1.826741455078125,-0.8733978271484375,-0.2843170166015625,0.2792510986328125
1773257347427753500,1.83675341796875,-0.85992431640625,-0.279296875,0.2720947265625
1773257347437766700,1.8467666015625,-0.8460235595703125,-0.2682342529296875,0.2812042236328125
1773257347447778600,1.856778564453125,-0.8342132568359375,-0.25750732421875,0.299530029296875
1773257347457790500,1.86679052734375,-0.8189849853515625,-0.25482177734375,0.3359222412109375
1773257347467803400,1.876803466796875,-0.795989990234375,-0.2483673095703125,0.487274169921875
1773257347477815300,1.886815185546875,-0.8075714111328125,-0.245330810546875,0.4588623046875
1773257347487827500,1.896827392578125,-0.8061065673828125,-0.2560577392578125,0.398834228515625
1773257347497840400,1.90684033203125,-0.824249267578125,-0.166534423828125,0.4425811767578125
1773257347507852300,1.916852294921875,-0.8740997314453125,-0.1949462890625,0.3718719482421875
1773257347517865500,1.926865478515625,-0.9204559326171875,-0.1990814208984375,0.267120361328125
1773257347527877400,1.93687744140625,-0.9468536376953125,-0.1842803955078125,0.2257232666015625
1773257347537889500,1.9468896484375,-0.97509765625,-0.1995697021484375,0.191162109375
1773257347547902500,1.95690234375,-0.996917724609375,-0.2052001953125,0.162841796875
1773257347557914400,1.966914306640625,-1.0182342529296875,-0.1942291259765625,0.153961181640625
1773257347567926500,1.976926513671875,-1.02911376953125,-0.1882781982421875,0.159912109375
1773257347577939500,1.986939453125,-1.0095672607421875,-0.1808319091796875,0.1875762939453125
1773257347587951400,1.996951416015625,-0.983154296875,-0.1840972900390625,0.22747802734375
1773257347597964500,2.006964599609375,-0.950408935546875,-0.18701171875,0.2681884765625
1773257347607976400,2.0169765625,-0.9290618896484375,-0.1864013671875,0.292236328125
1773257347617988400,2.02698828125,-0.923675537109375,-0.190460205078125,0.2927398681640625
1773257347628001500,2.03700146484375,-0.921173095703125,-0.200897216796875,0.2660980224609375
1773257347638013400,2.047013427734375,-0.9263153076171875,-0.2002716064453125,0.23284912109375
1773257347648025600,2.057025634765625,-0.938934326171875,-0.1933135986328125,0.22161865234375
1773257347658038300,2.067038330078125,-0.952545166015625,-0.193267822265625,0.2294158935546875
1773257347668050400,2.077050537109375,-0.9664154052734375,-0.2337493896484375,0.2155914306640625
1773257347678062300,2.087062255859375,-0.959686279296875,-0.243560791015625,0.2010498046875
1773257347688075500,2.097075439453125,-0.952392578125,-0.23638916015625,0.197540283203125
1773257347698087400,2.10708740234375,-0.9482269287109375,-0.237823486328125,0.2004547119140625
1773257347708100400,2.117100341796875,-0.947479248046875,-0.2443389892578125,0.2132720947265625
1773257347718112500,2.127112548828125,-0.9511566162109375,-0.2438507080078125,0.2289276123046875
1773257347728124400,2.13712451171875,-0.9488372802734375,-0.239105224609375,0.221832275390625
1773257347738137600,2.1471376953125,-0.9394989013671875,-0.2424774169921875,0.2242889404296875
1773257347748149500,2.1571494140625,-0.9217376708984375,-0.245330810546875,0.2346954345703125
1773257347758161700,2.16716162109375,-0.9098358154296875,-0.2415008544921875,0.2332611083984375
1773257347768174300,2.17717431640625,-0.91009521484375,-0.25238037109375,0.2106781005859375
1773257347778186200,2.187186279296875,-0.922515869140625,-0.280120849609375,0.179595947265625
1773257347788199400,2.197199462890625,-0.9202117919921875,-0.2951812744140625,0.159515380859375
1773257347798211300,2.20721142578125,-0.90478515625,-0.302093505859375,0.1580657958984375
1773257347808223500,2.217223388671875,-0.8892822265625,-0.302825927734375,0.185333251953125
1773257347818236400,2.227236328125,-0.8889007568359375,-0.32061767578125,0.205535888671875
1773257347828248600,2.23724853515625,-0.8883209228515625,-0.3243255615234375,0.2171173095703125
1773257347838260500,2.247260498046875,-0.914642333984375,-0.338775634765625,0.215301513671875
1773257347848273400,2.2572734375,-0.9078826904296875,-0.3296966552734375,0.2116241455078125
1773257347858285300,2.267285400390625,-0.92572021484375,-0.3287200927734375,0.22357177734375
1773257347868298500,2.277298583984375,-0.95355224609375,-0.3338623046875,0.2313690185546875
1773257347878310400,2.287310302734375,-0.96942138671875,-0.31622314453125,0.2386932373046875
1773257347888322300,2.297322265625,-0.9886474609375,-0.3080291748046875,0.2402496337890625
1773257347898335500,2.30733544921875,-1.00152587890625,-0.311981201171875,0.22125244140625
1773257347908347400,2.317347412109375,-1.0120697021484375,-0.3189849853515625,0.196319580078125
1773257347918359600,2.327359619140625,-1.020111083984375,-0.32562255859375,0.1877288818359375
1773257347928372500,2.33737255859375,-1.0185546875,-0.32684326171875,0.1930694580078125
1773257347938384600,2.347384521484375,-1.01141357421875,-0.318389892578125,0.203338623046875
1773257347948397300,2.357397216796875,-1.0086822509765625,-0.3114471435546875,0.2143402099609375
1773257347958409500,2.367409423828125,-1.005523681640625,-0.3135833740234375,0.2129364013671875
1773257347968420900,2.3774208984375,-0.995269775390625,-0.309173583984375,0.20001220703125
1773257347978434000,2.38743408203125,-0.9930419921875,-0.3057861328125,0.1846923828125
1773257347988446000,2.397446044921875,-1.0044403076171875,-0.3022003173828125,0.165985107421875
1773257347998458000,2.4074580078125,-1.013916015625,-0.304351806640625,0.1466217041015625
1773257348008471000,2.417470947265625,-1.0046844482421875,-0.3046722412109375,0.1381988525390625
1773257348018483200,2.427483154296875,-0.9879302978515625,-0.302276611328125,0.13348388671875
1773257348028495000,2.4374951171875,-0.9723968505859375,-0.3004608154296875,0.1311798095703125
1773257348038508300,2.44750830078125,-0.9549407958984375,-0.30621337890625,0.1352691650390625
1773257348048520200,2.457520263671875,-0.93414306640625,-0.31353759765625,0.138641357421875
1773257348058533000,2.467533203125,-0.9181976318359375,-0.3149261474609375,0.1502685546875
1773257348068545000,2.477544921875,-0.9051361083984375,-0.312744140625,0.16400146484375
1773257348078557000,2.487556884765625,-0.89361572265625,-0.3128509521484375,0.1827239990234375
1773257348088570000,2.497570068359375,-0.878082275390625,-0.3180084228515625,0.2021331787109375
1773257348098582000,2.50758203125,-0.8540191650390625,-0.322723388671875,0.2136688232421875
1773257348108594200,2.51759423828125,-0.8329010009765625,-0.3251190185546875,0.2071533203125
1773257348118607000,2.527607177734375,-0.8162841796875,-0.3385772705078125,0.1992340087890625
1773257348128619300,2.537619384765625,-0.808929443359375,-0.356048583984375,0.1806640625
1773257348138632000,2.5476318359375,-0.8096160888671875,-0.3658447265625,0.16693115234375
1773257348148644000,2.55764404296875,-0.8179168701171875,-0.3818206787109375,0.1654052734375
1773257348158656000,2.567656005859375,-0.8291168212890625,-0.3896026611328125,0.1704559326171875
1773257348168669000,2.5776689453125,-0.83795166015625,-0.3827362060546875,0.1680755615234375
1773257348178681000,2.58768115234375,-0.8482513427734375,-0.3802642822265625,0.1623687744140625
1773257348188693000,2.59769287109375,-0.8598480224609375,-0.388946533203125,0.1582489013671875
1773257348198706200,2.6077060546875,-0.865325927734375,-0.3986358642578125,0.1463775634765625
1773257348208718000,2.617718017578125,-0.8579864501953125,-0.4135894775390625,0.12835693359375
1773257348218730200,2.627730224609375,-0.8505401611328125,-0.4272613525390625,0.120269775390625
1773257348228743200,2.6377431640625,-0.8586273193359375,-0.4284515380859375,0.124053955078125
1773257348238755000,2.647755126953125,-0.8658599853515625,-0.4193878173828125,0.13043212890625
1773257348248768000,2.65776806640625,-0.8607635498046875,-0.4103240966796875,0.12994384765625
1773257348258780000,2.66777978515625,-0.8678131103515625,-0.412078857421875,0.12420654296875
1773257348268792000,2.6777919921875,-0.8767242431640625,-0.4067535400390625,0.0985260009765625
1773257348278805000,2.687804931640625,-0.9000701904296875,-0.388885498046875,0.0800323486328125
1773257348288817200,2.697817138671875,-0.919586181640625,-0.39471435546875,0.061126708984375
1773257348298829000,2.7078291015625,-0.9421844482421875,-0.3888092041015625,0.0439453125
1773257348308842200,2.71784228515625,-0.9579620361328125,-0.36224365234375,0.0363311767578125
1773257348318854100,2.727854248046875,-0.9688568115234375,-0.3171844482421875,0.0308380126953125
1773257348328867000,2.7378671875,-0.9940948486328125,-0.306121826171875,0.0569915771484375
1773257348338879200,2.747879150390625,-1.0099639892578125,-0.3126678466796875,0.0528717041015625
1773257348348891100,2.75789111328125,-1.010162353515625,-0.301788330078125,0.0090484619140625
1773257348358904000,2.767904052734375,-1.0048370361328125,-0.2971954345703125,-0.029571533203125
1773257348368916000,2.777916015625,-1.013671875,-0.302825927734375,-0.063568115234375
1773257348378928000,2.78792822265625,-1.02667236328125,-0.3020477294921875,-0.0865936279296875
1773257348388941000,2.797941162109375,-1.0388641357421875,-0.2937164306640625,-0.0973358154296875
1773257348398953200,2.807953125,-1.045379638671875,-0.2864227294921875,-0.0897369384765625
1773257348408965000,2.817965087890625,-1.0400848388671875,-0.2819366455078125,-0.0860748291015625
1773257348418978300,2.827978271484375,-1.023834228515625,-0.280548095703125,-0.09942626953125
1773257348428990200,2.837990234375,-0.9991607666015625,-0.290985107421875,-0.123291015625
1773257348439003000,2.8480029296875,-0.9671630859375,-0.3043365478515625,-0.1429901123046875
1773257348449015000,2.85801513671875,-0.9438323974609375,-0.313995361328125,-0.1435089111328125
1773257348459027000,2.86802685546875,-0.9324188232421875,-0.31317138671875,-0.13519287109375
1773257348469040000,2.8780400390625,-0.9306640625,-0.2949981689453125,-0.1377410888671875
1773257348479052000,2.888052001953125,-0.933258056640625,-0.278594970703125,-0.157440185546875
1773257348489064200,2.898064208984375,-0.9312896728515625,-0.274932861328125,-0.17510986328125
1773257348499077000,2.9080771484375,-0.922515869140625,-0.2913360595703125,-0.1865081787109375
1773257348509089000,2.918089111328125,-0.905517578125,-0.3154754638671875,-0.19256591796875
1773257348519101200,2.92810107421875,-0.876739501953125,-0.3331451416015625,-0.162445068359375
1773257348529114000,2.938114013671875,-0.84283447265625,-0.3448333740234375,-0.1246795654296875
1773257348539126300,2.948126220703125,-0.8451385498046875,-0.31256103515625,-0.085357666015625
1773257348549139000,2.958138916015625,-0.862701416015625,-0.3533782958984375,-0.0667724609375
1773257348559151000,2.968151123046875,-0.854766845703125,-0.3821563720703125,-0.0394744873046875
1773257348569163000,2.9781630859375,-0.8422088623046875,-0.3662872314453125,-0.04534912109375
1773257348579176200,2.98817626953125,-0.8472900390625,-0.3746795654296875,-0.058563232421875
1773257348589188000,2.99818798828125,-0.8546295166015625,-0.3556671142578125,-0.0339813232421875
1773257348599200000,3.008199951171875,-0.845977783203125,-0.3329620361328125,-0.0653228759765625
1773257348609213200,3.018213134765625,-0.8875885009765625,-0.51763916015625,-0.1428070068359375
1773257348619225000,3.02822509765625,-0.8696136474609375,-0.580230712890625,-0.1483154296875
1773257348629238000,3.038238037109375,-0.809051513671875,-0.49432373046875,-0.2095947265625
1773257348639250000,3.04825,-0.8480224609375,-0.45428466796875,-0.2114715576171875
1773257348649262000,3.058261962890625,-0.898956298828125,-0.474761962890625,-0.109771728515625
1773257348659275000,3.06827490234375,-0.911529541015625,-0.4600982666015625,-0.047943115234375
1773257348669287200,3.078287109375,-0.8663177490234375,-0.5049896240234375,-0.0837249755859375
1773257348679299000,3.088299072265625,-0.7045745849609375,-0.622467041015625,-0.100677490234375
1773257348689312000,3.09831201171875,-0.632049560546875,-0.6053466796875,-0.0244598388671875
1773257348699324200,3.10832421875,-0.74249267578125,-0.591522216796875,0.059844970703125
1773257348709336000,3.118336181640625,-0.8283843994140625,-0.5691680908203125,0.053558349609375
1773257348719349200,3.128349365234375,-0.9105377197265625,-0.5068817138671875,0.0697784423828125
1773257348729361200,3.138361083984375,-1.0250701904296875,-0.6363677978515625,-0.05316162109375
1773257348739374000,3.1483740234375,-1.0266876220703125,-0.5948333740234375,-0.1537017822265625
1773257348749386000,3.158385986328125,-1.0365447998046875,-0.5352325439453125,-0.180938720703125
1773257348759398000,3.16839794921875,-1.033721923828125,-0.496734619140625,-0.0992431640625
1773257348769411000,3.1784111328125,-0.9846038818359375,-0.4617462158203125,-0.0537872314453125
1773257348779423000,3.188423095703125,-0.935272216796875,-0.55389404296875,-0.0390625
1773257348789435100,3.19843505859375,-0.8531341552734375,-0.5172271728515625,-0.093017578125
1773257348799448000,3.208447998046875,-0.8092498779296875,-0.4322509765625,-0.103851318359375
1773257348809460200,3.218460205078125,-0.795684814453125,-0.4204864501953125,-0.10821533203125
1773257348819472100,3.22847216796875,-0.839599609375,-0.430816650390625,-0.0990142822265625
1773257348829485000,3.238485107421875,-0.8656768798828125,-0.34552001953125,-0.15875244140625
1773257348839497200,3.248497314453125,-0.897735595703125,-0.31317138671875,-0.0704803466796875
1773257348849510100,3.25851025390625,-0.8601837158203125,-0.3109130859375,-0.047393798828125
1773257348859522000,3.26852197265625,-0.85369873046875,-0.2869110107421875,-0.100189208984375
1773257348869534000,3.278533935546875,-0.8805084228515625,-0.25921630859375,-0.09503173828125
1773257348879547100,3.288547119140625,-0.902435302734375,-0.2693939208984375,-0.0973663330078125
1773257348889559000,3.29855908203125,-0.908966064453125,-0.28912353515625,-0.1142120361328125
1773257348899571200,3.3085712890625,-0.89324951171875,-0.289215087890625,-0.1397857666015625
1773257348909584100,3.318584228515625,-0.8938446044921875,-0.3060760498046875,-0.1663055419921875
1773257348919596300,3.32859619140625,-0.9013214111328125,-0.3367767333984375,-0.1865692138671875
1773257348929609000,3.33860888671875,-0.8915557861328125,-0.3638458251953125,-0.192291259765625
1773257348939621000,3.34862109375,-0.888336181640625,-0.3951263427734375,-0.1855316162109375
1773257348949633000,3.358633056640625,-0.889678955078125,-0.42138671875,-0.1817474365234375
1773257348959646000,3.36864599609375,-0.8794708251953125,-0.4189605712890625,-0.1897430419921875
1773257348969657600,3.37865771484375,-0.85943603515625,-0.4095001220703125,-0.1928253173828125
1773257348979669500,3.38866943359375,-0.8360137939453125,-0.4058380126953125,-0.212921142578125
1773257348989682700,3.3986826171875,-0.798980712890625,-0.40191650390625,-0.2754058837890625
1773257348999694600,3.408694580078125,-0.77276611328125,-0.404052734375,-0.3235015869140625
1773257349009706500,3.41870654296875,-0.7560882568359375,-0.4013671875,-0.350128173828125
1773257349019719700,3.4287197265625,-0.752105712890625,-0.3902435302734375,-0.3748779296875
1773257349029731600,3.438731689453125,-0.765899658203125,-0.376434326171875,-0.395721435546875
1773257349039743700,3.44874365234375,-0.793121337890625,-0.38287353515625,-0.3986358642578125
1773257349049756400,3.45875634765625,-0.8188629150390625,-0.394073486328125,-0.38275146484375
1773257349059768600,3.4687685546875,-0.8465118408203125,-0.4054412841796875,-0.37158203125
1773257349069781500,3.478781494140625,-0.8512420654296875,-0.4115142822265625,-0.391021728515625
1773257349079793400,3.48879345703125,-0.813995361328125,-0.3797454833984375,-0.4113616943359375
1773257349089805600,3.4988056640625,-0.818756103515625,-0.385467529296875,-0.4151458740234375
1773257349099818500,3.508818603515625,-0.8267974853515625,-0.3985748291015625,-0.42132568359375
1773257349109830700,3.51883056640625,-0.8126068115234375,-0.4094696044921875,-0.4421234130859375
1773257349119842600,3.528842529296875,-0.80560302734375,-0.407135009765625,-0.44158935546875
1773257349129855700,3.538855712890625,-0.84228515625,-0.387939453125,-0.443084716796875
1773257349139867600,3.54886767578125,-0.860443115234375,-0.3848114013671875,-0.4693450927734375
1773257349149880600,3.558880615234375,-0.878082275390625,-0.38482666015625,-0.4872283935546875
1773257349159892500,3.568892578125,-0.8881072998046875,-0.3711395263671875,-0.501708984375
1773257349169904400,3.578904296875,-0.8686370849609375,-0.3628692626953125,-0.507904052734375
1773257349179917600,3.58891748046875,-0.8536224365234375,-0.364227294921875,-0.5179443359375
1773257349189929500,3.598929443359375,-0.8437347412109375,-0.35455322265625,-0.522003173828125
1773257349199941600,3.608941650390625,-0.8176422119140625,-0.34814453125,-0.492034912109375
1773257349209954600,3.61895458984375,-0.767852783203125,-0.35394287109375,-0.4673004150390625
1773257349219966700,3.628966796875,-0.7300262451171875,-0.3672943115234375,-0.4866180419921875
1773257349229978600,3.638978515625,-0.7152099609375,-0.364501953125,-0.516021728515625
1773257349239991600,3.648991455078125,-0.7271270751953125,-0.352020263671875,-0.5352783203125
1773257349250003500,3.65900341796875,-0.7511138916015625,-0.340728759765625,-0.55987548828125
1773257349260016400,3.669016357421875,-0.7655792236328125,-0.33306884765625,-0.555206298828125
1773257349270028500,3.679028564453125,-0.755706787109375,-0.33367919921875,-0.5280609130859375
1773257349280040400,3.68904052734375,-0.730865478515625,-0.330657958984375,-0.504608154296875
1773257349290053600,3.6990537109375,-0.7224273681640625,-0.332275390625,-0.47625732421875
1773257349300065500,3.7090654296875,-0.73138427734375,-0.3487091064453125,-0.47088623046875
1773257349310077700,3.71907763671875,-0.7347869873046875,-0.3509674072265625,-0.502410888671875
1773257349320090600,3.729090576171875,-0.7223052978515625,-0.32354736328125,-0.55316162109375
1773257349330102500,3.7391025390625,-0.706207275390625,-0.2781982421875,-0.632598876953125
1773257349340114700,3.74911474609375,-0.7032623291015625,-0.24383544921875,-0.6929168701171875
1773257349350127400,3.75912744140625,-0.69775390625,-0.219268798828125,-0.71917724609375
1773257349360139500,3.769139404296875,-0.6757965087890625,-0.210601806640625,-0.715118408203125
1773257349370152400,3.77915234375,-0.6426544189453125,-0.200927734375,-0.6925201416015625
1773257349380164600,3.78916455078125,-0.613494873046875,-0.198211669921875,-0.68756103515625
1773257349390176500,3.799176513671875,-0.6126556396484375,-0.2028045654296875,-0.7086944580078125
1773257349400189700,3.809189697265625,-0.648345947265625,-0.205657958984375,-0.7260894775390625
1773257349410201600,3.81920166015625,-0.6786651611328125,-0.192047119140625,-0.730712890625
1773257349420213500,3.829213623046875,-0.7019805908203125,-0.151947021484375,-0.728546142578125
1773257349430226700,3.839226806640625,-0.73114013671875,-0.0988922119140625,-0.7272796630859375
1773257349440238600,3.849238525390625,-0.7337646484375,-0.04510498046875,-0.7386016845703125
1773257349450251500,3.85925146484375,-0.7215576171875,-0.0092010498046875,-0.7655181884765625
1773257349460263400,3.869263427734375,-0.7210540771484375,-0.0001068115234375,-0.7881011962890625
1773257349470275600,3.879275634765625,-0.7232666015625,0.0056304931640625,-0.8072357177734375
1773257349480288500,3.88928857421875,-0.745941162109375,0.0208892822265625,-0.8264923095703125
1773257349490300700,3.89930078125,-0.7894134521484375,0.0536956787109375,-0.81298828125
1773257349500312600,3.9093125,-0.827239990234375,0.1039581298828125,-0.7577056884765625
1773257349510325800,3.91932568359375,-0.8313751220703125,0.1525726318359375,-0.67010498046875
1773257349520337700,3.929337646484375,-0.8338165283203125,0.158233642578125,-0.57061767578125
1773257349530349600,3.939349609375,-0.8855133056640625,0.147674560546875,-0.492645263671875
1773257349540362500,3.949362548828125,-0.918792724609375,0.1655426025390625,-0.4606781005859375
1773257349550374400,3.95937451171875,-0.9381256103515625,0.1955718994140625,-0.4749603271484375
1773257349560387600,3.9693876953125,-1.0402069091796875,0.216064453125,-0.4777984619140625
1773257349570399500,3.9793994140625,-1.1616363525390625,0.20123291015625,-0.4867706298828125
1773257349580411600,3.98941162109375,-1.200653076171875,0.1612091064453125,-0.5540313720703125
1773257349590424600,3.999424560546875,-1.07586669921875,0.146087646484375,-0.6514434814453125
1773257349600436500,4.0094365234375,-0.9441680908203125,0.15911865234375,-0.7260894775390625
1773257349610449700,4.01944970703125,-0.9025115966796875,0.1526336669921875,-0.7216033935546875
1773257349620461600,4.029461669921875,-0.9272308349609375,0.1126708984375,-0.7139739990234375
1773257349630473700,4.0394736328125,-0.949127197265625,0.0932464599609375,-0.6991729736328125
1773257349640486400,4.049486328125,-0.943267822265625,0.0850982666015625,-0.6904754638671875
1773257349650498600,4.05949853515625,-0.9290771484375,0.10601806640625,-0.673095703125
1773257349660510500,4.069510498046875,-0.9197845458984375,0.1103515625,-0.59918212890625
1773257349670523600,4.079523681640625,-0.888458251953125,0.025970458984375,-0.5715484619140625
1773257349680535600,4.08953564453125,-0.827789306640625,-0.1070098876953125,-0.60498046875
1773257349690548700,4.099548828125,-0.77880859375,-0.225067138671875,-0.6576385498046875
1773257349700560600,4.109560546875,-0.699188232421875,-0.306427001953125,-0.7112884521484375
1773257349710572500,4.119572509765625,-0.65142822265625,-0.3022003173828125,-0.7473907470703125
1773257349720585500,4.12958544921875,-0.626983642578125,-0.2931060791015625,-0.794647216796875
1773257349730597400,4.139597412109375,-0.588714599609375,-0.2943115234375,-0.800994873046875
1773257349740610600,4.149610595703125,-0.5668182373046875,-0.3042144775390625,-0.7741851806640625
1773257349750622500,4.15962255859375,-0.5603485107421875,-0.325042724609375,-0.736968994140625
1773257349760634600,4.169634521484375,-0.536376953125,-0.3335113525390625,-0.675750732421875
1773257349770647600,4.1796474609375,-0.525390625,-0.3388671875,-0.650787353515625
1773257349780659700,4.18965966796875,-0.5511474609375,-0.3723602294921875,-0.662200927734375
1773257349790672600,4.199672607421875,-0.60076904296875,-0.403167724609375,-0.694244384765625
1773257349800684500,4.2096845703125,-0.634368896484375,-0.392578125,-0.739227294921875
1773257349810696700,4.21969677734375,-0.6530914306640625,-0.335357666015625,-0.7722320556640625
1773257349820709400,4.22970947265625,-0.6584625244140625,-0.2754058837890625,-0.7545166015625
1773257349830721500,4.239721435546875,-0.650390625,-0.2570343017578125,-0.7085113525390625
1773257349840733400,4.2497333984375,-0.652191162109375,-0.2674713134765625,-0.6675872802734375
1773257349850746600,4.25974658203125,-0.6334991455078125,-0.2984771728515625,-0.6177520751953125
1773257349860758500,4.269758544921875,-0.60736083984375,-0.3309478759765625,-0.5666656494140625
1773257349870771700,4.279771728515625,-0.5829620361328125,-0.3487396240234375,-0.537200927734375
1773257349880783600,4.28978369140625,-0.5684967041015625,-0.339752197265625,-0.5345916748046875
1773257349890795500,4.29979541015625,-0.588775634765625,-0.3045806884765625,-0.5424346923828125
1773257349900808400,4.309808349609375,-0.5999908447265625,-0.2798919677734375,-0.5453643798828125
1773257349910820600,4.319820556640625,-0.61090087890625,-0.2948150634765625,-0.553375244140625
1773257349920833500,4.32983349609375,-0.605316162109375,-0.3326568603515625,-0.5554351806640625
1773257349930845400,4.339845458984375,-0.5701446533203125,-0.37890625,-0.5620574951171875
1773257349940857600,4.349857666015625,-0.5222930908203125,-0.4332122802734375,-0.569488525390625
1773257349950870500,4.35987060546875,-0.4663543701171875,-0.4652099609375,-0.5579071044921875
1773257349960882700,4.369882568359375,-0.486968994140625,-0.5107421875,-0.576385498046875
1773257349970896000,4.379895751953125,-0.5086669921875,-0.5520782470703125,-0.622650146484375
1773257349980907800,4.38990771484375,-0.477325439453125,-0.5379180908203125,-0.625244140625
1773257349990920000,4.399919921875,-0.4508514404296875,-0.5124053955078125,-0.6388092041015625
1773257350000932600,4.4099326171875,-0.4476318359375,-0.511993408203125,-0.6585693359375
1773257350010944800,4.41994482421875,-0.4452972412109375,-0.53912353515625,-0.6702117919921875
1773257350020957700,4.429957763671875,-0.4581298828125,-0.5708770751953125,-0.6875457763671875
1773257350030969600,4.439969482421875,-0.460906982421875,-0.597686767578125,-0.7085418701171875
1773257350040982800,4.449982666015625,-0.4627838134765625,-0.5935211181640625,-0.7428436279296875
1773257350050994700,4.45999462890625,-0.4856109619140625,-0.5562896728515625,-0.751708984375
1773257350061006800,4.4700068359375,-0.5294952392578125,-0.518829345703125,-0.7248077392578125
1773257350071019800,4.480019775390625,-0.5647735595703125,-0.4928131103515625,-0.6891937255859375
1773257350081031700,4.49003173828125,-0.599273681640625,-0.48193359375,-0.6701507568359375
1773257350091044600,4.500044677734375,-0.5967254638671875,-0.480072021484375,-0.6548614501953125
1773257350101056800,4.510056884765625,-0.5488433837890625,-0.4848785400390625,-0.6861724853515625
1773257350111068700,4.520068603515625,-0.4999542236328125,-0.515625,-0.7288818359375
1773257350121081900,4.530081787109375,-0.4816131591796875,-0.560791015625,-0.755279541015625
1773257350131093800,4.54009375,-0.481231689453125,-0.5865478515625,-0.7503662109375
1773257350141107000,4.55010693359375,-0.47369384765625,-0.579925537109375,-0.7187652587890625
1773257350151118800,4.560118896484375,-0.4384307861328125,-0.5425262451171875,-0.691680908203125
1773257350161131500,4.570131591796875,-0.42144775390625,-0.4940185546875,-0.6544342041015625
1773257350171143700,4.580143798828125,-0.4498291015625,-0.4936065673828125,-0.62677001953125
1773257350181155600,4.590155517578125,-0.50341796875,-0.492919921875,-0.5776824951171875
1773257350191168800,4.600168701171875,-0.4877777099609375,-0.507965087890625,-0.5860748291015625
1773257350201180700,4.6101806640625,-0.4043121337890625,-0.6349029541015625,-0.7493896484375
1773257350211193900,4.62019384765625,-0.480224609375,-0.5816192626953125,-0.6089630126953125
1773257350221205800,4.630205810546875,-0.5153350830078125,-0.5665130615234375,-0.5871429443359375
1773257350231217700,4.6402177734375,-0.483001708984375,-0.5677947998046875,-0.6109771728515625
1773257350241230800,4.65023095703125,-0.4572601318359375,-0.5518341064453125,-0.621368408203125
1773257350251242800,4.66024267578125,-0.4848175048828125,-0.56890869140625,-0.668975830078125
1773257350261255700,4.670255615234375,-0.5163421630859375,-0.594970703125,-0.72845458984375
1773257350271267600,4.680267578125,-0.5171051025390625,-0.6038970947265625,-0.80084228515625
1773257350281279700,4.69027978515625,-0.5373687744140625,-0.5745697021484375,-0.8950653076171875
1773257350291292700,4.700292724609375,-0.5941619873046875,-0.55499267578125,-0.9863739013671875
1773257350301304800,4.710304931640625,-0.628936767578125,-0.5571136474609375,-1.0689239501953125
1773257350311317800,4.72031787109375,-0.63262939453125,-0.58685302734375,-1.096954345703125
1773257350321330000,4.730329833984375,-0.6036834716796875,-0.6567230224609375,-1.1058197021484375
1773257350331342600,4.740342529296875,-0.557373046875,-0.723876953125,-1.0739288330078125
1773257350341354500,4.7503544921875,-0.56378173828125,-0.7567901611328125,-0.9941558837890625
1773257350351366700,4.76036669921875,-0.5548248291015625,-0.7407379150390625,-0.8863525390625
1773257350361379600,4.770379638671875,-0.5314483642578125,-0.7213897705078125,-0.816864013671875
1773257350371391700,4.780391845703125,-0.5662689208984375,-0.7003173828125,-0.8000640869140625
1773257350381404700,4.79040478515625,-0.5743408203125,-0.6771392822265625,-0.7966766357421875
1773257350391416800,4.800416748046875,-0.55584716796875,-0.7014007568359375,-0.8790283203125
1773257350401429800,4.8104296875,-0.4842376708984375,-0.70880126953125,-0.945556640625
1773257350411442000,4.82044189453125,-0.5001068115234375,-0.662384033203125,-0.9420013427734375
1773257350421453800,4.830453857421875,-0.5724334716796875,-0.60992431640625,-0.926055908203125
1773257350431466800,4.840466796875,-0.602294921875,-0.5748748779296875,-0.9254913330078125
1773257350441478700,4.850478759765625,-0.64794921875,-0.5684814453125,-0.8921966552734375
1773257350451491800,4.860491943359375,-0.71221923828125,-0.590850830078125,-0.8196868896484375
1773257350461503700,4.870503662109375,-0.7586822509765625,-0.5762481689453125,-0.75726318359375
1773257350471515600,4.880515625,-0.7622222900390625,-0.5251922607421875,-0.7055816650390625
1773257350481528800,4.89052880859375,-0.727142333984375,-0.520599365234375,-0.6511688232421875
1773257350491540700,4.900540771484375,-0.639434814453125,-0.608184814453125,-0.69024658203125
1773257350501553700,4.9105537109375,-0.5189208984375,-0.660919189453125,-0.652252197265625
1773257350511565600,4.920565673828125,-0.466156005859375,-0.656646728515625,-0.50677490234375
1773257350521578800,4.930578857421875,-0.4901123046875,-0.6942901611328125,-0.3692474365234375
1773257350531590700,4.940590576171875,-0.48760986328125,-0.712890625,-0.23358154296875
1773257350541602600,4.9506025390625,-0.40771484375,-0.72705078125,-0.18218994140625
1773257350551615700,4.96061572265625,-0.3313140869140625,-0.7398681640625,-0.1967010498046875
1773257350561627600,4.970627685546875,-0.368682861328125,-0.7450103759765625,-0.2010650634765625
1773257350571640800,4.980640869140625,-0.3874359130859375,-0.7088470458984375,-0.1550750732421875
1773257350581652700,4.99065283203125,-0.3863983154296875,-0.686431884765625,-0.1374359130859375
1773257350591665700,5.000665771484375,-0.4199981689453125,-0.71142578125,-0.113250732421875
1773257350601677600,5.010677490234375,-0.4392852783203125,-0.725189208984375,-0.0750579833984375
1773257350611689700,5.020689697265625,-0.381134033203125,-0.7210845947265625,-0.0579071044921875
1773257350621702700,5.03070263671875,-0.3758697509765625,-0.75982666015625,-0.0658416748046875
1773257350631714800,5.04071484375,-0.3980255126953125,-0.806610107421875,-0.049713134765625
1773257350645481700,5.054481689453125,-0.3871612548828125,-0.7807769775390625,-0.0240631103515625
1773257350656119800,5.065119873046875,-0.445953369140625,-0.74267578125,0.034454345703125
1773257350666132700,5.0751328125,-0.4331817626953125,-0.7136077880859375,0.1183929443359375
1773257350676145000,5.085144775390625,-0.382232666015625,-0.6963653564453125,0.1056671142578125
1773257350686156800,5.09515673828125,-0.36090087890625,-0.7039337158203125,0.097137451171875
1773257350696169700,5.105169677734375,-0.2863922119140625,-0.7187957763671875,0.0410003662109375
1773257350706182000,5.115181884765625,-0.2024993896484375,-0.784271240234375,-0.10406494140625
1773257350716194600,5.125194580078125,-0.1407012939453125,-0.8436126708984375,-0.1186065673828125
1773257350726206700,5.135206787109375,-0.1114044189453125,-0.89508056640625,-0.007110595703125
1773257350736219600,5.1452197265625,-0.0525970458984375,-0.9287261962890625,0.1358795166015625
1773257350746231800,5.155231689453125,0.0313568115234375,-0.8960418701171875,0.280426025390625
1773257350756243700,5.16524365234375,0.054412841796875,-0.9207763671875,0.3650054931640625
1773257350766257000,5.1752568359375,0.0368804931640625,-0.9595489501953125,0.3691558837890625
1773257350776268800,5.185268798828125,0.0483551025390625,-0.9544830322265625,0.34185791015625
1773257350786281700,5.19528173828125,0.067230224609375,-0.933013916015625,0.303802490234375
1773257350796293600,5.205293701171875,0.0923919677734375,-0.9268341064453125,0.2686004638671875
1773257350806306800,5.215306884765625,0.11199951171875,-0.9274444580078125,0.2407379150390625
1773257350816318700,5.225318603515625,0.1100616455078125,-0.922698974609375,0.239593505859375
1773257350826330600,5.23533056640625,0.1038360595703125,-0.92120361328125,0.2648162841796875
1773257350836343800,5.24534375,0.102813720703125,-0.9283294677734375,0.2722015380859375
1773257350846355700,5.255355712890625,0.1071319580078125,-0.9219970703125,0.2496490478515625
1773257350856369000,5.265368896484375,0.1145782470703125,-0.974884033203125,0.19561767578125
1773257350866380800,5.275380859375,0.06890869140625,-0.9578704833984375,0.2309722900390625
1773257350876393700,5.285393798828125,0.0569305419921875,-0.930816650390625,0.2640533447265625
1773257350886405600,5.295405517578125,0.03631591796875,-0.9275360107421875,0.2862548828125
1773257350896417500,5.30541748046875,0.0250091552734375,-0.93402099609375,0.276031494140625
1773257350906430700,5.3154306640625,0.0330963134765625,-0.953582763671875,0.21832275390625
1773257350916442600,5.325442626953125,0.033294677734375,-0.9750823974609375,0.1710357666015625
1773257350926455800,5.335455810546875,0.0094146728515625,-0.9799041748046875,0.159698486328125
1773257350936467700,5.3454677734375,-0.0219268798828125,-0.9666290283203125,0.1745452880859375
1773257350946479900,5.35547998046875,-0.0383148193359375,-0.9383697509765625,0.1915283203125
1773257350956492500,5.365492431640625,-0.0279083251953125,-0.93035888671875,0.1736907958984375
1773257350966504700,5.375504638671875,0.0220489501953125,-0.9892425537109375,0.1220855712890625
1773257350976518000,5.385517822265625,0.0642852783203125,-1.0545501708984375,0.10528564453125
1773257350986529800,5.39552978515625,0.068206787109375,-1.06842041015625,0.1523895263671875
1773257350996543000,5.40554296875,0.02911376953125,-1.0414276123046875,0.1824798583984375
1773257351006555000,5.415554931640625,-0.0012054443359375,-1.0087738037109375,0.1561126708984375
1773257351016567000,5.425567138671875,-0.0243377685546875,-0.9829864501953125,0.1206512451171875
1773257351026580000,5.435580078125,-0.07171630859375,-0.9705810546875,0.12030029296875
1773257351036592000,5.445592041015625,-0.104949951171875,-1.007843017578125,0.1057891845703125
1773257351046604800,5.455604736328125,-0.064239501953125,-1.01031494140625,0.0257110595703125
1773257351056617000,5.465616943359375,-0.009246826171875,-1.03887939453125,-0.0583343505859375
1773257351066630000,5.4756298828125,-0.029754638671875,-1.101837158203125,-0.1619110107421875
1773257351076642000,5.48564208984375,-0.0465087890625,-1.1010284423828125,-0.1108551025390625
1773257351086655000,5.495655029296875,-0.0210723876953125,-0.954986572265625,0.027923583984375
1773257351096667100,5.505667236328125,-0.02581787109375,-0.9515533447265625,0.1186981201171875
1773257351106679000,5.515678955078125,-0.0145111083984375,-0.9884185791015625,0.2088165283203125
1773257351116691700,5.525691650390625,0.049835205078125,-0.9891510009765625,0.230804443359375
1773257351126703900,5.535703857421875,0.03729248046875,-0.9676971435546875,0.183135986328125
1773257351136716800,5.545716796875,0.0684814453125,-0.938873291015625,0.1571197509765625
1773257351146729000,5.55572900390625,0.1000213623046875,-0.8843841552734375,0.095947265625
1773257351156742000,5.565741943359375,0.0851287841796875,-0.9093475341796875,0.021514892578125
1773257351166754000,5.575754150390625,0.0052947998046875,-0.93365478515625,0.0488433837890625
1773257351176766000,5.585765869140625,-0.01763916015625,-0.9077911376953125,0.120147705078125
1773257351186779100,5.595779052734375,-0.0341644287109375,-0.906097412109375,0.1156768798828125
1773257351196791000,5.605791015625,-0.05523681640625,-0.916534423828125,0.0618133544921875
1773257351206804000,5.615803955078125,-0.0540618896484375,-0.93450927734375,0.039703369140625
1773257351216815900,5.62581591796875,-0.0313262939453125,-0.96722412109375,0.01959228515625
1773257351226829000,5.6358291015625,-0.0047760009765625,-0.9532012939453125,0.0383758544921875
1773257351236841000,5.645841064453125,0.002655029296875,-0.9370574951171875,0.0458984375
1773257351246852900,5.655852783203125,0.066162109375,-0.9549102783203125,0.0593719482421875
1773257351256866000,5.665865966796875,0.1571807861328125,-0.988739013671875,0.08203125
1773257351266878000,5.6758779296875,0.229156494140625,-1.04254150390625,0.06488037109375
1773257351276891000,5.685890869140625,0.2564697265625,-1.10662841796875,0.046478271484375
1773257351286902800,5.69590283203125,0.2275390625,-1.11181640625,0.0794525146484375
1773257351296916000,5.705916015625,0.1148834228515625,-1.0291748046875,0.1580963134765625
1773257351306927900,5.715927978515625,0.07928466796875,-0.9607696533203125,0.1976470947265625
1773257351316941000,5.725941162109375,0.0566864013671875,-0.9762420654296875,0.11712646484375
1773257351326953000,5.735952880859375,0.0509796142578125,-1.017486572265625,0.0394134521484375
1773257351336964900,5.74596484375,0.0669708251953125,-1.0048980712890625,0.051666259765625
1773257351346978000,5.75597802734375,0.073760986328125,-1.0052490234375,0.00677490234375
1773257351356990000,5.765989990234375,0.1148223876953125,-1.0188446044921875,-0.0323333740234375
1773257351367003000,5.7760029296875,0.127838134765625,-1.0077056884765625,-0.0538787841796875
1773257351377014800,5.786014892578125,0.108734130859375,-0.9935302734375,-0.0940399169921875
1773257351387028000,5.796028076171875,0.0961761474609375,-0.9901885986328125,-0.077301025390625
1773257351397039900,5.806039794921875,0.093902587890625,-1.0220947265625,-0.0591888427734375
1773257351407053000,5.816052978515625,0.1038665771484375,-1.069793701171875,-0.0469207763671875
1773257351417065000,5.82606494140625,0.1167755126953125,-1.1027679443359375,-0.05230712890625
1773257351427076900,5.836076904296875,0.1240997314453125,-1.0727996826171875,-0.0244598388671875
1773257351437090000,5.846090087890625,0.117095947265625,-1.11224365234375,-0.105926513671875
1773257351447102000,5.85610205078125,0.0773468017578125,-1.0400848388671875,0.02081298828125
1773257351457115000,5.866114990234375,0.007843017578125,-0.9724578857421875,0.061309814453125
1773257351467126800,5.876126708984375,-0.01837158203125,-0.98260498046875,-0.0055999755859375
1773257351477140000,5.886139892578125,-0.06591796875,-0.9525604248046875,-0.0521392822265625
1773257351487151900,5.89615185546875,-0.1067352294921875,-0.9008026123046875,-0.048431396484375
1773257351497165000,5.9061650390625,-0.1409912109375,-0.8675079345703125,-0.0168609619140625
1773257351507177000,5.916177001953125,-0.13690185546875,-0.851409912109375,0.0008544921875
1773257351517190000,5.92618994140625,-0.1431427001953125,-0.8567352294921875,0.0001220703125
1773257351527201800,5.936201904296875,-0.1380157470703125,-0.9051666259765625,-0.0492706298828125
1773257351537215000,5.946215087890625,-0.1372222900390625,-0.9027099609375,-0.0819244384765625
1773257351547227000,5.956226806640625,-0.112213134765625,-0.9033660888671875,-0.09234619140625
1773257351557238800,5.96623876953125,-0.0525054931640625,-0.94488525390625,-0.0851593017578125
1773257351567252000,5.976251953125,-0.022735595703125,-0.9630126953125,-0.020263671875
1773257351577263900,5.986263916015625,0.0146331787109375,-0.931671142578125,0.0384521484375
1773257351587277000,5.996277099609375,0.1060333251953125,-0.9464111328125,0.0181732177734375
1773257351597289000,6.0062890625,0.2470703125,-0.9521942138671875,-0.0008697509765625
1773257351607302000,6.016302001953125,0.3772125244140625,-0.963165283203125,0.0030517578125
1773257351617313800,6.026313720703125,0.4663848876953125,-1.0424652099609375,0.0088348388671875
1773257351627327000,6.036326904296875,0.4579010009765625,-1.084197998046875,0.0099029541015625
1773257351637339000,6.0463388671875,0.4519195556640625,-1.0792083740234375,0.02398681640625
1773257351647352000,6.05635205078125,0.40191650390625,-1.0845947265625,0.0146942138671875
1773257351657364000,6.066364013671875,0.335479736328125,-1.0986175537109375,-0.0242767333984375
1773257351667377000,6.076376953125,0.241119384765625,-1.0753021240234375,-0.013946533203125
1773257351677388800,6.086388916015625,0.14715576171875,-1.0186920166015625,-0.001129150390625
1773257351687402000,6.096402099609375,0.0857696533203125,-0.9522552490234375,0.000640869140625
1773257351697414000,6.106413818359375,0.0995941162109375,-0.9448699951171875,-0.02972412109375
1773257351707425800,6.11642578125,0.11444091796875,-0.9390716552734375,-0.11480712890625
1773257351717439000,6.12643896484375,0.116363525390625,-0.9493408203125,-0.1035308837890625
1773257351727451000,6.136450927734375,0.144012451171875,-0.9378509521484375,-0.0899658203125
1773257351737464000,6.146464111328125,0.1497955322265625,-0.937469482421875,-0.052581787109375
1773257351747476000,6.15647607421875,0.1412200927734375,-0.9044647216796875,0.0268096923828125
1773257351757489000,6.166489013671875,0.12322998046875,-0.8659820556640625,0.091552734375
1773257351767500800,6.176500732421875,0.100860595703125,-0.8714752197265625,0.117340087890625
1773257351777514000,6.186513916015625,0.1268157958984375,-0.8745880126953125,0.025726318359375
1773257351787526000,6.19652587890625,0.1638031005859375,-0.8548431396484375,-0.126495361328125
1773257351797539000,6.2065390625,0.14349365234375,-0.8342132568359375,-0.179840087890625
1773257351807551000,6.216551025390625,0.122467041015625,-0.842529296875,-0.1932525634765625
1773257351817564000,6.22656396484375,0.1053619384765625,-0.8726654052734375,-0.217254638671875
1773257351827575800,6.236575927734375,0.042633056640625,-0.8864288330078125,-0.23193359375
1773257351837589000,6.246589111328125,0.020477294921875,-0.877777099609375,-0.2083892822265625
1773257351847601000,6.256600830078125,0.0703277587890625,-0.916534423828125,-0.135986328125
1773257351857614000,6.266614013671875,0.0869598388671875,-0.988616943359375,-0.0744781494140625
1773257351867626000,6.2766259765625,0.129608154296875,-1.0102386474609375,-0.0388641357421875
1773257351877639000,6.286638916015625,0.1769866943359375,-1.01763916015625,-0.0867767333984375
1773257351887651000,6.296651123046875,0.237213134765625,-1.03680419921875,-0.1799774169921875
1773257351897663700,6.306663818359375,0.3205413818359375,-1.074859619140625,-0.2783355712890625
1773257351907676000,6.316676025390625,0.39031982421875,-1.183197021484375,-0.3687744140625
1773257351917688800,6.326688720703125,0.447052001953125,-1.2880859375,-0.385406494140625
1773257351927701000,6.336700927734375,0.4811859130859375,-1.3580322265625,-0.32501220703125
1773257351937714000,6.3467138671875,0.520599365234375,-1.396270751953125,-0.2778778076171875
1773257351947726000,6.35672607421875,0.530731201171875,-1.4185638427734375,-0.27679443359375
1773257351957738800,6.36673876953125,0.5242919921875,-1.393341064453125,-0.3199005126953125
1773257351967751000,6.3767509765625,0.4692230224609375,-1.30712890625,-0.35906982421875
1773257351977764000,6.38676416015625,0.3589324951171875,-1.1802520751953125,-0.32659912109375
1773257351987776000,6.39677587890625,0.22393798828125,-1.0794219970703125,-0.2797088623046875
1773257351997789200,6.4067890625,0.1134796142578125,-1.0684661865234375,-0.3245086669921875
1773257352007801000,6.416801025390625,0.055206298828125,-1.0785980224609375,-0.393524169921875
1773257352017814300,6.426814208984375,0.0523223876953125,-1.08380126953125,-0.4525909423828125
1773257352027826200,6.436826171875,0.0599212646484375,-1.0693206787109375,-0.4245452880859375
1773257352037839000,6.446839111328125,0.0673065185546875,-1.0675201416015625,-0.4085540771484375
1773257352047851000,6.45685107421875,0.1121978759765625,-1.12799072265625,-0.4612579345703125
1773257352057864200,6.4668642578125,0.1566925048828125,-1.16119384765625,-0.487548828125
1773257352067876000,6.4768759765625,0.1457672119140625,-1.036590576171875,-0.4227447509765625
1773257352077889300,6.48688916015625,0.0970611572265625,-0.9387054443359375,-0.35748291015625
1773257352087901200,6.496901123046875,0.0381011962890625,-0.8674774169921875,-0.30206298828125
1773257352097914000,6.5069140625,-0.0434112548828125,-0.8168487548828125,-0.2641448974609375
1773257352107926000,6.516926025390625,-0.1226959228515625,-0.7845458984375,-0.2908172607421875
1773257352117939000,6.52693896484375,-0.2046661376953125,-0.739990234375,-0.3519134521484375
1773257352127951000,6.536951171875,-0.2506103515625,-0.682830810546875,-0.39569091796875
1773257352137964000,6.546964111328125,-0.3044281005859375,-0.6441192626953125,-0.3913421630859375
1773257352147976200,6.55697607421875,-0.3799285888671875,-0.5962371826171875,-0.388702392578125
1773257352157989000,6.566989013671875,-0.4634552001953125,-0.54498291015625,-0.371795654296875
1773257352168001300,6.577001220703125,-0.540191650390625,-0.5052642822265625,-0.3376312255859375
1773257352178014000,6.587013916015625,-0.5012359619140625,-0.445953369140625,-0.295196533203125
1773257352188026000,6.597026123046875,-0.455352783203125,-0.3428802490234375,-0.318206787109375
1773257352198039000,6.6070390625,-0.4599761962890625,-0.303314208984375,-0.35345458984375
1773257352208051200,6.61705126953125,-0.52252197265625,-0.329376220703125,-0.3654327392578125
1773257352218064100,6.627064208984375,-0.561370849609375,-0.354156494140625,-0.3574981689453125
1773257352228077000,6.6370771484375,-0.5544281005859375,-0.33074951171875,-0.362091064453125
1773257352238089000,6.6470888671875,-0.6438751220703125,-0.38787841796875,-0.3547821044921875
1773257352248102100,6.65710205078125,-0.72137451171875,-0.5461883544921875,-0.332427978515625
1773257352258114000,6.667114013671875,-0.73516845703125,-0.699432373046875,-0.3045654296875
1773257352268127200,6.677127197265625,-0.7847137451171875,-0.920623779296875,-0.261932373046875
1773257352278139100,6.68713916015625,-0.766326904296875,-1.0337371826171875,-0.155853271484375
1773257352288152300,6.69715234375,-0.5157928466796875,-0.8053436279296875,-0.0885467529296875
1773257352298164200,6.707164306640625,-0.41571044921875,-0.692413330078125,-0.07305908203125
1773257352308177000,6.717177001953125,-0.3761749267578125,-0.7181243896484375,-0.0260467529296875
1773257352318189000,6.72718896484375,-0.295257568359375,-0.7483062744140625,-0.078399658203125
1773257352328202000,6.737201904296875,-0.2226409912109375,-0.7957305908203125,-0.219940185546875
1773257352338214100,6.747214111328125,-0.1974029541015625,-0.8657379150390625,-0.3158111572265625
1773257352348227000,6.75722705078125,-0.222259521484375,-0.9268646240234375,-0.35906982421875
1773257352358239200,6.7672392578125,-0.1899566650390625,-0.9359893798828125,-0.328399658203125
1773257352368252200,6.777252197265625,-0.1038970947265625,-0.8882904052734375,-0.2853240966796875
1773257352378264000,6.78726416015625,-0.1607513427734375,-0.84210205078125,-0.2752227783203125
1773257352388277000,6.797277099609375,-0.2546539306640625,-0.8314361572265625,-0.2808380126953125
1773257352398290200,6.807290283203125,-0.285614013671875,-0.8974761962890625,-0.2643585205078125
1773257352408302000,6.817302001953125,-0.271209716796875,-1.4160308837890625,-0.0644378662109375
1773257352418315300,6.827315185546875,-0.0809326171875,-1.09173583984375,-0.0786590576171875
1773257352428327200,6.8373271484375,-0.0764312744140625,-0.7099151611328125,-0.2305755615234375
1773257352438340000,6.847340087890625,-0.2761688232421875,-1.0283660888671875,-0.1304168701171875
1773257352448352000,6.85735205078125,-0.33892822265625,-0.980255126953125,-0.1910400390625
1773257352458365200,6.867365234375,-0.3671417236328125,-0.9388427734375,-0.2362518310546875
1773257352468377000,6.877377197265625,-0.351593017578125,-0.943115234375,-0.292633056640625
1773257352478390300,6.887390380859375,-0.3448486328125,-0.9382476806640625,-0.3971099853515625
1773257352488402200,6.897402099609375,-0.4203033447265625,-0.925140380859375,-0.4034576416015625
1773257352498415000,6.9074150390625,-0.4300689697265625,-0.8807525634765625,-0.402069091796875
1773257352508428000,6.917427978515625,-0.4501800537109375,-0.876983642578125,-0.4146270751953125
1773257352518440000,6.92743994140625,-0.4771881103515625,-0.8480377197265625,-0.422576904296875
1773257352528453000,6.937453125,-0.521484375,-0.775909423828125,-0.401763916015625
1773257352538465000,6.947465087890625,-0.6342926025390625,-0.706146240234375,-0.3819122314453125
1773257352548478200,6.957478271484375,-0.695098876953125,-0.584075927734375,-0.4003448486328125
1773257352558490000,6.967489990234375,-0.62591552734375,-0.6162109375,-0.41143798828125
1773257352568503000,6.9775029296875,-0.4954071044921875,-0.6717681884765625,-0.37823486328125
1773257352578515000,6.987514892578125,-0.4017181396484375,-0.7453765869140625,-0.3305816650390625
1773257352588528000,6.997528076171875,-0.2823638916015625,-0.848541259765625,-0.235931396484375
1773257352598541000,7.007541015625,-0.178253173828125,-0.9410858154296875,-0.1669921875
1773257352608553200,7.01755322265625,-0.2000579833984375,-0.9388427734375,-0.2026824951171875
1773257352618566100,7.027566162109375,-0.24462890625,-1.0183258056640625,-0.256072998046875
1773257352628578300,7.037578369140625,-0.248046875,-1.1274566650390625,-0.25323486328125
1773257352638591000,7.047591064453125,-0.185089111328125,-1.140533447265625,-0.2659149169921875
1773257352648603100,7.05760302734375,-0.109619140625,-1.1511993408203125,-0.32513427734375
1773257352658616000,7.067615966796875,-0.155517578125,-1.1265106201171875,-0.3487396240234375
1773257352668629200,7.077629150390625,-0.201202392578125,-1.0491180419921875,-0.4488525390625
1773257352678641200,7.08764111328125,-0.153076171875,-0.9499969482421875,-0.5998382568359375
1773257352688654000,7.097654052734375,-0.2773590087890625,-0.90594482421875,-0.6429595947265625
1773257352698666000,7.107666015625,-0.2030029296875,-0.8080902099609375,-0.63134765625
1773257352708679200,7.11767919921875,-0.1618804931640625,-0.737457275390625,-0.5583343505859375
1773257352718691000,7.127691162109375,-0.3452911376953125,-0.8336181640625,-0.36895751953125
1773257352728704300,7.137704345703125,-0.3662567138671875,-0.892120361328125,-0.3096466064453125
1773257352738716200,7.147716064453125,-0.3088836669921875,-0.8841094970703125,-0.2763671875
1773257352748729000,7.15772900390625,-0.2375640869140625,-0.907196044921875,-0.1819305419921875
1773257352758742000,7.167741943359375,-0.1836090087890625,-0.92333984375,-0.0653533935546875
1773257352768754000,7.17775390625,-0.116668701171875,-1.038299560546875,0.176605224609375
1773257352778767000,7.18776708984375,-0.0776214599609375,-1.0533599853515625,0.32586669921875
1773257352788779000,7.197779052734375,-0.1001739501953125,-0.8799285888671875,0.3201904296875
1773257352798792200,7.207792236328125,-0.1626739501953125,-0.8214569091796875,0.3369140625
1773257352808804000,7.21780419921875,-0.2346343994140625,-0.8591156005859375,0.4181671142578125
1773257352818817000,7.227817138671875,-0.2755279541015625,-0.90447998046875,0.4825592041015625
1773257352828829000,7.237828857421875,-0.2797393798828125,-0.9343109130859375,0.477813720703125
1773257352838842000,7.247842041015625,-0.2614593505859375,-0.9499969482421875,0.510650634765625
1773257352848855000,7.25785498046875,-0.26177978515625,-0.914886474609375,0.54754638671875
1773257352858867200,7.2678671875,-0.2434539794921875,-0.8299102783203125,0.5617218017578125
1773257352868880100,7.277880126953125,-0.19384765625,-0.7731170654296875,0.515228271484375
1773257352878892300,7.287892333984375,-0.2200775146484375,-0.8054351806640625,0.4350128173828125
1773257352888905000,7.297905029296875,-0.307586669921875,-0.8942108154296875,0.32830810546875
1773257352898917000,7.307917236328125,-0.3806915283203125,-0.94000244140625,0.233795166015625
1773257352908930000,7.317929931640625,-0.40185546875,-0.9400177001953125,0.1420745849609375
1773257352918943200,7.327943115234375,-0.41558837890625,-0.931304931640625,0.0537261962890625
1773257352928955100,7.337955078125,-0.4582366943359375,-0.9043121337890625,-0.0113067626953125
1773257352938968000,7.347968017578125,-0.5298004150390625,-0.869354248046875,-0.0472412109375
1773257352948980000,7.35797998046875,-0.5968475341796875,-0.8270416259765625,-0.0915069580078125
1773257352958993200,7.3679931640625,-0.6408233642578125,-0.8328704833984375,-0.1132049560546875
1773257352969005000,7.378005126953125,-0.6609344482421875,-0.852874755859375,-0.116424560546875
1773257352979018200,7.388018310546875,-0.63543701171875,-0.852264404296875,-0.142181396484375
1773257352989031400,7.398031494140625,-0.5842132568359375,-0.822296142578125,-0.1344146728515625
1773257352999043300,7.408043212890625,-0.58685302734375,-0.841583251953125,-0.2041778564453125
1773257353009056300,7.41805615234375,-0.63916015625,-0.8105621337890625,-0.291595458984375
1773257353019068200,7.428068115234375,-0.743682861328125,-0.815582275390625,-0.2909088134765625
1773257353029081000,7.4380810546875,-0.8239593505859375,-0.814056396484375,-0.2686004638671875
1773257353039093200,7.44809326171875,-0.8511962890625,-0.842376708984375,-0.2814483642578125
1773257353049106200,7.458106201171875,-0.8311309814453125,-0.8479156494140625,-0.2905120849609375
1773257353059118300,7.468118408203125,-0.8232574462890625,-0.791290283203125,-0.209503173828125
1773257353069131000,7.478131103515625,-0.808685302734375,-0.7324371337890625,-0.14404296875
1773257353079144200,7.488144287109375,-0.7584228515625,-0.683258056640625,-0.1255645751953125
1773257353089156000,7.498156005859375,-0.6932220458984375,-0.6867828369140625,-0.134979248046875
1773257353099169300,7.508169189453125,-0.7528533935546875,-0.7022247314453125,-0.1172332763671875
1773257353109181200,7.51818115234375,-0.850250244140625,-0.6660614013671875,-0.088897705078125
1773257353119194400,7.5281943359375,-0.8521881103515625,-0.6454010009765625,-0.0406646728515625
1773257353129206300,7.538206298828125,-0.7394256591796875,-0.6544036865234375,0.0151824951171875
1773257353139219200,7.54821923828125,-0.658355712890625,-0.6439056396484375,0.0570526123046875
1773257353149232000,7.558232177734375,-0.64617919921875,-0.6282958984375,0.0563201904296875
1773257353159244300,7.568244384765625,-0.66473388671875,-0.6237030029296875,0.030914306640625
1773257353169257200,7.57825732421875,-0.684112548828125,-0.640594482421875,0.0377655029296875
1773257353179269400,7.588269287109375,-0.681549072265625,-0.658050537109375,0.0583953857421875
1773257353189282300,7.5982822265625,-0.6796112060546875,-0.6865386962890625,0.06390380859375
1773257353199294200,7.608294189453125,-0.70623779296875,-0.694854736328125,0.06744384765625
1773257353209307100,7.61830712890625,-0.7579803466796875,-0.6841583251953125,0.0821380615234375
1773257353219320300,7.6283203125,-0.77593994140625,-0.680877685546875,0.0797882080078125
1773257353229332200,7.638332275390625,-0.78350830078125,-0.669342041015625,0.064453125
1773257353239345400,7.648345458984375,-0.7731781005859375,-0.644744873046875,0.076812744140625
1773257353249357300,7.658357421875,-0.7439727783203125,-0.62603759765625,0.0824737548828125
1773257353259370200,7.668370361328125,-0.768157958984375,-0.6265411376953125,0.0546112060546875
1773257353269382100,7.678382080078125,-0.8206329345703125,-0.6283111572265625,0.0229034423828125
1773257353279395300,7.688395263671875,-0.8542633056640625,-0.619293212890625,-0.000732421875
1773257353289408300,7.698408203125,-0.837432861328125,-0.6041717529296875,0.028045654296875
1773257353299420200,7.708420166015625,-0.800811767578125,-0.599609375,0.08697509765625
1773257353309433300,7.718433349609375,-0.796356201171875,-0.59478759765625,0.133636474609375
1773257353319445200,7.7284453125,-0.8211212158203125,-0.57012939453125,0.1550445556640625
1773257353329458200,7.738458251953125,-0.829071044921875,-0.5627288818359375,0.1476593017578125
1773257353339471400,7.748471435546875,-0.8290252685546875,-0.5799102783203125,0.126007080078125
1773257353349483300,7.758483154296875,-0.8436126708984375,-0.56512451171875,0.0987548828125
1773257353359496200,7.76849609375,-0.882110595703125,-0.55535888671875,0.0693359375
1773257353369508400,7.77850830078125,-0.925079345703125,-0.56640625,0.01605224609375
1773257353379521000,7.78852099609375,-0.97314453125,-0.591217041015625,-0.02685546875
1773257353389533200,7.798533203125,-0.9496612548828125,-0.587982177734375,0.0051116943359375
1773257353399546000,7.808546142578125,-0.8652496337890625,-0.5536346435546875,0.0559844970703125
1773257353409559300,7.818559326171875,-0.79754638671875,-0.516326904296875,0.106842041015625
1773257353419571200,7.8285712890625,-0.7663421630859375,-0.4975433349609375,0.178314208984375
1773257353429584400,7.83858447265625,-0.726104736328125,-0.48736572265625,0.2684173583984375
1773257353439596300,7.84859619140625,-0.7087249755859375,-0.4596099853515625,0.3677215576171875
1773257353449609200,7.858609130859375,-0.779449462890625,-0.410858154296875,0.406524658203125
1773257353459621000,7.86862109375,-0.88067626953125,-0.3684844970703125,0.40618896484375
1773257353469634300,7.87863427734375,-0.8874053955078125,-0.3668975830078125,0.39739990234375
1773257353479647200,7.888647216796875,-0.8330841064453125,-0.41192626953125,0.3297576904296875
1773257353489659400,7.898659423828125,-0.7780914306640625,-0.4667205810546875,0.2205810546875
1773257353499672000,7.908672119140625,-0.7670440673828125,-0.4886322021484375,0.1162109375
1773257353509684200,7.918684326171875,-0.7781524658203125,-0.46820068359375,0.0511474609375
1773257353519697200,7.928697265625,-0.8148345947265625,-0.4388885498046875,0.0339813232421875
1773257353529709300,7.938709228515625,-0.850799560546875,-0.4271392822265625,0.0588836669921875
1773257353539722200,7.94872216796875,-0.8730010986328125,-0.412750244140625,0.126495361328125
1773257353549735400,7.9587353515625,-0.896331787109375,-0.393585205078125,0.2004852294921875
1773257353559747300,7.968747314453125,-0.916748046875,-0.3932342529296875,0.228118896484375
1773257353569760300,7.97876025390625,-0.90765380859375,-0.403350830078125,0.234405517578125
1773257353579772200,7.988772216796875,-0.885528564453125,-0.4121551513671875,0.2239532470703125
1773257353589785300,7.998785400390625,-0.8632965087890625,-0.4227752685546875,0.20684814453125
1773257353599798300,8.00879833984375,-0.8663482666015625,-0.4277496337890625,0.173980712890625
1773257353609810200,8.01881005859375,-0.903350830078125,-0.4305267333984375,0.1414337158203125
1773257353619823000,8.028822998046875,-0.944305419921875,-0.41937255859375,0.1514892578125
1773257353629835000,8.0388349609375,-0.960296630859375,-0.3963470458984375,0.2292327880859375
1773257353639848200,8.04884814453125,-0.9508514404296875,-0.3556060791015625,0.290435791015625
1773257353649860000,8.058860107421875,-0.931671142578125,-0.344146728515625,0.28759765625
1773257353659873300,8.068873291015626,-0.907318115234375,-0.356475830078125,0.2482757568359375
1773257353669886200,8.07888623046875,-0.9034271240234375,-0.3690338134765625,0.2140655517578125
1773257353679898400,8.0888984375,-0.9051513671875,-0.3800048828125,0.187530517578125
1773257353689911000,8.0989111328125,-0.8920135498046875,-0.387054443359375,0.1907196044921875
1773257353699923200,8.108923095703124,-0.868804931640625,-0.3738250732421875,0.2239227294921875
1773257353709936000,8.11893603515625,-0.8490753173828125,-0.3517608642578125,0.243621826171875
1773257353719948300,8.1289482421875,-0.844940185546875,-0.3358612060546875,0.2455291748046875
1773257353729961200,8.138961181640624,-0.8759002685546875,-0.3380126953125,0.2288360595703125
1773257353739974100,8.14897412109375,-0.9282684326171875,-0.34368896484375,0.2166290283203125
1773257353749986000,8.158986083984376,-0.97174072265625,-0.334625244140625,0.2352752685546875
1773257353759999200,8.168999267578124,-1.0048675537109375,-0.3103485107421875,0.2624969482421875
1773257353770011100,8.17901123046875,-1.04681396484375,-0.2873992919921875,0.2774658203125
1773257353780024300,8.1890244140625,-1.080169677734375,-0.258514404296875,0.2562255859375
1773257353790037200,8.199037353515624,-1.042022705078125,-0.2718658447265625,0.158355712890625
1773257353800049400,8.20904931640625,-0.95611572265625,-0.3040313720703125,0.0670623779296875
1773257353810062000,8.21906201171875,-0.826568603515625,-0.27947998046875,0.078399658203125
1773257353820074200,8.22907421875,-0.7666015625,-0.2586517333984375,0.0812835693359375
1773257353830087200,8.239087158203125,-0.7404632568359375,-0.2236175537109375,0.0981903076171875
1773257353840099300,8.249099365234375,-0.747894287109375,-0.1987762451171875,0.1396636962890625
1773257353850112300,8.2591123046875,-0.76220703125,-0.209442138671875,0.1311492919921875
1773257353860125200,8.269125244140625,-0.771148681640625,-0.2493133544921875,0.094024658203125
1773257353870137000,8.27913720703125,-0.9079132080078125,-0.4338531494140625,0.073455810546875
1773257353880150300,8.289150390625,-0.9608306884765625,-0.3785400390625,-0.088287353515625
1773257353890162200,8.299162109375,-0.894622802734375,-0.2295989990234375,0.0096588134765625
1773257353900175400,8.30917529296875,-0.8119049072265625,-0.178497314453125,0.0663604736328125
1773257353910187300,8.319187255859376,-0.7583465576171875,-0.132415771484375,0.0362396240234375
1773257353920200200,8.3292001953125,-0.7751922607421875,0.0512237548828125,0.09356689453125
1773257353930213000,8.339213134765625,-0.7787322998046875,0.1058349609375,0.0272064208984375
1773257353940225000,8.34922509765625,-0.664306640625,-0.02734375,-0.0863037109375
1773257353950238200,8.35923828125,-0.486663818359375,-0.171356201171875,-0.118011474609375
1773257353960250000,8.36925,-0.3160400390625,-0.3683624267578125,-0.02423095703125
1773257353970263300,8.37926318359375,-0.25836181640625,-0.6617279052734375,0.0929412841796875
1773257353980275700,8.389275634765625,-0.18829345703125,-0.8871917724609375,0.2020416259765625
1773257353990287600,8.39928759765625,-0.48675537109375,-1.2378082275390625,0.63824462890625
1773257354000300500,8.409300537109376,-0.690399169921875,-1.347503662109375,0.1717987060546875
1773257354010312400,8.4193125,-0.545562744140625,-1.48065185546875,0.1236419677734375
1773257354020325600,8.42932568359375,-0.5697479248046875,-1.6992645263671875,0.071533203125
1773257354030337500,8.439337646484375,-0.5938568115234375,-1.7915496826171875,-0.060272216796875
1773257354040350700,8.449350830078124,-0.634002685546875,-1.5142974853515625,-0.157684326171875
1773257354050362600,8.459362548828125,-0.7178192138671875,-1.25250244140625,-0.222198486328125
1773257354060375600,8.46937548828125,-0.71142578125,-1.1434173583984375,-0.14862060546875
1773257354070388500,8.479388427734374,-0.7070159912109375,-1.035614013671875,-0.0594635009765625
1773257354080400400,8.489400390625,-0.6634674072265625,-1.0341644287109375,0.01104736328125
1773257354090413600,8.49941357421875,-0.6003570556640625,-1.0649566650390625,0.03717041015625
1773257354100425500,8.509425537109376,-0.52569580078125,-1.0748748779296875,0.0141448974609375
1773257354110438700,8.519438720703125,-0.4650421142578125,-1.051544189453125,-0.0071563720703125
1773257354120450600,8.529450439453125,-0.3944091796875,-1.0192718505859375,-0.0374755859375
1773257354130463500,8.53946337890625,-0.357635498046875,-0.9755096435546875,-0.0505828857421875
1773257354140476400,8.549476318359375,-0.3676605224609375,-0.9345703125,-0.05712890625
1773257354150488600,8.559488525390625,-0.389556884765625,-0.8919525146484375,-0.0525970458984375
1773257354160501500,8.56950146484375,-0.3531646728515625,-0.86541748046875,-0.0582427978515625
1773257354170513700,8.579513671875,-0.235076904296875,-0.866485595703125,-0.11236572265625
1773257354180526600,8.589526611328125,-0.1451416015625,-0.875518798828125,-0.1758880615234375
1773257354190538800,8.599538818359376,-0.1995391845703125,-0.886505126953125,-0.1581268310546875
1773257354200551400,8.609551513671875,-0.2663421630859375,-0.867431640625,-0.10260009765625
1773257354210564600,8.619564697265625,-0.30865478515625,-0.829742431640625,-0.0405731201171875
1773257354220576500,8.629576416015626,-0.3686065673828125,-0.7483062744140625,0.085052490234375
1773257354230589700,8.639589599609375,-0.345947265625,-0.7839508056640625,-0.0328369140625
1773257354240601600,8.6496015625,-0.3242645263671875,-0.8078765869140625,-0.0136260986328125
1773257354250614500,8.659614501953126,-0.4019622802734375,-0.81585693359375,0.034454345703125
1773257354260626400,8.66962646484375,-0.454559326171875,-0.8108062744140625,0.087371826171875
1773257354270639600,8.6796396484375,-0.4778289794921875,-0.804656982421875,0.11865234375
1773257354280652500,8.689652587890626,-0.472900390625,-0.8224334716796875,0.118865966796875
1773257354290664700,8.699664794921874,-0.4139251708984375,-0.848419189453125,0.0289154052734375
1773257354300677600,8.709677734375,-0.1591949462890625,-0.9023895263671875,-0.1368408203125
1773257354310689500,8.719689453125,-0.032440185546875,-0.9240570068359375,-0.22894287109375
1773257354320702500,8.729702392578124,0.0428314208984375,-0.9374542236328125,-0.282745361328125
1773257354330714400,8.73971435546875,0.0564117431640625,-0.98046875,-0.3233795166015625
1773257354340727600,8.7497275390625,-0.032318115234375,-0.989654541015625,-0.269134521484375
1773257354350740700,8.75974072265625,-0.1170806884765625,-0.981719970703125,-0.1708221435546875
1773257354360752600,8.769752685546875,-0.197540283203125,-0.9767913818359375,-0.0909423828125
1773257354370765600,8.779765625,-0.3045196533203125,-0.9620513916015625,-0.039581298828125
1773257354380777500,8.789777587890624,-0.4036865234375,-0.95220947265625,-0.08526611328125
1773257354390790400,8.799790283203125,-0.4027252197265625,-0.916473388671875,-0.095458984375
1773257354400802600,8.809802490234375,-0.2622528076171875,-0.6993560791015625,-0.0706024169921875
1773257354410815500,8.8198154296875,-0.07244873046875,-0.91534423828125,0.0346527099609375
1773257354420828700,8.82982861328125,-0.2899322509765625,-0.7686614990234375,0.1203155517578125
1773257354430840600,8.839840576171875,-0.4673614501953125,-0.88775634765625,0.0673065185546875
1773257354440853500,8.849853515625,-0.5236663818359375,-1.0646514892578125,-0.0103302001953125
1773257354450865400,8.859865478515625,-0.5566864013671875,-1.0984039306640625,-0.1062774658203125
1773257354460878600,8.869878662109375,-0.46136474609375,-1.085723876953125,-0.089996337890625
1773257354470890500,8.879890380859376,-0.4824981689453125,-1.0768890380859375,-0.1381072998046875
1773257354480903700,8.889903564453125,-0.4513397216796875,-1.02960205078125,-0.208770751953125
1773257354490915600,8.89991552734375,-0.379669189453125,-0.9846649169921875,-0.20550537109375
1773257354500928800,8.9099287109375,-0.409912109375,-0.9253692626953125,-0.2115020751953125
1773257354510941400,8.91994140625,-0.446807861328125,-0.8658599853515625,-0.192657470703125
1773257354520953600,8.92995361328125,-0.4135589599609375,-0.86651611328125,-0.1682586669921875
1773257354530966500,8.939966552734376,-0.3968963623046875,-0.8786773681640625,-0.1396636962890625
1773257354540978700,8.949978759765624,-0.3759002685546875,-0.914154052734375,-0.120208740234375
1773257354550991600,8.95999169921875,-0.3732147216796875,-0.94586181640625,-0.141937255859375
1773257354561003500,8.97000341796875,-0.37164306640625,-0.9571380615234375,-0.156219482421875
1773257354571016400,8.980016357421874,-0.4212646484375,-0.9161224365234375,-0.224609375
1773257354581028400,8.9900283203125,-0.4526824951171875,-0.8943328857421875,-0.2867889404296875
1773257354591041500,9.00004150390625,-0.4441375732421875,-0.8520660400390625,-0.272796630859375
1773257354601054700,9.0100546875,-0.4474945068359375,-0.8910369873046875,-0.3066864013671875
1773257354611066600,9.020066650390625,-0.4216156005859375,-0.871124267578125,-0.38214111328125
1773257354621079600,9.03007958984375,-0.4703826904296875,-0.910919189453125,-0.38470458984375
1773257354631091700,9.040091796875,-0.461334228515625,-1.04290771484375,-0.3125457763671875
1773257354641104400,9.0501044921875,-0.46282958984375,-1.045074462890625,-0.2816162109375
1773257354651116500,9.060116455078125,-0.45477294921875,-0.9644927978515625,-0.296478271484375
1773257354661129500,9.07012939453125,-0.44842529296875,-0.9294586181640625,-0.3486175537109375
1773257354671141600,9.0801416015625,-0.3309783935546875,-0.892791748046875,-0.3213348388671875
1773257354681154600,9.090154541015625,-0.47650146484375,-0.8764801025390625,-0.3134765625
1773257354691167500,9.10016748046875,-0.684173583984375,-0.865020751953125,-0.3092193603515625
1773257354701179400,9.110179443359375,-0.419952392578125,-0.9628143310546875,-0.3223114013671875
1773257354711192600,9.120192626953125,-0.4807891845703125,-0.965606689453125,-0.3041534423828125
1773257354721204500,9.13020458984375,-0.635986328125,-0.91845703125,-0.3745880126953125
1773257354731217700,9.1402177734375,-0.5478515625,-0.9100799560546875,-0.3724365234375
1773257354741229600,9.1502294921875,-0.4413604736328125,-0.97796630859375,-0.36767578125
1773257354751242800,9.16024267578125,-0.2024078369140625,-1.0220947265625,-0.3562164306640625
1773257354761254700,9.170254638671874,0.451690673828125,-1.2240142822265625,-0.3700103759765625
1773257354771267600,9.180267578125,0.2346649169921875,-0.737823486328125,-0.4375152587890625
1773257354781280500,9.190280517578126,-0.3425140380859375,-0.5526123046875,-0.480682373046875
1773257354791292700,9.200292724609374,-0.1667327880859375,-0.748870849609375,-0.5403594970703125
1773257354801305600,9.2103056640625,-0.0100250244140625,-0.78619384765625,-0.5039215087890625
1773257354811317500,9.2203173828125,-0.095672607421875,-0.8349609375,-0.4789276123046875
1773257354821330400,9.230330322265624,-0.223907470703125,-0.9421844482421875,-0.4665069580078125
1773257354831342300,9.24034228515625,-0.18597412109375,-1.0244903564453125,-0.4150390625
1773257354841355500,9.25035546875,-0.125213623046875,-1.0121917724609375,-0.36920166015625
1773257354851367400,9.260367431640624,-0.1336517333984375,-0.9438934326171875,-0.3398895263671875
1773257354861380600,9.270380615234375,-0.10968017578125,-0.91156005859375,-0.3429718017578125
1773257354871392500,9.280392578125,-0.1194915771484375,-0.92529296875,-0.3812408447265625
1773257354881405700,9.29040576171875,-0.1066741943359375,-0.9398651123046875,-0.353424072265625
1773257354891417600,9.30041748046875,-0.0850372314453125,-0.9308929443359375,-0.246795654296875
1773257354901430500,9.310430419921875,-0.20953369140625,-0.898223876953125,-0.208740234375
1773257354911443500,9.320443359375,-0.0848236083984375,-0.929351806640625,-0.1670379638671875
1773257354921455600,9.33045556640625,-0.0690155029296875,-0.959747314453125,-0.2270660400390625
1773257354931468500,9.340468505859375,-0.1142120361328125,-1.00225830078125,-0.2929534912109375
1773257354941480700,9.350480712890626,-0.083892822265625,-1.0540313720703125,-0.28851318359375
1773257354951493400,9.360493408203125,-0.0491790771484375,-1.03118896484375,-0.2543182373046875
1773257354961505500,9.370505615234375,-0.003692626953125,-0.971649169921875,-0.2959442138671875
1773257354971518500,9.3805185546875,-0.0030364990234375,-0.9573822021484375,-0.3178863525390625
1773257354981531000,9.39053076171875,-0.0832366943359375,-0.9516143798828125,-0.3125457763671875
1773257354991543800,9.400543701171875,-0.093994140625,-0.9525146484375,-0.3154296875
1773257355001556000,9.410555908203126,-0.0378265380859375,-0.971527099609375,-0.327728271484375
1773257355011569000,9.42056884765625,-0.077667236328125,-1.002685546875,-0.3545074462890625
1773257355021581800,9.430581787109375,-0.158782958984375,-1.0105438232421875,-0.380523681640625
1773257355031593700,9.44059375,-0.1231689453125,-0.991302490234375,-0.350860595703125
1773257355041607000,9.45060693359375,-0.14404296875,-0.9785003662109375,-0.3519439697265625
1773257355051618800,9.460618896484375,-0.1577606201171875,-0.975921630859375,-0.3819732666015625
1773257355061632000,9.470632080078126,-0.124237060546875,-0.9643707275390625,-0.3516082763671875
1773257355071644000,9.480643798828124,-0.0864105224609375,-0.9532318115234375,-0.3269500732421875
1773257355081656800,9.49065673828125,-0.087249755859375,-0.923583984375,-0.3121490478515625
1773257355091668700,9.500668701171875,-0.04815673828125,-0.8848419189453125,-0.3021392822265625
1773257355101682000,9.510681884765624,-0.006622314453125,-0.9012298583984375,-0.327239990234375
1773257355111693800,9.52069384765625,-0.0224151611328125,-0.9304656982421875,-0.3535003662109375
1773257355121707000,9.53070703125,-0.01507568359375,-0.8662872314453125,-0.30169677734375
1773257355131719000,9.540718994140626,-0.036956787109375,-0.73388671875,-0.300018310546875
1773257355141731800,9.55073193359375,-0.0458221435546875,-0.83453369140625,-0.289642333984375
1773257355151744800,9.560744873046875,0.0579833984375,-1.00433349609375,-0.2417755126953125
1773257355161756700,9.570756591796876,0.064727783203125,-1.0623321533203125,-0.290191650390625
1773257355171769900,9.580769775390625,0.071746826171875,-0.9794158935546875,-0.33697509765625
1773257355181781800,9.59078173828125,0.0578155517578125,-1.004425048828125,-0.3594970703125
1773257355191795000,9.600794921875,-0.0358734130859375,-1.05633544921875,-0.3502960205078125
1773257355201806800,9.610806884765625,-0.0516204833984375,-0.9602203369140625,-0.194305419921875
1773257355211819800,9.62081982421875,-0.1845703125,-0.860504150390625,-0.0869140625
1773257355221831700,9.630831787109376,-0.229461669921875,-0.8377685546875,0.009033203125
1773257355231844900,9.640844970703125,-0.1891326904296875,-0.9259490966796875,-0.080841064453125
1773257355241856800,9.650856689453125,-0.19122314453125,-0.99957275390625,-0.17633056640625
1773257355251870000,9.660869873046876,-0.174163818359375,-0.9925384521484375,-0.1528472900390625
1773257355261883000,9.6708828125,-0.1584625244140625,-0.9555816650390625,-0.1329345703125
1773257355271895000,9.68089501953125,-0.0884857177734375,-0.9448394775390625,-0.1464691162109375
1773257355281907700,9.69090771484375,-0.07470703125,-0.961334228515625,-0.1065216064453125
1773257355291920000,9.700919921875,-0.180419921875,-0.9894866943359375,-0.0756378173828125
1773257355301932800,9.710932861328125,-0.205322265625,-0.988616943359375,-0.0337371826171875
1773257355311945000,9.720945068359375,-0.15753173828125,-0.8892669677734375,-0.0157928466796875
1773257355321958000,9.7309580078125,0.003814697265625,-0.8658294677734375,0.0553741455078125
1773257355331969800,9.7409697265625,0.1368865966796875,-0.857574462890625,0.045013427734375
1773257355341982700,9.750982666015625,-0.0143280029296875,-0.8446197509765625,-0.1071014404296875
1773257355351996000,9.760995849609374,0.1780242919921875,-0.839813232421875,-0.2384796142578125
1773257355362007800,9.7710078125,-0.078582763671875,-0.9810943603515625,-0.215576171875
1773257355372021000,9.78102099609375,-0.0168304443359375,-1.0440216064453125,-0.26922607421875
1773257355382033000,9.791032958984376,0.0579833984375,-0.966217041015625,-0.324493408203125
1773257355392045800,9.8010458984375,-0.18408203125,-0.9808502197265625,-0.2728118896484375
1773257355402058000,9.81105810546875,-0.170318603515625,-1.0966796875,-0.22210693359375
1773257355412070700,9.821070556640626,0.0300445556640625,-1.127899169921875,-0.34765625
1773257355422082800,9.831082763671875,0.128936767578125,-1.1315460205078125,-0.39373779296875
1773257355432095700,9.841095703125,-0.0842437744140625,-1.140472412109375,-0.4153289794921875
1773257355442109000,9.85110888671875,-0.3622589111328125,-1.1228179931640625,-0.422698974609375
1773257355452120800,9.861120849609375,-0.3996124267578125,-1.07159423828125,-0.36724853515625
1773257355462133800,9.8711337890625,-0.2884521484375,-0.9644012451171875,-0.2167510986328125
1773257355472146000,9.88114599609375,-0.1237030029296875,-0.9087371826171875,-0.069915771484375
1773257355482158800,9.891158935546875,0.089080810546875,-0.85052490234375,-0.09149169921875
1773257355492170800,9.901170654296875,0.1473236083984375,-0.881744384765625,-0.127410888671875
1773257355502184000,9.911183837890626,0.224365234375,-0.9069061279296875,-0.2417449951171875
1773257355512195800,9.92119580078125,0.1356353759765625,-0.9256439208984375,-0.3430938720703125
1773257355522209000,9.931208984375,0.0114593505859375,-0.90814208984375,-0.251861572265625
1773257355532221700,9.9412216796875,0.023529052734375,-0.989044189453125,-0.25018310546875
1773257355542233900,9.95123388671875,0.0618743896484375,-1.0882568359375,-0.3949737548828125
1773257355552246800,9.961246826171875,-0.3544158935546875,-1.1102142333984375,-0.2479400634765625
1773257355562259000,9.971259033203125,-0.6232757568359375,-1.06640625,-0.202789306640625
1773257355572271900,9.98127197265625,-0.110565185546875,-1.03192138671875,-0.157684326171875
1773257355582283800,9.99128369140625,0.1572723388671875,-0.995635986328125,-0.203155517578125
1773257355592297000,10.001296875,0.176849365234375,-0.9172515869140625,-0.2111053466796875
1773257355602310000,10.011309814453124,0.0374603271484375,-0.909088134765625,-0.2969970703125
1773257355612321800,10.02132177734375,-0.0345306396484375,-0.93817138671875,-0.3143463134765625
1773257355622335000,10.0313349609375,0.132904052734375,-0.867218017578125,-0.27276611328125
1773257355632347000,10.041346923828126,0.0825958251953125,-0.9432830810546875,-0.2658233642578125
1773257355642359800,10.05135986328125,0.08367919921875,-0.952880859375,-0.24884033203125
1773257355652372000,10.0613720703125,0.0695953369140625,-0.93316650390625,-0.282501220703125
1773257355662384600,10.071384521484376,-0.0081329345703125,-0.984283447265625,-0.3236541748046875
1773257355672397800,10.081397705078125,0.002044677734375,-0.9916229248046875,-0.3100433349609375
1773257355682409700,10.09140966796875,0.07037353515625,-0.9683074951171875,-0.280426025390625
1773257355692423000,10.1014228515625,0.0698089599609375,-0.9221649169921875,-0.281829833984375
1773257355702434800,10.111434814453125,0.0815277099609375,-0.8806610107421875,-0.296295166015625
1773257355712448000,10.121447998046875,0.079925537109375,-0.819091796875,-0.3121337890625
1773257355722460700,10.131460693359376,0.0901641845703125,-0.830169677734375,-0.32568359375
1773257355732472800,10.141472900390625,0.1418609619140625,-0.88775634765625,-0.2691802978515625
1773257355742485800,10.15148583984375,0.04083251953125,-0.870330810546875,-0.2713623046875
1773257355752498000,10.161497802734376,-0.1900787353515625,-0.84393310546875,-0.304840087890625
1773257355762510800,10.1715107421875,-0.1559600830078125,-0.91534423828125,-0.367889404296875
1773257355772523000,10.18152294921875,-0.2049407958984375,-0.9948883056640625,-0.4010772705078125
1773257355782535700,10.19153564453125,-0.142181396484375,-1.0256195068359375,-0.396820068359375
1773257355792548900,10.201548828125,-0.0754241943359375,-1.023284912109375,-0.3697967529296875
1773257355802560800,10.211560791015625,-0.0995635986328125,-0.983184814453125,-0.4037628173828125
1773257355812574000,10.221573974609376,-0.2766265869140625,-0.9986419677734375,-0.413848876953125
1773257355822585900,10.2315859375,-0.255706787109375,-0.9663543701171875,-0.406494140625
1773257355832599000,10.24159912109375,-0.277374267578125,-0.95697021484375,-0.457763671875
1773257355842611700,10.25161181640625,-0.306793212890625,-0.90557861328125,-0.4499664306640625
1773257355852624000,10.261623779296874,-0.2904205322265625,-0.886077880859375,-0.5316619873046875
1773257355862636800,10.27163671875,-0.2205810546875,-0.8835296630859375,-0.5069580078125
1773257355872649000,10.28164892578125,-0.238006591796875,-0.897979736328125,-0.4393463134765625
1773257355882662000,10.291661865234374,-0.239349365234375,-0.8831939697265625,-0.4246673583984375
1773257355892674800,10.3016748046875,-0.248565673828125,-0.931121826171875,-0.39501953125
1773257355902686700,10.311686767578125,-0.22967529296875,-0.984619140625,-0.3672332763671875
1773257355912700000,10.321699951171874,-0.1501922607421875,-1.0076141357421875,-0.4229888916015625
1773257355922711800,10.3317119140625,0.01220703125,-0.984588623046875,-0.3333740234375
1773257355932725000,10.34172509765625,-0.080780029296875,-0.99237060546875,-0.416748046875
1773257355942738000,10.351738037109374,-0.13604736328125,-0.91912841796875,-0.4559478759765625
1773257355952750000,10.36175,-0.1645355224609375,-0.8892669677734375,-0.4189910888671875
1773257355962762800,10.3717626953125,-0.1291046142578125,-0.9279632568359375,-0.41912841796875
1773257355972774700,10.381774658203126,-0.08087158203125,-0.9221954345703125,-0.404205322265625
1773257355982787600,10.39178759765625,-0.1106414794921875,-0.952972412109375,-0.445098876953125
1773257355992800500,10.401800537109375,-0.0888824462890625,-0.978912353515625,-0.4470672607421875
1773257356002812700,10.411812744140626,-0.104766845703125,-0.9521942138671875,-0.4223480224609375
1773257356012825600,10.42182568359375,-0.1472015380859375,-0.913604736328125,-0.37982177734375
1773257356022837800,10.431837646484375,-0.1937103271484375,-0.8507843017578125,-0.3612518310546875
1773257356032850400,10.441850341796876,-0.2199249267578125,-0.852294921875,-0.33331298828125
1773257356042863600,10.451863525390625,-0.229705810546875,-0.8752593994140625,-0.31622314453125
1773257356052875500,10.46187548828125,-0.2196502685546875,-0.9251251220703125,-0.371063232421875
1773257356062888700,10.471888671875,-0.21142578125,-0.953948974609375,-0.392578125
1773257356072900600,10.481900634765625,-0.1641693115234375,-0.94830322265625,-0.3580780029296875
1773257356082913500,10.49191357421875,-0.0594635009765625,-0.908111572265625,-0.3269500732421875
1773257356092926500,10.501926513671876,0.03857421875,-0.9004669189453125,-0.2623138427734375
1773257356102938600,10.511938720703125,0.0125732421875,-0.921600341796875,-0.3394317626953125
1773257356112951600,10.52195166015625,0.0148162841796875,-0.9083099365234375,-0.3235626220703125
1773257356122964700,10.53196484375,0.003997802734375,-0.91143798828125,-0.3842620849609375
1773257356132976600,10.5419765625,-0.05096435546875,-0.90863037109375,-0.4149169921875
1773257356142989600,10.551989501953125,-0.10028076171875,-0.8835601806640625,-0.4058990478515625
1773257356153001500,10.56200146484375,-0.09539794921875,-0.866363525390625,-0.4111175537109375
1773257356163014700,10.5720146484375,-0.0522613525390625,-0.86865234375,-0.3891448974609375
1773257356173027600,10.582027587890625,-0.029754638671875,-0.900665283203125,-0.3593902587890625
1773257356183039700,10.592039794921876,-0.037261962890625,-0.951263427734375,-0.3216705322265625
1773257356193052400,10.602052490234374,-0.04376220703125,-0.9737091064453125,-0.2954864501953125
1773257356203065600,10.612065673828125,-0.0213623046875,-0.9611663818359375,-0.3096771240234375
1773257356213077500,10.622077392578126,-0.018310546875,-0.962677001953125,-0.333465576171875
1773257356223090700,10.632090576171874,0.000732421875,-1.017547607421875,-0.346405029296875
1773257356233102600,10.6421025390625,-0.0223388671875,-1.037841796875,-0.3618927001953125
1773257356243115800,10.65211572265625,-0.037841796875,-1.016510009765625,-0.3984222412109375
1773257356253128400,10.66212841796875,0.01348876953125,-1.0149993896484375,-0.34307861328125
1773257356263140400,10.672140380859375,-0.3282318115234375,-0.9696197509765625,-0.3142852783203125
1773257356273153500,10.682153564453126,-0.3250274658203125,-1.09771728515625,-0.290283203125
1773257356283166700,10.692166748046875,0.0306243896484375,-1.0941314697265625,-0.2751312255859375
1773257356293178600,10.7021787109375,0.1306304931640625,-0.9976043701171875,-0.2303924560546875
1773257356303191600,10.712191650390626,-0.109466552734375,-1.0006256103515625,-0.2002716064453125
1773257356313203500,10.722203369140624,-0.08697509765625,-0.9004364013671875,-0.1468048095703125
1773257356323216600,10.732216552734375,-0.2195892333984375,-0.783233642578125,-0.2108612060546875
1773257356333229600,10.7422294921875,-0.2753753662109375,-0.6805419921875,-0.2615814208984375
1773257356343241500,10.752241455078124,-0.271514892578125,-0.6616973876953125,-0.2614288330078125
1773257356353254700,10.762254638671875,-0.2095489501953125,-0.7082061767578125,-0.3092498779296875
1773257356363267600,10.772267578125,-0.2236328125,-0.7566070556640625,-0.2173919677734375
1773257356373279500,10.782279541015624,-0.1772918701171875,-0.8067626953125,-0.2115936279296875
1773257356383292700,10.792292724609375,-0.1686859130859375,-0.8083038330078125,-0.143218994140625
1773257356393305600,10.8023056640625,-0.1548309326171875,-0.79669189453125,-0.179931640625
1773257356403317500,10.8123173828125,-0.1945343017578125,-0.795166015625,-0.1548919677734375
1773257356413330400,10.822330322265625,-0.247344970703125,-0.8167724609375,-0.1408843994140625
1773257356423343600,10.832343505859376,-0.2512664794921875,-0.8297271728515625,-0.1691436767578125
1773257356433355500,10.84235546875,-0.235992431640625,-0.85797119140625,-0.169647216796875
1773257356443368700,10.85236865234375,-0.2079925537109375,-0.891265869140625,-0.1913909912109375
1773257356453380600,10.862380615234375,-0.19775390625,-0.913665771484375,-0.20892333984375
1773257356463393500,10.8723935546875,-0.2360076904296875,-0.931610107421875,-0.202423095703125
1773257356473406500,10.882406494140625,-0.242462158203125,-0.97271728515625,-0.1925811767578125
1773257356483418400,10.89241845703125,-0.19024658203125,-1.0511016845703125,-0.179901123046875
1773257356493431600,10.902431640625,-0.1138916015625,-1.1267852783203125,-0.1776580810546875
1773257356503444700,10.91244482421875,-0.087677001953125,-1.1796112060546875,-0.2444915771484375
1773257356513456600,10.92245654296875,-0.490814208984375,-1.2066497802734375,-0.5784759521484375
1773257356523469600,10.932469482421874,-0.14239501953125,-1.1584014892578125,-0.3925018310546875
1773257356533482500,10.942482421875,-0.17633056640625,-1.1337890625,-0.2207183837890625
1773257356543494400,10.952494384765625,-0.19970703125,-1.1124267578125,-0.1783447265625
1773257356553507600,10.962507568359374,-0.2395172119140625,-1.0553436279296875,-0.1145782470703125
1773257356563520800,10.972520751953125,-0.185211181640625,-0.9962158203125,-0.06817626953125
1773257356573532700,10.98253271484375,-0.1545562744140625,-1.00201416015625,-0.1128387451171875
1773257356583545300,10.99254541015625,-0.1605377197265625,-1.0176544189453125,-0.1684417724609375
1773257356593557500,11.0025576171875,-0.2288818359375,-1.0087738037109375,-0.18597412109375
1773257356603570400,11.0125703125,-0.30462646484375,-0.9744873046875,-0.1378173828125
1773257356613583600,11.02258349609375,-0.322601318359375,-0.9316864013671875,-0.1080780029296875
1773257356623595500,11.032595458984375,-0.3294830322265625,-0.948760986328125,-0.1046295166015625
1773257356633608700,11.042608642578125,-0.305816650390625,-0.978363037109375,-0.105621337890625
1773257356643621400,11.052621337890624,-0.2693023681640625,-0.986053466796875,-0.109619140625
1773257356653633500,11.062633544921875,-0.2490692138671875,-1.010528564453125,-0.12847900390625
1773257356663646500,11.072646484375,-0.2035675048828125,-1.0303192138671875,-0.1303558349609375
1773257356673659600,11.08265966796875,-0.15399169921875,-1.0455474853515625,-0.14874267578125
1773257356683671600,11.092671630859375,-0.1212615966796875,-1.03350830078125,-0.160003662109375
1773257356693684500,11.1026845703125,-0.0726318359375,-1.0810699462890625,-0.155364990234375
1773257356703697400,11.112697509765624,-0.07501220703125,-1.2122802734375,-0.049591064453125
1773257356713709600,11.12270947265625,-0.17431640625,-0.9462890625,-0.2325592041015625
1773257356723722500,11.132722412109375,-0.0969085693359375,-0.99072265625,-0.0178375244140625
1773257356733735700,11.142735595703124,-0.0255279541015625,-1.04345703125,-0.092376708984375
1773257356743747600,11.15274755859375,-0.0389862060546875,-1.03094482421875,-0.20074462890625
1773257356753760500,11.162760498046875,-0.063873291015625,-1.021484375,-0.1919097900390625
1773257356763773400,11.1727734375,-0.0304107666015625,-1.022003173828125,-0.1388702392578125
1773257356773785600,11.18278564453125,-0.0337677001953125,-1.109222412109375,-0.1536102294921875
1773257356783798500,11.192798583984375,0.035125732421875,-1.1046600341796875,-0.1857757568359375
1773257356793810700,11.202810791015626,0.1359100341796875,-1.140472412109375,-0.1845855712890625
1773257356803823400,11.2128232421875,0.1346893310546875,-1.1959381103515625,-0.147857666015625
1773257356813836500,11.22283642578125,-0.03399658203125,-1.161102294921875,-0.232818603515625
1773257356823848400,11.232848388671876,-0.0671234130859375,-1.018646240234375,-0.2328948974609375
1773257356833861600,11.242861572265625,-0.206390380859375,-0.8590545654296875,-0.185150146484375
1773257356843874600,11.25287451171875,-0.3663177490234375,-0.6644287109375,-0.1699676513671875
1773257356853886700,11.26288671875,-0.3332366943359375,-0.599822998046875,-0.2686004638671875
1773257356863899400,11.2728994140625,-0.2081756591796875,-0.6560821533203125,-0.232147216796875
1773257356873912600,11.28291259765625,-0.18011474609375,-0.73565673828125,-0.189971923828125
1773257356883924500,11.292924560546876,-0.1226959228515625,-0.7910614013671875,-0.1893463134765625
1773257356893937700,11.302937744140625,-0.11767578125,-0.859375,-0.180999755859375
1773257356903950300,11.312950439453125,-0.147796630859375,-0.8961944580078125,-0.2397308349609375
1773257356913962500,11.32296240234375,-0.182159423828125,-0.90802001953125,-0.2436981201171875
1773257356923975400,11.332975341796875,-0.1236572265625,-0.948760986328125,-0.19744873046875
1773257356933988600,11.342988525390625,-0.11480712890625,-0.9912109375,-0.158905029296875
1773257356944000500,11.35300048828125,-0.1004791259765625,-1.0179290771484375,-0.147552490234375
1773257356954013700,11.363013671875,-0.218780517578125,-1.013427734375,-0.142822265625
1773257356964026400,11.3730263671875,-0.2304534912109375,-1.0013275146484375,-0.1653594970703125
1773257356974038500,11.38303857421875,-0.2569122314453125,-0.9875640869140625,-0.1878814697265625
1773257356984052000,11.393052001953125,-0.2988433837890625,-0.99627685546875,-0.1879730224609375
1773257356994064100,11.403064208984375,-0.28228759765625,-1.017059326171875,-0.1634063720703125
1773257357004077000,11.4130771484375,-0.200897216796875,-1.0176544189453125,-0.1524810791015625
1773257357014090000,11.423090087890625,-0.1605682373046875,-0.9990692138671875,-0.1531982421875
1773257357024102000,11.433101806640625,-0.1494598388671875,-0.9770050048828125,-0.172515869140625
1773257357034115000,11.443114990234376,-0.1492156982421875,-0.9501190185546875,-0.14385986328125
1773257357044128000,11.4531279296875,-0.1616668701171875,-0.93304443359375,-0.1358184814453125
1773257357054140200,11.46314013671875,-0.11865234375,-0.9454803466796875,-0.1420745849609375
1773257357064152800,11.47315283203125,-0.080810546875,-0.9507904052734375,-0.1297607421875
1773257357074166000,11.483166015625,-0.0716552734375,-0.9517822265625,-0.1326446533203125
1773257357084178000,11.493177978515625,0.05230712890625,-0.9480133056640625,-0.0942535400390625
1773257357094191000,11.503191162109376,0.093231201171875,-0.9619140625,-0.0992279052734375
1773257357104204000,11.5132041015625,0.029205322265625,-0.98590087890625,-0.13092041015625
1773257357114216200,11.52321630859375,0.01690673828125,-0.9908905029296875,-0.13140869140625
1773257357124228900,11.533228759765626,0.0360870361328125,-1.0050506591796875,-0.139862060546875
1773257357134242000,11.543241943359375,-0.05218505859375,-1.0189666748046875,-0.162384033203125
1773257357144254000,11.55325390625,-0.3351593017578125,-0.99884033203125,-0.2213592529296875
1773257357154267100,11.56326708984375,-0.2230072021484375,-0.9993896484375,-0.16082763671875
1773257357164280000,11.573280029296875,-0.2089080810546875,-0.981781005859375,-0.203338623046875
1773257357174292000,11.5832919921875,-0.169708251953125,-0.9682159423828125,-0.194488525390625
1773257357184305000,11.593304931640626,-0.11627197265625,-0.9776458740234375,-0.187713623046875
1773257357194318000,11.603318115234375,-0.07623291015625,-0.99395751953125,-0.2234344482421875
1773257357204330000,11.613330078125,-0.0870208740234375,-1.014373779296875,-0.23486328125
1773257357214343200,11.62334326171875,-0.0902862548828125,-1.013946533203125,-0.2306976318359375
1773257357224355800,11.63335595703125,-0.074432373046875,-0.9972076416015625,-0.2239532470703125
1773257357234368000,11.643367919921875,-0.0567779541015625,-0.9840850830078125,-0.228271484375
1773257357244381000,11.653380859375,-0.043365478515625,-0.997222900390625,-0.2271575927734375
1773257357254394000,11.66339404296875,-0.0596771240234375,-0.9895477294921875,-0.220550537109375
1773257357264406000,11.673406005859375,-0.06256103515625,-0.9782257080078125,-0.21337890625
1773257357274419000,11.6834189453125,-0.0131683349609375,-0.970123291015625,-0.1878204345703125
1773257357284431000,11.69343115234375,-0.0161590576171875,-0.9823150634765625,-0.18658447265625
1773257357294444000,11.703444091796875,0.0020599365234375,-1.0020294189453125,-0.18603515625
1773257357304457000,11.71345703125,0.0184326171875,-1.0029144287109375,-0.1918487548828125
1773257357314468900,11.72346875,0.04339599609375,-0.97564697265625,-0.18658447265625
1773257357324482000,11.73348193359375,-0.0159912109375,-0.9824981689453125,-0.17803955078125
1773257357334495000,11.743494873046876,-0.01702880859375,-0.9889068603515625,-0.1856689453125
1773257357344507000,11.7535068359375,0.0501861572265625,-0.9666595458984375,-0.193939208984375
1773257357354520000,11.76352001953125,0.0269012451171875,-0.9576873779296875,-0.1809539794921875
1773257357364533000,11.773532958984376,-0.0389556884765625,-0.9817657470703125,-0.196044921875
1773257357374545000,11.783544921875,-0.0796356201171875,-1.0081634521484375,-0.2349090576171875
1773257357384558000,11.79355810546875,-0.1326446533203125,-1.02069091796875,-0.248565673828125
1773257357394571000,11.803571044921876,-0.10302734375,-1.019989013671875,-0.244964599609375
1773257357404583000,11.8135830078125,-0.0833892822265625,-1.0066070556640625,-0.24066162109375
1773257357414596000,11.82359619140625,-0.076507568359375,-0.9800262451171875,-0.22894287109375
1773257357424609000,11.833609130859376,-0.0481109619140625,-0.9529571533203125,-0.2220611572265625
1773257357434621000,11.843620849609374,-0.03082275390625,-0.9336395263671875,-0.2200164794921875
1773257357444633900,11.8536337890625,-0.04730224609375,-0.9489288330078125,-0.2118377685546875
1773257357454647000,11.86364697265625,-0.1237945556640625,-0.952789306640625,-0.2354888916015625
1773257357464659000,11.873658935546874,-0.13543701171875,-0.9694366455078125,-0.228912353515625
1773257357474672000,11.883672119140625,-0.1490325927734375,-1.0101470947265625,-0.2724609375
1773257357484685000,11.89368505859375,-0.142913818359375,-1.0269317626953125,-0.270904541015625
1773257357494697200,11.903697265625,-0.0584259033203125,-1.011566162109375,-0.2638702392578125
1773257357504710000,11.9137099609375,-0.0367889404296875,-0.9985809326171875,-0.241180419921875
1773257357514723000,11.92372314453125,-0.1038818359375,-0.9663543701171875,-0.231658935546875
1773257357524735000,11.93373486328125,-0.05389404296875,-0.984100341796875,-0.2192535400390625
1773257357534748200,11.943748046875,0.0216827392578125,-0.9900360107421875,-0.228851318359375
1773257357544760000,11.953760009765626,0.0860595703125,-0.9819488525390625,-0.2399749755859375
1773257357554773000,11.96377294921875,0.02630615234375,-0.99566650390625,-0.25640869140625
1773257357564786000,11.973785888671875,0.0391387939453125,-1.0078582763671875,-0.232513427734375
1773257357574797800,11.9837978515625,0.0578460693359375,-1.03668212890625,-0.233184814453125
1773257357584811000,11.99381103515625,0.0823974609375,-1.0683135986328125,-0.23846435546875
1773257357594824200,12.00382421875,0.011077880859375,-1.0792999267578125,-0.2271270751953125
1773257357604836000,12.013836181640626,-0.0601959228515625,-1.0723724365234375,-0.206390380859375
1773257357614849000,12.02384912109375,-0.0077972412109375,-1.062408447265625,-0.18408203125
1773257357624862000,12.033862060546875,0.0093841552734375,-1.0611724853515625,-0.1754150390625
1773257357634873900,12.043873779296876,0.140289306640625,-1.0851593017578125,-0.215301513671875
1773257357644887000,12.053886962890624,0.2210235595703125,-1.0643157958984375,-0.2041778564453125
1773257357654900000,12.06389990234375,0.305633544921875,-1.0015411376953125,-0.230377197265625
1773257357664912000,12.073911865234376,0.3817138671875,-0.96392822265625,-0.243743896484375
1773257357674925000,12.083925048828124,0.4600067138671875,-0.9649658203125,-0.2705535888671875
1773257357684938000,12.09393798828125,0.544189453125,-0.956512451171875,-0.2789154052734375
1773257357694950000,12.103949951171876,0.57720947265625,-0.94207763671875,-0.2632904052734375
1773257357704963000,12.113963134765624,0.653472900390625,-0.896484375,-0.2843017578125
1773257357714976000,12.12397607421875,0.7392120361328125,-0.842041015625,-0.2736358642578125
1773257357724988000,12.13398779296875,0.7523651123046875,-0.7972259521484375,-0.2734832763671875
1773257357735001000,12.1440009765625,0.738189697265625,-0.7681732177734375,-0.2476043701171875
1773257357745014000,12.154013916015625,0.716461181640625,-0.7708282470703125,-0.2559051513671875
1773257357755026000,12.16402587890625,0.7151031494140625,-0.7753448486328125,-0.2363739013671875
1773257357765038800,12.174038818359374,0.7039642333984375,-0.762176513671875,-0.2456207275390625
1773257357775050800,12.18405078125,0.6370697021484375,-0.71942138671875,-0.2388458251953125
1773257357785064000,12.19406396484375,0.6497650146484375,-0.6441192626953125,-0.2359466552734375
1773257357795077000,12.2040771484375,0.72412109375,-0.6111297607421875,-0.242919921875
1773257357805089000,12.214089111328125,0.7663116455078125,-0.5985565185546875,-0.2405242919921875
1773257357815102000,12.22410205078125,0.7730255126953125,-0.58251953125,-0.2157745361328125
1773257357825115000,12.234114990234374,0.783966064453125,-0.5776214599609375,-0.2078399658203125
1773257357835126800,12.244126708984375,0.798095703125,-0.566436767578125,-0.2097320556640625
1773257357845140000,12.254139892578126,0.7962799072265625,-0.567108154296875,-0.1873931884765625
1773257357855153200,12.264153076171874,0.767486572265625,-0.57879638671875,-0.1913909912109375
1773257357865165000,12.2741650390625,0.7430877685546875,-0.5599365234375,-0.19921875
1773257357875178000,12.284177978515626,0.7566375732421875,-0.515350341796875,-0.1934661865234375
1773257357885191000,12.29419091796875,0.8065032958984375,-0.4698486328125,-0.2136993408203125
1773257357895202800,12.304202880859375,0.837493896484375,-0.4097900390625,-0.2186279296875
1773257357905216000,12.314216064453126,0.8582916259765625,-0.3502197265625,-0.2209320068359375
1773257357915228000,12.324227783203124,0.8712005615234375,-0.30877685546875,-0.238494873046875
1773257357925241000,12.334240966796875,0.883880615234375,-0.2674407958984375,-0.2364959716796875
1773257357935253800,12.344253662109375,0.8945770263671875,-0.2336883544921875,-0.2448577880859375
1773257357945266000,12.354265869140624,0.899139404296875,-0.1938018798828125,-0.2596893310546875
1773257357955278800,12.36427880859375,0.9127197265625,-0.1618194580078125,-0.2556304931640625
1773257357965292000,12.3742919921875,0.904510498046875,-0.1498565673828125,-0.26617431640625
1773257357975304000,12.384303955078124,0.877716064453125,-0.1286773681640625,-0.273101806640625
1773257357985316400,12.39431640625,0.8219451904296875,-0.0908355712890625,-0.2601165771484375
1773257357995329300,12.404329345703125,0.780914306640625,-0.04388427734375,-0.25921630859375
1773257358005341200,12.414341064453126,0.7851104736328125,-0.0051116943359375,-0.254913330078125
1773257358015354400,12.424354248046875,0.8624420166015625,0.0294036865234375,-0.2647705078125
1773257358025367300,12.4343671875,0.9304656982421875,0.04791259765625,-0.3133697509765625
1773257358035379500,12.44437939453125,0.9295806884765625,0.0598297119140625,-0.311492919921875
1773257358045392400,12.454392333984375,0.8772125244140625,0.0735626220703125,-0.328948974609375
1773257358055405300,12.4644052734375,0.831634521484375,0.0779876708984375,-0.32025146484375
1773257358065417200,12.474417236328126,0.81585693359375,0.066131591796875,-0.314849853515625
1773257358075430400,12.484430419921875,0.825775146484375,0.072845458984375,-0.3030853271484375
1773257358085443300,12.494443359375,0.8323516845703125,0.108428955078125,-0.2980194091796875
1773257358095455500,12.50445556640625,0.853973388671875,0.1408538818359375,-0.299957275390625
1773257358105468200,12.51446826171875,0.8818359375,0.11151123046875,-0.2296295166015625
1773257358115480300,12.524480224609375,0.9555816650390625,0.1592864990234375,-0.0879058837890625
1773257358125493200,12.5344931640625,0.922821044921875,0.2167510986328125,-0.236236572265625
1773257358135506400,12.54450634765625,0.96014404296875,0.2347412109375,-0.285736083984375
1773257358145518300,12.554518310546875,1.0309295654296875,0.259552001953125,-0.2335205078125
1773257358155531500,12.564531494140626,1.057403564453125,0.266571044921875,-0.246307373046875
1773257358165544200,12.574544189453125,1.055572509765625,0.28533935546875,-0.25067138671875
1773257358175556400,12.584556396484375,1.02880859375,0.2994384765625,-0.2241363525390625
1773257358185569300,12.5945693359375,0.9997100830078125,0.290802001953125,-0.2049560546875
1773257358195582500,12.60458251953125,0.9751739501953125,0.2670135498046875,-0.1991424560546875
1773257358205594400,12.614594482421875,0.957305908203125,0.237457275390625,-0.199462890625
1773257358215607300,12.624607177734376,0.9361724853515625,0.22149658203125,-0.18780517578125
1773257358225619200,12.634619140625,0.8947296142578125,0.216827392578125,-0.1539459228515625
1773257358235632400,12.64463232421875,0.8756866455078125,0.212738037109375,-0.1458740234375
1773257358245645300,12.654645263671876,0.8610382080078125,0.1813201904296875,-0.141387939453125
1773257358255657200,12.6646572265625,0.899505615234375,0.1493682861328125,-0.1070556640625
1773257358265670400,12.67467041015625,0.971923828125,0.1388397216796875,-0.012847900390625
1773257358275683300,12.684683349609376,1.0037078857421875,0.12408447265625,0.02813720703125
1773257358285695200,12.6946953125,1.0253753662109375,-0.0653839111328125,0.058746337890625
1773257358295708400,12.70470849609375,1.2835693359375,-0.2374114990234375,0.108856201171875
1773257358305721300,12.714721435546876,1.248046875,-0.32550048828125,0.104400634765625
1773257358315733200,12.724733154296874,1.283172607421875,-0.26605224609375,0.177337646484375
1773257358325746200,12.73474609375,1.159149169921875,-0.193572998046875,0.1471710205078125
1773257358335759400,12.74475927734375,1.0235443115234375,-0.104949951171875,0.0622711181640625
1773257358345771300,12.754771240234374,0.994293212890625,-0.0546722412109375,-0.022064208984375
1773257358355784400,12.764784423828125,1.221435546875,-0.139129638671875,-0.0769195556640625
1773257358365796400,12.77479638671875,1.3581085205078125,-0.2137298583984375,-0.072418212890625
1773257358375809300,12.784809326171874,1.4016876220703125,-0.330841064453125,-0.095184326171875
1773257358385822200,12.794822265625,1.300628662109375,-0.41949462890625,-0.17333984375
1773257358395834000,12.804834228515626,1.10235595703125,-0.38409423828125,-0.22991943359375
1773257358405847300,12.814847412109375,0.958251953125,-0.2576141357421875,-0.3173065185546875
1773257358415860500,12.824860595703125,0.90631103515625,-0.160400390625,-0.3493804931640625
1773257358425872400,12.834872314453126,1.03021240234375,-0.1808624267578125,-0.2683868408203125
1773257358435885300,12.84488525390625,1.4322967529296875,-0.3109283447265625,-0.1302032470703125
1773257358445897200,12.854897216796875,1.3497161865234375,-0.4010772705078125,-0.09295654296875
1773257358455910100,12.86491015625,0.650360107421875,-0.30084228515625,-0.14111328125
1773257358465923300,12.87492333984375,0.30859375,-0.2962799072265625,-0.1945953369140625
