time,seconds_elapsed,z,y,x
1773257345659314000,0.06831396484375,-0.04031096760034561,0.11890841123610735,-0.33276188205778595
1773257345669326800,0.078326904296875,0.1277180328965187,0.12679974900782107,-0.3104781540572643
1773257345679338800,0.0883388671875,0.25166063890755175,0.1010959834307432,-0.20554390763789415
1773257345689351700,0.0983515625,0.4099415678501129,0.03896744403690099,-0.11654752732366323
1773257345699363600,0.108363525390625,0.5486673169732094,-0.02404956862926483,-0.1469292215839028
1773257345709375700,0.118375732421875,0.6230939046651125,-0.13844196374565362,-0.31560967172682286
1773257345719388700,0.128388671875,0.5935317100942135,-0.21342823114693163,-0.43322658184766766
1773257345729400800,0.13840087890625,0.3753670980751514,-0.12243015562146901,-0.4814981530636549
1773257345739413800,0.148413818359375,0.09067103552818298,0.12141864049136637,-0.7075684236407279
1773257345749426000,0.158426025390625,-0.2331020689100027,0.10291881494373083,-0.733958125655353
1773257345759437800,0.168437744140625,-0.5752081178963184,0.003484627245366573,-0.3634904900595546
1773257345769451000,0.178450927734375,-0.8871826479911804,0.15331103157550097,-0.22390958541184663
1773257345779463000,0.188462890625,-1.1310802516818046,0.0430497449144721,-0.3467357546135783
1773257345789475800,0.198475830078125,-1.1697662484288216,-0.031037235559523105,-0.4322904700413346
1773257345799487700,0.20848779296875,-1.1256477052390574,0.07665478513538837,-0.7419450327560305
1773257345809499600,0.218499755859375,-0.8832371252357959,0.23323943155407903,-0.954405587914586
1773257345819512800,0.228512939453125,-0.5836445223301648,0.34446897872537374,-1.0498866540729999
1773257345829524700,0.238524658203125,-0.15870938348770142,0.2720060923218727,-1.3517217752084134
1773257345839538000,0.248537841796875,0.2245008293032646,0.3352545756563544,-1.3813567427545785
1773257345849549800,0.2585498046875,0.3505442069858312,0.4926759651601314,-0.5615989869996905
1773257345859562800,0.268562744140625,0.3627992929250002,0.2934063154861331,0.26026217077523467
1773257345869575000,0.278574951171875,0.40902269943952557,-0.034759470953047274,0.813144475094974
1773257345879586800,0.2885869140625,0.7904945441305636,-0.2180570599913597,1.0346224494457243
1773257345889599700,0.298599853515625,0.837684165328741,-0.3470557803481817,1.389608146010339
1773257345899611600,0.308611572265625,0.3217804693162441,-0.4504427973255515,1.3535402228072284
1773257345909624800,0.318624755859375,0.15215864666998385,-0.5913613803178072,0.4759682837262749
1773257345919636700,0.32863671875,0.6198614986151456,-0.5912979596927762,-0.6754477767586707
1773257345929649000,0.33864892578125,0.4621434642523527,-0.21967706240862606,-1.1458347532212734
1773257345939661800,0.348661865234375,0.2001496473789215,0.34846623166799545,-1.0614619410544632
1773257345949674000,0.358674072265625,0.5866542255401611,0.5574018275707959,-1.0826605041667818
1773257345959686700,0.368686767578125,1.4345716155916453,0.6171843883603811,-1.3586778779566286
1773257345969699000,0.378698974609375,1.8084072663158177,0.6620315380856394,-1.3928402597993612
1773257345979711000,0.3887109375,1.8060487204909323,0.7092547692924738,-1.279931088978052
1773257345989724200,0.39872412109375,1.5279443112939595,0.7360575821526348,-0.9543763618201017
1773257345999736000,0.408736083984375,0.877949540221691,0.5466678137190639,-0.5253779190614819
1773257346009749200,0.418749267578125,-0.016371289086341858,0.2491252752110362,0.02953676786869764
1773257346019761200,0.42876123046875,-0.6798930657297373,-0.09411737658977508,1.1913169859796762
1773257346029773000,0.43877294921875,-1.4862439351618288,-0.9568443593688308,3.575480943985283
1773257346039786000,0.448785888671875,-2.1324808150053025,-1.8175889361590145,4.668716033658385
1773257346049798000,0.4587978515625,-1.432240542295575,-1.6731944937497376,2.5674010490283368
1773257346059811000,0.46881103515625,0.20696867974400518,-1.1404605128370224,-0.04854483519941568
1773257346069823000,0.478822998046875,1.1189882473498582,-0.3265652193747461,-1.6970277892798185
1773257346079835100,0.488835205078125,0.7325152333706617,-0.34997371362149715,-2.658608967912197
1773257346089848000,0.49884814453125,-0.1254921735405922,-0.6636654228977859,-2.9518966254547236
1773257346099860200,0.508860107421875,-0.431993240660429,-0.9321743207536637,-3.037016456596553
1773257346109873200,0.518873046875,-0.38654607921540735,-1.8528141249276697,-3.3592321024596687
1773257346119885300,0.52888525390625,-0.14241232868134976,-0.738154408301413,-3.187606538775563
1773257346129897200,0.538897216796875,-0.6057412033259868,-0.49157107265815136,-2.303142502093315
1773257346139910000,0.548909912109375,-1.2211632581889629,-0.5169020594000816,-1.7431649788156152
1773257346149922000,0.558922119140625,-1.4784540119379759,-0.3203391844667494,-1.640465067319572
1773257346159935000,0.56893505859375,-1.0880214466780425,0.0004018587991595268,-1.2771291832998395
1773257346169947100,0.578947021484375,-0.5604980400204658,0.2352327973283827,-0.7533662982195616
1773257346179959000,0.588958984375,0.011029928058385848,0.34645737606361504,-0.48264440048933027
1773257346189972200,0.59897216796875,0.06333060865998268,0.460038162536174,-0.43231560448259115
1773257346199984000,0.608984130859375,-0.5705331118226051,0.7980990277849137,0.1462909236803651
1773257346209997000,0.6189970703125,-0.7589531584411859,1.3276282213069497,0.9583633856296538
1773257346220009200,0.62900927734375,-0.8096692001998425,1.4747247622817754,0.9086264180362223
1773257346230021000,0.639021240234375,-1.079499117526412,1.1142777315713464,-0.1603288013830781
1773257346240034000,0.649033935546875,-1.0826514440774917,0.5567924635007977,-1.1030229087159038
1773257346250046000,0.6590458984375,-0.699858579915762,0.4261469988502562,-1.4786895742595194
1773257346260059100,0.66905908203125,-0.3334451881468296,0.6435846117690205,-1.5685868489362298
1773257346270071000,0.679071044921875,-0.09887655381560324,0.5558382315158844,-1.0384973911829292
1773257346280083200,0.689083251953125,0.23785715448260306,0.46550534190088505,-0.4833224458813667
1773257346290096000,0.69909619140625,0.625595658352971,0.5561106187164783,-0.02146262087598443
1773257346300108300,0.7091083984375,0.879990106138587,0.6193830674484372,0.3225209124200046
1773257346310120200,0.7191201171875,1.0181716653823851,0.6497174154356121,0.5044339152321219
1773257346320133000,0.729133056640625,1.0110744005978107,0.6929638519659638,0.666700406679511
1773257346330145000,0.73914501953125,0.9624392567664384,0.8009151081189513,0.8340928628385067
1773257346340158000,0.749157958984375,0.8060738060563802,0.7971808900266886,0.8945188360981643
1773257346350170000,0.759170166015625,0.5274719687312841,0.625120149795711,0.7164959725923836
1773257346360182000,0.76918212890625,0.27187399037480353,0.41376638683527706,0.24393019078597425
1773257346370195200,0.7791953125,-0.07857786215245723,0.22217209409475325,-0.19140023147314786
1773257346380207000,0.78920703125,-0.5016963069617748,0.15872867271006105,-0.3163027685575187
1773257346390220300,0.79922021484375,-0.7458049230545759,0.2922871021978557,-0.18236907601654528
1773257346400232200,0.809232177734375,-0.7746668604016304,0.45666605575457214,0.12992664885669947
1773257346410244000,0.819244140625,-0.6808709708511829,0.6382201621264219,0.5670951001979411
1773257346420257000,0.829257080078125,-0.39003859750628467,0.7996209766551852,0.7686258997369557
1773257346430269000,0.83926904296875,0.007726210337877273,0.7847796736150979,0.6088043902888893
1773257346440282000,0.8492822265625,0.21906477572917937,0.6548536092802881,0.4217326895393431
1773257346450294000,0.8592939453125,0.24071429747939108,0.6022913551330566,0.3807115643756464
1773257346460306200,0.86930615234375,0.04903086515069008,0.6198427939146757,0.38325474605243653
1773257346470319000,0.879319091796875,-0.1177273847579956,0.7347030988037586,0.5014630096625536
1773257346480331300,0.889331298828125,-0.20002514421641826,0.8677522635951638,0.6293907397869974
1773257346490343200,0.89934326171875,-0.32672026380598546,0.9220411954045296,0.5433243119774386
1773257346500356000,0.909356201171875,-0.40164427962601185,0.9162453686073422,0.227385481361486
1773257346510368000,0.919367919921875,-0.5805430491834879,0.8578837805315852,-0.02385400952454656
1773257346520381200,0.929381103515625,-0.9561153144419192,0.9721221541300415,-0.22965938111022113
1773257346530393000,0.93939306640625,-1.3042296639323234,1.0558280268207192,-0.31316476279273625
1773257346540405000,0.949405029296875,-1.5325918448388576,1.0770753975108265,-0.39037718181088565
1773257346550418200,0.959418212890625,-1.6977958510428666,1.1222957644626497,-0.319317367138341
1773257346560430000,0.96943017578125,-1.7183371192902326,1.0214724604934453,-0.26484241123758256
1773257346570443300,0.979443359375,-1.435517372009158,1.1902309443086385,-0.015783698456734416
1773257346580455200,0.989455078125,-1.3262450963854788,1.3048673773139714,0.06486307892426849
1773257346590467300,0.99946728515625,-1.577391940551996,1.0473398921996355,-0.005699307620152831
1773257346600480000,1.00947998046875,-1.518260537147522,0.9509773670315742,-0.04002440574392676
1773257346610492000,1.019491943359375,-1.0324643946290015,0.7698018847137689,-0.09978680052831769
1773257346620505000,1.029505126953125,-0.20270868421196936,0.2865238624960184,-0.2691901581183076
1773257346630517000,1.03951708984375,0.7850456310749053,0.029740473747253415,-0.1962403649806976
1773257346640529200,1.049529052734375,1.600115229013562,-0.07292465869635344,-0.07771700753942132
1773257346650542000,1.0595419921875,1.933736942771077,-0.21892624404132366,0.16534531437084077
1773257346660554200,1.06955419921875,1.8328151468634604,-0.35245880843549965,0.39767099208086726
1773257346670566100,1.079566162109375,1.6737293312788009,-0.45388796934336423,0.5973948152631521
1773257346680579000,1.0895791015625,1.4908599045246838,-0.44090573817342515,0.7535026379503309
1773257346690591000,1.099591064453125,1.1982424013286828,-0.3760784612149,0.7810873949684202
1773257346700604200,1.109604248046875,0.8822358392387628,-0.43923926626592874,0.6656576196283102
1773257346710616000,1.119615966796875,0.6539490616559982,-0.5357461683407425,0.3168650786153972
1773257346720628000,1.1296279296875,0.629058950549364,-0.7297565823122859,-0.14802593077942727
1773257346730641200,1.13964111328125,0.5824070894896983,-0.964402081272006,-0.6319169703289866
1773257346740653000,1.149653076171875,0.38802667316198347,-0.9776672210365533,-1.0351032186999916
1773257346750666200,1.159666259765625,0.2509960375189781,-0.9803872936502098,-1.2539783170759677
1773257346760678100,1.16967822265625,0.3067085723906755,-1.0395607826307416,-1.2428598339512944
1773257346770690300,1.179690185546875,0.40567806518673893,-0.9614794718235731,-1.118844016573578
1773257346780703000,1.189702880859375,0.39248774422407146,-0.8916600856661796,-0.8058715614825487
1773257346790715100,1.199715087890625,0.3588204524219036,-0.7491328984335065,-0.3939109819602221
1773257346800727000,1.20972705078125,0.27339257824420926,-0.5871104448750615,-0.1835370968826115
1773257346810740000,1.219739990234375,0.21557050387263296,-0.563362489540875,-0.15365027346722782
1773257346820752100,1.229752197265625,0.252370833003521,-0.5666825738742948,-0.14864764287434518
1773257346830765000,1.23976513671875,0.13049568091630934,-0.48782823286801574,-0.18638317049611358
1773257346840777200,1.249777099609375,-0.2278033779799938,-0.35088030707240103,-0.14966690291948614
1773257346850789000,1.2597890625,-0.5863789157301187,-0.20770751541256904,-0.015061594727262853
1773257346860802000,1.269802001953125,-0.7559282576620578,-0.08715718218833207,0.15167097275089472
1773257346870814200,1.279814208984375,-0.763867233967781,-0.04615501745343208,0.19327139563988893
1773257346880826000,1.289826171875,-0.5582061296910047,-0.0870540140748024,0.06264640752179548
1773257346890839000,1.299839111328125,-0.3839613234192133,-0.14503624744415283,-0.030773031665384767
1773257346900851000,1.309850830078125,-0.39986733308136463,-0.11953297287523745,-0.11563249483797698
1773257346910864100,1.319864013671875,-0.5569301184058189,-0.1036889225333929,-0.15995642440672964
1773257346920876000,1.3298759765625,-0.6696271077811717,0.0021717910811305044,-0.08723809280428103
1773257346930888200,1.33988818359375,-0.6614946547299623,0.09721768069267273,-0.07106939535164274
1773257346940901000,1.349901123046875,-0.6406324839651584,0.1783665623769164,-0.14888467563376762
1773257346950913300,1.359913330078125,-0.6666939769387245,0.22884119659513233,-0.1911656920649111
1773257346960926000,1.369926025390625,-0.585733019042015,0.2075762902483344,-0.18187513675345107
1773257346970938400,1.3799384765625,-0.41234512186050415,0.24754472802132366,-0.26246092292852696
1773257346980950300,1.3899501953125,-0.3521726849704981,0.2348074115231633,-0.36162498844861984
1773257346990963500,1.39996337890625,-0.23676292950510977,0.22852204764336345,-0.28866975195091216
1773257347000975400,1.409975341796875,-0.19765958412885665,0.26959084787368776,-0.13645415092930196
1773257347010987500,1.419987548828125,-0.27185002497732635,0.33896453609019517,0.05658475112896412
1773257347021000400,1.43000048828125,-0.23615327317416668,0.3749149703934789,0.27948428271543235
1773257347031012600,1.4400126953125,-0.20093582932054996,0.41763592174500225,0.484246501923725
1773257347041025300,1.450025390625,-0.22093875290751455,0.5635986363843083,0.46818522863462564
1773257347051037400,1.460037353515625,-0.23388474372029303,0.6836559253945946,0.45698962515313174
1773257347061049300,1.47004931640625,-0.2939519666701555,0.46204263422638175,0.22708193183764813
1773257347071062300,1.480062255859375,-0.34066695609390735,0.10039105003178118,-0.2085788914196193
1773257347081074400,1.490074462890625,-0.28145898032188416,0.06295388430207967,-0.3530296671260148
1773257347091086300,1.50008642578125,-0.1699900714367628,0.09455722931176423,-0.4090997101984918
1773257347101099500,1.510099609375,-0.03433306223452091,0.014298866726458071,-0.41188751428611575
1773257347111111400,1.520111328125,0.2198994729876518,-0.04785334580391645,-0.32885676437802613
1773257347121124600,1.53012451171875,0.4131096764922142,-0.07631693148314952,-0.24959230820089578
1773257347131136500,1.540136474609375,0.3956938467890024,-0.10577274307012557,-0.2803434202954173
1773257347141148400,1.5501484375,0.38902620559334755,-0.2796662516862154,-0.2570158092651516
1773257347151161300,1.560161376953125,0.4907108025670051,-0.4695540327697992,-0.235665416591987
1773257347161173200,1.57017333984375,0.34726913083791733,-0.5545134126529098,-0.29230653755068775
1773257347171185400,1.580185302734375,0.1364414375782013,-0.5101449863553047,-0.4167599426280707
1773257347181198300,1.5901982421875,-0.17166005047559738,-0.559207123427093,-0.5879931459937244
1773257347191210500,1.60021044921875,-0.5579167913556099,-0.6251943840757012,-0.8881217554721981
1773257347201223400,1.610223388671875,-0.7952046215176581,-0.7373574127048254,-1.1903889113493262
1773257347211235600,1.620235595703125,-0.7889063981562853,-0.819666278079152,-1.2917492448046803
1773257347221247500,1.63024755859375,-0.7246557520419359,-0.8502595692634582,-1.2825034236840902
1773257347231260400,1.640260498046875,-0.7530477337896824,-0.8773474826753139,-1.2795284995265304
1773257347241272600,1.6502724609375,-0.7220218964070081,-0.8991162468910217,-1.2457900421842931
1773257347251284500,1.660284423828125,-0.7073200018376111,-0.8734545668900012,-1.219763182132691
1773257347261297400,1.67029736328125,-0.809009859508276,-0.7560241192519664,-1.1983733342319727
1773257347271309300,1.680309326171875,-0.849159499067068,-0.7055290267676114,-1.2282291049219667
1773257347281322500,1.690322509765625,-0.7638011829942465,-0.7108180730864405,-1.3721495000787078
1773257347291334400,1.70033447265625,-0.706579997125268,-0.7577259547337889,-1.575638228752464
1773257347301346600,1.7103466796875,-0.6063970368862152,-0.7472662277787924,-1.676071510490775
1773257347311359500,1.720359375,-0.4670271446406841,-0.7271227266773581,-1.7183641534276306
1773257347321371400,1.730371337890625,-0.23264555731415748,-0.7431243056684732,-1.6928217158921062
1773257347331383600,1.740383544921875,0.09940262351632118,-0.7189072715178132,-1.5756025729171932
1773257347341396200,1.750396240234375,0.35659576210975646,-0.584528319427371,-1.3598540821291505
1773257347351408400,1.760408447265625,0.4975988085150718,-0.42805882382094856,-1.026157695700228
1773257347361421300,1.77042138671875,0.5268547136157751,-0.20766922922879455,-0.6269453193962574
1773257347371433500,1.78043359375,0.48666708013415333,0.02711070976555347,-0.19849983434528112
1773257347381445400,1.7904453125,0.42621641082465644,0.3219505651861429,0.13162366203293205
1773257347391458600,1.80045849609375,0.3970458459198475,0.5051005624473095,0.3750152158975601
1773257347401470500,1.810470458984375,0.3742863171011209,0.590936432904005,0.45655543498694895
1773257347411482400,1.820482421875,0.3904126915156841,0.6081698917776346,0.42307635923326015
1773257347421495600,1.83049560546875,0.316760010805726,0.5999120587810873,0.32838556666970253
1773257347431507500,1.840507568359375,0.3441676576912403,0.6092810678899288,0.17702070072591303
1773257347441520400,1.850520263671875,0.5151058236330748,0.664447659316659,0.184967568077147
1773257347451532300,1.8605322265625,0.6408581094145774,0.7450704713001847,0.31436785497218367
1773257347461544400,1.87054443359375,0.7888929541528225,0.7968471280276775,0.5708788565203547
1773257347471557400,1.880557373046875,0.9741197576880455,0.6630611733943224,1.4000000684261322
1773257347481569500,1.890569580078125,1.1447066259741783,0.8999921529427171,2.555255268682539
1773257347491581400,1.90058154296875,1.016855322086811,0.5457315557822585,1.6866078098133206
1773257347501594600,1.9105947265625,1.116545530372858,1.0468009630173445,1.7453262485027312
1773257347511606500,1.9206064453125,0.7075649165093898,1.3425865748554466,1.9545435839563607
1773257347521619200,1.930619140625,0.27681963008344174,0.9921721317291259,0.8279390163838863
1773257347531631400,1.94063134765625,-0.07216682606637477,1.0862845398828387,0.22985782629176973
1773257347541643300,1.950643310546875,-0.2810205889046192,1.0536901380091905,-0.06835515882372856
1773257347551656400,1.960656494140625,-0.5521937375336885,0.8373211772352457,-0.3678513156175613
1773257347561668400,1.97066845703125,-0.7105892327666282,0.9106447721213102,-0.5403244360417128
1773257347571680500,1.980680419921875,-0.9293675927698611,0.9511731818646192,-0.5670274417892098
1773257347581693400,1.990693359375,-0.8627525556117296,1.038914593681693,-0.4047593429066241
1773257347591705300,2.000705322265625,-0.6253805542975663,1.0584425932332873,-0.06419380136057734
1773257347601718500,2.010718505859375,-0.32925942689478394,1.0305603145733475,0.33141090584024785
1773257347611730400,2.02073046875,-0.040592707151174544,1.014229649758339,0.6929721814028919
1773257347621742600,2.03074267578125,0.07839841393232345,1.0307204735711217,0.8221395363248885
1773257347631755300,2.04075537109375,0.11028642110228538,0.924800430984795,0.7106466620422899
1773257347641767400,2.050767333984375,0.1072439846664667,0.8902236231222749,0.3780113289736211
1773257347651779300,2.060779296875,0.0012584756284952164,0.8840253530040383,0.12694631787166
1773257347661792500,2.07079248046875,-0.09564707037508487,1.039701652406156,0.1747553861424327
1773257347671804400,2.080804443359375,-0.268913387003541,0.7362120420619845,0.1367304836526513
1773257347681816300,2.09081640625,-0.2963660420745611,0.4539838309332728,-0.01896276688426733
1773257347691829500,2.10082958984375,-0.20762802043557166,0.5076125452682375,-0.1017987248726189
1773257347701841400,2.11084130859375,-0.1632587173551321,0.5392912936016917,-0.080801383420825
1773257347711854300,2.120854248046875,-0.11849135486781597,0.5107385683342814,-0.005408727175742387
1773257347721866500,2.130866455078125,-0.1581914970934391,0.478161409856379,0.22007512181550262
1773257347731878400,2.14087841796875,-0.1638198583692312,0.552341913832724,0.2835390014663339
1773257347741891300,2.150891357421875,-0.11386018793582915,0.5788271851763129,0.252807178594172
1773257347751903500,2.160903564453125,0.030080665487051007,0.5710279096022248,0.3698901279687881
1773257347761915400,2.170915283203125,0.18392624233067034,0.6074614512473344,0.47532004895061253
1773257347771928600,2.180928466796875,0.25321488261222835,0.6281567410126329,0.38245486437901854
1773257347781940500,2.1909404296875,0.15892565658688546,0.423425318801403,0.11640300428643822
1773257347791953400,2.200953369140625,0.08240414244234562,0.2268582060843706,-0.12929317325875161
1773257347801965600,2.210965576171875,0.1788572685033083,0.1568318991780281,-0.25586364355534313
1773257347811977500,2.2209775390625,0.35581834799647327,0.12701952923834323,-0.11871084283739328
1773257347821990400,2.230990478515625,0.42003918349444863,0.05518909551948309,0.16137889495790003
1773257347832002300,2.241002197265625,0.4522153599560261,-0.06668839465528727,0.28390082051604987
1773257347842014500,2.251014404296875,0.2749725409120321,-0.15311755483001468,0.3292186564929783
1773257347852027400,2.26102734375,0.1614806017667055,-0.2333545823663473,0.23131080157905815
1773257347862039300,2.271039306640625,0.19799451517164707,-0.10919248838573693,0.2699453603997826
1773257347872052500,2.281052490234375,-0.1167471415489912,-0.2264133849263191,0.367270008598268
1773257347882064400,2.291064453125,-0.2899041525840759,-0.1531242768317461,0.3912976576566696
1773257347892076500,2.30107666015625,-0.4856108490794897,-0.017605799317359925,0.4341340520814061
1773257347902089500,2.31108935546875,-0.6356055957138538,-0.007809212446212768,0.3259038328565657
1773257347912101600,2.3211015625,-0.7692202854335307,-0.07742021654993295,0.06898804989978671
1773257347922113500,2.331113525390625,-0.8469827395498752,-0.128455991782248,-0.12765753488093615
1773257347932126500,2.34112646484375,-0.9046066610008477,-0.17884440902173518,-0.13331950616538524
1773257347942138400,2.351138427734375,-0.8397171324610709,-0.11759294472336769,-0.061342795843631025
1773257347952151600,2.361151611328125,-0.8064981689482927,0.01303454587906599,0.06464855939075351
1773257347962163500,2.37116357421875,-0.8027467074602842,0.046214054164290426,0.1265393445059657
1773257347972175000,2.381175048828125,-0.7347989603936672,0.08659078047722578,0.06002338380813598
1773257347982188000,2.39118798828125,-0.6669213559538125,0.1646291289255023,-0.06611249446347356
1773257347992200200,2.4012001953125,-0.7143155598133802,0.2240256130069494,-0.22368439835384488
1773257348002212000,2.411212158203125,-0.8722527898848056,0.2606953014954924,-0.4214157325446605
1773257348012225000,2.42122509765625,-0.8776338984012603,0.2767906962499022,-0.5768911025471986
1773257348022237200,2.4312373046875,-0.7519716289907693,0.3052206719204783,-0.6343325070381164
1773257348032249000,2.4412490234375,-0.5982447100907564,0.3523714224129915,-0.6957609353385865
1773257348042262000,2.451261962890625,-0.4568488649755716,0.3771607034936547,-0.6966643139190971
1773257348052274000,2.46127392578125,-0.270323253801465,0.30742753431499004,-0.689284725061804
1773257348062287000,2.471287109375,-0.0944523076325655,0.29460575440376996,-0.6238689806908368
1773257348072299000,2.481299072265625,0.02747428238093853,0.3198489167317748,-0.508796932747215
1773257348082311200,2.491311279296875,0.14650047477781772,0.3593570435166359,-0.3437416873641312
1773257348092324000,2.501323974609375,0.24170915373563764,0.37582916262894867,-0.15635010701045393
1773257348102336300,2.511336181640625,0.4442722919970751,0.3380459599405527,0.0443101202391088
1773257348112348200,2.52134814453125,0.6568512128382921,0.33150399095118044,0.08123334509730339
1773257348122361000,2.531361083984375,0.8673778773248195,0.3282268689766526,0.0717505003504455
1773257348132373000,2.541373046875,0.9699795891433953,0.15063684393018484,-0.0030273849971592425
1773257348142386200,2.55138623046875,1.0284019674956797,0.06420008497089147,-0.10393997468501329
1773257348152398000,2.561398193359375,0.9716454765290021,-0.0547483660146594,-0.10851634268984198
1773257348162410000,2.571409912109375,0.8863824375241994,-0.14491700497865675,-0.0034736674599349497
1773257348172423200,2.581423095703125,0.7778466594815254,-0.13989274707585572,0.0952611397974193
1773257348182435000,2.59143505859375,0.7006488535106181,-0.0364858563542366,0.11500935797095298
1773257348192447200,2.601447265625,0.5815916814535856,-0.0610793226018548,0.13293722884953021
1773257348202460200,2.611460205078125,0.50176118889153,-0.1488172272875905,0.1303602179683745
1773257348212472300,2.621472412109375,0.5117752179056406,-0.2564879129335284,0.03040653644055128
1773257348222484200,2.631484130859375,0.6284826119661331,-0.40633974396586414,-0.05591799431592226
1773257348232497200,2.6414970703125,0.6278443140625953,-0.4943088270589709,0.01871763301678002
1773257348242509000,2.651509033203125,0.5411626404315233,-0.46437750691473484,0.18379983947202563
1773257348252522000,2.66152197265625,0.5744067383855581,-0.3751449797570705,0.2928582531493157
1773257348262534100,2.6715341796875,0.5955851354926824,-0.3743380472883582,0.39375834868177767
1773257348272546000,2.681546142578125,0.5348012887060641,-0.41987931675761936,0.3374334540653974
1773257348282559200,2.691559326171875,0.4201023118585348,-0.32952041591852904,0.21241094386316833
1773257348292571100,2.701571044921875,0.18416005108654498,-0.2778308529525995,0.16219634882062672
1773257348302583300,2.711583251953125,0.04390402365624904,-0.3779553610026836,0.0733099316868931
1773257348312596000,2.721595947265625,-0.1718167023420334,-0.2701063961803913,0.07209175153616815
1773257348322607900,2.73160791015625,-0.2457189738988876,0.10500000513195991,0.06296559300618246
1773257348332621000,2.74162109375,-0.41574703925848006,0.39131490105241534,0.2626926493251696
1773257348342633000,2.751633056640625,-0.6486182220220565,0.3389429087802768,0.5726529169881716
1773257348352645000,2.76164501953125,-0.7124684706419706,0.3518304474040866,0.38755861725881696
1773257348362658000,2.771657958984375,-0.676305270370841,0.45053427500128745,0.10203582156412302
1773257348372670200,2.781670166015625,-0.6738555391311645,0.42790626360774037,-0.1119195387294516
1773257348382682000,2.79168212890625,-0.8062748815864325,0.3772705936089158,-0.22605858013927935
1773257348392695300,2.8016953125,-0.9479594805151224,0.45136049669235945,-0.25861454969868064
1773257348402707200,2.811707275390625,-1.0611001220047473,0.5333616112917662,-0.0850936007220298
1773257348412719000,2.821718994140625,-1.1018220084935426,0.6211325414642691,0.14490019997432826
1773257348422732000,2.83173193359375,-1.0088941339492796,0.683940587554872,0.25638949406035244
1773257348432744000,2.841743896484375,-0.8464315354079007,0.6687965021759271,0.18147300395965574
1773257348442757000,2.851757080078125,-0.5851970124691724,0.588720802681148,0.05680822115391493
1773257348452769000,2.86176904296875,-0.32637422684729095,0.4943918291673064,0.04436258107870817
1773257348462781200,2.87178125,-0.17337854483127593,0.4666726321145892,0.16570947150811552
1773257348472794000,2.881794189453125,-0.12864800722301006,0.5879807979688048,0.2707762582659721
1773257348482806300,2.89180615234375,-0.16741583703458307,0.8284186165943741,0.1772363893032074
1773257348492818200,2.901818115234375,-0.19935119047760963,0.9439774251416325,0.0034172610975801944
1773257348502831000,2.9118310546875,-0.15515958205163477,0.9438187274485826,-0.1302577805072069
1773257348512843000,2.921843017578125,-0.06118833593428134,0.7199661329209804,-0.21779694775044917
1773257348522855200,2.931855224609375,0.13995967483222485,0.6185828569814562,-0.13801277854815125
1773257348532868000,2.9418681640625,0.44505321324169633,0.47254707710593935,0.2726286081343889
1773257348542880000,2.9518798828125,0.644982495868206,0.7187462357372045,0.5914176405496895
1773257348552893200,2.96189306640625,0.3918061917006969,0.8332482287079095,0.8562908122517168
1773257348562905000,2.971905029296875,0.31460663216412066,0.43852731860429045,0.9728536832749843
1773257348572917000,2.9819169921875,0.4037017966777086,0.5650058728337287,1.0818049102507532
1773257348582930200,2.99193017578125,0.431866399410367,0.8201578609883785,0.8191346554204821
1773257348592942000,3.001942138671875,0.198707047355175,0.7266577395141124,0.7875893242083489
1773257348602954200,3.011954345703125,0.25632687715291974,1.5769491652205585,0.9385855029702186
1773257348612967000,3.021966796875,-0.03578618365228176,0.7358300570070743,0.032284678337350485
1773257348622979000,3.03197900390625,-0.37141339201331136,-0.6721773767858743,-0.3438474858261645
1773257348632992000,3.041991943359375,0.1456114169836044,-0.19469255101680755,-0.7677856495205313
1773257348643004200,3.052004150390625,0.20759236460030078,0.7476379837006331,-1.4377429391041396
1773257348653016000,3.06201611328125,-0.44933600512742994,0.8373416355013847,-0.8919519812848419
1773257348663029200,3.072029296875,-0.8202215738743543,0.864762141868472,-0.046954606865905225
1773257348673041200,3.082041259765625,-0.7952122203022242,1.0292588765859603,-0.09543295270036906
1773257348683053000,3.092052978515625,0.3204407451450825,-0.09264087429642677,-0.5876682979535311
1773257348693066200,3.102066162109375,1.7746347605735062,-0.5567763891488313,-0.3705576154341921
1773257348703078100,3.112078125,1.5084347241818905,-0.3947258785396814,0.6092522801868617
1773257348713090300,3.12209033203125,0.3339975613325834,-0.18762918850183485,0.9345340356223285
1773257348723103000,3.13210302734375,-0.2931149313241243,0.10239712915718555,1.0437447903171182
1773257348733115100,3.142115234375,-1.3241133450537919,-0.008071662774682044,0.5273624804748221
1773257348743128000,3.152128173828125,-2.0283926640212533,-0.9909715237677097,-0.5022834226673468
1773257348753140200,3.16214013671875,-1.854295157265663,-0.0008475567400455475,-1.3132516131691634
1773257348763152100,3.172152099609375,-2.018150671470165,0.16877952660322187,-0.7881647129435092
1773257348773165000,3.1821650390625,-1.7040402983903884,0.822277337360382,0.06880144128650427
1773257348783177200,3.19217724609375,-1.1820844627320766,0.14045476487278938,0.31914500624611974
1773257348793189000,3.202189208984375,-0.4181108457803726,-0.27676585406959053,0.33648828216977417
1773257348803202000,3.2122021484375,0.26278116785883904,0.24055589204728603,-0.08445983286313712
1773257348813214000,3.2222138671875,0.6785948426127434,0.9319251682981848,0.17346330050528047
1773257348823226000,3.23222607421875,0.42579497054219245,0.34941549521684645,0.2836069521360099
1773257348833239000,3.242239013671875,0.27482699496150015,0.787112792737782,0.1275223641939461
1773257348843251000,3.2522509765625,-0.14931611672043799,1.3459493292868137,0.09792626735344528
1773257348853264100,3.26226416015625,-0.004247720572352409,1.3270865156456828,1.206471154361218
1773257348863276000,3.272276123046875,0.3355857073068619,1.318952601289749,0.7828744245156646
1773257348873288200,3.2822880859375,0.19719488922655581,1.5832608325853943,0.6960609411984682
1773257348883301000,3.292301025390625,-0.051374213406443596,1.5913748731970787,0.8743757733881473
1773257348893313300,3.302313232421875,-0.2027887637108564,1.3257400694727897,0.8690178996168076
1773257348903325200,3.3123251953125,-0.1354828216791153,1.187415886887908,0.7832152007773518
1773257348913338000,3.322338134765625,-0.04570844272971153,1.1101350788086652,0.6516080514878034
1773257348923350000,3.33235009765625,-0.1529623642683029,0.8384247545629739,0.5330730036087333
1773257348933363200,3.34236328125,-0.17659750687777995,0.5370581277221441,0.530891567916423
1773257348943375000,3.352375,-0.10682371342778205,0.2904544799432158,0.6827659908175469
1773257348953387000,3.362386962890625,-0.19725977115631102,-0.02757657371163368,0.8680138371407985
1773257348963400200,3.372400146484375,-0.20612521465718744,-0.07864391312599181,0.957618997003138
1773257348973411600,3.38241162109375,-0.09558218844532966,0.025258944419026375,0.9859083951592444
1773257348983423500,3.392423583984375,0.0652291357576847,0.12837678906619548,1.0176970336079596
1773257348993436700,3.402436767578125,0.34965865632295606,0.18891133726686238,0.6393748851194977
1773257349003448600,3.412448486328125,0.6607295155763626,0.18876783714294432,0.09199994604438543
1773257349013460700,3.422460693359375,0.8454623981148004,0.16038813035488128,-0.2058446441501379
1773257349023473400,3.432473388671875,0.9711427877038716,0.17040771232694388,-0.40002895338386296
1773257349033485600,3.442485595703125,0.9470826976805925,0.2622153506696224,-0.611317249892652
1773257349043497500,3.45249755859375,0.7530009720385075,0.21892156786620615,-0.6805740337312222
1773257349053510700,3.4625107421875,0.5091588979274034,0.015277356369793414,-0.5738634252890944
1773257349063522600,3.4725224609375,0.268883576387167,-0.164517777505517,-0.34855537125617264
1773257349073535500,3.482535400390625,0.06981178737282752,-0.39075259099453685,-0.36990035710185765
1773257349083547600,3.492547607421875,0.3159118695437908,-0.3246551479697227,-0.5189624990612268
1773257349093559600,3.5025595703125,0.5527104548841715,-0.24970687449127435,-0.6393611488550901
1773257349103572500,3.512572509765625,0.39865971085727214,-0.4693234388843178,-0.5414268443256617
1773257349113584600,3.522584716796875,0.46769642220437524,-0.6696908206671476,-0.6725020786955952
1773257349123596500,3.532596435546875,0.6164999132275581,-0.8091080591857432,-0.7060995201319455
1773257349133609500,3.542609375,0.4628279393851757,-0.7385954300671815,-0.6032111003264784
1773257349143621400,3.552621337890625,0.12537234655320645,-0.6669193101271986,-0.6868669963955879
1773257349153634600,3.562634521484375,-0.006090133568644523,-0.7360121355757117,-0.8835697181910276
1773257349163646500,3.572646484375,-0.21981530183553694,-0.6858508050903678,-0.958531143411994
1773257349173658600,3.58265869140625,-0.16449848828315733,-0.5860872393071651,-1.0170300941318273
1773257349183671600,3.592671630859375,0.011786299383640288,-0.5747270563811063,-0.9967278953373432
1773257349193683700,3.60268359375,0.08330956684947013,-0.5597022134676576,-1.0734832182377576
1773257349203695600,3.612695556640625,0.18787351865172386,-0.44998248633742327,-0.8368664192050695
1773257349213708500,3.62270849609375,0.5459346771389245,-0.4648541845157742,-0.42571635234802957
1773257349223720400,3.632720458984375,0.9782406370103358,-0.566674682828784,-0.2930515106990933
1773257349233732400,3.642732421875,1.1777730292737483,-0.6625847880542278,-0.5030547358334064
1773257349243745500,3.65274560546875,1.137925587531924,-0.568368042743206,-0.6134150989547371
1773257349253757400,3.66275732421875,0.8758248031526803,-0.4784533785402775,-0.7305126613765954
1773257349263770600,3.6727705078125,0.606354366788268,-0.38620267260521646,-0.7768462502673268
1773257349273782500,3.682782470703125,0.5234183094263076,-0.38303514848500486,-0.43748891546726226
1773257349283794700,3.692794677734375,0.6713076082140207,-0.4339510967299342,-0.0856423937112093
1773257349293807600,3.7028076171875,0.8268582354098558,-0.4605629170626402,0.27259470586478707
1773257349303819800,3.71281982421875,0.7348509828418492,-0.6452595592439174,0.6305564956307411
1773257349313831700,3.722831787109375,0.6286959624558687,-0.8543380707487463,0.5462970807105303
1773257349323844600,3.7328447265625,0.6240630419582128,-0.835602975140512,0.2563420747220516
1773257349333856500,3.7428564453125,0.7704360909640788,-0.5424218467123806,-0.3134405109941959
1773257349343868400,3.752868408203125,0.8480869013994932,-0.24302754285782574,-0.9911234994590282
1773257349353881600,3.762881591796875,0.8363608077704906,-0.0794033531911671,-1.3331746033877134
1773257349363893500,3.7728935546875,0.970644190531969,-0.05112900647372007,-1.371687581655383
1773257349373906700,3.78290673828125,1.228749767795205,-0.12321706821545958,-1.1484002197951078
1773257349383918600,3.792918701171875,1.553421282377839,-0.2052209592938423,-0.8915221385002136
1773257349393930800,3.8029306640625,1.7285668368816374,-0.38327553311213847,-0.9423679441183805
1773257349403943400,3.812943359375,1.5255518631994724,-0.6138349318020045,-1.1149310809135435
1773257349413955300,3.822955322265625,1.151167346420884,-0.7641540880851447,-1.18522977502048
1773257349423967500,3.832967529296875,0.9215209709227085,-0.6766635092239827,-1.168726383987069
1773257349433980400,3.84298046875,0.6678975075095892,-0.3639128801900893,-1.1163146442264318
1773257349443992600,3.85299267578125,0.47601767582595345,-0.017789558386430142,-1.1401163755744694
1773257349454005500,3.863005615234375,0.5831155300199985,0.28240426181536166,-1.3299077105462551
1773257349464017700,3.873017578125,0.6378244408071041,0.3098500122215599,-1.5715017134696245
1773257349474029600,3.883029541015625,0.6083347269505262,0.2029000055329874,-1.7287451160579919
1773257349484042800,3.893042724609375,0.4893909521400928,0.14681839075372555,-1.9077888470441102
1773257349494054700,3.9030546875,0.12497896332144737,0.23825729624871164,-1.9476327816545962
1773257349504066600,3.913066650390625,-0.35429040777683257,0.5252904599737376,-1.5680968734622
1773257349514079500,3.92307958984375,-0.5948199963390827,0.9232610925883055,-0.8241413776665926
1773257349524091400,3.93309130859375,-0.5899059208124876,1.1008566705927252,0.18142331959903238
1773257349534103600,3.943103515625,-0.8822434380233287,0.8656786721915006,1.0977280171781778
1773257349544116500,3.953116455078125,-1.4364888473898172,0.7609600412841886,1.719737049216032
1773257349554128600,3.963128662109375,-1.5996832673370838,0.9387031380005181,1.759985472974181
1773257349564141600,3.9731416015625,-2.1643349199056625,1.136169099253416,1.596340971171856
1773257349574153700,3.98315380859375,-3.348912368497252,1.1546184367228298,1.588509546893835
1773257349584165600,3.99316552734375,-4.208073037096858,0.869275892965868,1.155320958968997
1773257349594178600,4.003178466796875,-3.7226270231902596,0.6079272421281784,0.257421102130413
1773257349604190500,4.0131904296875,-2.176463749116659,0.7782308364935219,-0.7167734743595123
1773257349614203400,4.023203369140625,-1.2760709064185618,1.0318368373151867,-1.044306223592162
1773257349624215600,4.033215576171875,-1.292794077682495,0.9949179233059287,-0.8937585192501545
1773257349634227500,4.0432275390625,-1.5960656613618134,0.9092678577449173,-0.7963397630274295
1773257349644240600,4.05324072265625,-1.7106874813199042,1.0860688513055443,-0.5702998875886202
1773257349654252500,4.06325244140625,-1.6689911968410014,1.4248358189970254,-0.48050855750441546
1773257349664264400,4.073264404296875,-1.618729913112521,1.985612383697927,0.07629881130456924
1773257349674277600,4.083277587890625,-1.5942670875072478,1.9221283380419014,0.7743874589383601
1773257349684289500,4.09328955078125,-1.1819617131352425,1.0605945105701684,0.7359867088735104
1773257349694302500,4.103302490234375,-0.747059891551733,0.07233019993454218,0.3279448371648788
1773257349704314400,4.113314453125,-0.22022914333343505,-0.722060328721255,-0.2119353622406721
1773257349714326500,4.123326416015625,0.4275982205718755,-0.8533722944565116,-0.6205886438459157
1773257349724339500,4.13333935546875,0.6235550924360752,-0.4815792554758489,-1.0477718538761138
1773257349734351600,4.1433515625,0.9176543586224317,-0.30463264289945363,-1.3941279615223408
1773257349744364500,4.153364501953125,1.20843061786592,-0.18369740201085805,-1.2478355765372513
1773257349754376700,4.163376708984375,1.2846154474020004,-0.23927549684792757,-0.9998422279655933
1773257349764388600,4.173388671875,1.4154530736237763,-0.32434798171669244,-0.49756023007035255
1773257349774401800,4.18340185546875,1.594839334437251,-0.26867753242105247,-0.023065818288922308
1773257349784413700,4.19341357421875,1.5056757808625698,-0.3873357682883739,0.026273089897632596
1773257349794426400,4.20342626953125,1.0508253962278364,-0.708914869813621,-0.18046353465616702
1773257349804438500,4.2134384765625,0.5644710353046656,-0.7465358676776289,-0.5807376949727535
1773257349814450400,4.223450439453125,0.2680792742669582,-0.3212725197941065,-0.9809060568273067
1773257349824463600,4.233463623046875,0.088666125446558,0.464186952778697,-1.093186282095313
1773257349834475500,4.2434755859375,0.05773147347867488,0.9554287934824823,-0.7009925523817538
1773257349844487700,4.25348779296875,0.01749824728965759,1.0959513628944755,-0.27863457055091856
1773257349854500600,4.26350048828125,0.013165771043300628,0.9864534618213772,0.15621464406251906
1773257349864512500,4.273512451171875,0.18535422930717468,0.768611798146367,0.6805699420779943
1773257349874525400,4.283525390625,0.35793197914957997,0.6172150757595897,1.1031319220483302
1773257349884537300,4.293537353515625,0.4886299046397209,0.6741606595575809,1.2631617404848337
1773257349894549500,4.303549560546875,0.36681320474147794,1.0328747289955615,1.2125585114508866
1773257349904562400,4.3135625,0.05443067836761474,1.4897732783317565,1.1936737782388924
1773257349914574600,4.32357470703125,-0.1480044495999813,1.6838550039738416,1.1543220110595225
1773257349924587500,4.33358740234375,-0.3201514068096876,1.5058900081351398,1.1167167952865362
1773257349934599700,4.343599609375,-0.23601357244253157,1.2311433849334716,1.093637532994151
1773257349944611600,4.353611572265625,0.07727905451357364,0.8377025777682662,1.0305565151810645
1773257349954624800,4.363624755859375,0.5037409645318984,0.49154725339114663,1.0513865372419358
1773257349964636700,4.37363671875,0.6037701955139637,0.30271745692789553,1.1334826366484165
1773257349974649600,4.383649658203125,0.17631284471750258,-0.14862930350005626,0.6930050607591867
1773257349984661800,4.393661865234375,0.1822591859012842,-0.18427111024558543,0.4446709359258413
1773257349994673700,4.403673583984375,0.4945248078972101,0.13179331951141357,0.41462709531784053
1773257350004686800,4.413686767578125,0.6122071844696998,0.3307166399657726,0.18965864850282668
1773257350014698800,4.42369873046875,0.6188800863623619,0.16867255909740925,0.03758241941928863
1773257350024711700,4.433711669921875,0.5922469309806824,-0.12891513372659683,-0.10996785667240619
1773257350034723800,4.443723876953125,0.5135995107233524,-0.4527472748756408,-0.2857517090797424
1773257350044736500,4.453736572265625,0.5138993704527616,-0.608859043085575,-0.5756517700105905
1773257350054748700,4.463748779296875,0.46707624447941776,-0.38715105937123295,-0.8300637534528971
1773257350064760600,4.473760498046875,0.09726794957518577,-0.011629062995314597,-0.7370955468982457
1773257350074773800,4.483773681640625,-0.2925894461452961,0.2959066078692674,-0.3613555238574743
1773257350084785700,4.49378564453125,-0.6260287890732288,0.46429216671884055,-0.11498130092024803
1773257350094798800,4.503798828125,-0.8414023090690373,0.48954175878763195,0.09503215334713458
1773257350104810800,4.513810791015625,-0.5448948126971721,0.4666355149745941,0.06441606580913066
1773257350114822700,4.52382275390625,-0.00758300247490406,0.27772973066568374,-0.36125323252677916
1773257350124835800,4.5338359375,0.3591606441617012,-0.15188684399127958,-0.7018062068521976
1773257350134847700,4.54384765625,0.43829204854369164,-0.5519388859897851,-0.847505302119255
1773257350144860700,4.553860595703125,0.47491935919523237,-0.6578460690945387,-0.6206085175901651
1773257350154872600,4.56387255859375,0.6736135470688343,-0.4629325688034296,-0.34436931774318214
1773257350164885800,4.5738857421875,1.1539993549764156,-0.012732640323042868,-0.04639116429686546
1773257350174897700,4.583897705078125,0.9638613985240458,0.2570014154136181,0.3107581400424242
1773257350184909800,4.593909912109375,0.6536293281823397,0.11916004790961741,0.6328314548254013
1773257350194922800,4.6039228515625,0.2744341962516308,0.1731406444221735,1.0888286714076996
1773257350204935000,4.613934814453125,1.0726192948848008,-0.6540373244613409,-0.05763853449821472
1773257350214947600,4.623947509765625,1.081947679722309,-1.3233920450419188,-0.3867570916175842
1773257350224959500,4.63395947265625,0.3801952488839626,-0.6004638474449515,1.0363532187610864
1773257350234971600,4.6439716796875,0.4527186333030462,-0.7873392949700355,0.6957377005934715
1773257350244984600,4.653984619140625,0.8562439043700695,-0.7070949609100818,0.634299773812294
1773257350254996700,4.663996826171875,0.8706003465026616,-0.7475383227184415,0.40464579952955243
1773257350265009700,4.674009765625,0.49497664331793784,-1.051050144894421,-0.1834621319502592
1773257350275021800,4.684021728515625,0.3719873925089836,-1.299899525773525,-0.7338917824208736
1773257350285033700,4.69403369140625,0.3506184412658214,-1.194926116387546,-1.6148896042972802
1773257350295047000,4.704046875,-0.11847323468923568,-0.8617045078635215,-2.5230606797814366
1773257350305058800,4.714058837890625,-0.5691109700649977,-0.7705255228132009,-3.4092285977721213
1773257350315071700,4.72407177734375,-0.8357605037897825,-0.780866884085536,-3.997390305265784
1773257350325083600,4.734083740234375,-0.7491939809709787,-1.2075021048441528,-4.188844020491838
1773257350335096800,4.744096923828125,-0.32724633350670335,-1.8178519710093735,-4.2463767565280195
1773257350345108700,4.754108642578125,-0.16005086122453213,-2.2303426388204097,-3.680152740076184
1773257350355120600,4.76412060546875,-0.21525193944275378,-2.1754408358097077,-2.818096934556961
1773257350365133800,4.7741337890625,-0.01665127507150173,-1.8162030347585678,-1.950024060705304
1773257350375145700,4.784145751953125,-0.08975567424893378,-1.5798270587444305,-1.6687871987015008
1773257350385158700,4.79415869140625,-0.36475627221167084,-1.192100245311856,-1.6307319010734558
1773257350395170800,4.8041708984375,-0.3969271879762411,-1.0431628987759352,-2.052863672932982
1773257350405183700,4.814183837890625,0.15194062000513076,-1.2122218268424272,-3.141045278608799
1773257350415195600,4.824195556640625,0.43755087478756904,-0.7499725641280413,-3.41868674646914
1773257350425207600,4.83420751953125,-0.1547147608935833,-0.07136544655561447,-3.5055291636198755
1773257350435220700,4.844220703125,-0.7610340563684701,0.5922890165567398,-3.6464883708834646
1773257350445232600,4.854232666015625,-1.228744507098198,1.1037234582006932,-3.5761388233721254
1773257350455245800,4.864245849609375,-1.8227853357583284,1.1626660610347985,-3.4181519089400765
1773257350465257700,4.8742578125,-2.654610838186741,1.36717974884212,-2.79252877805829
1773257350475270000,4.884269775390625,-3.0027111591517923,2.0189426986306906,-2.643806243316829
1773257350485282600,4.894282470703125,-3.022484950158,2.627346983686089,-2.3206892646998165
1773257350495294700,4.904294677734375,-2.615271345967054,2.5042022500544787,-2.420619126960635
1773257350505307600,4.9143076171875,-1.6155509908154606,1.7790911554604767,-3.116178840638697
1773257350515319800,4.92431982421875,-0.8637073721185327,1.893299718442559,-2.356535361845791
1773257350525332700,4.934332763671875,-0.9409124846130609,1.9802245531797409,-1.1893369180783628
1773257350535345000,4.944344970703125,-1.3097440434396266,1.7557324917048214,-0.1487295490041375
1773257350545356800,4.954356689453125,-1.0537219944521785,1.8138865745097397,0.5845256890788674
1773257350555369700,4.96436962890625,-0.20815467465817927,1.758710046210885,0.38446956520229575
1773257350565382000,4.9743818359375,-0.1067281440988183,1.7402449997156857,-0.0960576970025897
1773257350575394600,4.98439453125,-0.6699795744806528,1.97711138959527,-0.08831322035565972
1773257350585406700,4.99440673828125,-0.6992965621188283,2.431126492449641,-0.007868979809433222
1773257350595419600,5.004419677734375,-0.9190826378598809,2.448151861530542,-0.08206731170341372
1773257350605431800,5.014431884765625,-1.388545485214889,2.2074778960615395,-0.00190773331746459
1773257350615443700,5.024443603515625,-1.2545897269725799,2.306372570055723,0.16980338975824413
1773257350625457000,5.034456787109375,-0.8451058397620916,2.1850965529054402,-0.09553188303019851
1773257350635468800,5.04446875,-1.2447028314694761,1.731426902487874,-0.20821071569435298
1773257350645481700,5.054481689453125,-1.3039511392518877,1.5412462759375571,-0.2078964255807921
1773257350656119800,5.065119873046875,-1.513468918956816,1.9491864408373831,-0.17444745270442216
1773257350666132700,5.0751328125,-2.2526760511815547,2.2998609962046146,0.47890232788417486
1773257350676145000,5.085144775390625,-2.086713920086622,2.6989211045563217,0.9073488723810762
1773257350686156800,5.09515673828125,-1.8067139064013957,2.759851081815362,0.6295869930114597
1773257350696169700,5.105169677734375,-1.7541285636395214,2.7533365853548046,0.40167156949173655
1773257350706182000,5.115181884765625,-1.0701549505978822,2.5081395895034073,-0.5597803932704031
1773257350716194600,5.125194580078125,-0.5084685775756835,1.800161416018009,-2.058152865382284
1773257350726206700,5.135206787109375,-0.20264672489166258,1.3276409346580504,-1.9538116164200008
1773257350736219600,5.1452197265625,-0.07844517568349837,0.7530290290892123,-0.948214770450443
1773257350746231800,5.155231689453125,0.44174189673662184,0.6414210039943457,0.3546677166566253
1773257350756243700,5.16524365234375,1.0221803165018557,0.9003384821623563,1.547741337045282
1773257350766257000,5.1752568359375,0.900868643516302,0.5239467172145843,2.0558868201464415
1773257350776268800,5.185268798828125,0.6758516813844442,0.23007307647764683,1.9276048697568475
1773257350786281700,5.19528173828125,0.6846107419013977,0.35774551666676996,1.569376391878724
1773257350796293600,5.205293701171875,0.8121797217160462,0.5351695374965667,1.1737718308083713
1773257350806306800,5.215306884765625,0.9895826997578143,0.5599433287471532,0.8092987594522535
1773257350816318700,5.225318603515625,1.0851251407146454,0.5568202282905579,0.5671960763543844
1773257350826330600,5.23533056640625,1.024399161595106,0.6098708504766226,0.6290238792359829
1773257350836343800,5.24534375,0.9446844043672085,0.5944008941441774,0.8785080508872866
1773257350846355700,5.255355712890625,0.9118962334871291,0.5778875662386417,0.8994882950738072
1773257350856369000,5.265368896484375,1.077900450158119,0.4934270757883787,0.5219051283843815
1773257350866380800,5.275380859375,0.9288730872511863,0.05884148054718971,0.22422581175416706
1773257350876393700,5.285393798828125,0.5698363617300987,0.3506540971010923,0.6469106874518096
1773257350886405600,5.295405517578125,0.4541664940237999,0.5614835439264774,0.9825180220685898
1773257350896417500,5.30541748046875,0.2472796473443508,0.5621154120892285,1.1748203169479965
1773257350906430700,5.3154306640625,0.1987023711800575,0.48510173051357264,0.9784083947926759
1773257350916442600,5.325442626953125,0.3161363259494305,0.2614268306404352,0.41118557656183835
1773257350926455800,5.335455810546875,0.2703893047749996,0.08957564150691032,0.0760663177229464
1773257350936467700,5.3454677734375,-0.0005436053574085235,0.10095277556776999,0.05792772670313716
1773257350946479900,5.35547998046875,-0.2811211266696453,0.26485797413289547,0.27516791735365986
1773257350956492500,5.365492431640625,-0.39994273640513417,0.5652367589801549,0.43046866144165397
1773257350966504700,5.375504638671875,-0.19834698187112806,0.48906420440375803,0.1767462676987052
1773257350976518000,5.385517822265625,0.3172714674592018,-0.17256839749217032,-0.27516733283177014
1773257350986529800,5.39552978515625,0.6625567310035229,-0.7197013445049524,-0.20898586478531359
1773257350996543000,5.40554296875,0.5990986965715884,-0.7023357836842536,0.34251346074342726
1773257351006555000,5.415554931640625,0.22357377758622168,-0.3907628201276064,0.5523978087384254
1773257351016567000,5.425567138671875,-0.0229746328741312,-0.09387655357122421,0.25440285028778015
1773257351026580000,5.435580078125,-0.2375193008303642,0.19426058934032917,0.06817702577784657
1773257351036592000,5.445592041015625,-0.7822603842705488,0.14327391394674777,0.1838577071391046
1773257351046604800,5.455604736328125,-0.9304939664512872,-0.1488186885923147,-0.06996200949847697
1773257351056617000,5.465616943359375,-0.45550563367307184,-0.1721814440011978,-0.8808641855593771
1773257351066630000,5.4756298828125,-0.01604512701354106,-0.594034398919344,-1.7929805646032093
1773257351076642000,5.48564208984375,-0.5561223091542721,-1.1088239962100983,-2.499995738275349
1773257351086655000,5.495655029296875,-0.4441968886733055,-0.7586106286138296,-1.7311128681026398
1773257351096667100,5.505667236328125,-0.35629882498979565,0.5556231274604797,-0.4744564909238368
1773257351106679000,5.515678955078125,-0.5184077877879143,0.3166115422457456,0.4412604698952287
1773257351116691700,5.525691650390625,-0.2473626494526863,0.00047813890576362607,1.1784758437808602
1773257351126703900,5.535703857421875,0.19102763530109076,0.13628595475554464,1.251230479672551
1773257351136716800,5.545716796875,0.006368950510025024,0.27646950147151944,0.7491895239915698
1773257351146729000,5.55572900390625,0.40004093608260155,0.7102905420809984,0.5386843406844883
1773257351156742000,5.565741943359375,0.6342588572800159,1.1046160231262445,-0.1885327132128179
1773257351166754000,5.575754150390625,0.24918051252961157,0.7302519646137953,-0.724760454525426
1773257351176766000,5.585765869140625,-0.4412217087874189,0.6506956128180027,-0.22070516334734855
1773257351186779100,5.595779052734375,-0.6197849262475967,0.8992711451917886,0.40478016649894416
1773257351196791000,5.605791015625,-0.8143325158357619,0.8359305996596813,0.15046075671091674
1773257351206804000,5.615803955078125,-1.0539152520019561,0.764861505702138,-0.2587095345057547
1773257351216815900,5.62581591796875,-1.0383283182263374,0.4930728555232286,-0.46414486720263953
1773257351226829000,5.6358291015625,-0.8237561777412891,0.2663864988744259,-0.528262096195668
1773257351236841000,5.645841064453125,-0.7345884594481438,0.4690180261969566,-0.3207769182968884
1773257351246852900,5.655852783203125,-0.6233459066648036,0.5508563514500856,-0.23587628286369144
1773257351256866000,5.665865966796875,0.05237082322835922,0.3046668374300003,-0.04685242513306439
1773257351266878000,5.6758779296875,0.8892178801458328,-0.0488771358937025,0.12672858346775173
1773257351276891000,5.685890869140625,1.4733330156624316,-0.6679734953552484,-0.15229747061878443
1773257351286902800,5.69590283203125,1.629185256153345,-1.1794324869185686,-0.20526764797978103
1773257351296916000,5.705916015625,1.150326146356389,-1.032461472019553,0.21470153901837766
1773257351306927900,5.715927978515625,0.08998948300480843,-0.08107201705574989,1.1450252634692937
1773257351316941000,5.725941162109375,-0.08575403739213942,0.3538052546083927,1.2622186144158243
1773257351326953000,5.735952880859375,-0.2997651099283248,0.07690729859173298,0.41986905109193173
1773257351336964900,5.74596484375,-0.26144619292803106,-0.22958792330920694,0.011142375456914305
1773257351346978000,5.75597802734375,-0.11128953373022377,-0.04528174175024032,0.1813600816370919
1773257351356990000,5.765989990234375,0.02637012053132057,-0.1255646542549133,-0.3020825930904597
1773257351367003000,5.7760029296875,0.44864035101346667,-0.21026596772372722,-0.5288781092021614
1773257351377014800,5.786014892578125,0.4592938469748944,-0.07710077533721924,-0.816638600821048
1773257351387028000,5.796028076171875,0.2978817803997546,0.06263093595802784,-1.085484767807275
1773257351397039900,5.806039794921875,0.21265147462077438,0.019710078120231626,-0.8306214604008942
1773257351407053000,5.816052978515625,0.23760106082968413,-0.36303076359331604,-0.6764477475814521
1773257351417065000,5.82606494140625,0.3835936591506004,-0.8165987072020768,-0.5569191586203873
1773257351427076900,5.836076904296875,0.47613041548542673,-1.0007213488876818,-0.5683681888736785
1773257351437090000,5.846090087890625,0.6654827745180577,-0.7671873183012008,-0.42330753764063117
1773257351447102000,5.85610205078125,0.47677112454175946,-1.1027338626414538,-0.9887087664674967
1773257351457115000,5.866114990234375,-0.003974675784632563,-0.122943073579669,0.5578186282107607
1773257351467126800,5.876126708984375,-0.5227146181363612,0.23703823931515217,0.4965556561376899
1773257351477140000,5.886139892578125,-0.821738408178091,0.17643910144567487,-0.10966936691617593
1773257351487151900,5.89615185546875,-1.267211892658472,0.5740291372448205,-0.44004583340846
1773257351497165000,5.9061650390625,-1.6868986094534397,1.0640654015511273,-0.25461094008050855
1773257351507177000,5.916177001953125,-1.969022775685787,1.3275801443815232,0.0502846646040678
1773257351517190000,5.92618994140625,-1.9453778423346577,1.4607909294754267,0.21678630940318105
1773257351527201800,5.936201904296875,-2.0730442911744116,1.2761533240050076,0.1293586945093237
1773257351537215000,5.946215087890625,-2.0786732369720933,0.8388210604041815,-0.4200449556481093
1773257351547227000,5.956226806640625,-2.115835969674587,0.9705909990400076,-0.5935608631234616
1773257351557238800,5.96623876953125,-1.84424839502573,0.8131839303225279,-0.7207607904300093
1773257351567252000,5.976251953125,-1.3783037849247455,0.38707039535045623,-0.485081747171469
1773257351577263900,5.986263916015625,-1.2489165036417542,0.37045126898288727,0.2666602012492716
1773257351587277000,5.996277099609375,-0.9063293931402265,0.6129699855357408,0.6795999280020594
1773257351597289000,6.0062890625,0.0367559054672718,0.37182723351120944,0.38736028167512265
1773257351607302000,6.016302001953125,1.3385634568192064,0.3779875097066164,0.32981475922260434
1773257351617313800,6.026313720703125,2.488348262840509,0.09279694164097309,0.3567139085967094
1773257351627327000,6.036326904296875,3.0890567326962945,-0.7246347092539072,0.39044944332949816
1773257351637339000,6.0463388671875,2.9479414580881595,-0.9379267468005418,0.42398382946699853
1773257351647352000,6.05635205078125,2.8545734385609625,-0.8881628912001848,0.578564880978316
1773257351657364000,6.066364013671875,2.3527904762290417,-0.9795505505651235,0.37488198143932966
1773257351667377000,6.076376953125,1.6972538531206547,-1.0423211872547864,0.12690269792564213
1773257351677388800,6.086388916015625,0.8063571530424058,-0.7380494866222143,0.3348914048997685
1773257351687402000,6.096402099609375,-0.041469343855231995,-0.07801496757268905,0.5191967827411368
1773257351697414000,6.106413818359375,-0.40094358401075003,0.4174053278595209,0.5296212922522798
1773257351707425800,6.11642578125,-0.18948577615395187,0.4872673841148615,0.12110168349668383
1773257351717439000,6.12643896484375,-0.09436309497915207,0.4589747710883617,-0.5533656308572739
1773257351727451000,6.136450927734375,-0.02657952549830079,0.43136663319468493,-0.26994557959549126
1773257351737464000,6.146464111328125,0.24680618461370465,0.5067442380011081,-0.18574943916983902
1773257351747476000,6.15647607421875,0.21448197798356414,0.5728150852799415,0.3758733670968562
1773257351757489000,6.166489013671875,0.10668576626181601,0.9410282199472189,1.1621513895109294
1773257351767500800,6.176500732421875,-0.18447993069067598,1.2162217101335524,1.7837676228389143
1773257351777514000,6.186513916015625,-0.36270650007501243,1.0936164902061223,1.8679241619065403
1773257351787526000,6.19652587890625,-0.09465659803301095,1.1235200455605983,0.7222848581921308
1773257351797539000,6.2065390625,0.11858400158733129,1.3154992459654806,-0.5456526453271507
1773257351807551000,6.216551025390625,-0.240562467918545,1.4562263980388641,-0.7915089818701148
1773257351817564000,6.22656396484375,-0.4495451178334653,1.2787848415523766,-0.8501915455285459
1773257351827575800,6.236575927734375,-0.7757682457722723,0.9661281744122504,-1.0009713781259952
1773257351837589000,6.246589111328125,-1.5089865128457545,0.8817892645150422,-0.9678148123249412
1773257351847601000,6.256600830078125,-1.5301640331700443,0.905542480546236,-0.4460412013657391
1773257351857614000,6.266614013671875,-1.1539619455754757,0.32377135087251663,0.3985305315196514
1773257351867626000,6.2766259765625,-1.0537037281431256,-0.36094869662225243,1.1014010066024957
1773257351877639000,6.286638916015625,-0.6958196797885,-0.5044049813985825,1.459990134486556
1773257351887651000,6.296651123046875,-0.2860930698633194,-0.6741495536416768,0.9284022548690438
1773257351897663700,6.306663818359375,0.29757687916904685,-0.905512669929862,0.12701339175850151
1773257351907676000,6.316676025390625,1.059651676762104,-1.4665741890519857,-0.7172144961252808
1773257351917688800,6.326688720703125,1.6931541627168654,-2.664903684142232,-1.4517884155914187
1773257351927701000,6.336700927734375,2.2215213267222045,-3.581082124993205,-1.2844910903699696
1773257351937714000,6.3467138671875,2.6167595386981963,-4.194483487683534,-0.6159203597739339
1773257351947726000,6.35672607421875,3.105423345607519,-4.4881683278501034,-0.21956951038092373
1773257351957738800,6.36673876953125,3.2960414867922663,-4.616002680602669,-0.3048307958200574
1773257351967751000,6.3767509765625,3.405588195443153,-4.173139086359739,-0.7471300341784953
1773257351977764000,6.38676416015625,2.938065376240015,-3.1805273941695686,-0.9339183879420161
1773257351987776000,6.39677587890625,2.041312643609941,-1.90144853810668,-0.3516752568423748
1773257351997789200,6.4067890625,0.9792472567696123,-1.1225269428700209,0.0500078934893012
1773257352007801000,6.416801025390625,0.25511567473225294,-1.194489770796895,-0.395403631670773
1773257352017814300,6.426814208984375,0.05969141190741211,-1.2940911317557096,-0.9712266665950416
1773257352027826200,6.436826171875,0.30539164457321166,-1.3351082017987965,-1.2483256981417536
1773257352037839000,6.446839111328125,0.5650526345849037,-1.2148732181340456,-0.7786191051587462
1773257352047851000,6.45685107421875,0.9025561582118272,-1.3194278175860643,-0.703560357043147
1773257352057864200,6.4668642578125,1.6333768626242875,-2.1071604957878587,-1.3179518998146056
1773257352067876000,6.4768759765625,2.192417105051875,-1.9956711286365985,-1.205144435802102
1773257352077889300,6.48688916015625,2.1800550516068933,-0.7427467045277356,-0.4999140997201204
1773257352087901200,6.496901123046875,1.9998457839727402,0.047564299729466436,0.15276070421636104
1773257352097914000,6.5069140625,1.6322918438665568,0.6468769313126802,0.7880264004513621
1773257352107926000,6.516926025390625,1.1412369040369987,0.9868781169742346,1.0809317806780339
1773257352117939000,6.52693896484375,0.6616691345140338,1.2064122637808323,0.784126762664318
1773257352127951000,6.536951171875,0.25733663871735335,1.594217987668514,0.21678601714223622
1773257352137964000,6.546964111328125,0.16733751110136508,1.9988029969215393,-0.018919512264430522
1773257352147976200,6.55697607421875,-0.09621814826130866,2.2520149569243193,0.04752192189246416
1773257352157989000,6.566989013671875,-0.5712509047031402,2.6461089673012492,0.07627075425386429
1773257352168001300,6.577001220703125,-1.0705793134897947,3.039603258219361,0.2209700248286128
1773257352178014000,6.587013916015625,-1.3933768508940934,3.28019071444869,0.521642239664495
1773257352188026000,6.597026123046875,-0.4902794254124164,3.959210504475236,0.7353893275022506
1773257352198039000,6.6070390625,0.06148498079329729,4.775499415075779,0.2843380428895354
1773257352208051200,6.61705126953125,0.14283172313719988,4.886760234168172,-0.09369535178542136
1773257352218064100,6.627064208984375,-0.34576281792819497,4.456513544914126,-0.2525514502674341
1773257352228077000,6.6370771484375,-0.37314357680678367,4.312600164020061,-0.25846242787688967
1773257352238089000,6.6470888671875,-0.3749433197051287,4.437355255457758,-0.4587155356302857
1773257352248102100,6.65710205078125,-1.3234002283483743,3.5761318091094494,-0.3941054085537791
1773257352258114000,6.667114013671875,-1.940208769133687,2.0150930374652147,-0.305402165967226
1773257352268127200,6.677127197265625,-2.1331261271715163,0.6239829624593257,-0.0872539205610752
1773257352278139100,6.68713916015625,-2.9975860712230205,-1.627467930841446,0.3433753382697701
1773257352288152300,6.69715234375,-2.2523966497182846,-1.5015245064020155,1.3803829292863607
1773257352298164200,6.707164306640625,-0.18329378964602946,0.9205331289291381,1.7219143932551144
1773257352308177000,6.717177001953125,0.24107260939776895,1.6797241877794264,1.963467187385261
1773257352318189000,6.72718896484375,0.5111415961772203,1.4369722469925879,2.2922969906911255
1773257352328202000,6.737201904296875,1.1364540536746381,1.2426894458204507,1.4668223185941576
1773257352338214100,6.747214111328125,1.6211977645307778,0.7595885337352752,0.0864127935618162
1773257352348227000,6.75722705078125,1.4533137254625559,0.16252572690546513,-0.7333516841948032
1773257352358239200,6.7672392578125,1.1797042895972727,-0.2901566660404205,-1.0270520141914485
1773257352368252200,6.777252197265625,1.5777660345613955,-0.1707446891963482,-0.6779061296962201
1773257352378264000,6.78726416015625,2.1925988913595673,0.4138257158070802,-0.40869215231090783
1773257352388277000,6.797277099609375,1.2455869208276271,0.8511299223572015,-0.4523518458172679
1773257352398290200,6.807290283203125,0.5193129199340939,0.7245879475027323,-0.5818969480104744
1773257352408302000,6.817302001953125,0.19190058221071957,-0.2277075163900852,-0.27866540408059953
1773257352418315300,6.827315185546875,0.8400450492411852,-5.737350642821192,2.1080795103289187
1773257352428327200,6.8373271484375,2.7402058856248854,0.36860359528958797,0.7573975995622575
1773257352438340000,6.847340087890625,2.0576272340729833,1.1789087553054094,0.26805910826176405
1773257352448352000,6.85735205078125,0.3560094866544008,-1.3514602016627788,1.0718659922994673
1773257352458365200,6.867365234375,0.06554916149228811,-0.5266320107758045,0.3863737913884222
1773257352468377000,6.877377197265625,-0.17478285867124796,-0.4400871152669191,0.12982114265561104
1773257352478390300,6.887390380859375,0.25344489197582004,-0.4366138861984014,-0.5890279689341783
1773257352488402200,6.897402099609375,0.017206278605759143,-0.47475861567556854,-1.366402334728837
1773257352498415000,6.9074150390625,-0.5777461119413375,-0.24588380907177923,-1.2994555813983082
1773257352508428000,6.917427978515625,-0.5513365361824631,0.11400339579880236,-1.2852061067715286
1773257352518440000,6.92743994140625,-0.8643626211568712,0.09520049565136432,-1.406132579831779
1773257352528453000,6.937453125,-1.0912757722988724,0.5544307028055191,-1.3689254234656691
1773257352538465000,6.947465087890625,-1.82056298353374,1.2669108638852833,-1.1479843324705958
1773257352548478200,6.957478271484375,-3.044511488527059,2.130069662210345,-1.0117699816465378
1773257352558490000,6.967489990234375,-3.455870521959662,3.20698928463757,-1.304411450240016
1773257352568503000,6.9775029296875,-2.684371770200133,2.6901158668100833,-1.2847700534418225
1773257352578515000,6.987514892578125,-1.5801540987417102,2.1704946115791794,-0.9354980583488941
1773257352588528000,6.997528076171875,-0.7979176798686385,1.4920266102164983,-0.3665475395426154
1773257352598541000,7.007541015625,0.3631143502235412,0.3407370987206697,0.7024111870080232
1773257352608553200,7.01755322265625,1.0193573680356145,-0.2538531805157661,1.155484917359054
1773257352618566100,7.027566162109375,0.5304442625403404,-0.26048224326670166,0.6798831288576126
1773257352628578300,7.037578369140625,0.06583031652122735,-1.2986562477141619,0.3432482047587633
1773257352638591000,7.047591064453125,0.06353621423467994,-2.100468889194727,0.4335711575016379
1773257352648603100,7.05760302734375,0.7149158637940883,-2.110796806463599,0.1430634860664606
1773257352658616000,7.067615966796875,1.1480588590115308,-2.1744261058092116,-0.42147710734307764
1773257352668629200,7.077629150390625,0.37898353500664234,-1.719807776364684,-0.8271253619134425
1773257352678641200,7.08764111328125,0.23481062639355657,-0.8072837663680315,-2.2404580823823808
1773257352688654000,7.097654052734375,0.48077407657280563,0.14898235472142696,-3.8490409877508878
1773257352698666000,7.107666015625,-0.6040566112399101,0.5820575453996658,-4.234574090531468
1773257352708679200,7.11767919921875,0.6919505832701921,1.749851032450795,-4.5445390343695875
1773257352718691000,7.127691162109375,0.48373994064107534,2.0646336057037113,-3.6897272086292503
1773257352728704300,7.137704345703125,-1.1725412661001084,1.0194219577044248,-2.3663836789041754
1773257352738716200,7.147716064453125,-1.0010910589829087,0.7166343581497668,-2.489282913342118
1773257352748729000,7.15772900390625,-0.3303109817743301,0.7976040838748216,-2.2901535489216447
1773257352758742000,7.167741943359375,0.32460429456532,0.49178398475646967,-1.770892066913843
1773257352768754000,7.17775390625,0.9438912081629037,0.2849497450470924,-0.6451284802101552
1773257352778767000,7.18776708984375,1.6494582288533448,-1.092832061830163,1.5301728009983897
1773257352788779000,7.197779052734375,1.988943281686306,-0.565070754763484,2.2711437280252573
1773257352798792200,7.207792236328125,1.7467659259170292,0.9579448679566382,1.8983434116981923
1773257352808804000,7.21780419921875,1.2022551441013811,1.1371347294151781,2.0781091733485457
1773257352818817000,7.227817138671875,0.6547916499599814,0.6149748956173658,2.790629081916809
1773257352828829000,7.237828857421875,0.4829685178771615,0.17017478035390377,3.073541475917399
1773257352838842000,7.247842041015625,0.66003481131047,-0.17599252672195434,3.0226223128020764
1773257352848855000,7.25785498046875,0.9491448909074067,-0.2827455130010843,3.4023151651218533
1773257352858867200,7.2678671875,1.0657044009298084,0.14224632446467875,3.7543127857863903
1773257352868880100,7.277880126953125,1.5620724986061454,0.9652256726145744,3.8433530052423475
1773257352878892300,7.287892333984375,2.0856758092105387,1.2725988463938236,3.39516909275949
1773257352888905000,7.297905029296875,1.8130331725507973,0.6853221050411462,2.6958669776827096
1773257352898917000,7.307917236328125,1.1197989792108536,-0.23076515039503573,1.818729630626738
1773257352908930000,7.317929931640625,0.7260474986612796,-0.6158551855832338,1.1300373915653674
1773257352918943200,7.327943115234375,0.8003112970069051,-0.6567471679419279,0.4017961822520941
1773257352928955100,7.337955078125,0.7919856594711542,-0.6342600263237953,-0.23303430090341715
1773257352938968000,7.347968017578125,0.4995335759699344,-0.4504191241890192,-0.569173477374576
1773257352948980000,7.35797998046875,-0.06279226399958134,-0.16965747848153112,-0.7671609417509287
1773257352958993200,7.3679931640625,-0.4904068511843681,0.041888007658720014,-0.9721882051035762
1773257352969005000,7.378005126953125,-0.681745415598154,-0.21619360420703887,-0.9287485110234469
1773257352979018200,7.388018310546875,-0.7024205393582582,-0.4909714993298053,-0.8737132178261876
1773257352989031400,7.398031494140625,-0.09427110584676265,-0.5416103841990232,-1.005538393780589
1773257352999043300,7.408043212890625,0.40340778216719625,-0.42321138378977774,-0.748150901658833
1773257353009056300,7.41805615234375,0.47855450082719325,-0.71265610216856,-1.7571645703345535
1773257353019068200,7.428068115234375,-0.07775777794122696,-0.5385621025443077,-2.2489257587373257
1773257353029081000,7.4380810546875,-0.9636123921990394,-0.740918320056796,-2.14444437065199
1773257353039093200,7.44809326171875,-1.5494751751005649,-0.8758031758427619,-1.9710459520764647
1773257353049106200,7.458106201171875,-1.5201345143258571,-1.259067164647579,-2.2078172110185026
1773257353059118300,7.468118408203125,-1.2801818488687275,-1.2206769359767435,-2.138997357292473
1773257353069131000,7.478131103515625,-1.1239566834121941,-0.6668342621922493,-1.3171573884360492
1773257353079144200,7.488144287109375,-0.924813582727313,-0.17003917127549648,-0.8768419443059712
1773257353089156000,7.498156005859375,-0.1658019720971584,0.18953414534032342,-0.8315678013402968
1773257353099169300,7.508169189453125,0.18858371274769306,0.003085691055655479,-1.005843368076533
1773257353109181200,7.51818115234375,-0.5198094712793827,-0.07025076331198216,-0.8756503233686089
1773257353119194400,7.5281943359375,-1.3731892183899879,0.3081178546667099,-0.655470791330561
1773257353129206300,7.538206298828125,-0.9929793564587831,0.3727192139148712,-0.23919152662521226
1773257353139219200,7.54821923828125,0.18148001822233198,0.2744645913898945,0.23950433716773986
1773257353149232000,7.558232177734375,0.8185773137986659,0.39225685807764527,0.5001939395748078
1773257353159244300,7.568244384765625,0.891592281126976,0.4779968669444322,0.3338159942205995
1773257353169257200,7.57825732421875,0.6894213570535183,0.42029111242890355,0.06122156235044822
1773257353179269400,7.588269287109375,0.6126911685943603,0.1835796208500862,0.15288537177564576
1773257353189282300,7.5982822265625,0.6943769336342811,-0.058335869112610815,0.2621205485256389
1773257353199294200,7.608294189453125,0.737335785394907,-0.3703840489655733,0.24597970719430595
1773257353209307100,7.61830712890625,0.40064124006330964,-0.4406102623581886,0.2493960184438154
1773257353219320300,7.6283203125,-0.011426233899593352,-0.3863333132475614,0.3458604696163907
1773257353229332200,7.638332275390625,-0.08949906913936137,-0.4120499383062124,0.2028137154890224
1773257353239345400,7.648345458984375,-0.10647241577208041,-0.3214163121789694,0.0416070718254894
1773257353249357300,7.658357421875,0.11644903538525103,-0.1253741001188755,0.16043942215070128
1773257353259370200,7.668370361328125,0.37141222296953197,-0.052585927283763885,0.044892084845528
1773257353269382100,7.678382080078125,0.06655307783782481,-0.16069091269373892,-0.3130685358766466
1773257353279395300,7.688395263671875,-0.397354473477602,-0.21895137848258017,-0.7213145518552512
1773257353289408300,7.698408203125,-0.5723427915930748,-0.17581717015504836,-0.8831631832167506
1773257353299420200,7.708420166015625,-0.2639619020760059,-0.11080781462788582,-0.5666160114441067
1773257353309433300,7.718433349609375,0.10983867733478546,-0.15969722548127174,-0.04429696849659085
1773257353319445200,7.7284453125,0.0804699595093727,-0.15197627584040163,0.26729718397855756
1773257353329458200,7.738458251953125,-0.10292495242357254,0.028546295526623723,0.36172771817073224
1773257353339471400,7.748471435546875,-0.09047054452002048,-0.08861585656404494,0.17855594746917486
1773257353349483300,7.758483154296875,-0.03010463088452816,-0.2853244235783815,-0.13016601057052613
1773257353359496200,7.76849609375,-0.2451321139216423,-0.17975977030098436,-0.4541499812804162
1773257353369508400,7.77850830078125,-0.5773638346254826,-0.21216858647465706,-0.8490140992470085
1773257353379521000,7.78852099609375,-1.0201344898879527,-0.4425830237358808,-1.4788881655715405
1773257353389533200,7.798533203125,-1.3412123638927935,-0.706150958058238,-1.8109087277427314
1773257353399546000,7.808546142578125,-0.8878811516493559,-0.646207653748989,-1.4416004913151264
1773257353409559300,7.818559326171875,-0.011761164942383766,-0.3413596145331859,-1.0210602264307438
1773257353419571200,7.8285712890625,0.567566078710556,-0.06346329512894153,-0.5637450591176748
1773257353429584400,7.83858447265625,0.8968202449083328,-0.01278320146650076,0.10941782157421111
1773257353439596300,7.84859619140625,1.3097697624027729,0.0438949635669589,0.9857150645442306
1773257353449609200,7.858609130859375,1.3639210393071173,0.29359394701272246,1.8284179348178207
1773257353459621000,7.86862109375,0.48067865337431426,0.7378098326474428,2.036494283542782
1773257353469634300,7.87863427734375,-0.31092882043421266,1.0224360448285936,2.008423058182001
1773257353479647200,7.888647216796875,-0.12970306923389435,0.8630573837772011,1.8350477282211184
1773257353489659400,7.898659423828125,0.4898375268638134,0.3009226824656129,0.9886983181387186
1773257353499672000,7.908672119140625,0.9609931496113538,-0.260030407845974,-0.1117015485972166
1773257353509684200,7.918684326171875,1.0232657736510038,-0.4269081924811005,-1.0815846916288137
1773257353519697200,7.928697265625,0.8871686194658279,-0.23949410803467033,-1.5970651937931775
1773257353529709300,7.938709228515625,0.5229974536657334,-0.05248860438913107,-1.6898505911268293
1773257353539722200,7.94872216796875,0.24123510648310184,-0.020053776991367338,-1.34808224966228
1773257353549735400,7.9587353515625,0.06514613364934921,0.08358867605179547,-0.6153377375803888
1773257353559747300,7.968747314453125,-0.1607750838458538,0.1819850451350212,-0.019320055889338255
1773257353569760300,7.97876025390625,-0.2870055085331201,0.08715776671022177,0.1495356046900153
1773257353579772200,7.988772216796875,-0.11983517069220542,-0.06282528948634862,0.146087802323699
1773257353589785300,7.998785400390625,0.11821604505777358,-0.18707827662080526,-0.007320990537852049
1773257353599798300,8.00879833984375,0.3221305979281664,-0.339585882858932,-0.2244061367571354
1773257353609810200,8.01881005859375,0.2104623670786619,-0.4181093844756484,-0.5756190367847681
1773257353619823000,8.028822998046875,-0.1866688190370798,-0.4450485370665788,-0.8634542741402983
1773257353629835000,8.0388349609375,-0.5469312869608401,-0.3316694106459617,-0.5871098603531718
1773257353639848200,8.04884814453125,-0.6250117209851741,-0.05535626877993345,0.22321868053823707
1773257353649860000,8.058860107421875,-0.4948386961519718,0.29943244390785695,0.6412120374187826
1773257353659873300,8.068873291015626,-0.2848503763258457,0.3229401607453823,0.4728194643065333
1773257353669886200,8.07888623046875,-0.07967851687073707,0.18167524853348732,0.07212693244740366
1773257353679898400,8.0888984375,-0.07844809829294681,0.07237228551059961,-0.24701851219013332
1773257353689911000,8.0989111328125,-0.07641922281384468,-0.025408289761841295,-0.4515200711682439
1773257353699923200,8.108923095703124,0.08599427588880061,-0.04775894551873207,-0.29948841187879444
1773257353709936000,8.11893603515625,0.3288525996595621,0.1456336288154125,0.06713716133609414
1773257353719948300,8.1289482421875,0.5048287597686052,0.3771107268720865,0.26927593670561906
1773257353729961200,8.138961181640624,0.47528117824494837,0.5135951268091797,0.31662089459598064
1773257353739974100,8.14897412109375,0.10567921956777572,0.482187888893485,0.1977490159779787
1773257353749986000,8.158986083984376,-0.4304892658382654,0.48544659842848775,0.20096710124164818
1773257353759999200,8.168999267578124,-0.8073276055097579,0.6794274940446019,0.517610938321799
1773257353770011100,8.17901123046875,-1.158584344679117,0.9589192659467458,0.7969378750510513
1773257353780024300,8.1890244140625,-1.6269161421775817,1.3007102576345204,0.9625358490087091
1773257353790037200,8.199037353515624,-1.8165870656400918,1.5987848571926355,0.6072130294442176
1773257353800049400,8.20904931640625,-1.3853683164834976,1.4574188226938247,-0.4509769042022526
1773257353810062000,8.21906201171875,-0.40760874098837374,1.3431632056996226,-1.077191278975457
1773257353820074200,8.22907421875,0.7192465864747762,1.7415987524121999,-0.8488596393376588
1773257353830087200,8.239087158203125,1.1311924798846245,2.0128774072423576,-0.8617838567100464
1773257353840099300,8.249099365234375,1.2670996644556523,2.4849706031009555,-0.5545138510443269
1773257353850112300,8.2591123046875,1.0887088444203137,2.7303160675123332,-0.2163856196478009
1773257353860125200,8.269125244140625,0.926975144675374,2.684618438437581,-0.4227862902455032
1773257353870137000,8.27913720703125,0.588854950454831,2.0787983246564865,-0.5288176842518151
1773257353880150300,8.289150390625,-0.9764327108055353,0.6538111144900322,-1.1342954143360255
1773257353890162200,8.299162109375,-1.0560755718410015,1.9047826509654522,-2.1745954710267483
1773257353900175400,8.30917529296875,-0.5445476066946983,3.3732413385897875,-0.7821759939227253
1773257353910187300,8.319187255859376,0.3070271368205547,3.8008138401985168,-0.6245356279060245
1773257353920200200,8.3292001953125,0.44570612419247624,4.806601824826002,-0.6050999097477644
1773257353930213000,8.339213134765625,0.10060030886828898,6.732817724442482,-0.12220548002012073
1773257353940225000,8.34922509765625,0.13623100969791413,6.924664238378405,-1.0142179593205451
1773257353950238200,8.35923828125,1.360104111367464,5.639549024760723,-1.8851240107715128
1773257353960250000,8.36925,2.957379148519039,4.485242211270332,-1.8806956729352473
1773257353970263300,8.37926318359375,4.326429951930046,2.3438544517099857,-0.5851922632288188
1773257353980275700,8.389275634765625,4.481588949459791,-0.16339607999920844,0.4360357940495014
1773257353990287600,8.39928759765625,5.094428586614131,-2.5638901182979343,2.57245862467885
1773257354000300500,8.409300537109376,0.5362707767367363,-5.376240618157387,5.323197594755888
1773257354010312400,8.4193125,0.24546996757388115,-6.0926242164164774,0.517910724985972
1773257354020325600,8.42932568359375,0.9441916524142027,-7.527379956403374,0.991066946966201
1773257354030337500,8.439337646484375,0.47665012851059435,-9.470596090659498,0.06607322189901024
1773257354040350700,8.449350830078124,0.12961013025343418,-9.498932542827724,-1.0106604860346764
1773257354050362600,8.459362548828125,-0.6277250715970992,-6.019807402008771,-1.860951692545414
1773257354060375600,8.46937548828125,-1.5180413414388894,-3.96065719615221,-2.105570596247911
1773257354070388500,8.479388427734374,-1.5785352653682232,-2.6714392233908173,-1.1899987429879606
1773257354080400400,8.489400390625,-1.7978589842945336,-1.675247334626317,-0.3621656346639618
1773257354090413600,8.49941357421875,-1.4962088643372058,-1.6964532042622564,0.22337829154673963
1773257354100425500,8.509425537109376,-1.1329197420686483,-1.828640491527319,0.2700079407745972
1773257354110438700,8.519438720703125,-0.6433198233529925,-1.7113175959169864,-0.019184784737648442
1773257354120450600,8.529450439453125,-0.30211890651285644,-1.3444406782895326,-0.31260559454001485
1773257354130463500,8.53946337890625,0.1581570103019476,-0.8884761949330567,-0.6239491332549602
1773257354140476400,8.549476318359375,0.16033669242858886,-0.37474107513129706,-0.7792064035274088
1773257354150488600,8.559488525390625,-0.22540274657905102,0.1241933659017086,-0.8309593140531331
1773257354160501500,8.56950146484375,-0.581311110946536,0.6032897185206413,-0.7893931587599218
1773257354170513700,8.579513671875,-0.18169804488718508,0.8625637550413608,-0.9439226992797106
1773257354180526600,8.589526611328125,0.8584270936280488,0.8278858248919249,-1.5830093420423565
1773257354190538800,8.599538818359376,1.354191964714229,0.8077361863106489,-2.0362265725173057
1773257354200551400,8.609551513671875,0.4578039737433195,0.7544406494528054,-1.6913617263421414
1773257354210564600,8.619564697265625,-0.13017887005209922,1.039127359649539,-1.1248692682124675
1773257354220576500,8.629576416015626,-0.6966229589954018,1.5256202522605657,-0.2817129002840258
1773257354230589700,8.639589599609375,-1.245568508388102,2.1948820338606834,0.5384526873530819
1773257354240601600,8.6496015625,-0.9315057738423347,1.7152911757230758,-0.57609797940813
1773257354250614500,8.659614501953126,-1.0243224430970848,1.6050696365505457,-0.030180390401324256
1773257354260626400,8.66962646484375,-1.9183733694225549,1.5451140572816133,0.4554163479544222
1773257354270639600,8.6796396484375,-2.4153666132599114,1.6596061133801936,1.0546244962498545
1773257354280652500,8.689652587890626,-2.654455355364084,1.6676017883092165,1.3321486213408409
1773257354290664700,8.699664794921874,-2.7177807033270596,1.517864815828204,1.3380106452420353
1773257354300677600,8.709677734375,-1.6511752619042992,1.1785159565955399,0.13704696572329847
1773257354310689500,8.719689453125,0.6859422827661037,0.6918196503669023,-1.2791444686450064
1773257354320702500,8.729702392578124,1.6645207734286784,0.5587777920991182,-2.0058212051205335
1773257354330714400,8.73971435546875,2.379633621099591,0.3454582820236683,-2.4815607946574687
1773257354340727600,8.7497275390625,2.3111494290687142,-0.08075286810398101,-2.7384023433342572
1773257354350740700,8.75974072265625,1.4378585283078253,-0.06901859116852282,-1.9670991141468286
1773257354360752600,8.769752685546875,0.806301769593358,-0.0626934798002243,-1.0490789178866893
1773257354370765600,8.779765625,0.08049158681929111,-0.010813070437312125,-0.2582345374051481
1773257354380777500,8.789777587890624,-0.9111097592845558,0.08843173216879367,0.049451720911264416
1773257354390790400,8.799790283203125,-1.5915537368953228,0.15830138720870018,-0.48658758515715594
1773257354400802600,8.809802490234375,-1.1517246880427001,1.0327619162708521,-0.2980828193971887
1773257354410815500,8.8198154296875,0.7561606051132083,2.0496353585362432,0.015180033475160597
1773257354420828700,8.82982861328125,2.06722888289392,0.5626876590192318,1.3398153565764426
1773257354430840600,8.839840576171875,-0.3555269638344645,1.746758911654353,1.918516869546473
1773257354440853500,8.849853515625,-1.3740791529670358,-0.07374912682175636,1.3086831362098454
1773257354450865400,8.859865478515625,-1.83178083537966,-1.5279180078089236,0.5762494436427951
1773257354460878600,8.869878662109375,-1.5160829008474945,-1.7203256627589463,-0.02429075697399676
1773257354470890500,8.879890380859376,-0.668421823644638,-1.6833967388123272,0.2719364611517638
1773257354480903700,8.889903564453125,-0.7902864543378353,-1.6032704781740903,-0.32099428737461566
1773257354490915600,8.89991552734375,-0.14248130226433275,-1.1510235540360212,-0.6627344256579876
1773257354500928800,8.9099287109375,0.48937400100529194,-0.8112345498204231,-0.5369416617356241
1773257354510941400,8.91994140625,0.013241174367070197,-0.18571371026933192,-0.3588274666845798
1773257354520953600,8.92995361328125,0.006201192727684974,0.16664426814019678,-0.061143620009720324
1773257354530966500,8.939966552734376,0.3441872391745448,0.051016486009955404,0.3822919289022684
1773257354540978700,8.949978759765624,0.5839890979841351,-0.1888788963019848,0.8127605903439223
1773257354550991600,8.95999169921875,0.8232125723838806,-0.6309995632231236,1.0767964344389735
1773257354561003500,8.97000341796875,0.9060580288529395,-1.0068442156821489,0.9946388141036033
1773257354571016400,8.980016357421874,0.8934916850075125,-1.0481494550168513,0.9686737672418355
1773257354581028400,8.9900283203125,0.34644963114857674,-0.6956225497812032,0.3387380338579416
1773257354591041500,9.00004150390625,0.20132278281152247,-0.5289817887723446,0.1291883977100253
1773257354601054700,9.0100546875,0.11247545557916164,-0.2690086640715599,0.38401626847684384
1773257354611066600,9.020066650390625,0.19405542215704916,-0.6363070219814777,0.0511406969115138
1773257354621079600,9.03007958984375,0.10119418310821056,-0.36619887223541736,-0.5507312637656927
1773257354631091700,9.040091796875,-0.49412557944655416,-1.072255137747526,-0.14394260698854922
1773257354641104400,9.0501044921875,-0.5219239792153239,-2.092986424484849,0.49451311745941634
1773257354651116500,9.060116455078125,-0.9618371992200613,-1.6818074237942695,0.842344850616157
1773257354661129500,9.07012939453125,-0.9214885299578308,-0.8479758422404527,0.5383002367377281
1773257354671141600,9.0801416015625,-1.4103750397071242,-0.4846089785605669,0.26160481755584475
1773257354681154600,9.090154541015625,-0.14238748650103808,-0.11143792922496795,0.6822907745212317
1773257354691167500,9.10016748046875,-3.083514588399231,0.18005612289905548,0.7839508215755224
1773257354701179400,9.110179443359375,-3.75659680507034,0.0027986908078193665,0.7301411977156996
1773257354711192600,9.120192626953125,-1.1487488871023057,-0.9562018236815929,0.6761217304974794
1773257354721204500,9.13020458984375,-2.7169877993836997,-0.6090870066225529,0.6667860391363502
1773257354731217700,9.1402177734375,-3.5899507833644746,-0.2781739673018455,-0.04041588927954435
1773257354741229600,9.1502294921875,-2.5995857010573147,-0.26274551202356816,0.18466624704301357
1773257354751242800,9.16024267578125,-1.5130913178160785,-0.973501333528757,-0.008357493978738785
1773257354761254700,9.170254638671874,1.6866130705103277,-1.8456664451301097,0.39695056885182856
1773257354771267600,9.180267578125,7.5728890771687025,-2.6168635835945606,-0.18573709114491938
1773257354781280500,9.190280517578126,2.5601708055138586,2.7434342000216243,-0.6440484298884869
1773257354791292700,9.200292724609374,-1.30941115822345,2.9733553008079525,-1.2874743439644574
1773257354801305600,9.2103056640625,0.9905910000175238,1.3270190033674238,-1.675534334874153
1773257354811317500,9.2203173828125,1.827125995311141,1.19768827457726,-1.3389593242689966
1773257354821330400,9.230330322265624,0.4847833122141659,0.5904395892977714,-1.2442732078805565
1773257354831342300,9.24034228515625,-0.5292033225685358,-0.45471126842498777,-1.139661909805238
1773257354841355500,9.25035546875,0.07015270976498722,-1.0045300935208796,-0.7000231228277087
1773257354851367400,9.260367431640624,0.3094827132791281,-0.6064478902906179,-0.3478691425576806
1773257354861380600,9.270380615234375,0.22670213873982428,0.05221417136192322,-0.23566987357139585
1773257354871392500,9.280392578125,0.3863729146055877,0.2910819641917944,-0.4020926079154014
1773257354881405700,9.29040576171875,0.15489654720127582,0.10027940635085106,-0.8882040999934077
1773257354891417600,9.30041748046875,0.47781610355004667,0.08227204049527645,-0.2838134344935417
1773257354901430500,9.310430419921875,0.1147873857833445,0.21482523846328258,0.5805562009260058
1773257354911443500,9.320443359375,-0.6333667307458818,0.4832365211635828,0.8873761247366666
1773257354921455600,9.33045556640625,0.6953351111419499,0.07344283735156058,1.1890043251231313
1773257354931468500,9.340468505859375,0.40453780911043286,-0.17824118243157863,0.4280070936337113
1773257354941480700,9.350480712890626,0.09228431594371796,-0.6950941419929265,-0.07896452338248491
1773257354951493400,9.360493408203125,0.41582536519169805,-1.0263894586294888,0.15323182885944842
1773257354961505500,9.370505615234375,0.7418997323095798,-0.6566378623485565,0.30376725824177264
1773257354971518500,9.3805185546875,1.0987566295735538,-0.12257774739861488,-0.10686959839612245
1773257354981531000,9.39053076171875,0.786834852579236,-0.06251344705820083,-0.25913404352813957
1773257354991543800,9.400543701171875,-0.10994272223114966,0.013414192846417426,-0.14493191028684377
1773257355001556000,9.410555908203126,-0.013109583876654505,-0.013328268128633499,-0.23281565318405628
1773257355011569000,9.42056884765625,0.3560146742861718,-0.28539748881459237,-0.383044208574295
1773257355021581800,9.430581787109375,-0.44227271567769344,-0.48524260028898714,-0.7011293305039406
1773257355031593700,9.44059375,-0.9564163432151078,-0.5245248093634843,-0.8591399180725217
1773257355041607000,9.45060693359375,-0.6532920590519905,-0.28685119475424287,-0.6208639536559581
1773257355051618800,9.460618896484375,-0.9565998100232332,-0.18882628933191298,-0.7883429190546274
1773257355061632000,9.470632080078126,-0.9355595062125474,-0.1320008247822523,-1.0630120931059122
1773257355071644000,9.480643798828124,-0.5473609105497599,-0.000748188018798828,-0.7342363580748439
1773257355081656800,9.49065673828125,-0.248459797039628,0.1309516079902649,-0.5715063407689333
1773257355091668700,9.500668701171875,-0.28249884476363657,0.5169336235821247,-0.507930525176227
1773257355101682000,9.510681884765624,0.20519173319935796,0.8036433640390634,-0.47175358864068984
1773257355111693800,9.52069384765625,0.3725005661955103,0.5382067132353783,-0.8693611600965261
1773257355121707000,9.53070703125,0.1593418727049604,0.3859475288003683,-0.9538055761948228
1773257355131719000,9.540718994140626,0.23431261374354362,1.4256231699824333,-0.46300475725680584
1773257355141731800,9.55073193359375,-0.22736085837688297,2.258829897636175,-0.6022714813888073
1773257355151744800,9.560744873046875,0.16434008285105228,0.9446890805423259,-0.37488486751616
1773257355161756700,9.570756591796876,0.9947200626462698,-0.6960685399830341,-0.02520809101462364
1773257355171769900,9.580769775390625,0.9566419686645269,-0.6727414404094219,-0.7912864251606165
1773257355181781800,9.59078173828125,1.221433307301998,-0.011017068576812743,-1.0602033192954956
1773257355191795000,9.600794921875,0.7711720040231943,-0.5201362190157175,-1.5075632020443677
1773257355201806800,9.610806884765625,0.198968365172483,-0.640131548705697,-0.9675446170814335
1773257355211819800,9.62081982421875,-0.1401875653039664,0.3812164086252451,0.4231768969982862
1773257355221831700,9.630831787109376,-1.3473293854683637,1.3322878836810588,1.5148627114027737
1773257355231844900,9.640844970703125,-1.407656136137247,1.1822948906123638,2.051457897788286
1773257355241856800,9.650856689453125,-1.022568512101844,0.23810674532949924,0.854206261062622
1773257355251870000,9.660869873046876,-0.9821264654677361,-0.2641945417881012,0.20015797681584954
1773257355261883000,9.6708828125,-0.7499684724748135,-0.09269231222271919,0.5747311480343341
1773257355271895000,9.68089501953125,-0.438378119391948,0.27934184203743934,0.5519774644345045
1773257355281907700,9.69090771484375,0.3620836920015514,0.24129180510640144,0.4924981243751943
1773257355291920000,9.700919921875,0.1873768211759627,0.1304284608989954,0.8638372821085154
1773257355301932800,9.710932861328125,-0.7726356468349694,-0.25055881514549255,1.138114388102293
1773257355311945000,9.720945068359375,-0.7938339176863431,0.12160861010551452,1.4444035660371184
1773257355321958000,9.7309580078125,0.0023550386935472485,0.9944757324963808,1.6437375131189822
1773257355331969800,9.7409697265625,1.8157313255935907,1.1533312464565038,2.363940815796703
1773257355341982700,9.750982666015625,2.1439573177874087,1.113906414040923,1.9360135094009339
1773257355351996000,9.760995849609374,1.3307821552932262,1.4457792383044956,0.2047476426936686
1773257355362007800,9.7710078125,2.656509365284443,1.0776970365405083,-0.571687834815681
1773257355372021000,9.78102099609375,-0.42824645534753797,-0.35184652175605297,-0.4140488570384681
1773257355382033000,9.791032958984376,1.5871148776650428,-0.5105711028128862,-1.018930228664726
1773257355392045800,9.8010458984375,0.6089490594565868,0.27522037819325923,-1.4662622004933654
1773257355402058000,9.81105810546875,-1.308766138318181,-0.27544951077401636,-0.6005044717162847
1773257355412070700,9.821070556640626,-0.8674076879411935,-1.2888695977151392,-0.6521434735387563
1773257355422082800,9.831082763671875,1.2396779890447853,-1.4251532143831251,-1.8106480309799313
1773257355432095700,9.841095703125,1.3706249208599328,-1.5085983903110027,-2.0148991223283113
1773257355442109000,9.85110888671875,-1.2561030541449785,-1.5479092409580946,-2.2747654256537557
1773257355452120800,9.861120849609375,-3.574181259563565,-1.3423387375742197,-2.159328489920497
1773257355462133800,9.8711337890625,-3.2383149817496535,-0.5863724859893321,-1.3710836244128644
1773257355472146000,9.88114599609375,-2.25973473752141,0.23940906009972093,0.25160744741559027
1773257355482158800,9.891158935546875,-0.11251987924277781,0.9183920252472162,1.4234415881596505
1773257355492170800,9.901170654296875,1.3749609042376278,1.1849790151298045,1.0703602639116345
1773257355502184000,9.911183837890626,2.0701053151130675,0.8378080839693546,0.7643247684769332
1773257355512195800,9.92119580078125,2.4191169057041404,0.567487752777338,-0.48995706159025426
1773257355522209000,9.931208984375,1.1832429851174353,0.4944324534386396,-0.8557019064478576
1773257355532221700,9.9412216796875,0.14865444707446732,0.4999398186832666,0.147917355838418
1773257355542233900,9.95123388671875,0.46243397163152694,-0.5552817666769028,-0.17133330273926256
1773257355552246800,9.961246826171875,0.22945815944969652,-1.2784773830384015,-1.2754673875674605
1773257355562259000,9.971259033203125,-4.873874449110031,-1.44312258631587,0.33069647396057844
1773257355572271900,9.98127197265625,-4.889647187781334,-0.728016168385744,0.806467773810029
1773257355582283800,9.99128369140625,-0.14223404950499532,-0.7434259189635515,0.9153536804646253
1773257355592297000,10.001296875,1.9080933829486368,-0.043647418546676635,0.6192354756712913
1773257355602310000,10.011309814453124,1.614321449020505,0.530200516912341,0.49278907014578577
1773257355612321800,10.02132177734375,-0.18991583813428878,0.35205578059256076,-0.469147790056467
1773257355622335000,10.0313349609375,0.3278039673894644,0.4459223972916603,-0.16231149963289498
1773257355632347000,10.041346923828126,1.3157143500208854,0.8031091110318899,0.06343932973146438
1773257355642359800,10.05135986328125,0.8619973533302545,0.010506196445226669,0.28137247108221053
1773257355652372000,10.0613720703125,0.9486989007055759,0.13066986843943595,0.3460042254686355
1773257355662384600,10.071384521484376,0.6707815385133028,0.14520868140161036,-0.007796352964639664
1773257355672397800,10.081397705078125,0.004122651154268533,-0.38121173245012757,-0.27460809151381255
1773257355682409700,10.09140966796875,0.4129781590670347,-0.3240677034705877,-0.002185235084593296
1773257355692423000,10.1014228515625,1.0181482845067977,-0.07555003876388072,0.3019540713399648
1773257355702434800,10.111434814453125,0.9779483760654926,0.3892424786925316,0.2437617023512721
1773257355712448000,10.121447998046875,1.2571511018931865,0.7694739679336547,0.1598334190815687
1773257355722460700,10.131460693359376,1.1531214030981063,1.3321937756568192,0.04703121576607227
1773257355732472800,10.141472900390625,1.6273960346490144,0.927376126691699,0.11905512623041868
1773257355742485800,10.15148583984375,2.004980224251747,0.49035249064862724,0.8047025177031755
1773257355752498000,10.161497802734376,0.4349906689107418,0.7291489718079567,0.6312398017197847
1773257355762510800,10.1715107421875,-1.1632084973484278,0.7622054382354021,0.3594683949366212
1773257355772523000,10.18152294921875,-0.6669979283213615,-0.10102993245720862,-0.20355740999579428
1773257355782535700,10.19153564453125,-1.076671127558872,-0.7871721217095852,-0.3447416581869125
1773257355792548900,10.201548828125,-0.13509893692806363,-1.0597124670386313,-0.17121026088148356
1773257355802560800,10.211560791015625,0.40065746054574847,-0.9313257411003112,0.09276859232932329
1773257355812574000,10.221573974609376,-0.18049568336009977,-0.6798194159716368,-0.305797595025599
1773257355822585900,10.2315859375,-1.6274018798679113,-0.7653688707023859,-0.14988076486587523
1773257355832599000,10.24159912109375,-1.1759224329710005,-0.5479565383553504,-0.2671542683765292
1773257355842611700,10.25161181640625,-1.5471705514200031,-0.356876332616806,-0.5643436095327139
1773257355852624000,10.261623779296874,-1.6804185997843741,0.08890344133377075,-0.6717457073703408
1773257355862636800,10.27163671875,-1.3205430853515863,0.23512568369209766,-1.355771342860162
1773257355872649000,10.28164892578125,-0.7388489664368331,0.1754752248495817,-0.876944454832375
1773257355882662000,10.291661865234374,-1.0299385294131933,0.09994681339561938,-0.31839462627023457
1773257355892674800,10.3016748046875,-0.9364062592349945,0.20348843641281128,-0.2570002463698387
1773257355902686700,10.311686767578125,-1.1029949977956712,-0.4317535866856575,0.18828239171355962
1773257355912700000,10.321699951171874,-0.698640436297655,-0.8046732916086912,0.15411650273948907
1773257355922711800,10.3317119140625,0.29970848437026143,-0.9771125097632407,-0.19546090504080055
1773257355932725000,10.34172509765625,1.5259119286835192,-0.7268143913805485,0.6247296891734003
1773257355942738000,10.351738037109374,0.334874928689003,-0.7404016027063131,-0.498062918895483
1773257355952750000,10.36175,-0.05560542123541236,0.09474515309929847,-0.5305146974280476
1773257355962762800,10.3717626953125,-0.2923511073447764,0.11054945595264434,-0.23958061727434396
1773257355972774700,10.381774658203126,0.19312763978764413,-0.1764940465033054,-0.24317513463497162
1773257355982787600,10.39178759765625,0.4361613201253116,-0.12721359050571918,-0.21038024175316095
1773257355992800500,10.401800537109375,0.16644143904447556,-0.48475335546731946,-0.6537783812642097
1773257356002812700,10.411812744140626,0.3463124146349728,-0.5949690494209527,-0.5480442166388034
1773257356012825600,10.42182568359375,0.06323774274475873,-0.27118542358875275,-0.35152445019483564
1773257356022837800,10.431837646484375,-0.37945634015016255,0.20985797144472598,0.10896686293631791
1773257356032850400,10.441850341796876,-0.8534124803364277,0.7099912668734788,0.1810197072342038
1773257356042863600,10.451863525390625,-1.0991869838148356,0.6197872643351554,0.5160559639647603
1773257356052875500,10.46187548828125,-1.1761071418881415,0.3605985680103302,0.43067280571162697
1773257356062888700,10.471888671875,-1.112075106960535,-0.1401093124359846,-0.16811843234598636
1773257356072900600,10.481900634765625,-0.9680391226001084,-0.26634675138592717,-0.18905103799849748
1773257356082913500,10.49191357421875,-0.45269459484033286,-0.12205986100435257,-0.01500350786447525
1773257356092926500,10.501926513671876,0.7346488113332539,0.3256237007409334,0.4602379228919744
1773257356102938600,10.511938720703125,1.3595885630607605,0.266095406973362,0.6635615241318941
1773257356112951600,10.52195166015625,1.041627944293618,0.1319751058191061,-0.0412546781912446
1773257356122964700,10.53196484375,1.0904618255674838,0.3276636821359396,0.03879968625456094
1773257356132976600,10.5419765625,0.8584387110006063,0.2520885089308023,-0.6844862387388945
1773257356142989600,10.551989501953125,0.27063597301244735,0.3622749767899513,-0.8570774325847625
1773257356153001500,10.56200146484375,-0.1597070892881602,0.6458937654942274,-0.8078878697410226
1773257356163014700,10.5720146484375,0.08693236045651137,0.7523860550105571,-0.8770347634643316
1773257356173027600,10.582027587890625,0.46879883048832416,0.6949772376149892,-0.6086196813717484
1773257356183039700,10.592039794921876,0.6214058054476976,0.29058687415122986,-0.3209527863204479
1773257356193052400,10.602052490234374,0.5060282717514782,-0.15590250937342642,0.0518292636975646
1773257356203065600,10.612065673828125,0.5545167005885392,-0.28737083471417424,0.19386019184589384
1773257356213077500,10.622077392578126,0.7483661518447101,-0.11702303588092326,-0.029449381846189497
1773257356223090700,10.632090576171874,0.854088772162795,-0.2895189526587725,-0.22014935609549283
1773257356233102600,10.6421025390625,1.000627825385332,-0.8196428972035646,-0.4120107753396034
1773257356243115800,10.65211572265625,0.746926109104231,-0.8585954359322786,-0.585753769569099
1773257356253128400,10.66212841796875,0.9391881450384855,-0.6626321343272924,-0.9183931942909955
1773257356263140400,10.672140380859375,0.6051471829555929,-0.5049719676315784,-0.44433103644698857
1773257356273153500,10.682153564453126,-2.5759283466160294,-0.3771364458352327,-0.06498685143440962
1773257356283166700,10.692166748046875,-1.3662386685997248,-1.651602839666605,-0.24299743998050688
1773257356293178600,10.7021787109375,2.5229940442860124,-1.0198568419903515,0.07299830845445394
1773257356303191600,10.712191650390626,1.9323276604950428,-0.4060550818055868,0.2180447850316763
1773257356313203500,10.722203369140624,0.33759821617305275,-0.25219664548039433,0.5339484712690115
1773257356323216600,10.732216552734375,0.4766869533896446,0.9097802642464637,0.8781631829723715
1773257356333229600,10.7422294921875,-0.9791152278877794,2.0330589022666214,-0.15999971555918455
1773257356343241500,10.752241455078124,-1.1281786850214004,2.928143701684475,-0.3223845726892352
1773257356353254700,10.762254638671875,-0.9472802660793066,2.8478555284827944,-0.6931544061020016
1773257356363267600,10.772267578125,-0.38031975204646584,2.4257617505460978,-0.8497844990976154
1773257356373279500,10.782279541015624,-0.3985832846201956,1.8543711451113223,-0.07780877747610211
1773257356383292700,10.792292724609375,0.11309344134703278,1.4997826311707496,0.008629004396498203
1773257356393305600,10.8023056640625,0.24158961900919673,1.550793271961808,0.47992374335378407
1773257356403317500,10.8123173828125,0.31820231856852765,1.6519319254904985,0.09090265232697128
1773257356413330400,10.822330322265625,-0.1818690175399184,1.581540292403102,0.48238706472739573
1773257356423343600,10.832343505859376,-0.5587707778364419,1.3868880733966826,0.4494966025166213
1773257356433355500,10.84235546875,-0.5562485658824443,1.2480460044175385,0.2764212784156203
1773257356443368700,10.85236865234375,-0.3634036885589361,0.9060364015430211,0.23143355117589234
1773257356453380600,10.862380615234375,-0.06707315618917345,0.6296124927788973,0.054473640726506706
1773257356463393500,10.8723935546875,-0.12972060489058493,0.4025865289121866,-0.10472527984380721
1773257356473406500,10.882406494140625,-0.4986842656642198,0.22351474087536333,0.060371904984861606
1773257356483418400,10.89241845703125,-0.39927448175475,-0.28199907854795453,0.18457111610546706
1773257356493431600,10.902431640625,0.14377397242337464,-1.1266700340241194,0.3050707420557737
1773257356503444700,10.91244482421875,1.2066852355033157,-1.7465490682959555,0.46087855888307094
1773257356513456600,10.92245654296875,-0.4512374548345804,-2.450043958887458,-1.2414007211841642
1773257356523469600,10.932469482421874,-2.0438608667880294,-2.2326947549045086,-3.6925761683195826
1773257356533482500,10.942482421875,0.7444722131460905,-1.9590444025069473,-1.1001344937980175
1773257356543494400,10.952494384765625,0.21652678168416023,-1.6247569183170794,-0.16777210312634705
1773257356553507600,10.962507568359374,-0.06978811423629522,-1.4373773206621407,0.3006124474726617
1773257356563520800,10.972520751953125,-0.2728390360146761,-0.7496925781428814,0.9313220878385007
1773257356573532700,10.98253271484375,0.34512481228560205,-0.32056758639514443,1.211363018056005
1773257356583545300,10.99254541015625,0.5047498493134975,-0.47274552228748795,0.5608421772830188
1773257356593557500,11.0025576171875,0.32762890308350323,-0.5549211166709661,0.0965761679187417
1773257356603570400,11.0125703125,-0.4399811706744134,-0.415637149143219,0.04813391631096601
1773257356613583600,11.02258349609375,-1.1234122012719512,-0.006366612422466278,0.5568234431609511
1773257356623595500,11.032595458984375,-1.195742985728383,0.34676585749089717,0.7229740825653076
1773257356633608700,11.042608642578125,-1.3444441854208706,0.04666647410690784,0.6867400090150535
1773257356643621400,11.052621337890624,-1.0156664045631885,-0.12115443659722805,0.6569283697277307
1773257356653633500,11.062633544921875,-0.8163584687054157,-0.22284020261466503,0.5196234471879899
1773257356663646500,11.072646484375,-0.6174637898236512,-0.4448685043245554,0.3065788085311651
1773257356673659600,11.08265966796875,-0.2302174533843994,-0.5975023672908544,0.29770781207233665
1773257356683671600,11.092671630859375,0.22828034784197807,-0.7213304070115089,0.056138797459751366
1773257356693684500,11.1026845703125,0.46347661255225536,-0.5664660085141658,-0.06176394386515021
1773257356703697400,11.112697509765624,1.1288222436219453,-1.4845985060423612,0.350937151826173
1773257356713709600,11.12270947265625,0.3866401872396469,-1.8730109636515377,0.6321395270384847
1773257356723722500,11.132722412109375,0.02889116344153881,0.5149520943760871,-0.3930361718870699
1773257356733735700,11.142735595703124,0.7006377475947141,-0.40659167290031906,1.4982365707725285
1773257356743747600,11.15274755859375,1.3051216443359852,-0.6478297019928694,0.2395531447455287
1773257356753760500,11.162760498046875,0.9762520935416221,-0.5066337633639574,-0.49652270371615886
1773257356763773400,11.1727734375,0.8240713811703025,-0.39661563780903814,-0.29136165791600943
1773257356773785600,11.18278564453125,1.166323268368095,-0.5737427215188742,0.25772958355769515
1773257356783798500,11.192798583984375,1.0508880862005054,-1.4007850813239813,-0.12605009968429803
1773257356793810700,11.202810791015626,1.969849289637804,-1.2205220376759767,-0.26863413167074324
1773257356803823400,11.2128232421875,2.886222960799932,-1.7656559198260307,-0.12885069018825887
1773257356813836500,11.22283642578125,2.1479297285497188,-2.1836019304335115,-0.013545125749707222
1773257356823848400,11.232848388671876,0.8564343123756348,-1.4976502953171729,-0.8379870937980711
1773257356833861600,11.242861572265625,0.3586429038979113,-0.02327741521298885,-0.6080559100091457
1773257356843874600,11.25287451171875,-1.1693746187627314,1.644006393188238,-0.23815891390815375
1773257356853886700,11.26288671875,-2.5513211441040036,3.450779336300492,-0.41028380541652437
1773257356863899400,11.2728994140625,-1.6391126297973095,3.6614889561384913,-1.4246242220729588
1773257356873912600,11.28291259765625,-0.6351970149129629,3.014253712907433,-0.7380955177210271
1773257356883924500,11.292924560546876,-0.3613309739381075,2.2615046698033807,-0.6790284117244184
1773257356893937700,11.302937744140625,0.20518691089376806,1.7605162188500165,-0.6060848291318863
1773257356903950300,11.312950439453125,0.1957002667546272,1.0464391439676284,-0.7024794299386441
1773257356913962500,11.32296240234375,-0.18540902823433278,0.8327543077111244,-1.244162440982461
1773257356923975400,11.332975341796875,-0.36866438556611536,0.658227761888504,-1.095674299518764
1773257356933988600,11.342988525390625,0.3619225100904703,0.2060270149797201,-0.5560147571265697
1773257356944000500,11.35300048828125,0.34345234902873634,-0.2048684925943613,-0.3547207620181143
1773257356954013700,11.363013671875,0.3215731101758778,-0.35950668112039563,-0.09594678397402166
1773257356964026400,11.3730263671875,-0.9075045743994414,-0.3122948480904102,-0.20196736432537435
1773257356974038500,11.38303857421875,-0.778559776186943,-0.14695640185177325,-0.3634118718653917
1773257356984052000,11.393052001953125,-1.2871223156563938,-0.07093582296669483,-0.589316576617211
1773257356994064100,11.403064208984375,-1.60461370947659,-0.18589608109891415,-0.45793666021227836
1773257357004077000,11.4130771484375,-1.3026115612111986,-0.3823737619668245,-0.24897958313003182
1773257357014090000,11.423090087890625,-0.5187969332359731,-0.30579145754575726,-0.13375555949509144
1773257357024102000,11.433101806640625,-0.3397877621065825,-0.11162205362021922,-0.23527356773018834
1773257357034115000,11.443114990234376,-0.28510332817360756,0.13260814302563667,-0.31397622530609365
1773257357044128000,11.4531279296875,-0.3890774973891675,0.3812462192416191,-0.015344284126162528
1773257357054140200,11.46314013671875,-0.47814884263575075,0.49718496701717374,0.00027019524350762366
1773257357064152800,11.47315283203125,-0.013912351626902818,0.3526099073439836,-0.020770108567178248
1773257357074166000,11.483166015625,0.20871756923794746,0.34850831724405285,0.11039733413085341
1773257357084178000,11.493177978515625,0.4220914398491382,0.3270528567612171,0.11987301848456262
1773257357094191000,11.503191162109376,1.7440993370562792,0.3498609008967876,0.5410699937120079
1773257357104204000,11.5132041015625,1.6878595634400844,0.17195757211744783,0.35322073271870613
1773257357114216200,11.52321630859375,1.1208995608638972,-0.058633390754461286,0.16042451684251427
1773257357124228900,11.533228759765626,1.0800719489783048,-0.05703004721105098,0.19610943207740783
1773257357134242000,11.543241943359375,1.315468850827217,-0.3107984720528126,0.11463307200446725
1773257357144254000,11.55325390625,-0.5579056854397059,-0.254211492434144,-0.21215645764544605
1773257357154267100,11.56326708984375,-2.3274188652157783,-0.18021335928738116,-0.4905746089667082
1773257357164280000,11.573280029296875,-1.2399731725990772,-0.10921908413171767,0.015159136817604302
1773257357174292000,11.5832919921875,-1.217369711124897,0.05189911406338214,-0.45740927533730863
1773257357184305000,11.593304931640626,-0.7642857516407966,0.1540524975925684,-0.1939367642134428
1773257357194318000,11.603318115234375,-0.272157994947955,0.00907353329360485,-0.2824450687497854
1773257357204330000,11.613330078125,-0.01780161415040493,-0.16012217289507388,-0.5880033020615577
1773257357214343200,11.62334326171875,-0.21388591178655622,-0.3420744848042726,-0.6485835891000926
1773257357224355800,11.63335595703125,-0.2050695681244135,-0.24866847135424613,-0.5706991160392761
1773257357234368000,11.643367919921875,-0.07357720432095229,-0.09469371517300605,-0.5366898789316416
1773257357244381000,11.653380859375,0.07824764381740242,-0.008910451686382293,-0.5761315163515508
1773257357254394000,11.66339404296875,0.13223339142911136,-0.16233809537887572,-0.5681006239786743
1773257357264406000,11.673406005859375,-0.11911796233355998,-0.007881693160533904,-0.5129575595580042
1773257357274419000,11.6834189453125,0.01790628010127693,0.08757833020985126,-0.3463989238746464
1773257357284431000,11.69343115234375,0.3708178007403388,0.13010697385966777,-0.1567388140670955
1773257357294444000,11.703444091796875,0.30516956278774887,-0.040458267116546626,-0.1399310332596302
1773257357304457000,11.71345703125,0.5281968124071136,-0.20277882683873175,-0.1283661215417087
1773257357314468900,11.72346875,0.6722293992340564,-0.1534948637098074,-0.1657964191392064
1773257357324482000,11.73348193359375,0.7861527155339717,0.11958265723586081,-0.02528174077272415
1773257357334495000,11.743494873046876,0.17282503913436084,-0.07474398307800292,0.03149944624379277
1773257357344507000,11.7535068359375,0.32742523373756555,-0.023978256958723066,-0.021011516107618807
1773257357354520000,11.76352001953125,1.0717933654546736,0.20118542016744612,-0.008652239141613245
1773257357364533000,11.773532958984376,0.40277591400444507,0.17506255239546298,0.1423756499327719
1773257357374545000,11.783544921875,-0.02994268178846687,-0.0945002384275198,-0.05932020397484302
1773257357384558000,11.79355810546875,-0.5832686747550964,-0.33739421803355213,-0.39051176797598597
1773257357394571000,11.803571044921876,-0.9459060551166534,-0.4299403997838497,-0.42003830671161413
1773257357404583000,11.8135830078125,-0.5962444761842489,-0.3851841432124376,-0.35252544393092394
1773257357414596000,11.82359619140625,-0.5258639490127563,-0.23063538653552532,-0.27992256453484293
1773257357424609000,11.833609130859376,-0.42960313065350053,0.03453413776457309,-0.1360115217283368
1773257357434621000,11.843620849609374,-0.18052492772089315,0.2952712325751781,-0.0850821294799447
1773257357444633900,11.8536337890625,-0.11154604750825091,0.41356385000050067,0.009459463871270418
1773257357454647000,11.86364697265625,-0.4589963983982801,0.22694296175837517,-0.0003546586565673351
1773257357464659000,11.873658935546874,-1.321508130991459,0.22120178775787352,-0.1709891654767096
1773257357474672000,11.883672119140625,-1.3016729651868342,-0.012401216411590575,-0.21808833191245794
1773257357484685000,11.89368505859375,-1.6782336569607257,-0.4405313519030809,-0.5907489475078881
1773257357494697200,11.903697265625,-1.4812088636040686,-0.45696752291917797,-0.5039839795075357
1773257357504710000,11.9137099609375,-0.782901604783535,-0.33707740716934204,-0.46818990480974315
1773257357514723000,11.92372314453125,-1.0048457353413105,-0.1397387255579233,-0.19388328046053646
1773257357524735000,11.93373486328125,-1.6784487610161303,0.07881167090833187,-0.16959756498783826
1773257357534748200,11.943748046875,-1.134164189171791,-0.15310907926261424,-0.05446648033335805
1773257357544760000,11.953760009765626,-0.540837134804204,-0.14409750528931617,-0.19328034613132475
1773257357554773000,11.96377294921875,-0.4429904354929924,-0.13949322636425493,-0.3544428218595683
1773257357564786000,11.973785888671875,-1.0852863226257263,-0.2971767739355564,-0.40391529329791664
1773257357574797800,11.9837978515625,-1.1374022943101822,-0.4657248298704624,-0.20889087997823952
1773257357584811000,11.99381103515625,-1.0890648182511329,-0.8246861520677804,-0.24524273468926547
1773257357594824200,12.00382421875,-1.2022459378816186,-1.1388175679355859,-0.23626754720360038
1773257357604836000,12.013836181640626,-2.3469454034626485,-1.261461950829625,-0.061337535146623844
1773257357614849000,12.02384912109375,-2.951091738812625,-1.2545552401810884,0.16455241042748092
1773257357624862000,12.033862060546875,-2.6817417139574884,-1.171150980785489,0.6712547089830041
1773257357634873900,12.043873779296876,-2.7020778150215743,-1.4867507156401871,0.33614801736474037
1773257357644887000,12.053886962890624,-1.5737749190986154,-1.672035386842489,0.4199351385980844
1773257357654900000,12.06389990234375,-1.2741218181774019,-1.534101664879918,0.35724312010258436
1773257357664912000,12.073911865234376,-0.5818541317820549,-1.0373866534620524,0.35576398746073246
1773257357674925000,12.083925048828124,-0.2615174315333366,-0.956774070611596,0.10797025311440228
1773257357684938000,12.09393798828125,0.4006874172925949,-1.0897820266097784,0.03223199830204248
1773257357694950000,12.103949951171876,0.7456433027520776,-1.1834224333375691,0.014729659359157085
1773257357704963000,12.113963134765624,0.788742732027173,-1.1706465383946896,0.08630261118561029
1773257357714976000,12.12397607421875,1.3598866692245006,-0.8409148178130388,-0.08055471518337726
1773257357724988000,12.13398779296875,1.7714754197597502,-0.5501198538690805,-0.00020867431461811065
1773257357735001000,12.1440009765625,1.486318169441819,-0.3019792057812214,-0.002935468930006027
1773257357745014000,12.154013916015625,1.0927250943243503,-0.30594051062762734,0.15773966167271136
1773257357755026000,12.16402587890625,0.6583429127007723,-0.5603226834535598,0.1312763098999858
1773257357765038800,12.174038818359374,0.5314619151502847,-0.7329121237337589,0.2985208820208907
1773257357775050800,12.18405078125,0.05612812993526459,-0.7523334480404853,0.2341363803938031
1773257357785064000,12.19406396484375,-0.742688252338767,-0.43484453843832016,0.3271522254824638
1773257357795077000,12.2040771484375,-0.5567576844483614,0.033985271710157396,0.32042642435878516
1773257357805089000,12.214089111328125,-0.05735737946927547,0.030278233885765074,0.21204086844176054
1773257357815102000,12.22410205078125,0.04565232862830162,-0.07514321152865887,0.32108664183318614
1773257357825115000,12.234114990234374,-0.07118190668225288,-0.18937223277688026,0.5492585608646273
1773257357835126800,12.244126708984375,-0.1380611477345228,-0.3742874861449003,0.5435340457379818
1773257357845140000,12.254139892578126,-0.1778980680823326,-0.5336930352032184,0.5873106436222791
1773257357855153200,12.264153076171874,-0.4588274715721607,-0.8664414732575416,0.7573337405458093
1773257357865165000,12.2741650390625,-0.9237994372487067,-1.2300333778649568,0.5862225561246276
1773257357875178000,12.284177978515626,-1.2812410025328398,-1.2603569121971725,0.5382815320372581
1773257357885191000,12.29419091796875,-1.1531792707651853,-1.1213175670802593,0.5247768844284116
1773257357895202800,12.304202880859375,-0.8063549610853195,-0.9724120769873261,0.32474721016734837
1773257357905216000,12.314216064453126,-0.6782488056540489,-0.664960285013914,0.3443704867869615
1773257357915228000,12.324227783203124,-0.5411410131216049,-0.4438233791857958,0.3972366923168301
1773257357925241000,12.334240966796875,-0.520015807506442,-0.3210609228700399,0.2545551913052797
1773257357935253800,12.344253662109375,-0.42396366346180436,-0.22346885590702295,0.41419367233663795
1773257357945266000,12.354265869140624,-0.4113490965604782,-0.1561285732142627,0.28503070132881403
1773257357955278800,12.36427880859375,-0.3815723824560642,-0.008046089942008257,0.22542174354046582
1773257357965292000,12.3742919921875,-0.3227823398351669,0.012150164259970187,0.2699728329285979
1773257357975304000,12.384303955078124,-0.4846820437967777,-0.08313406415209174,0.1442956582099199
1773257357985316400,12.39431640625,-0.8505477385550737,-0.010758929097279905,0.11888006192445755
1773257357995329300,12.404329345703125,-1.4247685989797114,0.2008761350225657,0.23249738101512193
1773257358005341200,12.414341064453126,-1.7673685689628122,0.4990181737937033,0.1954860394820571
1773257358015354400,12.424354248046875,-1.5447347025752067,0.6830337018430233,0.3240229875460267
1773257358025367300,12.4343671875,-0.6676175215244293,0.8835201799608766,0.17907909456044435
1773257358035379500,12.44437939453125,-0.15841010828018187,0.8793085536152124,-0.1395388190716505
1773257358045392400,12.454392333984375,-0.30765725141763683,0.8812553037688136,-0.06058306351751089
1773257358055405300,12.4644052734375,-0.8629314193099736,0.8527835347831249,-0.21521248421519992
1773257358065417200,12.474417236328126,-1.255505088251829,0.7222427726160734,-0.11125234352499246
1773257358075430400,12.484430419921875,-1.3267255733788013,0.4432877744717523,-0.15113573336303232
1773257358085443300,12.494443359375,-1.2729179953455925,0.468651494439505,-0.0859212106525898
1773257358095455500,12.50445556640625,-1.1811889751970768,0.681051588115096,-0.18497399781793356
1773257358105468200,12.51446826171875,-0.994471640843153,0.8040794173687696,-0.21572014147639273
1773257358115480300,12.524480224609375,-0.5863105266690254,0.33408158635422586,0.7892728933811187
