time,seconds_elapsed,z,y,x
1773257345645547800,0.0545478515625,-0.19409969449043274,0.052257876843214035,-0.06681764870882034
1773257345655559700,0.0645595703125,-0.1846577227115631,0.11829815059900284,-0.0741964653134346
1773257345665572900,0.07457275390625,-0.18129149079322815,0.12534859776496887,-0.10677837580442429
1773257345675584800,0.084584716796875,-0.18533922731876373,0.07997579127550125,-0.17221464216709137
1773257345685598000,0.094597900390625,-0.19856049120426178,0.03256113827228546,-0.2626771628856659
1773257345695609900,0.10460986328125,-0.21646785736083984,-0.0055002267472445965,-0.34875771403312683
1773257345705621800,0.114621826171875,-0.2398003488779068,-0.02256949059665203,-0.41891416907310486
1773257345715635000,0.124635009765625,-0.269656240940094,-0.11197660118341446,-0.46140116453170776
1773257345725646800,0.134646728515625,-0.3268558979034424,-0.3408491909503937,-0.5038133263587952
1773257345735659800,0.14465966796875,-0.37105876207351685,-0.539686918258667,-0.5337432622909546
1773257345745671700,0.154671630859375,-0.38888463377952576,-0.6011021137237549,-0.502987265586853
1773257345755683800,0.164683837890625,-0.3966227173805237,-0.6228516101837158,-0.443634957075119
1773257345765696800,0.17469677734375,-0.3758588433265686,-0.5597338676452637,-0.35434743762016296
1773257345775709000,0.184708984375,-0.3638772964477539,-0.29831424355506897,-0.225031778216362
1773257345785721900,0.194721923828125,-0.39124205708503723,0.04782344773411751,-0.08280912786722183
1773257345795733800,0.204733642578125,-0.4286922216415405,0.37818750739097595,0.019086608663201332
1773257345805746000,0.214745849609375,-0.4905337691307068,0.5900672674179077,0.07893715798854828
1773257345815758600,0.224758544921875,-0.5812085270881653,0.6356422305107117,0.05769845098257065
1773257345825770800,0.234770751953125,-0.7023048400878906,0.5803009271621704,-0.01637497916817665
1773257345835783700,0.24478369140625,-0.7938513159751892,0.545279324054718,-0.11711277067661285
1773257345845795800,0.2547958984375,-0.8298596143722534,0.5204567909240723,-0.22954344749450684
1773257345855808800,0.264808837890625,-0.8068195581436157,0.42643892765045166,-0.3334394693374634
1773257345865821000,0.274821044921875,-0.7684452533721924,0.23858274519443512,-0.46197187900543213
1773257345875832800,0.284832763671875,-0.6837250590324402,0.004225637763738632,-0.5730717778205872
1773257345885846000,0.294845947265625,-0.580551028251648,-0.1499205231666565,-0.6556532382965088
1773257345895858000,0.30485791015625,-0.494551420211792,-0.5966349244117737,-0.6434172987937927
1773257345905870800,0.314870849609375,-0.4429662525653839,-1.137955904006958,-0.6349817514419556
1773257345915882800,0.3248828125,-0.45497336983680725,-1.2499521970748901,-0.6160905957221985
1773257345925894700,0.334894775390625,-0.5041124224662781,-0.9503817558288574,-0.533714771270752
1773257345935907800,0.344907958984375,-0.5267043113708496,-0.6015684008598328,-0.46294286847114563
1773257345945919700,0.354919677734375,-0.5326306223869324,-0.39832526445388794,-0.49934670329093933
1773257345955933000,0.364932861328125,-0.5181155800819397,-0.3069700598716736,-0.5831385254859924
1773257345965945000,0.374945068359375,-0.48266759514808655,-0.21979068219661713,-0.6676632761955261
1773257345975957200,0.384957275390625,-0.4119074046611786,-0.07427369803190231,-0.6987426280975342
1773257345985970000,0.394969970703125,-0.29387742280960083,0.21835604310035706,-0.6506294012069702
1773257345995982000,0.404982177734375,-0.15044783055782318,0.6521961688995361,-0.48575738072395325
1773257346005995000,0.4149951171875,-0.10235646367073059,0.5205127000808716,-0.3814863860607147
1773257346016007200,0.425007080078125,-0.06300026923418045,-0.41105252504348755,-0.42876920104026794
1773257346026019000,0.43501904296875,0.07183850556612015,-0.5589690208435059,-0.3872329294681549
1773257346036032300,0.4450322265625,0.09974870085716248,-0.15508359670639038,-0.30590611696243286
1773257346046044200,0.455044189453125,0.020471720024943352,-0.03707785904407501,-0.3433898389339447
1773257346056057000,0.46505712890625,-0.12052188813686371,-0.06518486142158508,-0.46091488003730774
1773257346066069200,0.4750693359375,-0.333615779876709,-0.011952533386647701,-0.5876350402832031
1773257346076081200,0.4850810546875,-0.5929325819015503,0.2811027765274048,-0.7073733806610107
1773257346086094000,0.495093994140625,-0.8532682657241821,0.585787296295166,-0.771834671497345
1773257346096106000,0.50510595703125,-1.1061586141586304,0.5274584889411926,-0.5933104753494263
1773257346106119200,0.515119140625,-1.264742136001587,0.14034032821655273,-0.3925241231918335
1773257346116131000,0.525131103515625,-1.3454614877700806,-0.16489627957344055,-0.1543022245168686
1773257346126143200,0.535143310546875,-1.3544139862060547,-0.34530946612358093,0.10107362270355225
1773257346136156200,0.54515625,-1.3148561716079712,-0.3412548005580902,0.36377501487731934
1773257346146168000,0.55516796875,-1.2434868812561035,-0.3288745582103729,0.5620010495185852
1773257346156181000,0.565180908203125,-1.148107647895813,-0.4689304530620575,0.6478924751281738
1773257346166193000,0.57519287109375,-1.0225480794906616,-0.6875248551368713,0.6573001146316528
1773257346176205000,0.585205078125,-0.8585245609283447,-0.8396640419960022,0.6918836236000061
1773257346186218000,0.595218017578125,-0.6093368530273438,-0.8276790380477905,0.7985528707504272
1773257346196230100,0.605230224609375,-0.2761673927307129,-0.9329321980476379,0.9841999411582947
1773257346206243000,0.6152431640625,-0.025114141404628754,-1.2028989791870117,1.2082194089889526
1773257346216255200,0.625255126953125,0.023390544578433037,-1.387126088142395,1.407015085220337
1773257346226267100,0.63526708984375,-0.1251848191022873,-1.4446364641189575,1.540675163269043
1773257346236280300,0.6452802734375,-0.38539108633995056,-1.5267468690872192,1.5691049098968506
1773257346246292200,0.655292236328125,-0.6939417719841003,-1.578397512435913,1.5206599235534668
1773257346256305200,0.66530517578125,-0.930539608001709,-1.5938172340393066,1.4075285196304321
1773257346266317000,0.675317138671875,-1.0506633520126343,-1.524021863937378,1.220654845237732
1773257346276329000,0.685328857421875,-1.0799118280410767,-1.3997079133987427,0.9626458883285522
1773257346286342100,0.695342041015625,-1.0516612529754639,-1.2292914390563965,0.6478323340415955
1773257346296354000,0.70535400390625,-0.9893720746040344,-1.0225931406021118,0.3084758222103119
1773257346306366200,0.7153662109375,-0.9079046249389648,-0.7646297812461853,-0.01613316312432289
1773257346316379100,0.725379150390625,-0.8015459775924683,-0.5581860542297363,-0.29080572724342346
1773257346326391000,0.73539111328125,-0.6973447203636169,-0.5007427334785461,-0.47679051756858826
1773257346336404000,0.745404052734375,-0.6454658508300781,-0.5922207236289978,-0.5521119236946106
1773257346346415900,0.755415771484375,-0.6995274424552917,-0.8164623379707336,-0.5318484306335449
1773257346356428000,0.765427978515625,-0.8287562727928162,-1.1205191612243652,-0.42472970485687256
1773257346366441000,0.77544091796875,-0.9786443114280701,-1.3781664371490479,-0.244233176112175
1773257346376453000,0.785453125,-1.0726299285888672,-1.5335214138031006,-0.03629089519381523
1773257346386466000,0.795466064453125,-1.078696608543396,-1.5922590494155884,0.1583251953125
1773257346396478200,0.805478271484375,-1.0102078914642334,-1.5857387781143188,0.31202447414398193
1773257346406490000,0.815489990234375,-0.9077938199043274,-1.5779237747192383,0.39481815695762634
1773257346416503300,0.82550341796875,-0.8488886952400208,-1.61605966091156,0.38954031467437744
1773257346426515200,0.83551513671875,-0.8371627926826477,-1.6891882419586182,0.3151925802230835
1773257346436528000,0.845528076171875,-0.8427343964576721,-1.7385504245758057,0.21922209858894348
1773257346446540000,0.8555400390625,-0.831523597240448,-1.7256826162338257,0.13732776045799255
1773257346456552000,0.865552001953125,-0.7669160962104797,-1.614857792854309,0.05209595710039139
1773257346466565000,0.875565185546875,-0.6832627058029175,-1.5951993465423584,0.02568831853568554
1773257346476577000,0.885576904296875,-0.6276063919067383,-1.6608960628509521,0.04698428511619568
1773257346486589200,0.895589111328125,-0.6231799721717834,-1.7579691410064697,0.07727827876806259
1773257346496602000,0.90560205078125,-0.6365714073181152,-1.8419439792633057,0.11785819381475449
1773257346506614300,0.9156142578125,-0.6506363749504089,-1.8303847312927246,0.1938413679599762
1773257346516627200,0.925627197265625,-0.6453140377998352,-1.7416133880615234,0.31816065311431885
1773257346526639000,0.93563916015625,-0.6266708374023438,-1.5959253311157227,0.47472071647644043
1773257346536651000,0.945651123046875,-0.5775741338729858,-1.4252686500549316,0.645031213760376
1773257346546664000,0.955663818359375,-0.549696147441864,-1.2854820489883423,0.8266273736953735
1773257346556676000,0.965676025390625,-0.5026428699493408,-1.2356716394424438,1.0111961364746094
1773257346566689000,0.97568896484375,-0.4085603356361389,-1.272956371307373,1.221470832824707
1773257346576701200,0.985701171875,-0.3697444796562195,-1.1451555490493774,1.4505703449249268
1773257346586713000,0.995713134765625,-0.36126312613487244,-0.968334436416626,1.680388331413269
1773257346596726300,1.005726318359375,-0.3644072413444519,-0.8026799559593201,1.874660611152649
1773257346606738200,1.01573828125,-0.38893043994903564,-0.6113845705986023,1.9748502969741821
1773257346616751000,1.025751220703125,-0.3700627386569977,-0.4993048906326294,1.9133374691009521
1773257346626763000,1.035762939453125,-0.3387026786804199,-0.5569572448730469,1.663712978363037
1773257346636775000,1.04577490234375,-0.3308967053890228,-0.6484230160713196,1.3044061660766602
1773257346646788000,1.0557880859375,-0.3450351655483246,-0.5623829364776611,0.9300927519798279
1773257346656800000,1.065800048828125,-0.32718291878700256,-0.3498924970626831,0.5726946592330933
1773257346666812200,1.075812255859375,-0.24932514131069183,-0.14367248117923737,0.2638034224510193
1773257346676825000,1.0858251953125,-0.13371172547340393,0.038895733654499054,0.030368026345968246
1773257346686837200,1.095837158203125,-0.021522069349884987,0.2204335629940033,-0.12009072303771973
1773257346696850200,1.10585009765625,0.05102669820189476,0.37947407364845276,-0.2066381275653839
1773257346706862300,1.1158623046875,0.07005178928375244,0.5761368274688721,-0.28854817152023315
1773257346716874200,1.125874267578125,0.018643192946910858,0.6939728856086731,-0.3809225857257843
1773257346726887000,1.135886962890625,-0.09016105532646179,0.7521107792854309,-0.4645993709564209
1773257346736899000,1.145899169921875,-0.2296190857887268,0.7896080613136292,-0.5199140310287476
1773257346746912000,1.155912109375,-0.36524054408073425,0.7639184594154358,-0.5533654689788818
1773257346756924200,1.165924072265625,-0.4961319863796234,0.6922866106033325,-0.5767908692359924
1773257346766936000,1.17593603515625,-0.60125333070755,0.5901706218719482,-0.5859031677246094
1773257346776949200,1.18594921875,-0.6630030274391174,0.4632936120033264,-0.5862925052642822
1773257346786961200,1.195961181640625,-0.6905182600021362,0.34128010272979736,-0.5810365080833435
1773257346796973000,1.20597314453125,-0.7020984888076782,0.28208816051483154,-0.5710675120353699
1773257346806986000,1.215986083984375,-0.7093318700790405,0.2567122280597687,-0.5856860876083374
1773257346816998000,1.225997802734375,-0.713179886341095,0.24927853047847748,-0.6181878447532654
1773257346827011000,1.236010986328125,-0.6986296772956848,0.3206786811351776,-0.6227189898490906
1773257346837023000,1.24602294921875,-0.6498739123344421,0.4669528007507324,-0.57914137840271
1773257346847035100,1.25603515625,-0.574050784111023,0.5961251854896545,-0.5103445053100586
1773257346857048000,1.266048095703125,-0.5035579800605774,0.6500211358070374,-0.43298444151878357
1773257346867060200,1.276060302734375,-0.4890269339084625,0.5955145359039307,-0.38073667883872986
1773257346877072100,1.286072021484375,-0.5225188732147217,0.46560177206993103,-0.3558076322078705
1773257346887085300,1.296085205078125,-0.5817260146141052,0.32028454542160034,-0.34006330370903015
1773257346897097200,1.30609716796875,-0.6286681890487671,0.21989108622074127,-0.29824209213256836
1773257346907110100,1.316110107421875,-0.6355958580970764,0.1844595968723297,-0.24038544297218323
1773257346917122000,1.3261220703125,-0.6121864318847656,0.18336983025074005,-0.18987220525741577
1773257346927134000,1.336134033203125,-0.5919426679611206,0.20733241736888885,-0.1568540632724762
1773257346937147100,1.346147216796875,-0.5809515714645386,0.26258981227874756,-0.12394405156373978
1773257346947159000,1.356158935546875,-0.5624716281890869,0.3168908655643463,-0.08895383775234222
1773257346957172200,1.366172119140625,-0.557533860206604,0.33818763494491577,-0.08822786062955856
1773257346967184600,1.3761845703125,-0.5714775919914246,0.3596806824207306,-0.11346238106489182
1773257346977196500,1.386196533203125,-0.5826141834259033,0.4070178270339966,-0.1473710834980011
1773257346987209200,1.396209228515625,-0.5619107484817505,0.45815610885620117,-0.164341002702713
1773257346997221400,1.406221435546875,-0.5104129314422607,0.5165677666664124,-0.1535453498363495
1773257347007233300,1.4162333984375,-0.44242241978645325,0.5574632883071899,-0.12079592794179916
1773257347017246500,1.42624658203125,-0.36218777298927307,0.5433903336524963,-0.07781597226858139
1773257347027258400,1.43625830078125,-0.30075931549072266,0.48895663022994995,-0.018917232751846313
1773257347037271600,1.446271484375,-0.2362455576658249,0.3685583174228668,0.07655762135982513
1773257347047283500,1.456283447265625,-0.2064535766839981,0.28290972113609314,0.1653045415878296
1773257347057295400,1.46629541015625,-0.24884364008903503,0.242346853017807,0.24034549295902252
1773257347067308500,1.47630859375,-0.3185899555683136,0.20046332478523254,0.30160191655158997
1773257347077320400,1.486320556640625,-0.3688366115093231,0.13870196044445038,0.3367372751235962
1773257347087332600,1.49633251953125,-0.4089379608631134,0.12315016239881516,0.34542611241340637
1773257347097345300,1.50634521484375,-0.42763176560401917,0.14970187842845917,0.3128441870212555
1773257347107357400,1.516357421875,-0.4348646402359009,0.16622652113437653,0.23209422826766968
1773257347117370400,1.526370361328125,-0.4467295706272125,0.20524902641773224,0.13742150366306305
1773257347127382500,1.536382568359375,-0.43569421768188477,0.3043047785758972,0.04326225444674492
1773257347137394400,1.54639453125,-0.39762192964553833,0.4214330017566681,-0.07044966518878937
1773257347147407600,1.55640771484375,-0.3509204685688019,0.5402991771697998,-0.18213358521461487
1773257347157419500,1.56641943359375,-0.3148879110813141,0.6180283427238464,-0.264313668012619
1773257347167431400,1.576431396484375,-0.31709086894989014,0.6365170478820801,-0.2973765432834625
1773257347177444400,1.5864443359375,-0.36580461263656616,0.6252694725990295,-0.2646007537841797
1773257347187456300,1.596456298828125,-0.43202492594718933,0.606403112411499,-0.18017429113388062
1773257347197469400,1.606469482421875,-0.49692294001579285,0.5253135561943054,-0.07598558068275452
1773257347207481300,1.6164814453125,-0.569126546382904,0.389613538980484,0.02726437710225582
1773257347217493500,1.626493408203125,-0.6315411925315857,0.27810218930244446,0.1256529986858368
1773257347227506400,1.63650634765625,-0.6660864353179932,0.21714189648628235,0.201943501830101
1773257347237518600,1.6465185546875,-0.6848811507225037,0.18868257105350494,0.2541846036911011
1773257347247530500,1.656530517578125,-0.6863141655921936,0.2213614135980606,0.2924520969390869
1773257347257543400,1.66654345703125,-0.6821255683898926,0.2977331578731537,0.32389336824417114
1773257347267555600,1.6765556640625,-0.6809966564178467,0.3596423268318176,0.3524930775165558
1773257347277568300,1.686568359375,-0.7123625874519348,0.4074641764163971,0.3897152841091156
1773257347287580400,1.696580322265625,-0.7677222490310669,0.45301276445388794,0.42379653453826904
1773257347297592300,1.70659228515625,-0.8395758867263794,0.47093209624290466,0.45280981063842773
1773257347307605500,1.71660546875,-0.9338448643684387,0.4557150602340698,0.45708978176116943
1773257347317617400,1.726617431640625,-1.0419505834579468,0.4155505895614624,0.421258807182312
1773257347327629300,1.73662939453125,-1.1426165103912354,0.36223331093788147,0.3569653034210205
1773257347337642500,1.746642578125,-1.216245174407959,0.3090561032295227,0.2809208929538727
1773257347347654400,1.756654296875,-1.2513784170150757,0.26238980889320374,0.21409177780151367
1773257347357667300,1.766667236328125,-1.2413358688354492,0.23430678248405457,0.1623162031173706
1773257347367679200,1.77667919921875,-1.1885440349578857,0.2029626965522766,0.1208832785487175
1773257347377691400,1.78669140625,-1.113006591796875,0.1732679158449173,0.08500304073095322
1773257347387704300,1.796704345703125,-1.041345238685608,0.12977078557014465,0.05673065781593323
1773257347397716500,1.806716552734375,-0.9885789752006531,0.05095159634947777,0.039201997220516205
1773257347407728400,1.816728271484375,-0.9693072438240051,-0.04320579394698143,0.036439765244722366
1773257347417741600,1.826741455078125,-0.9779204726219177,-0.1441502571105957,0.026023611426353455
1773257347427753500,1.83675341796875,-0.9950997233390808,-0.22695697844028473,0.007814779877662659
1773257347437766700,1.8467666015625,-1.017871379852295,-0.27944761514663696,-0.029934197664260864
1773257347447778600,1.856778564453125,-0.9935441613197327,-0.32471710443496704,-0.10231518745422363
1773257347457790500,1.86679052734375,-0.8151571154594421,-0.4221445918083191,-0.21627451479434967
1773257347467803400,1.876803466796875,-0.38545581698417664,-0.47564697265625,-0.3578532040119171
1773257347477815300,1.886815185546875,-0.14971892535686493,-0.45315471291542053,-0.48784637451171875
1773257347487827500,1.896827392578125,0.05155320465564728,-0.5913426876068115,-0.590792715549469
1773257347497840400,1.90684033203125,0.3295920193195343,-0.6430780291557312,-0.6422972083091736
1773257347507852300,1.916852294921875,0.3892476260662079,-0.5652029514312744,-0.6590447425842285
1773257347517865500,1.926865478515625,0.2843039035797119,-0.501288115978241,-0.619641125202179
1773257347527877400,1.93687744140625,0.14902596175670624,-0.47926247119903564,-0.5396051406860352
1773257347537889500,1.9468896484375,0.016827449202537537,-0.4339863359928131,-0.43399912118911743
1773257347547902500,1.95690234375,-0.10045923292636871,-0.3313571512699127,-0.2988082766532898
1773257347557914400,1.966914306640625,-0.23217171430587769,-0.1669684797525406,-0.16406643390655518
1773257347567926500,1.976926513671875,-0.3331452012062073,-0.061588793992996216,-0.035229094326496124
1773257347577939500,1.986939453125,-0.3883187174797058,-0.00626002624630928,0.06932181864976883
1773257347587951400,1.996951416015625,-0.3878808915615082,-0.014405304566025734,0.13051539659500122
1773257347597964500,2.006964599609375,-0.33888086676597595,-0.07467690110206604,0.1507202684879303
1773257347607976400,2.0169765625,-0.2687459886074066,-0.1713499128818512,0.13850301504135132
1773257347617988400,2.02698828125,-0.19764544069766998,-0.1914844810962677,0.08936316519975662
1773257347628001500,2.03700146484375,-0.15048964321613312,-0.15525536239147186,0.020004600286483765
1773257347638013400,2.047013427734375,-0.1383509486913681,-0.10088746249675751,-0.039100531488657
1773257347648025600,2.057025634765625,-0.09671854972839355,-0.05482063814997673,-0.0658906027674675
1773257347658038300,2.067038330078125,-0.06734335422515869,-0.000984836951829493,-0.053948454558849335
1773257347668050400,2.077050537109375,-0.07904421538114548,-0.014416489750146866,-0.007893609814345837
1773257347678062300,2.087062255859375,-0.12161245197057724,-0.09255869686603546,0.051299139857292175
1773257347688075500,2.097075439453125,-0.164788156747818,-0.15998513996601105,0.09795718640089035
1773257347698087400,2.10708740234375,-0.1919340193271637,-0.2357800304889679,0.1423765867948532
1773257347708100400,2.117100341796875,-0.18617387115955353,-0.31945762038230896,0.19483792781829834
1773257347718112500,2.127112548828125,-0.15884530544281006,-0.37608760595321655,0.23913002014160156
1773257347728124400,2.13712451171875,-0.12102948874235153,-0.3802061975002289,0.2671741843223572
1773257347738137600,2.1471376953125,-0.07091997563838959,-0.3637382686138153,0.28266286849975586
1773257347748149500,2.1571494140625,-0.01008113007992506,-0.3521668314933777,0.2791733145713806
1773257347758161700,2.16716162109375,0.039023831486701965,-0.35040542483329773,0.2703702449798584
1773257347768174300,2.17717431640625,0.05721988156437874,-0.3244340121746063,0.25994235277175903
1773257347778186200,2.187186279296875,0.05555567145347595,-0.22746698558330536,0.2593626081943512
1773257347788199400,2.197199462890625,0.05047595873475075,-0.10268083959817886,0.24423716962337494
1773257347798211300,2.20721142578125,0.058578625321388245,0.00002103897168126423,0.19471248984336853
1773257347808223500,2.217223388671875,0.09377656131982803,0.08345174789428711,0.118334099650383
1773257347818236400,2.227236328125,0.135871022939682,0.11528638005256653,0.02857412025332451
1773257347828248600,2.23724853515625,0.1600397378206253,0.18508197367191315,-0.052801962941884995
1773257347838260500,2.247260498046875,0.1735163927078247,0.25496146082878113,-0.12300208956003189
1773257347848273400,2.2572734375,0.20848555862903595,0.28753936290740967,-0.1852518767118454
1773257347858285300,2.267285400390625,0.2327411025762558,0.3444143831729889,-0.23052987456321716
1773257347868298500,2.277298583984375,0.2537483870983124,0.3942303955554962,-0.2489701360464096
1773257347878310400,2.287310302734375,0.2914893627166748,0.4084588587284088,-0.23944854736328125
1773257347888322300,2.297322265625,0.32226431369781494,0.38184458017349243,-0.19782866537570953
1773257347898335500,2.30733544921875,0.3238379955291748,0.33670932054519653,-0.13907559216022491
1773257347908347400,2.317347412109375,0.28838491439819336,0.2792747914791107,-0.06203753873705864
1773257347918359600,2.327359619140625,0.23980887234210968,0.22804541885852814,0.024273646995425224
1773257347928372500,2.33737255859375,0.20055893063545227,0.1642637699842453,0.10779836773872375
1773257347938384600,2.347384521484375,0.19492687284946442,0.07615336030721664,0.18150508403778076
1773257347948397300,2.357397216796875,0.20080554485321045,0.012436163611710072,0.2407340407371521
1773257347958409500,2.367409423828125,0.20901420712471008,-0.03851703181862831,0.2838636636734009
1773257347968420900,2.3774208984375,0.20970475673675537,-0.06659553945064545,0.30326932668685913
1773257347978434000,2.38743408203125,0.20517311990261078,-0.07397115975618362,0.29739412665367126
1773257347988446000,2.397446044921875,0.1855781227350235,-0.013828730210661888,0.29024994373321533
1773257347998458000,2.4074580078125,0.16713759303092957,0.07694990932941437,0.27984631061553955
1773257348008471000,2.417470947265625,0.15573979914188385,0.15994279086589813,0.26258209347724915
1773257348018483200,2.427483154296875,0.14954528212547302,0.22620756924152374,0.24389255046844482
1773257348028495000,2.4374951171875,0.14281360805034637,0.2610076367855072,0.2265937328338623
1773257348038508300,2.44750830078125,0.11941801011562347,0.2571910619735718,0.20880700647830963
1773257348048520200,2.457520263671875,0.08585818111896515,0.21735255420207977,0.2040117233991623
1773257348058533000,2.467533203125,0.05868115648627281,0.15645831823349,0.21372000873088837
1773257348068545000,2.477544921875,0.050923902541399,0.09488416463136673,0.23498108983039856
1773257348078557000,2.487556884765625,0.07557731866836548,0.049061551690101624,0.2747335731983185
1773257348088570000,2.497570068359375,0.12246812134981155,-0.021979333832859993,0.30878394842147827
1773257348098582000,2.50758203125,0.16304591298103333,-0.1570761650800705,0.3145262598991394
1773257348108594200,2.51759423828125,0.1906554400920868,-0.33760547637939453,0.3017055094242096
1773257348118607000,2.527607177734375,0.18055832386016846,-0.5034194588661194,0.2698996663093567
1773257348128619300,2.537619384765625,0.13578899204730988,-0.6809239387512207,0.24910968542099
1773257348138632000,2.5476318359375,0.09185828268527985,-0.7903095483779907,0.24221716821193695
1773257348148644000,2.55764404296875,0.06796440482139587,-0.8238688707351685,0.2364889681339264
1773257348158656000,2.567656005859375,0.07131625711917877,-0.8108659386634827,0.23212218284606934
1773257348168669000,2.5776689453125,0.08481768518686295,-0.7773362398147583,0.21785882115364075
1773257348178681000,2.58768115234375,0.10182037204504013,-0.7117021083831787,0.19516097009181976
1773257348188693000,2.59769287109375,0.12158821523189545,-0.6346837282180786,0.16476312279701233
1773257348198706200,2.6077060546875,0.12993429601192474,-0.6101149916648865,0.12116850167512894
1773257348208718000,2.617718017578125,0.1099637821316719,-0.6641862392425537,0.05981486290693283
1773257348218730200,2.627730224609375,0.08389356732368469,-0.7699190378189087,-0.017954498529434204
1773257348228743200,2.6377431640625,0.07484760880470276,-0.8637129068374634,-0.09666768461465836
1773257348238755000,2.647755126953125,0.0850544422864914,-0.9325748085975647,-0.18024326860904694
1773257348248768000,2.65776806640625,0.11024368554353714,-1.021070122718811,-0.2683537006378174
1773257348258780000,2.66777978515625,0.11991601437330246,-1.1295241117477417,-0.3584795892238617
1773257348268792000,2.6777919921875,0.09284498542547226,-1.2405771017074585,-0.41252630949020386
1773257348278805000,2.687804931640625,0.056586578488349915,-1.2556726932525635,-0.4397936165332794
1773257348288817200,2.697817138671875,-0.029047630727291107,-1.2296198606491089,-0.4549419581890106
1773257348298829000,2.7078291015625,-0.1015508621931076,-1.1640410423278809,-0.44584405422210693
1773257348308842200,2.71784228515625,-0.17198827862739563,-1.1155744791030884,-0.40311363339424133
1773257348318854100,2.727854248046875,-0.21131277084350586,-1.0707896947860718,-0.3372110426425934
1773257348328867000,2.7378671875,-0.21295088529586792,-1.0820863246917725,-0.25556546449661255
1773257348338879200,2.747879150390625,-0.2385137677192688,-1.2167292833328247,-0.17488446831703186
1773257348348891100,2.75789111328125,-0.2995949685573578,-1.4397797584533691,-0.11510155349969864
1773257348358904000,2.767904052734375,-0.39689382910728455,-1.6594667434692383,-0.07823088765144348
1773257348368916000,2.777916015625,-0.5042988657951355,-1.8213965892791748,-0.05727154389023781
1773257348378928000,2.78792822265625,-0.6010900735855103,-1.902374267578125,-0.029270803555846214
1773257348388941000,2.797941162109375,-0.6481817364692688,-1.9238678216934204,0.02166827768087387
1773257348398953200,2.807953125,-0.6286370158195496,-1.9286143779754639,0.1013103723526001
1773257348408965000,2.817965087890625,-0.5783738493919373,-1.912535548210144,0.18942664563655853
1773257348418978300,2.827978271484375,-0.5260973572731018,-1.8217856884002686,0.2652686834335327
1773257348428990200,2.837990234375,-0.48261138796806335,-1.6133458614349365,0.3032035529613495
1773257348439003000,2.8480029296875,-0.41274869441986084,-1.334754467010498,0.30510079860687256
1773257348449015000,2.85801513671875,-0.29947060346603394,-1.0500801801681519,0.28729248046875
1773257348459027000,2.86802685546875,-0.16750670969486237,-0.7890077829360962,0.272422730922699
1773257348469040000,2.8780400390625,-0.05740070715546608,-0.5341600775718689,0.2835414409637451
1773257348479052000,2.888052001953125,0.04674220457673073,-0.324492871761322,0.3092995285987854
1773257348489064200,2.898064208984375,0.12137356400489807,-0.18748919665813446,0.3591158092021942
1773257348499077000,2.9080771484375,0.13703934848308563,-0.08738496899604797,0.4323152005672455
1773257348509089000,2.918089111328125,0.14644749462604523,0.008114651776850224,0.5324165225028992
1773257348519101200,2.92810107421875,0.19941990077495575,0.14287619292736053,0.6462929844856262
1773257348529114000,2.938114013671875,0.3071375787258148,0.223723903298378,0.8228981494903564
1773257348539126300,2.948126220703125,0.4688545763492584,0.49450692534446716,1.0172947645187378
1773257348549139000,2.958138916015625,0.6009827852249146,0.8174977898597717,1.2134325504302979
1773257348559151000,2.968151123046875,0.7293535470962524,1.0931605100631714,1.3856011629104614
1773257348569163000,2.9781630859375,0.7940153479576111,1.2892714738845825,1.5114818811416626
1773257348579176200,2.98817626953125,0.8547287583351135,1.3312973976135254,1.6336660385131836
1773257348589188000,2.99818798828125,1.0990349054336548,1.201461911201477,1.7662920951843262
1773257348599200000,3.008199951171875,1.1641966104507446,1.2497400045394897,1.9362363815307617
1773257348609213200,3.018213134765625,1.0027118921279907,1.5407487154006958,2.035679578781128
1773257348619225000,3.02822509765625,0.7437412738800049,1.7504388093948364,1.9690771102905273
1773257348629238000,3.038238037109375,0.48749589920043945,1.775004267692566,1.821755290031433
1773257348639250000,3.04825,0.4352031350135803,1.7516390085220337,1.654398798942566
1773257348649262000,3.058261962890625,0.6321718692779541,1.70601487159729,1.5014995336532593
1773257348659275000,3.06827490234375,0.7744650840759277,1.8744409084320068,1.3146997690200806
1773257348669287200,3.078287109375,0.6593489050865173,1.8743178844451904,0.7156132459640503
1773257348679299000,3.088299072265625,0.5612201690673828,1.3518890142440796,-0.02298680879175663
1773257348689312000,3.09831201171875,0.6796759963035583,1.0137476921081543,-0.3960581123828888
1773257348699324200,3.10832421875,0.837431013584137,0.8940359354019165,-0.4558040201663971
1773257348709336000,3.118336181640625,0.969451367855072,0.5981020331382751,-0.4083842933177948
1773257348719349200,3.128349365234375,0.9710937142372131,0.09901925921440125,-0.2954779863357544
1773257348729361200,3.138361083984375,0.6905691027641296,-0.2114749699831009,-0.1729683130979538
1773257348739374000,3.1483740234375,0.4435414969921112,-0.4056535065174103,-0.17028199136257172
1773257348749386000,3.158385986328125,0.3759573698043823,-0.430929034948349,-0.25896844267845154
1773257348759398000,3.16839794921875,0.5871630907058716,-0.4521903693675995,-0.431456595659256
1773257348769411000,3.1784111328125,0.7855323553085327,-0.4935372769832611,-0.6514065265655518
1773257348779423000,3.188423095703125,0.9005156755447388,-0.6185314059257507,-0.9013305902481079
1773257348789435100,3.19843505859375,0.9384457468986511,-0.827940046787262,-1.1409215927124023
1773257348799448000,3.208447998046875,0.9667977690696716,-1.014897346496582,-1.3371212482452393
1773257348809460200,3.218460205078125,0.8308095932006836,-0.9521378874778748,-1.4431387186050415
1773257348819472100,3.22847216796875,0.6703456044197083,-0.8381726741790771,-1.454742431640625
1773257348829485000,3.238485107421875,0.5393074154853821,-0.7688378095626831,-1.3452497720718384
1773257348839497200,3.248497314453125,0.5021626949310303,-0.7187187075614929,-1.208238124847412
1773257348849510100,3.25851025390625,0.41817328333854675,-0.6150392293930054,-1.0767053365707397
1773257348859522000,3.26852197265625,0.39732712507247925,-0.6721906661987305,-0.9549283385276794
1773257348869534000,3.278533935546875,0.43667879700660706,-0.8504983186721802,-0.8321182727813721
1773257348879547100,3.288547119140625,0.45313844084739685,-0.9922530651092529,-0.7184731960296631
1773257348889559000,3.29855908203125,0.43428778648376465,-1.1021684408187866,-0.6049444675445557
1773257348899571200,3.3085712890625,0.40078604221343994,-1.2296134233474731,-0.46478071808815
1773257348909584100,3.318584228515625,0.34338292479515076,-1.3510029315948486,-0.29444628953933716
1773257348919596300,3.32859619140625,0.2679177224636078,-1.3954167366027832,-0.11858044564723969
1773257348929609000,3.33860888671875,0.21913181245326996,-1.3978365659713745,0.05392714589834213
1773257348939621000,3.34862109375,0.2145647555589676,-1.362848162651062,0.22781851887702942
1773257348949633000,3.358633056640625,0.27778100967407227,-1.265838861465454,0.3924628496170044
1773257348959646000,3.36864599609375,0.3959997892379761,-1.093392252922058,0.5353744626045227
1773257348969657600,3.37865771484375,0.5381918549537659,-0.8640913963317871,0.6131832599639893
1773257348979669500,3.38866943359375,0.6701338887214661,-0.5791885256767273,0.6050925850868225
1773257348989682700,3.3986826171875,0.7941673994064331,-0.32681673765182495,0.4983181953430176
1773257348999694600,3.408694580078125,0.9122431874275208,-0.1428479701280594,0.30592289566993713
1773257349009706500,3.41870654296875,1.0011863708496094,-0.024515995755791664,0.05133748799562454
1773257349019719700,3.4287197265625,1.0431716442108154,0.026453444734215736,-0.21658822894096375
1773257349029731600,3.438731689453125,1.0760443210601807,0.0310420710593462,-0.4226822853088379
1773257349039743700,3.44874365234375,1.1051985025405884,0.025952504947781563,-0.5537204742431641
1773257349049756400,3.45875634765625,1.129494309425354,0.008596151135861874,-0.6173542737960815
1773257349059768600,3.4687685546875,1.0809485912322998,0.037885863333940506,-0.6613065600395203
1773257349069781500,3.478781494140625,1.006287693977356,-0.06508871912956238,-0.7093390822410583
1773257349079793400,3.48879345703125,0.9156472682952881,-0.20578299462795258,-0.7471703290939331
1773257349089805600,3.4988056640625,0.8157874941825867,-0.29875820875167847,-0.7516215443611145
1773257349099818500,3.508818603515625,0.7111819982528687,-0.3903568387031555,-0.736335813999176
1773257349109830700,3.51883056640625,0.6242425441741943,-0.5078192949295044,-0.7103036642074585
1773257349119842600,3.528842529296875,0.5857532024383545,-0.5291719436645508,-0.6355604529380798
1773257349129855700,3.538855712890625,0.583242654800415,-0.5298601388931274,-0.5076277852058411
1773257349139867600,3.54886767578125,0.5663734078407288,-0.5386592149734497,-0.3730814456939697
1773257349149880600,3.558880615234375,0.539835512638092,-0.4812619686126709,-0.2436733841896057
1773257349159892500,3.568892578125,0.5091410279273987,-0.4856910705566406,-0.1369333565235138
1773257349169904400,3.578904296875,0.4402945637702942,-0.5281578302383423,-0.07193544507026672
1773257349179917600,3.58891748046875,0.3449366092681885,-0.5994517207145691,-0.019569706171751022
1773257349189929500,3.598929443359375,0.2690080404281616,-0.6995745897293091,0.02895015850663185
1773257349199941600,3.608941650390625,0.20967254042625427,-0.842581570148468,0.04153146594762802
1773257349209954600,3.61895458984375,0.13524144887924194,-0.9799007773399353,0.01429558265954256
1773257349219966700,3.628966796875,0.04692516475915909,-1.127732276916504,-0.04231363534927368
1773257349229978600,3.638978515625,-0.025410817936062813,-1.2428394556045532,-0.12360876053571701
1773257349239991600,3.648991455078125,-0.07892357558012009,-1.3092858791351318,-0.19307278096675873
1773257349250003500,3.65900341796875,-0.08664274960756302,-1.3495560884475708,-0.238853320479393
1773257349260016400,3.669016357421875,-0.02863936871290207,-1.3577868938446045,-0.28099945187568665
1773257349270028500,3.679028564453125,0.09018661826848984,-1.354022741317749,-0.3506741225719452
1773257349280040400,3.68904052734375,0.2555558681488037,-1.3445687294006348,-0.4463852047920227
1773257349290053600,3.6990537109375,0.43218523263931274,-1.2750935554504395,-0.538051187992096
1773257349300065500,3.7090654296875,0.6143084168434143,-1.1457526683807373,-0.5754033923149109
1773257349310077700,3.71907763671875,0.8216539025306702,-1.0212650299072266,-0.5535556077957153
1773257349320090600,3.729090576171875,1.0123440027236938,-0.8589983582496643,-0.5336316823959351
1773257349330102500,3.7391025390625,1.1574417352676392,-0.709224283695221,-0.5398866534233093
1773257349340114700,3.74911474609375,1.2636265754699707,-0.6126543283462524,-0.5605296492576599
1773257349350127400,3.75912744140625,1.3347907066345215,-0.5324625968933105,-0.6037189364433289
1773257349360139500,3.769139404296875,1.390639066696167,-0.4486970901489258,-0.7178726196289062
1773257349370152400,3.77915234375,1.4552478790283203,-0.4582168459892273,-0.8503691554069519
1773257349380164600,3.78916455078125,1.4896240234375,-0.4897076487541199,-0.9701360464096069
1773257349390176500,3.799176513671875,1.4717350006103516,-0.4366966187953949,-1.0667494535446167
1773257349400189700,3.809189697265625,1.434859275817871,-0.34002256393432617,-1.1504381895065308
1773257349410201600,3.81920166015625,1.3965725898742676,-0.24114097654819489,-1.2138131856918335
1773257349420213500,3.829213623046875,1.344678521156311,-0.1146879643201828,-1.2878011465072632
1773257349430226700,3.839226806640625,1.216988444328308,-0.01601332053542137,-1.3918737173080444
1773257349440238600,3.849238525390625,1.045510172843933,-0.046127013862133026,-1.5066548585891724
1773257349450251500,3.85925146484375,0.8610860109329224,-0.15009468793869019,-1.5992774963378906
1773257349460263400,3.869263427734375,0.6751691102981567,-0.25703418254852295,-1.6621555089950562
1773257349470275600,3.879275634765625,0.49346697330474854,-0.3514783978462219,-1.6813020706176758
1773257349480288500,3.88928857421875,0.35076814889907837,-0.3737216591835022,-1.6471706628799438
1773257349490300700,3.89930078125,0.295173317193985,-0.35676026344299316,-1.5466930866241455
1773257349500312600,3.9093125,0.38138917088508606,-0.4235680401325226,-1.3888698816299438
1773257349510325800,3.91932568359375,0.6266044974327087,-0.5247564315795898,-1.1599105596542358
1773257349520337700,3.929337646484375,0.9988142848014832,-0.5379039645195007,-0.8426273465156555
1773257349530349600,3.939349609375,1.4777878522872925,-0.5204402804374695,-0.4261193573474884
1773257349540362500,3.949362548828125,1.9544129371643066,-0.5186412930488586,0.06353823095560074
1773257349550374400,3.95937451171875,2.3271634578704834,-0.3803422749042511,0.6088396310806274
1773257349560387600,3.9693876953125,2.5449697971343994,-0.0453144833445549,1.2017415761947632
1773257349570399500,3.9793994140625,2.577328681945801,0.40020066499710083,1.838061809539795
1773257349580411600,3.98941162109375,2.426600456237793,0.52354496717453,2.4446353912353516
1773257349590424600,3.999424560546875,2.172305107116699,0.362935870885849,2.8846280574798584
1773257349600436500,4.0094365234375,1.809818983078003,0.15682902932167053,3.1699090003967285
1773257349610449700,4.01944970703125,1.3312278985977173,-0.009043828584253788,3.3723297119140625
1773257349620461600,4.029461669921875,0.7882458567619324,-0.2340167611837387,3.527324914932251
1773257349630473700,4.0394736328125,0.26398876309394836,-0.45305535197257996,3.629451036453247
1773257349640486400,4.049486328125,-0.17055310308933258,-0.6562860012054443,3.7001020908355713
1773257349650498600,4.05949853515625,-0.3952682316303253,-0.8735775351524353,3.758133888244629
1773257349660510500,4.069510498046875,-0.4262929856777191,-1.007706880569458,3.803663492202759
1773257349670523600,4.079523681640625,-0.37299302220344543,-0.9955676198005676,3.8220443725585938
1773257349680535600,4.08953564453125,-0.2732677459716797,-0.7686801552772522,3.789337635040283
1773257349690548700,4.099548828125,-0.15441220998764038,-0.5140159130096436,3.691423177719116
1773257349700560600,4.109560546875,-0.04391339421272278,-0.3256896734237671,3.52144193649292
1773257349710572500,4.119572509765625,0.04278421401977539,-0.020443756133317947,3.2695796489715576
1773257349720585500,4.12958544921875,0.07521911710500717,0.20415686070919037,2.9493634700775146
1773257349730597400,4.139597412109375,0.08349303156137466,0.3239447772502899,2.577094793319702
1773257349740610600,4.149610595703125,0.08201124519109726,0.4667043387889862,2.161726236343384
1773257349750622500,4.15962255859375,0.10535358637571335,0.4777236878871918,1.7383382320404053
1773257349760634600,4.169634521484375,0.12608149647712708,0.3102779686450958,1.37508225440979
1773257349770647600,4.1796474609375,0.09393368661403656,0.07837630063295364,1.103872537612915
1773257349780659700,4.18965966796875,-0.0011733887949958444,-0.11977114528417587,0.9275504946708679
1773257349790672600,4.199672607421875,-0.16699858009815216,-0.2514399588108063,0.8310934901237488
1773257349800684500,4.2096845703125,-0.41092467308044434,-0.3456849753856659,0.7967248558998108
1773257349810696700,4.21969677734375,-0.6633082032203674,-0.40606948733329773,0.7946667671203613
1773257349820709400,4.22970947265625,-0.8240802884101868,-0.5114600658416748,0.787443995475769
1773257349830721500,4.239721435546875,-0.8959829807281494,-0.5681068301200867,0.8095575571060181
1773257349840733400,4.2497333984375,-0.9079419374465942,-0.5410875082015991,0.8590399026870728
1773257349850746600,4.25974658203125,-0.8645758032798767,-0.5059998035430908,0.9190278649330139
1773257349860758500,4.269758544921875,-0.7766568660736084,-0.5049989819526672,0.9964795112609863
1773257349870771700,4.279771728515625,-0.6794655919075012,-0.5352343916893005,1.09356689453125
1773257349880783600,4.28978369140625,-0.6098074316978455,-0.5354170799255371,1.2064287662506104
1773257349890795500,4.29979541015625,-0.581895649433136,-0.6106526851654053,1.3126614093780518
1773257349900808400,4.309808349609375,-0.58510422706604,-0.7137532830238342,1.3959749937057495
1773257349910820600,4.319820556640625,-0.6296836733818054,-0.8061098456382751,1.4342237710952759
1773257349920833500,4.32983349609375,-0.6933861970901489,-0.835491955280304,1.4049359560012817
1773257349930845400,4.339845458984375,-0.7581201791763306,-0.837576150894165,1.3099831342697144
1773257349940857600,4.349857666015625,-0.8117245435714722,-0.9984068274497986,1.1932713985443115
1773257349950870500,4.35987060546875,-0.8309928178787231,-1.0600159168243408,1.0550434589385986
1773257349960882700,4.369882568359375,-0.8566910028457642,-0.9029120206832886,0.8694576621055603
1773257349970896000,4.379895751953125,-0.8439704179763794,-0.7736243009567261,0.68059903383255
1773257349980907800,4.38990771484375,-0.7574748992919922,-0.5938465595245361,0.4860854744911194
1773257349990920000,4.399919921875,-0.6200369000434875,-0.32525691390037537,0.29032182693481445
1773257350000932600,4.4099326171875,-0.4498920738697052,-0.1208001896739006,0.052137501537799835
1773257350010944800,4.41994482421875,-0.2948518693447113,-0.064732126891613,-0.17748664319515228
1773257350020957700,4.429957763671875,-0.1823951005935669,-0.09906772524118423,-0.3612178564071655
1773257350030969600,4.439969482421875,-0.13614585995674133,-0.1279475837945938,-0.4997749328613281
1773257350040982800,4.449982666015625,-0.15686099231243134,-0.14286553859710693,-0.5591538548469543
1773257350050994700,4.45999462890625,-0.1819591522216797,-0.124384805560112,-0.5233330130577087
1773257350061006800,4.4700068359375,-0.13260199129581451,-0.14967630803585052,-0.3975833058357239
1773257350071019800,4.480019775390625,-0.009440373629331589,-0.08914238959550858,-0.22667761147022247
1773257350081031700,4.49003173828125,0.1668640822172165,0.045703038573265076,-0.07138177007436752
1773257350091044600,4.500044677734375,0.3413059413433075,0.11291643232107162,0.03033393807709217
1773257350101056800,4.510056884765625,0.4435785114765167,0.14996765553951263,0.06404822319746017
1773257350111068700,4.520068603515625,0.43831050395965576,0.18614989519119263,0.04222947731614113
1773257350121081900,4.530081787109375,0.3419698476791382,0.23697206377983093,-0.021019265055656433
1773257350131093800,4.54009375,0.2171403020620346,0.3105994164943695,-0.10386861115694046
1773257350141107000,4.55010693359375,0.11318434774875641,0.31205376982688904,-0.18658027052879333
1773257350151118800,4.560118896484375,0.06376220285892487,0.1936376392841339,-0.28712764382362366
1773257350161131500,4.570131591796875,0.038774825632572174,0.13789795339107513,-0.36465680599212646
1773257350171143700,4.580143798828125,0.04255757853388786,0.11927232891321182,-0.42231956124305725
1773257350181155600,4.590155517578125,0.12469399720430374,0.07831238210201263,-0.42140263319015503
1773257350191168800,4.600168701171875,0.08299634605646133,-0.17252010107040405,-0.4572461247444153
1773257350201180700,4.6101806640625,-0.032525718212127686,-0.10690327733755112,-0.5314782857894897
1773257350211193900,4.62019384765625,0.029651636257767677,-0.03934767097234726,-0.5739423632621765
1773257350221205800,4.630205810546875,0.14725495874881744,-0.10832887142896652,-0.6141728758811951
1773257350231217700,4.6402177734375,0.24805082380771637,-0.19433379173278809,-0.6725032925605774
1773257350241230800,4.65023095703125,0.2644180655479431,-0.2083742469549179,-0.7430363297462463
1773257350251242800,4.66024267578125,0.1865062266588211,-0.21124592423439026,-0.7865651249885559
1773257350261255700,4.670255615234375,0.03857588768005371,-0.2947900891304016,-0.800443708896637
1773257350271267600,4.680267578125,-0.1733826994895935,-0.4127635955810547,-0.780951201915741
1773257350281279700,4.69027978515625,-0.4314749836921692,-0.4768584370613098,-0.6796618700027466
1773257350291292700,4.700292724609375,-0.7442160844802856,-0.4878823161125183,-0.5403492450714111
1773257350301304800,4.710304931640625,-1.093582034111023,-0.5702682733535767,-0.40026459097862244
1773257350311317800,4.72031787109375,-1.457359790802002,-0.7028348445892334,-0.321955144405365
1773257350321330000,4.730329833984375,-1.8342905044555664,-0.8290500044822693,-0.35230451822280884
1773257350331342600,4.740342529296875,-2.1532015800476074,-0.8203553557395935,-0.4439321756362915
1773257350341354500,4.7503544921875,-2.319056749343872,-0.7380934953689575,-0.5193219780921936
1773257350351366700,4.76036669921875,-2.2828989028930664,-0.6576838493347168,-0.5565133094787598
1773257350361379600,4.770379638671875,-2.1498591899871826,-0.5679841041564941,-0.5308899879455566
1773257350371391700,4.780391845703125,-2.0099730491638184,-0.5078759789466858,-0.43529340624809265
1773257350381404700,4.79040478515625,-2.0074353218078613,-0.4520809054374695,-0.31407856941223145
1773257350391416800,4.800416748046875,-2.2368674278259277,-0.566205620765686,-0.22091667354106903
1773257350401429800,4.8104296875,-2.6165897846221924,-0.7334651947021484,-0.17847919464111328
1773257350411442000,4.82044189453125,-3.059025287628174,-0.9539749026298523,-0.13645824790000916
1773257350421453800,4.830453857421875,-3.498462438583374,-1.1849181652069092,-0.05205334722995758
1773257350431466800,4.840466796875,-3.871453285217285,-1.3656314611434937,0.10591098666191101
1773257350441478700,4.850478759765625,-4.208263874053955,-1.540005087852478,0.31925708055496216
1773257350451491800,4.860491943359375,-4.422905921936035,-1.6215507984161377,0.5968061685562134
1773257350461503700,4.870503662109375,-4.532289505004883,-1.641111969947815,0.9047138690948486
1773257350471515600,4.880515625,-4.505439281463623,-1.5033389329910278,1.2030742168426514
1773257350481528800,4.89052880859375,-4.399599075317383,-1.1880590915679932,1.4280014038085938
1773257350491540700,4.900540771484375,-4.339290618896484,-0.9302400350570679,1.5301178693771362
1773257350501553700,4.9105537109375,-4.255393981933594,-0.8098376989364624,1.545898675918579
1773257350511565600,4.920565673828125,-4.119083404541016,-0.743145227432251,1.5819562673568726
1773257350521578800,4.930578857421875,-3.911449909210205,-0.6103525757789612,1.578694462776184
1773257350531590700,4.940590576171875,-3.6395423412323,-0.4721113443374634,1.5048750638961792
1773257350541602600,4.9506025390625,-3.433043956756592,-0.4349732995033264,1.3341270685195923
1773257350551615700,4.96061572265625,-3.3047983646392822,-0.37299486994743347,1.1503691673278809
1773257350561627600,4.970627685546875,-3.1463537216186523,-0.16692480444908142,0.9865118265151978
1773257350571640800,4.980640869140625,-2.959474802017212,-0.12340342998504639,0.8447296619415283
1773257350581652700,4.99065283203125,-2.8018691539764404,-0.1605452001094818,0.7709938883781433
1773257350591665700,5.000665771484375,-2.628100633621216,-0.10771580785512924,0.7766400575637817
1773257350601677600,5.010677490234375,-2.352726697921753,-0.054735682904720306,0.823752760887146
1773257350611689700,5.020689697265625,-2.115309238433838,0.0037081853952258825,0.9058026075363159
1773257350621702700,5.03070263671875,-2.0020012855529785,0.12126091122627258,1.0570517778396606
1773257350631714800,5.04071484375,-2.0003721714019775,0.14789225161075592,1.1230195760726929
1773257350645481700,5.054481689453125,-1.8253748416900635,-0.07186166942119598,1.4277331829071045
1773257350656119800,5.065119873046875,-1.5947059392929077,0.0028474517166614532,1.5919239521026611
1773257350666132700,5.0751328125,-1.390660047531128,0.17898891866207123,1.6335859298706055
1773257350676145000,5.085144775390625,-1.2268948554992676,0.1215413436293602,1.698258638381958
1773257350686156800,5.09515673828125,-1.1497747898101807,0.0540163628757,1.805176854133606
1773257350696169700,5.105169677734375,-1.30022394657135,-0.039629168808460236,1.9099600315093994
1773257350706182000,5.115181884765625,-1.6943353414535522,-0.17130517959594727,1.9872311353683472
1773257350716194600,5.125194580078125,-2.011129856109619,-0.2824447453022003,2.0233025550842285
1773257350726206700,5.135206787109375,-2.0969913005828857,-0.3637326657772064,2.0024240016937256
1773257350736219600,5.1452197265625,-1.8947198390960693,-0.39789941906929016,1.9305094480514526
1773257350746231800,5.155231689453125,-1.5054548978805542,-0.41786274313926697,1.8149086236953735
1773257350756243700,5.16524365234375,-1.123370885848999,-0.291845440864563,1.6633776426315308
1773257350766257000,5.1752568359375,-0.8070675134658813,-0.1400628238916397,1.4808709621429443
1773257350776268800,5.185268798828125,-0.5629914402961731,0.027359452098608017,1.27676260471344
1773257350786281700,5.19528173828125,-0.38430240750312805,0.15518133342266083,1.038271427154541
1773257350796293600,5.205293701171875,-0.2685164213180542,0.19174520671367645,0.7626257538795471
1773257350806306800,5.215306884765625,-0.2199067920446396,0.21173834800720215,0.4918469786643982
1773257350816318700,5.225318603515625,-0.1500728577375412,0.25342801213264465,0.275329053401947
1773257350826330600,5.23533056640625,-0.03674975782632828,0.3172602355480194,0.13956774771213531
1773257350836343800,5.24534375,0.08852400630712509,0.3868071138858795,0.060564011335372925
1773257350846355700,5.255355712890625,0.10902661830186844,0.31156933307647705,-0.015620239078998566
1773257350856369000,5.265368896484375,0.10765695571899414,0.3760330080986023,-0.06979106366634369
1773257350866380800,5.275380859375,0.17909492552280426,0.35709714889526367,-0.08824250847101212
1773257350876393700,5.285393798828125,0.26246199011802673,0.3274367153644562,-0.09926214069128036
1773257350886405600,5.295405517578125,0.3391450345516205,0.3053220808506012,-0.1065962165594101
1773257350896417500,5.30541748046875,0.36495691537857056,0.27614477276802063,-0.1270277202129364
1773257350906430700,5.3154306640625,0.3412073850631714,0.26868072152137756,-0.16298386454582214
1773257350916442600,5.325442626953125,0.30628588795661926,0.27310851216316223,-0.18495173752307892
1773257350926455800,5.335455810546875,0.2905961573123932,0.28071048855781555,-0.17058558762073517
1773257350936467700,5.3454677734375,0.3123033046722412,0.2528940439224243,-0.11183332651853561
1773257350946479900,5.35547998046875,0.3724987208843231,0.2716243267059326,-0.03490684926509857
1773257350956492500,5.365492431640625,0.42234060168266296,0.29878562688827515,0.028907015919685364
1773257350966504700,5.375504638671875,0.4256538450717926,0.35630619525909424,0.01468600146472454
1773257350976518000,5.385517822265625,0.4267049729824066,0.40891534090042114,-0.07409500330686569
1773257350986529800,5.39552978515625,0.47275155782699585,0.4437982141971588,-0.19400329887866974
1773257350996543000,5.40554296875,0.536322832107544,0.46727851033210754,-0.2963174283504486
1773257351006555000,5.415554931640625,0.5983211994171143,0.5005656480789185,-0.35675492882728577
1773257351016567000,5.425567138671875,0.6873387098312378,0.4060673415660858,-0.29379594326019287
1773257351026580000,5.435580078125,0.7529342174530029,0.39946991205215454,-0.12460558116436005
1773257351036592000,5.445592041015625,0.7190068960189819,0.3534313142299652,0.06331798434257507
1773257351046604800,5.455604736328125,0.5463967323303223,0.11140988022089005,0.22492685914039612
1773257351056617000,5.465616943359375,0.19314070045948029,-0.24230904877185822,0.3612000048160553
1773257351066630000,5.4756298828125,-0.17119891941547394,-0.23217011988162994,0.4651186764240265
1773257351076642000,5.48564208984375,-0.3234819173812866,-0.4026893973350525,0.5162394046783447
1773257351086655000,5.495655029296875,-0.23630468547344208,-0.4755401611328125,0.5646228790283203
1773257351096667100,5.505667236328125,-0.06255844980478287,-0.2841576933860779,0.6156560182571411
1773257351106679000,5.515678955078125,0.049438923597335815,-0.20711776614189148,0.6209096312522888
1773257351116691700,5.525691650390625,0.10807932913303375,-0.004096740856766701,0.553878664970398
1773257351126703900,5.535703857421875,0.16299185156822205,0.16551998257637024,0.40561461448669434
1773257351136716800,5.545716796875,0.23532970249652863,0.04808470606803894,0.21304409205913544
1773257351146729000,5.55572900390625,0.1737811118364334,-0.011868643574416637,0.0367438979446888
1773257351156742000,5.565741943359375,0.0913887694478035,0.017345700412988663,0.03002367913722992
1773257351166754000,5.575754150390625,0.10351360589265823,0.08773571252822876,0.06795002520084381
1773257351176766000,5.585765869140625,0.19111350178718567,0.1384556144475937,0.10775309801101685
1773257351186779100,5.595779052734375,0.2569601535797119,0.10587982833385468,0.20513343811035156
1773257351196791000,5.605791015625,0.2935732901096344,0.09598831087350845,0.357824444770813
1773257351206804000,5.615803955078125,0.2863912880420685,0.07454773783683777,0.5389678478240967
1773257351216815900,5.62581591796875,0.2617887258529663,0.060986652970314026,0.6556510925292969
1773257351226829000,5.6358291015625,0.2513187825679779,0.05198836699128151,0.7263423204421997
1773257351236841000,5.645841064453125,0.2441607415676117,-0.0007267766632139683,0.7374330163002014
1773257351246852900,5.655852783203125,0.22264079749584198,-0.10012660175561905,0.6759099960327148
1773257351256866000,5.665865966796875,0.12930232286453247,-0.2956148684024811,0.559334933757782
1773257351266878000,5.6758779296875,-0.04041586443781853,-0.38261955976486206,0.38105785846710205
1773257351276891000,5.685890869140625,-0.13975150883197784,-0.2751231789588928,0.14235474169254303
1773257351286902800,5.69590283203125,-0.034984081983566284,0.02701643668115139,-0.1051061823964119
1773257351296916000,5.705916015625,0.3576897084712982,0.2527467608451843,-0.23841123282909393
1773257351306927900,5.715927978515625,0.7356263399124146,0.40247926115989685,-0.2852056324481964
1773257351316941000,5.725941162109375,0.8908819556236267,0.49587953090667725,-0.22001385688781738
1773257351326953000,5.735952880859375,0.9216012954711914,0.5541987419128418,-0.1630091667175293
1773257351336964900,5.74596484375,0.8628007769584656,0.536099374294281,-0.13370852172374725
1773257351346978000,5.75597802734375,0.6968249082565308,0.48648709058761597,-0.12280368059873581
1773257351356990000,5.765989990234375,0.49868038296699524,0.2671504616737366,-0.12527430057525635
1773257351367003000,5.7760029296875,0.27036118507385254,0.11807790398597717,-0.1442602425813675
1773257351377014800,5.786014892578125,0.1270490288734436,0.06446314603090286,-0.16861644387245178
1773257351387028000,5.796028076171875,0.1189170628786087,0.02052711322903633,-0.18393868207931519
1773257351397039900,5.806039794921875,0.1659839153289795,0.005374791566282511,-0.18716828525066376
1773257351407053000,5.816052978515625,0.18522845208644867,0.00481472909450531,-0.18868549168109894
1773257351417065000,5.82606494140625,0.19051748514175415,0.04818830266594887,-0.19164639711380005
1773257351427076900,5.836076904296875,0.20695024728775024,0.013973605819046497,-0.23876596987247467
1773257351437090000,5.846090087890625,0.2820098400115967,0.1870761513710022,-0.301108717918396
1773257351447102000,5.85610205078125,0.4326488971710205,0.2518908381462097,-0.3132045269012451
1773257351457115000,5.866114990234375,0.44810375571250916,0.14481310546398163,-0.2895479202270508
1773257351467126800,5.876126708984375,0.3353063464164734,0.16980820894241333,-0.2358950823545456
1773257351477140000,5.886139892578125,0.24276763200759888,0.2212809920310974,-0.12703491747379303
1773257351487151900,5.89615185546875,0.22498011589050293,0.23176851868629456,0.029383188113570213
1773257351497165000,5.9061650390625,0.23804664611816406,0.16341209411621094,0.20036664605140686
1773257351507177000,5.916177001953125,0.24553599953651428,0.13882073760032654,0.3616998791694641
1773257351517190000,5.92618994140625,0.19119951128959656,0.13265711069107056,0.5036373138427734
1773257351527201800,5.936201904296875,0.105705127120018,0.08959832787513733,0.6134071946144104
1773257351537215000,5.946215087890625,0.06000954285264015,0.05563876032829285,0.691730260848999
1773257351547227000,5.956226806640625,0.056046489626169205,0.007252586539834738,0.736789345741272
1773257351557238800,5.96623876953125,0.12339437007904053,-0.06294647604227066,0.8625291585922241
1773257351567252000,5.976251953125,0.23237811028957367,-0.017771806567907333,1.0819754600524902
1773257351577263900,5.986263916015625,0.2676231861114502,0.03507915884256363,1.3011765480041504
1773257351587277000,5.996277099609375,0.2111029177904129,0.06161382794380188,1.3326250314712524
1773257351597289000,6.0062890625,0.15636377036571503,-0.0014764565275982022,1.1522037982940674
1773257351607302000,6.016302001953125,0.09346949309110641,-0.17662429809570312,0.8060895800590515
1773257351617313800,6.026313720703125,0.010024404153227806,-0.36070677638053894,0.45342448353767395
1773257351627327000,6.036326904296875,-0.027642812579870224,-0.46299561858177185,0.1054886057972908
1773257351637339000,6.0463388671875,0.06346845626831055,-0.45296454429626465,-0.22493430972099304
1773257351647352000,6.05635205078125,0.21804524958133698,-0.34905678033828735,-0.47577372193336487
1773257351657364000,6.066364013671875,0.35723695158958435,-0.17534492909908295,-0.613201916217804
1773257351667377000,6.076376953125,0.4897169768810272,0.016942763701081276,-0.6501801609992981
1773257351677388800,6.086388916015625,0.6247461438179016,0.0712728500366211,-0.5538480281829834
1773257351687402000,6.096402099609375,0.7028484344482422,-0.0017606157343834639,-0.4053349792957306
1773257351697414000,6.106413818359375,0.618219792842865,-0.1288812905550003,-0.26106515526771545
1773257351707425800,6.11642578125,0.4878500998020172,-0.28602856397628784,-0.16198064386844635
1773257351717439000,6.12643896484375,0.351879745721817,-0.5242344737052917,-0.0921296626329422
1773257351727451000,6.136450927734375,0.22879642248153687,-0.7593932151794434,-0.0457344651222229
1773257351737464000,6.146464111328125,0.2302883267402649,-0.9524334669113159,0.020563332363963127
1773257351747476000,6.15647607421875,0.3555000424385071,-1.1748809814453125,0.1546524316072464
1773257351757489000,6.166489013671875,0.5133338570594788,-1.2150211334228516,0.3317297399044037
1773257351767500800,6.176500732421875,0.6305294632911682,-1.110309362411499,0.49434635043144226
1773257351777514000,6.186513916015625,0.6635825037956238,-0.8951595425605774,0.5948116779327393
1773257351787526000,6.19652587890625,0.6918647289276123,-0.6009449362754822,0.6221626400947571
1773257351797539000,6.2065390625,0.7759676575660706,-0.3758772313594818,0.6177577376365662
1773257351807551000,6.216551025390625,0.8593919277191162,-0.2315456122159958,0.6057101488113403
1773257351817564000,6.22656396484375,0.9279273152351379,-0.038295190781354904,0.6278029084205627
1773257351827575800,6.236575927734375,1.0500316619873047,0.15867166221141815,0.7073765993118286
1773257351837589000,6.246589111328125,1.2394098043441772,0.20357443392276764,0.7666529417037964
1773257351847601000,6.256600830078125,1.3729498386383057,0.16898901760578156,0.7962827682495117
1773257351857614000,6.266614013671875,1.4754828214645386,0.06610285490751266,0.839591383934021
1773257351867626000,6.2766259765625,1.5546886920928955,0.013012205250561237,0.8667883276939392
1773257351877639000,6.286638916015625,1.5904957056045532,-0.06071528047323227,0.8553500771522522
1773257351887651000,6.296651123046875,1.531402349472046,-0.15558800101280212,0.7706817984580994
1773257351897663700,6.306663818359375,1.3492255210876465,-0.2422800064086914,0.5868815779685974
1773257351907676000,6.316676025390625,1.0652332305908203,-0.3202158212661743,0.2816753685474396
1773257351917688800,6.326688720703125,0.8067660331726074,-0.3961159288883209,-0.12211871892213821
1773257351927701000,6.336700927734375,0.6332861185073853,-0.4045831561088562,-0.6149142980575562
1773257351937714000,6.3467138671875,0.5343776345252991,-0.47441017627716064,-1.1738755702972412
1773257351947726000,6.35672607421875,0.4693581759929657,-0.5776335000991821,-1.7560985088348389
1773257351957738800,6.36673876953125,0.44501635432243347,-0.5647227764129639,-2.294891357421875
1773257351967751000,6.3767509765625,0.5631887912750244,-0.4000296890735626,-2.7024145126342773
1773257351977764000,6.38676416015625,0.8989220261573792,-0.25714045763015747,-2.880181074142456
1773257351987776000,6.39677587890625,1.2566652297973633,-0.05783773213624954,-2.815645933151245
1773257351997789200,6.4067890625,1.4402949810028076,0.24999040365219116,-2.6026928424835205
1773257352007801000,6.416801025390625,1.4189170598983765,0.4413640797138214,-2.3595964908599854
1773257352017814300,6.426814208984375,1.2855669260025024,0.41988328099250793,-2.1848225593566895
1773257352027826200,6.436826171875,1.1263728141784668,0.2429303526878357,-2.1033740043640137
1773257352037839000,6.446839111328125,0.9199868440628052,0.034383274614810944,-2.1254241466522217
1773257352047851000,6.45685107421875,0.5939685702323914,-0.0787225067615509,-2.263366460800171
1773257352057864200,6.4668642578125,0.37698936462402344,-0.11692475527524948,-2.4780893325805664
1773257352067876000,6.4768759765625,0.3525407314300537,-0.07875366508960724,-2.7265372276306152
1773257352077889300,6.48688916015625,0.48897048830986023,0.02425846830010414,-2.943730354309082
1773257352087901200,6.496901123046875,0.7338569164276123,0.2422483265399933,-3.087109088897705
1773257352097914000,6.5069140625,0.9656070470809937,0.5247601866722107,-3.1406261920928955
1773257352107926000,6.516926025390625,1.1020538806915283,0.8836251497268677,-3.1499757766723633
1773257352117939000,6.52693896484375,1.1227400302886963,1.2308688163757324,-3.144009828567505
1773257352127951000,6.536951171875,1.0206795930862427,1.4633928537368774,-3.128938674926758
1773257352137964000,6.546964111328125,0.803064227104187,1.5688663721084595,-3.1063733100891113
1773257352147976200,6.55697607421875,0.5008878707885742,1.5418815612792969,-3.0578067302703857
1773257352157989000,6.566989013671875,0.12643250823020935,1.3692474365234375,-2.956732988357544
1773257352168001300,6.577001220703125,-0.34167078137397766,1.305816888809204,-3.0302913188934326
1773257352178014000,6.587013916015625,-0.7834239602088928,0.7982500195503235,-3.21209979057312
1773257352188026000,6.597026123046875,-1.1911150217056274,0.10521483421325684,-3.3575878143310547
1773257352198039000,6.6070390625,-1.4932162761688232,-0.4731084406375885,-3.3566975593566895
1773257352208051200,6.61705126953125,-1.7733649015426636,-0.8058006167411804,-3.1507503986358643
1773257352218064100,6.627064208984375,-2.0098395347595215,-1.2145297527313232,-2.7974865436553955
1773257352228077000,6.6370771484375,-2.2472033500671387,-1.5264605283737183,-2.3120625019073486
1773257352238089000,6.6470888671875,-2.528968334197998,-1.7231464385986328,-1.6582425832748413
1773257352248102100,6.65710205078125,-2.770895004272461,-1.9113882780075073,-0.8935850858688354
1773257352258114000,6.667114013671875,-2.7589759826660156,-2.124774932861328,0.08350048214197159
1773257352268127200,6.677127197265625,-2.274905204772949,-1.8643981218338013,1.4497209787368774
1773257352278139100,6.68713916015625,-1.8609325885772705,-1.1222052574157715,2.185652494430542
1773257352288152300,6.69715234375,-1.5418599843978882,-1.0531771183013916,2.3772552013397217
1773257352298164200,6.707164306640625,-1.2042279243469238,-1.3706141710281372,2.292743444442749
1773257352308177000,6.717177001953125,-0.9066545367240906,-1.579750895500183,2.0961484909057617
1773257352318189000,6.72718896484375,-0.7098684906959534,-1.5983197689056396,1.8808908462524414
1773257352328202000,6.737201904296875,-0.6707173585891724,-1.6234062910079956,1.7173199653625488
1773257352338214100,6.747214111328125,-0.7775423526763916,-1.4415310621261597,1.607096552848816
1773257352348227000,6.75722705078125,-0.9558678865432739,-1.2975330352783203,1.4296852350234985
1773257352358239200,6.7672392578125,-1.1133147478103638,-1.2363256216049194,0.9977831244468689
1773257352368252200,6.777252197265625,-1.272223711013794,-1.5767388343811035,0.5158484578132629
1773257352378264000,6.78726416015625,-1.572658896446228,-1.6928836107254028,0.17042100429534912
1773257352388277000,6.797277099609375,-1.6029425859451294,-1.6040040254592896,-0.07937578111886978
1773257352398290200,6.807290283203125,-1.3668208122253418,-1.4761470556259155,-0.14723552763462067
1773257352408302000,6.817302001953125,-0.006873086094856262,-0.849767804145813,-0.35002511739730835
1773257352418315300,6.827315185546875,0.2509611248970032,-0.4777359366416931,-0.7049355506896973
1773257352428327200,6.8373271484375,0.4837789237499237,-0.5002902746200562,-1.0190255641937256
1773257352438340000,6.847340087890625,0.6646669507026672,-0.49986734986305237,-1.103051781654358
1773257352448352000,6.85735205078125,0.6827407479286194,-0.5220445394515991,-1.0073888301849365
1773257352458365200,6.867365234375,0.6565909385681152,-0.5319086313247681,-0.8752060532569885
1773257352468377000,6.877377197265625,0.5141549110412598,-0.5389750599861145,-0.8432484269142151
1773257352478390300,6.887390380859375,0.3592633605003357,-0.43925192952156067,-0.7512913346290588
1773257352488402200,6.897402099609375,0.26972389221191406,-0.40077272057533264,-0.5636998414993286
1773257352498415000,6.9074150390625,0.2395276427268982,-0.3344256579875946,-0.39909225702285767
1773257352508428000,6.917427978515625,0.20568205416202545,-0.28684934973716736,-0.22693806886672974
1773257352518440000,6.92743994140625,0.15362843871116638,-0.33330100774765015,0.042503517121076584
1773257352528453000,6.937453125,0.04891214892268181,-0.2891055643558502,0.45591214299201965
1773257352538465000,6.947465087890625,-0.10159187018871307,-0.26074397563934326,1.042474389076233
1773257352548478200,6.957478271484375,-0.2722128927707672,-0.24807637929916382,1.4635214805603027
1773257352558490000,6.967489990234375,-0.28596118092536926,-0.04057618975639343,1.600235939025879
1773257352568503000,6.9775029296875,-0.14949122071266174,0.12101137638092041,1.5717520713806152
1773257352578515000,6.987514892578125,0.08164239674806595,0.13967108726501465,1.4444879293441772
1773257352588528000,6.997528076171875,0.4005599319934845,0.016774186864495277,1.1753121614456177
1773257352598541000,7.007541015625,0.6296844482421875,0.005074653308838606,0.9684516191482544
1773257352608553200,7.01755322265625,0.5584297180175781,-0.017535584047436714,0.9693360328674316
1773257352618566100,7.027566162109375,0.38839593529701233,-0.14054806530475616,1.0656801462173462
1773257352628578300,7.037578369140625,0.22574098408222198,-0.24726411700248718,1.1390955448150635
1773257352638591000,7.047591064453125,0.022310098633170128,-0.39296671748161316,1.0672551393508911
1773257352648603100,7.05760302734375,-0.37104332447052,-0.5843918323516846,0.9217743873596191
1773257352658616000,7.067615966796875,-1.0271862745285034,-0.6843141317367554,0.7389965653419495
1773257352668629200,7.077629150390625,-1.8308340311050415,-0.7181445360183716,0.4437585473060608
1773257352678641200,7.08764111328125,-2.4084763526916504,-0.14031264185905457,0.0010695254895836115
1773257352688654000,7.097654052734375,-2.8265576362609863,0.5923834443092346,-0.6273512840270996
1773257352698666000,7.107666015625,-3.284132242202759,0.7842777371406555,-1.1405426263809204
1773257352708679200,7.11767919921875,-3.4424071311950684,1.167819619178772,-0.9732767343521118
1773257352718691000,7.127691162109375,-3.5645155906677246,0.8367798328399658,-0.43946099281311035
1773257352728704300,7.137704345703125,-3.814845323562622,0.39712896943092346,-0.23214589059352875
1773257352738716200,7.147716064453125,-3.9491851329803467,0.5716019868850708,-0.15410540997982025
1773257352748729000,7.15772900390625,-3.8109309673309326,0.7786496877670288,-0.1569797694683075
1773257352758742000,7.167741943359375,-3.3467347621917725,0.8269349336624146,-0.4093393087387085
1773257352768754000,7.17775390625,-2.764413356781006,0.8394861817359924,-0.711388111114502
1773257352778767000,7.18776708984375,-2.4926156997680664,0.44095900654792786,-0.9528287053108215
1773257352788779000,7.197779052734375,-2.3516581058502197,0.22355346381664276,-1.1381136178970337
1773257352798792200,7.207792236328125,-2.038785457611084,0.2824902832508087,-1.2767606973648071
1773257352808804000,7.21780419921875,-1.5913327932357788,0.5121533274650574,-1.4170831441879272
1773257352818817000,7.227817138671875,-1.2140371799468994,0.6571936011314392,-1.5006587505340576
1773257352828829000,7.237828857421875,-0.7114318013191223,0.7021251320838928,-1.519453763961792
1773257352838842000,7.247842041015625,-0.13784201443195343,0.634583055973053,-1.5707327127456665
1773257352848855000,7.25785498046875,0.3722097873687744,0.6609228253364563,-1.725451946258545
1773257352858867200,7.2678671875,0.8131195306777954,0.4045027494430542,-1.8227534294128418
1773257352868880100,7.277880126953125,1.2320952415466309,0.1638975888490677,-1.8595985174179077
1773257352878892300,7.287892333984375,1.6248939037322998,0.051712993532419205,-1.989258050918579
1773257352888905000,7.297905029296875,1.9346169233322144,0.049792591482400894,-2.168370485305786
1773257352898917000,7.307917236328125,2.131774425506592,0.003935352899134159,-2.293816328048706
1773257352908930000,7.317929931640625,2.1977105140686035,-0.1155814602971077,-2.340979814529419
1773257352918943200,7.327943115234375,2.1514573097229004,-0.22811545431613922,-2.3110063076019287
1773257352928955100,7.337955078125,2.1166210174560547,-0.2765463590621948,-2.2721638679504395
1773257352938968000,7.347968017578125,2.032914161682129,-0.40566548705101013,-2.214341878890991
1773257352948980000,7.35797998046875,1.9325904846191406,-0.5430499911308289,-2.137535810470581
1773257352958993200,7.3679931640625,1.8363853693008423,-0.6268929243087769,-2.033628463745117
1773257352969005000,7.378005126953125,1.6819227933883667,-0.45916545391082764,-1.9637010097503662
1773257352979018200,7.388018310546875,1.4929968118667603,-0.3017779588699341,-1.9961198568344116
1773257352989031400,7.398031494140625,1.2705824375152588,-0.03898495063185692,-2.0512332916259766
1773257352999043300,7.408043212890625,0.9555187821388245,-0.029212480410933495,-2.0591933727264404
1773257353009056300,7.41805615234375,0.7022113800048828,0.024085095152258873,-2.010026693344116
1773257353019068200,7.428068115234375,0.4716058671474457,0.07022222876548767,-1.8933576345443726
1773257353029081000,7.4380810546875,0.24222755432128906,0.12718164920806885,-1.6926580667495728
1773257353039093200,7.44809326171875,-0.007314638234674931,0.20610177516937256,-1.4647763967514038
1773257353049106200,7.458106201171875,-0.18149256706237793,0.3881876766681671,-1.2278560400009155
1773257353059118300,7.468118408203125,-0.23579281568527222,0.5548033118247986,-0.9914392232894897
1773257353069131000,7.478131103515625,-0.23235547542572021,0.5924745202064514,-0.7527227401733398
1773257353079144200,7.488144287109375,-0.23402580618858337,0.6683362722396851,-0.6634988784790039
1773257353089156000,7.498156005859375,-0.31151527166366577,0.7978582978248596,-0.626133382320404
1773257353099169300,7.508169189453125,-0.45882242918014526,0.9216383099555969,-0.5367830395698547
1773257353109181200,7.51818115234375,-0.5832032561302185,0.8632588386535645,-0.40680184960365295
1773257353119194400,7.5281943359375,-0.6341540217399597,0.6603757739067078,-0.3420015573501587
1773257353129206300,7.538206298828125,-0.6055706143379211,0.4978329539299011,-0.3817761242389679
1773257353139219200,7.54821923828125,-0.526980459690094,0.41514793038368225,-0.48203614354133606
1773257353149232000,7.558232177734375,-0.4803852438926697,0.39865177869796753,-0.574650228023529
1773257353159244300,7.568244384765625,-0.4475434124469757,0.37436559796333313,-0.6359612941741943
1773257353169257200,7.57825732421875,-0.39268842339515686,0.43046802282333374,-0.674479603767395
1773257353179269400,7.588269287109375,-0.32447609305381775,0.5063984990119934,-0.7066122889518738
1773257353189282300,7.5982822265625,-0.25314438343048096,0.5466572046279907,-0.7318150997161865
1773257353199294200,7.608294189453125,-0.1827157586812973,0.5742185115814209,-0.7193501591682434
1773257353209307100,7.61830712890625,-0.11479928344488144,0.5782055854797363,-0.6852717995643616
1773257353219320300,7.6283203125,-0.08910857141017914,0.554179310798645,-0.6607635617256165
1773257353229332200,7.638332275390625,-0.09193098545074463,0.5763821005821228,-0.6715437769889832
1773257353239345400,7.648345458984375,-0.11614977568387985,0.6519908308982849,-0.7406386733055115
1773257353249357300,7.658357421875,-0.1758115142583847,0.7075576782226562,-0.837651252746582
1773257353259370200,7.668370361328125,-0.2549308240413666,0.7011261582374573,-0.9040238857269287
1773257353269382100,7.678382080078125,-0.3469909727573395,0.6043492555618286,-0.8998067378997803
1773257353279395300,7.688395263671875,-0.39931783080101013,0.49204137921333313,-0.8465014696121216
1773257353289408300,7.698408203125,-0.41325148940086365,0.4633293151855469,-0.8248555660247803
1773257353299420200,7.708420166015625,-0.4047413468360901,0.545806884765625,-0.8688810467720032
1773257353309433300,7.718433349609375,-0.3850345015525818,0.6225325465202332,-0.9099209308624268
1773257353319445200,7.7284453125,-0.35001951456069946,0.6042355895042419,-0.9302176833152771
1773257353329458200,7.738458251953125,-0.3219308853149414,0.5460543036460876,-0.9496398568153381
1773257353339471400,7.748471435546875,-0.3141331672668457,0.5187363624572754,-0.9782397747039795
1773257353349483300,7.758483154296875,-0.3371817469596863,0.557992696762085,-0.9591464996337891
1773257353359496200,7.76849609375,-0.40886154770851135,0.5842581391334534,-0.8996860980987549
1773257353369508400,7.77850830078125,-0.5405964255332947,0.5001227259635925,-0.7995856404304504
1773257353379521000,7.78852099609375,-0.6680145263671875,0.38388827443122864,-0.6687439680099487
1773257353389533200,7.798533203125,-0.7498785257339478,0.2951248586177826,-0.5753802061080933
1773257353399546000,7.808546142578125,-0.7922640442848206,0.29473575949668884,-0.5640116930007935
1773257353409559300,7.818559326171875,-0.8065454959869385,0.3748633563518524,-0.611270010471344
1773257353419571200,7.8285712890625,-0.7519360780715942,0.4688399136066437,-0.6857437491416931
1773257353429584400,7.83858447265625,-0.5838884711265564,0.5404592156410217,-0.7906703948974609
1773257353439596300,7.84859619140625,-0.3173784911632538,0.44079363346099854,-0.8587887287139893
1773257353449609200,7.858609130859375,-0.003882888937368989,0.3436354100704193,-0.8264313340187073
1773257353459621000,7.86862109375,0.30000749230384827,0.29935580492019653,-0.7535811066627502
1773257353469634300,7.87863427734375,0.537818431854248,0.3453994691371918,-0.7276424765586853
1773257353479647200,7.888647216796875,0.632709801197052,0.46444544196128845,-0.7737023234367371
1773257353489659400,7.898659423828125,0.576894223690033,0.4786624610424042,-0.8544281125068665
1773257353499672000,7.908672119140625,0.4418916702270508,0.39613109827041626,-0.9071764945983887
1773257353509684200,7.918684326171875,0.29339805245399475,0.3004828691482544,-0.9013591408729553
1773257353519697200,7.928697265625,0.14155712723731995,0.22810187935829163,-0.8334605097770691
1773257353529709300,7.938709228515625,0.009789513424038887,0.14936845004558563,-0.7682532668113708
1773257353539722200,7.94872216796875,-0.06259334087371826,0.12714064121246338,-0.727073609828949
1773257353549735400,7.9587353515625,-0.10370589047670364,0.1990065723657608,-0.674467921257019
1773257353559747300,7.968747314453125,-0.13832218945026398,0.2547742426395416,-0.6121065616607666
1773257353569760300,7.97876025390625,-0.14437395334243774,0.25146710872650146,-0.5663238763809204
1773257353579772200,7.988772216796875,-0.11929789930582047,0.22171933948993683,-0.5179853439331055
1773257353589785300,7.998785400390625,-0.09739020466804504,0.17287324368953705,-0.4817514419555664
1773257353599798300,8.00879833984375,-0.11104635894298553,0.12095332145690918,-0.4350484013557434
1773257353609810200,8.01881005859375,-0.1598069816827774,0.08713410049676895,-0.3494935631752014
1773257353619823000,8.028822998046875,-0.1662699282169342,0.048279646784067154,-0.25027748942375183
1773257353629835000,8.0388349609375,-0.1223035380244255,0.061825018376111984,-0.1711328625679016
1773257353639848200,8.04884814453125,-0.05878368765115738,0.15224705636501312,-0.11728374660015106
1773257353649860000,8.058860107421875,-0.018520154058933258,0.18706762790679932,-0.08353137969970703
1773257353659873300,8.068873291015626,0.0028091021813452244,0.13776026666164398,-0.048703357577323914
1773257353669886200,8.07888623046875,0.010129333473742008,0.06564559042453766,0.002538258908316493
1773257353679898400,8.0888984375,0.011478756554424763,-0.038550056517124176,0.06652896106243134
1773257353689911000,8.0989111328125,0.04410301148891449,-0.1686697155237198,0.11661023646593094
1773257353699923200,8.108923095703124,0.11029055714607239,-0.3240795433521271,0.14392973482608795
1773257353709936000,8.11893603515625,0.2019893229007721,-0.4791586101055145,0.14876523613929749
1773257353719948300,8.1289482421875,0.2826085388660431,-0.5885447263717651,0.1544140726327896
1773257353729961200,8.138961181640624,0.3297608494758606,-0.6281598210334778,0.1791636347770691
1773257353739974100,8.14897412109375,0.345420777797699,-0.6179588437080383,0.23556937277317047
1773257353749986000,8.158986083984376,0.3816818594932556,-0.5802756547927856,0.3301624655723572
1773257353759999200,8.168999267578124,0.43760398030281067,-0.4691464602947235,0.4665043354034424
1773257353770011100,8.17901123046875,0.5133954286575317,-0.3741174042224884,0.6615414619445801
1773257353780024300,8.1890244140625,0.5693207383155823,-0.20932738482952118,0.8617587089538574
1773257353790037200,8.199037353515624,0.5357454419136047,-0.024478178471326828,0.9882593750953674
1773257353800049400,8.20904931640625,0.48599573969841003,-0.05465978384017944,1.013631820678711
1773257353810062000,8.21906201171875,0.4871440827846527,-0.011806858703494072,0.9623417854309082
1773257353820074200,8.22907421875,0.4615929126739502,0.05403393879532814,0.9125033617019653
1773257353830087200,8.239087158203125,0.4850386083126068,0.060204219073057175,0.9108762145042419
1773257353840099300,8.249099365234375,0.5788550972938538,0.15347664058208466,0.9632272720336914
1773257353850112300,8.2591123046875,0.6520541906356812,0.25585734844207764,1.0395089387893677
1773257353860125200,8.269125244140625,0.8399503231048584,-0.1935819834470749,1.2317143678665161
1773257353870137000,8.27913720703125,0.7724291086196899,-0.778178334236145,1.5448254346847534
1773257353880150300,8.289150390625,0.47549542784690857,-0.9132592082023621,1.7753829956054688
1773257353890162200,8.299162109375,0.4012206494808197,-0.8405138850212097,1.9216943979263306
1773257353900175400,8.30917529296875,0.26902639865875244,-0.9512454271316528,1.899320125579834
1773257353910187300,8.319187255859376,0.11660144478082657,-0.7715539932250977,1.9430391788482666
1773257353920200200,8.3292001953125,0.07132717967033386,-0.5905913710594177,2.214829444885254
1773257353930213000,8.339213134765625,-0.02647182159125805,-0.7852484583854675,2.544620990753174
1773257353940225000,8.34922509765625,-0.1903582215309143,-1.1145493984222412,2.7552616596221924
1773257353950238200,8.35923828125,-0.3765659034252167,-1.3624508380889893,2.793072462081909
1773257353960250000,8.36925,-0.4364822506904602,-1.5510284900665283,2.70267391204834
1773257353970263300,8.37926318359375,-0.4449894428253174,-1.569888710975647,2.558964729309082
1773257353980275700,8.389275634765625,0.04399142786860466,-1.5654321908950806,2.3456950187683105
1773257353990287600,8.39928759765625,0.7712642550468445,-0.3923802971839905,2.4441890716552734
1773257354000300500,8.409300537109376,1.1237690448760986,0.5140851736068726,2.33373761177063
1773257354010312400,8.4193125,1.3427826166152954,0.7613940238952637,2.2221920490264893
1773257354020325600,8.42932568359375,1.3643070459365845,0.5683196187019348,2.1175389289855957
1773257354030337500,8.439337646484375,1.132562279701233,-0.16399532556533813,2.082491397857666
1773257354040350700,8.449350830078124,0.7040247321128845,-0.8817926049232483,2.238584518432617
1773257354050362600,8.459362548828125,0.2525339722633362,-1.110764741897583,2.508634328842163
1773257354060375600,8.46937548828125,-0.0882803276181221,-1.070544719696045,2.786069869995117
1773257354070388500,8.479388427734374,-0.31070247292518616,-0.7898924946784973,3.00081467628479
1773257354080400400,8.489400390625,-0.4148842692375183,-0.31992581486701965,3.0629124641418457
1773257354090413600,8.49941357421875,-0.46399375796318054,0.15348462760448456,2.9977731704711914
1773257354100425500,8.509425537109376,-0.478266179561615,0.3601115643978119,2.872112989425659
1773257354110438700,8.519438720703125,-0.48670122027397156,0.3269059360027313,2.7383861541748047
1773257354120450600,8.529450439453125,-0.4800092279911041,0.17371612787246704,2.5833728313446045
1773257354130463500,8.53946337890625,-0.4692593812942505,-0.013441773131489754,2.4518213272094727
1773257354140476400,8.549476318359375,-0.42895880341529846,-0.1674124300479889,2.3835411071777344
1773257354150488600,8.559488525390625,-0.3476727604866028,-0.3231487572193146,2.3527848720550537
1773257354160501500,8.56950146484375,-0.2890549898147583,-0.5811137557029724,2.232377767562866
1773257354170513700,8.579513671875,-0.3361639082431793,-1.0428667068481445,1.925563931465149
1773257354180526600,8.589526611328125,-0.4107430577278137,-1.517136812210083,1.5319186449050903
1773257354190538800,8.599538818359376,-0.4109659790992737,-1.741060495376587,1.2374614477157593
1773257354200551400,8.609551513671875,-0.3186141848564148,-1.7422155141830444,1.0274461507797241
1773257354210564600,8.619564697265625,-0.09212300181388855,-1.6544560194015503,0.932547926902771
1773257354220576500,8.629576416015626,0.0757373720407486,-1.4431449174880981,0.8633238673210144
1773257354230589700,8.639589599609375,0.17195285856723785,-1.286785364151001,0.7375541925430298
1773257354240601600,8.6496015625,0.2856732904911041,-1.2195333242416382,0.6758266687393188
1773257354250614500,8.659614501953126,0.42749354243278503,-0.8779563307762146,0.7098717093467712
1773257354260626400,8.66962646484375,0.6105965375900269,-0.2916041612625122,0.8001350164413452
1773257354270639600,8.6796396484375,0.8070845603942871,0.2728200852870941,0.9197631478309631
1773257354280652500,8.689652587890626,0.9789878726005554,0.7417148351669312,1.0857532024383545
1773257354290664700,8.699664794921874,0.9501208066940308,0.9462669491767883,1.0194021463394165
1773257354300677600,8.709677734375,0.7555260062217712,0.6807755827903748,0.7238871455192566
1773257354310689500,8.719689453125,0.4847365915775299,0.10452241450548172,0.3011361360549927
1773257354320702500,8.729702392578124,0.18833501636981964,-0.45027077198028564,-0.21190506219863892
1773257354330714400,8.73971435546875,-0.06718063354492188,-0.8525247573852539,-0.6777108311653137
1773257354340727600,8.7497275390625,-0.1926054060459137,-1.1823071241378784,-0.9983988404273987
1773257354350740700,8.75974072265625,-0.20623013377189636,-1.3111798763275146,-1.2348555326461792
1773257354360752600,8.769752685546875,-0.126139298081398,-1.2819552421569824,-1.371665596961975
1773257354370765600,8.779765625,-0.06702324002981186,-1.1947840452194214,-1.3731859922409058
1773257354380777500,8.789777587890624,-0.08033452183008194,-1.2800228595733643,-1.2612563371658325
1773257354390790400,8.799790283203125,-0.015604525804519653,-1.5124810934066772,-1.2040878534317017
1773257354400802600,8.809802490234375,0.1701490879058838,-1.2358593940734863,-1.5409246683120728
1773257354410815500,8.8198154296875,0.514869749546051,-0.7487288117408752,-1.9399263858795166
1773257354420828700,8.82982861328125,0.8932433724403381,0.017665546387434006,-2.101372003555298
1773257354430840600,8.839840576171875,1.1794203519821167,0.6089032888412476,-2.1300952434539795
1773257354440853500,8.849853515625,1.3453868627548218,0.9575342535972595,-1.9699461460113525
1773257354450865400,8.859865478515625,1.4757616519927979,1.000559687614441,-1.8142025470733643
1773257354460878600,8.869878662109375,1.5905191898345947,1.0072286128997803,-1.6045033931732178
1773257354470890500,8.879890380859376,1.6257487535476685,1.0060189962387085,-1.3759876489639282
1773257354480903700,8.889903564453125,1.639074683189392,0.7314156293869019,-1.2092533111572266
1773257354490915600,8.89991552734375,1.625461459159851,0.4197826385498047,-1.079425573348999
1773257354500928800,8.9099287109375,1.6420127153396606,0.26960617303848267,-0.8817097544670105
1773257354510941400,8.91994140625,1.6888151168823242,0.24298201501369476,-0.7504734396934509
1773257354520953600,8.92995361328125,1.7999900579452515,0.21183529496192932,-0.6789617538452148
1773257354530966500,8.939966552734376,1.9577245712280273,0.23437228798866272,-0.664017915725708
1773257354540978700,8.949978759765624,2.1009042263031006,0.3535788357257843,-0.664160966873169
1773257354550991600,8.95999169921875,2.2029731273651123,0.5188338160514832,-0.6502728462219238
1773257354561003500,8.97000341796875,2.24788236618042,0.593779981136322,-0.5464931726455688
1773257354571016400,8.980016357421874,2.1735899448394775,0.4068412482738495,-0.2895071804523468
1773257354581028400,8.9900283203125,2.0658347606658936,0.06677423417568207,0.02147999219596386
1773257354591041500,9.00004150390625,1.93733811378479,-0.12074985355138779,0.39794445037841797
1773257354601054700,9.0100546875,1.7272772789001465,-0.2727265954017639,0.7608110308647156
1773257354611066600,9.020066650390625,1.3904070854187012,-0.2946217954158783,1.1853013038635254
1773257354621079600,9.03007958984375,1.0656218528747559,-0.20854414999485016,1.680777907371521
1773257354631091700,9.040091796875,0.7740991711616516,-0.2205187976360321,2.2042033672332764
1773257354641104400,9.0501044921875,0.5462417602539062,-0.36862942576408386,2.758066177368164
1773257354651116500,9.060116455078125,0.3332517445087433,-0.7523763179779053,3.1346404552459717
1773257354661129500,9.07012939453125,0.22412417829036713,-1.1508184671401978,3.347992420196533
1773257354671141600,9.0801416015625,0.1326397955417633,-2.927699327468872,2.449909210205078
1773257354681154600,9.090154541015625,0.04427452012896538,-2.4514687061309814,1.7101006507873535
1773257354691167500,9.10016748046875,0.004545216914266348,-0.5574659109115601,0.9694958329200745
1773257354701179400,9.110179443359375,0.034630682319402695,0.8340104222297668,0.19630666077136993
1773257354711192600,9.120192626953125,0.003967311233282089,1.1636202335357666,0.07654723525047302
1773257354721204500,9.13020458984375,-0.004959338344633579,1.1292321681976318,0.38445791602134705
1773257354731217700,9.1402177734375,0.049434129148721695,0.8803190588951111,0.86545729637146
1773257354741229600,9.1502294921875,0.07900826632976532,0.5997896790504456,1.2456462383270264
1773257354751242800,9.16024267578125,-0.0010370349045842886,-0.059787165373563766,1.0356059074401855
1773257354761254700,9.170254638671874,-0.2525864541530609,-0.7570466995239258,0.2627328336238861
1773257354771267600,9.180267578125,-0.4141415059566498,-0.9042518138885498,0.34238824248313904
1773257354781280500,9.190280517578126,-0.6118447184562683,-1.0183453559875488,0.6920927166938782
1773257354791292700,9.200292724609374,-0.8110601305961609,-1.0437452793121338,0.7298702001571655
1773257354801305600,9.2103056640625,-0.9467899799346924,-0.8673036694526672,0.648020327091217
1773257354811317500,9.2203173828125,-1.0497318506240845,-0.6329966187477112,0.7220050692558289
1773257354821330400,9.230330322265624,-1.1052459478378296,-0.5734145045280457,0.8576947450637817
1773257354831342300,9.24034228515625,-1.1155129671096802,-0.6468054056167603,0.7857747077941895
1773257354841355500,9.25035546875,-1.0780673027038574,-0.7404711842536926,0.6810193061828613
1773257354851367400,9.260367431640624,-1.0195260047912598,-0.7814508080482483,0.585037350654602
1773257354861380600,9.270380615234375,-0.9631739854812622,-0.6845876574516296,0.5104952454566956
1773257354871392500,9.280392578125,-0.9219703674316406,-0.4505804777145386,0.45416030287742615
1773257354881405700,9.29040576171875,-0.7472478151321411,-0.21100011467933655,0.2996024191379547
1773257354891417600,9.30041748046875,-0.47476863861083984,-0.033907365053892136,0.28926029801368713
1773257354901430500,9.310430419921875,-0.188568577170372,-0.1354566216468811,0.25354546308517456
1773257354911443500,9.320443359375,0.007870440371334553,-0.381992369890213,0.15482260286808014
1773257354921455600,9.33045556640625,0.024351146072149277,-0.5779837369918823,0.1628323197364807
1773257354931468500,9.340468505859375,-0.07364066690206528,-0.6580005288124084,0.216436967253685
1773257354941480700,9.350480712890626,-0.1016150414943695,-0.6068499684333801,0.23067155480384827
1773257354951493400,9.360493408203125,-0.07445959001779556,-0.7257092595100403,0.2095194011926651
1773257354961505500,9.370505615234375,-0.052198756486177444,-1.0097593069076538,0.2019863873720169
1773257354971518500,9.3805185546875,-0.053592655807733536,-1.3643336296081543,0.3312016427516937
1773257354981531000,9.39053076171875,-0.04132267087697983,-1.5061155557632446,0.5487523078918457
1773257354991543800,9.400543701171875,-0.06471135467290878,-1.5821845531463623,0.6288402676582336
1773257355001556000,9.410555908203126,-0.14485865831375122,-1.5346524715423584,0.5562536716461182
1773257355011569000,9.42056884765625,-0.27422383427619934,-1.2536628246307373,0.49892324209213257
1773257355021581800,9.430581787109375,-0.3875245451927185,-0.8310271501541138,0.35699567198753357
1773257355031593700,9.44059375,-0.45077595114707947,-0.40007176995277405,0.17333637177944183
1773257355041607000,9.45060693359375,-0.5092150568962097,-0.14166899025440216,0.016624249517917633
1773257355051618800,9.460618896484375,-0.5398104786872864,-0.019992083311080933,-0.09857664257287979
1773257355061632000,9.470632080078126,-0.5417607426643372,-0.0024253407027572393,-0.15910762548446655
1773257355071644000,9.480643798828124,-0.5297293663024902,-0.13533759117126465,-0.1246977224946022
1773257355081656800,9.49065673828125,-0.5206685066223145,-0.39804378151893616,-0.0192506592720747
1773257355091668700,9.500668701171875,-0.496942937374115,-0.7141322493553162,0.06571482867002487
1773257355101682000,9.510681884765624,-0.4746434688568115,-1.1231203079223633,0.18882158398628235
1773257355111693800,9.52069384765625,-0.39113500714302063,-1.4139773845672607,0.29499223828315735
1773257355121707000,9.53070703125,-0.3516208827495575,-1.2231999635696411,0.22868165373802185
1773257355131719000,9.540718994140626,-0.33462193608283997,-1.0428704023361206,0.17075122892856598
1773257355141731800,9.55073193359375,-0.3289254307746887,-0.8482626080513,-0.010584467090666294
1773257355151744800,9.560744873046875,-0.3170194923877716,-0.7254261374473572,-0.19690267741680145
1773257355161756700,9.570756591796876,-0.3944317400455475,-0.5373848676681519,-0.38525980710983276
1773257355171769900,9.580769775390625,-0.4801391661167145,-0.27826252579689026,-0.6228595972061157
1773257355181781800,9.59078173828125,-0.6294453144073486,0.005314870737493038,-0.6947132349014282
1773257355191795000,9.600794921875,-0.6085141897201538,0.2375558316707611,-0.7304345369338989
1773257355201806800,9.610806884765625,-0.5166681408882141,0.5290111303329468,-0.6977468729019165
1773257355211819800,9.62081982421875,-0.3511987626552582,0.5424728393554688,-0.5938572287559509
1773257355221831700,9.630831787109376,-0.21625401079654694,0.4809274673461914,-0.49229997396469116
1773257355231844900,9.640844970703125,-0.1926426887512207,0.5749748945236206,-0.4121348261833191
1773257355241856800,9.650856689453125,-0.1701541543006897,0.7583532333374023,-0.40922558307647705
1773257355251870000,9.660869873046876,-0.13368536531925201,0.9034299850463867,-0.43648117780685425
1773257355261883000,9.6708828125,-0.17750954627990723,0.9756913781166077,-0.49828702211380005
1773257355271895000,9.68089501953125,-0.2680370509624481,1.0113455057144165,-0.5790016055107117
1773257355281907700,9.69090771484375,-0.3732505440711975,1.0917013883590698,-0.5198924541473389
1773257355291920000,9.700919921875,-0.4525696039199829,1.106658697128296,-0.34235334396362305
1773257355301932800,9.710932861328125,-0.44573327898979187,0.93629390001297,-0.1791931837797165
1773257355311945000,9.720945068359375,-0.3123618960380554,0.4657037854194641,-0.11487758159637451
1773257355321958000,9.7309580078125,-0.10252904146909714,-0.32748597860336304,-0.2237587869167328
1773257355331969800,9.7409697265625,0.00968511775135994,-1.235669493675232,-0.06479444354772568
1773257355341982700,9.750982666015625,-0.07017002999782562,-1.9849159717559814,0.003206978552043438
1773257355351996000,9.760995849609374,-0.11007697135210037,-2.4696648120880127,0.08356067538261414
1773257355362007800,9.7710078125,-0.14951571822166443,-2.3530383110046387,0.4322611391544342
1773257355372021000,9.78102099609375,-0.1950821429491043,-2.5491528511047363,0.4251883029937744
1773257355382033000,9.791032958984376,-0.2519909739494324,-2.461656332015991,0.677680492401123
1773257355392045800,9.8010458984375,-0.12924213707447052,-1.9176900386810303,1.0497472286224365
1773257355402058000,9.81105810546875,-0.06535530090332031,-1.576456069946289,1.2217386960983276
1773257355412070700,9.821070556640626,0.10915285348892212,-2.1206462383270264,0.7344313859939575
1773257355422082800,9.831082763671875,0.3806259036064148,-2.5481629371643066,0.13347816467285156
1773257355432095700,9.841095703125,0.321842223405838,-1.9370499849319458,-0.050646133720874786
1773257355442109000,9.85110888671875,0.17202208936214447,-0.7381629943847656,0.019694875925779343
1773257355452120800,9.861120849609375,0.14601846039295197,0.3411405384540558,0.0023334617726504803
1773257355462133800,9.8711337890625,0.2609002888202667,0.7041571140289307,-0.015004515647888184
1773257355472146000,9.88114599609375,0.43743592500686646,0.22989551723003387,-0.192902609705925
1773257355482158800,9.891158935546875,0.6345545649528503,-0.7887274026870728,-0.21460764110088348
1773257355492170800,9.901170654296875,0.8702709674835205,-1.684522032737732,-0.18119482696056366
1773257355502184000,9.911183837890626,0.9498081207275391,-2.1357908248901367,-0.057138919830322266
1773257355512195800,9.92119580078125,0.9997043013572693,-2.1812541484832764,0.21908681094646454
1773257355522209000,9.931208984375,1.0167996883392334,-2.0149457454681396,0.42246896028518677
1773257355532221700,9.9412216796875,0.7421138286590576,-1.8174114227294922,0.20725251734256744
1773257355542233900,9.95123388671875,0.36809971928596497,-1.311359167098999,-0.1545666754245758
1773257355552246800,9.961246826171875,0.07205608487129211,-0.07034660130739212,0.08595885336399078
1773257355562259000,9.971259033203125,0.09785012900829315,0.43156763911247253,0.13426299393177032
1773257355572271900,9.98127197265625,0.18493176996707916,0.11219977587461472,0.010446249507367611
1773257355582283800,9.99128369140625,0.31232622265815735,-0.5101034641265869,-0.12507829070091248
1773257355592297000,10.001296875,0.399479478597641,-0.6404460072517395,-0.12923841178417206
1773257355602310000,10.011309814453124,0.3466644883155823,0.019207250326871872,0.08233988285064697
1773257355612321800,10.02132177734375,0.35281479358673096,0.29777923226356506,0.03747253865003586
1773257355622335000,10.0313349609375,0.350309282541275,0.16831764578819275,-0.04267475754022598
1773257355632347000,10.041346923828126,0.3958056569099426,-0.03936977684497833,-0.17384690046310425
1773257355642359800,10.05135986328125,0.4232926666736603,-0.30437880754470825,-0.31363993883132935
1773257355652372000,10.0613720703125,0.41974136233329773,-0.2693009674549103,-0.3866015076637268
1773257355662384600,10.071384521484376,0.4009855091571808,-0.07607106864452362,-0.37843331694602966
1773257355672397800,10.081397705078125,0.4103206694126129,-0.14014992117881775,-0.41918447613716125
1773257355682409700,10.09140966796875,0.45888447761535645,-0.37704741954803467,-0.5270475745201111
1773257355692423000,10.1014228515625,0.49979597330093384,-0.5797693729400635,-0.6702888607978821
1773257355702434800,10.111434814453125,0.5295357704162598,-0.6899318099021912,-0.8579397201538086
1773257355712448000,10.121447998046875,0.5618478655815125,-0.6152740716934204,-0.9839804768562317
1773257355722460700,10.131460693359376,0.6526944637298584,-0.5467264652252197,-1.1442433595657349
1773257355732472800,10.141472900390625,0.788119375705719,-0.6332150101661682,-1.2747803926467896
1773257355742485800,10.15148583984375,0.8576982021331787,-0.660354495048523,-1.1286588907241821
1773257355752498000,10.161497802734376,0.814940333366394,-0.531542181968689,-0.9725462198257446
1773257355762510800,10.1715107421875,0.7058919072151184,-0.3608066737651825,-0.9432690143585205
1773257355772523000,10.18152294921875,0.6391778588294983,-0.3157992362976074,-0.979621410369873
1773257355782535700,10.19153564453125,0.6329169869422913,-0.47281068563461304,-1.0658713579177856
1773257355792548900,10.201548828125,0.6169529557228088,-0.7414522767066956,-1.1751056909561157
1773257355802560800,10.211560791015625,0.5343414545059204,-0.9188656806945801,-1.124870777130127
1773257355812574000,10.221573974609376,0.47809547185897827,-0.588627815246582,-0.9900050759315491
1773257355822585900,10.2315859375,0.42672601342201233,-0.3563581109046936,-0.7859305143356323
1773257355832599000,10.24159912109375,0.39303329586982727,-0.17132407426834106,-0.5222355127334595
1773257355842611700,10.25161181640625,0.3006809949874878,0.17146922647953033,-0.25635668635368347
1773257355852624000,10.261623779296874,0.18727321922779083,0.6643785238265991,-0.07718533277511597
1773257355862636800,10.27163671875,0.13686038553714752,0.9500912427902222,0.12095784395933151
1773257355872649000,10.28164892578125,0.15262523293495178,1.0649968385696411,0.3187819719314575
1773257355882662000,10.291661865234374,0.13880901038646698,0.9762948751449585,0.4294504225254059
1773257355892674800,10.3016748046875,0.09936387091875076,0.9360148310661316,0.4731164276599884
1773257355902686700,10.311686767578125,-0.009069927968084812,0.9873225092887878,0.4355629086494446
1773257355912700000,10.321699951171874,-0.059299010783433914,0.8759272694587708,0.21458978950977325
1773257355922711800,10.3317119140625,-0.052874401211738586,0.29080599546432495,0.037454165518283844
1773257355932725000,10.34172509765625,-0.10416395217180252,-0.2076149731874466,0.04581595957279205
1773257355942738000,10.351738037109374,-0.14817748963832855,-0.33616629242897034,0.11512605845928192
1773257355952750000,10.36175,-0.1653125286102295,-0.3219596743583679,0.1746618151664734
1773257355962762800,10.3717626953125,-0.18042036890983582,-0.39165884256362915,0.151397243142128
1773257355972774700,10.381774658203126,-0.22801905870437622,-0.4966355860233307,0.12510065734386444
1773257355982787600,10.39178759765625,-0.2995592951774597,-0.544026792049408,0.08794397115707397
1773257355992800500,10.401800537109375,-0.3351777195930481,-0.5480242371559143,0.03700568899512291
1773257356002812700,10.411812744140626,-0.32858774065971375,-0.5088635087013245,0.020551614463329315
1773257356012825600,10.42182568359375,-0.2729322016239166,-0.3724806308746338,0.0768846645951271
1773257356022837800,10.431837646484375,-0.24504916369915009,-0.15500876307487488,0.18233118951320648
1773257356032850400,10.441850341796876,-0.20680378377437592,0.02473117969930172,0.3143792450428009
1773257356042863600,10.451863525390625,-0.24636796116828918,0.18742288649082184,0.43953821063041687
1773257356052875500,10.46187548828125,-0.36562058329582214,0.4004054665565491,0.5516514182090759
1773257356062888700,10.471888671875,-0.4634970724582672,0.6574993133544922,0.5977782011032104
1773257356072900600,10.481900634765625,-0.5842434763908386,0.8085455298423767,0.5782886743545532
1773257356082913500,10.49191357421875,-0.5932776927947998,0.7668247222900391,0.42318961024284363
1773257356092926500,10.501926513671876,-0.620150625705719,0.47823449969291687,0.28977110981941223
1773257356102938600,10.511938720703125,-0.6067684888839722,0.1395871937274933,0.20273074507713318
1773257356112951600,10.52195166015625,-0.5588923096656799,-0.18530993163585663,0.1268162727355957
1773257356122964700,10.53196484375,-0.5117951035499573,-0.3298591375350952,0.059894759207963943
1773257356132976600,10.5419765625,-0.4376748204231262,-0.33976075053215027,0.028801288455724716
1773257356142989600,10.551989501953125,-0.36119335889816284,-0.28085857629776,0.022353775799274445
1773257356153001500,10.56200146484375,-0.2903713881969452,-0.22544723749160767,-0.04050641506910324
1773257356163014700,10.5720146484375,-0.2217201441526413,-0.2373073548078537,-0.1145862340927124
1773257356173027600,10.582027587890625,-0.18176260590553284,-0.2931266725063324,-0.1635521799325943
1773257356183039700,10.592039794921876,-0.1562465876340866,-0.3718249499797821,-0.19685368239879608
1773257356193052400,10.602052490234374,-0.15142227709293365,-0.43803781270980835,-0.281270831823349
1773257356203065600,10.612065673828125,-0.2014625370502472,-0.5804580450057983,-0.3832816183567047
1773257356213077500,10.622077392578126,-0.24881966412067413,-0.7386322617530823,-0.5163901448249817
1773257356223090700,10.632090576171874,-0.30684995651245117,-0.8466300964355469,-0.6338909268379211
1773257356233102600,10.6421025390625,-0.3986605703830719,-0.8675590753555298,-0.709214985370636
1773257356243115800,10.65211572265625,-0.5588880777359009,-1.0843616724014282,-0.8852978348731995
1773257356253128400,10.66212841796875,-0.8351268172264099,-1.57131028175354,-0.7964023351669312
1773257356263140400,10.672140380859375,-0.9732639193534851,-1.414992332458496,-0.5529313683509827
1773257356273153500,10.682153564453126,-1.1265573501586914,-0.5180335640907288,-0.5950921177864075
1773257356283166700,10.692166748046875,-1.2219212055206299,0.24847319722175598,-0.9957618117332458
1773257356293178600,10.7021787109375,-1.2639333009719849,0.07709984481334686,-0.9555025100708008
1773257356303191600,10.712191650390626,-1.191667079925537,-0.43500685691833496,-0.8360528349876404
1773257356313203500,10.722203369140624,-1.0563061237335205,-0.7677624225616455,-0.700181245803833
1773257356323216600,10.732216552734375,-1.0094456672668457,-0.8190599679946899,-0.5024316906929016
1773257356333229600,10.7422294921875,-0.8362669348716736,-0.49055585265159607,-0.406578928232193
1773257356343241500,10.752241455078124,-0.6879823803901672,0.12239169329404831,-0.4634115993976593
1773257356353254700,10.762254638671875,-0.5104720592498779,0.7038761377334595,-0.5422776341438293
1773257356363267600,10.772267578125,-0.4326068162918091,0.8947965502738953,-0.5851523876190186
1773257356373279500,10.782279541015624,-0.37422260642051697,0.5796444416046143,-0.5697007775306702
1773257356383292700,10.792292724609375,-0.331630676984787,0.0193095151335001,-0.5596560835838318
1773257356393305600,10.8023056640625,-0.29425400495529175,-0.4839235246181488,-0.5354468822479248
1773257356403317500,10.8123173828125,-0.19674235582351685,-0.855664074420929,-0.4344228208065033
1773257356413330400,10.822330322265625,-0.11064821481704712,-1.0493022203445435,-0.312654048204422
1773257356423343600,10.832343505859376,-0.017239440232515335,-1.015647053718567,-0.210011288523674
1773257356433355500,10.84235546875,0.04671584069728851,-0.8933733701705933,-0.16139528155326843
1773257356443368700,10.85236865234375,0.06563813239336014,-0.7355813384056091,-0.16839034855365753
1773257356453380600,10.862380615234375,0.056705355644226074,-0.6189221143722534,-0.14569196105003357
1773257356463393500,10.8723935546875,0.0759834498167038,-0.543798565864563,-0.0769839957356453
1773257356473406500,10.882406494140625,0.13793310523033142,-0.6166589260101318,-0.03808240592479706
1773257356483418400,10.89241845703125,0.21342359483242035,-0.6782482862472534,-0.08441421389579773
1773257356493431600,10.902431640625,0.33870720863342285,-0.15682344138622284,-0.4869214594364166
1773257356503444700,10.91244482421875,0.058404188603162766,-0.14101864397525787,-0.21961943805217743
1773257356513456600,10.92245654296875,-0.3793904781341553,-0.018629344180226326,-0.19876210391521454
1773257356523469600,10.932469482421874,-0.49201396107673645,-0.05588776618242264,-0.2929384112358093
1773257356533482500,10.942482421875,-0.541559636592865,-0.28127509355545044,-0.3371410071849823
1773257356543494400,10.952494384765625,-0.5366679430007935,-0.5075846314430237,-0.2665635049343109
1773257356553507600,10.962507568359374,-0.4569222629070282,-0.7495304346084595,-0.18865247070789337
1773257356563520800,10.972520751953125,-0.36053261160850525,-0.9563890695571899,-0.17747251689434052
1773257356573532700,10.98253271484375,-0.34355708956718445,-1.008010745048523,-0.2026098370552063
1773257356583545300,10.99254541015625,-0.39567461609840393,-0.8707852363586426,-0.20474249124526978
1773257356593557500,11.0025576171875,-0.44501927495002747,-0.7444360852241516,-0.13031113147735596
1773257356603570400,11.0125703125,-0.4534178078174591,-0.7246503829956055,-0.006160690449178219
1773257356613583600,11.02258349609375,-0.4621894657611847,-0.8180021643638611,0.13900236785411835
1773257356623595500,11.032595458984375,-0.5082139372825623,-0.822331964969635,0.30609574913978577
1773257356633608700,11.042608642578125,-0.5483328700065613,-0.7365584373474121,0.4070442020893097
1773257356643621400,11.052621337890624,-0.576216995716095,-0.695533275604248,0.49550187587738037
1773257356653633500,11.062633544921875,-0.5788875818252563,-0.8076313138008118,0.5395849347114563
1773257356663646500,11.072646484375,-0.5278893709182739,-1.0490792989730835,0.5142564177513123
1773257356673659600,11.08265966796875,-0.42358773946762085,-1.1462258100509644,0.37297382950782776
1773257356683671600,11.092671630859375,-0.28168413043022156,-1.1869179010391235,0.14358726143836975
1773257356693684500,11.1026845703125,-0.014092649333178997,-0.9114455580711365,-0.19802413880825043
1773257356703697400,11.112697509765624,-0.1638195663690567,-0.9714915752410889,-0.06925257295370102
1773257356713709600,11.12270947265625,-0.2686607539653778,-1.0517957210540771,0.1065613329410553
1773257356723722500,11.132722412109375,-0.25858041644096375,-1.0042871236801147,0.18848443031311035
1773257356733735700,11.142735595703124,-0.33169084787368774,-1.1357617378234863,0.1615353673696518
1773257356743747600,11.15274755859375,-0.39891383051872253,-1.4406068325042725,0.12356001883745193
1773257356753760500,11.162760498046875,-0.37740641832351685,-1.7215980291366577,0.01318051666021347
1773257356763773400,11.1727734375,-0.2865944802761078,-2.306345224380493,-0.1035921722650528
1773257356773785600,11.18278564453125,-0.2885391116142273,-3.0645790100097656,-0.14029745757579803
1773257356783798500,11.192798583984375,-0.3562270998954773,-3.5498032569885254,-0.28992608189582825
1773257356793810700,11.202810791015626,-0.389501690864563,-3.9798638820648193,-0.5263974666595459
1773257356803823400,11.2128232421875,-0.46484145522117615,-4.5023345947265625,-0.5208836793899536
1773257356813836500,11.22283642578125,-0.5996277332305908,-4.774357318878174,-0.49725690484046936
1773257356823848400,11.232848388671876,-0.7153517007827759,-4.043426990509033,-0.46070635318756104
1773257356833861600,11.242861572265625,-0.789467990398407,-2.643524408340454,-0.3208041191101074
1773257356843874600,11.25287451171875,-0.8874558210372925,-1.758085012435913,-0.11649305373430252
1773257356853886700,11.26288671875,-0.9316301941871643,-0.9511394500732422,-0.18010638654232025
1773257356863899400,11.2728994140625,-0.7694564461708069,-0.28683948516845703,-0.2934989929199219
1773257356873912600,11.28291259765625,-0.6204766035079956,-0.05953283607959747,-0.35679301619529724
1773257356883924500,11.292924560546876,-0.41531676054000854,-0.15263667702674866,-0.3640733063220978
1773257356893937700,11.302937744140625,-0.18797948956489563,0.12228996306657791,-0.31103163957595825
1773257356903950300,11.312950439453125,-0.028904618695378304,0.2074250876903534,-0.19475696980953217
1773257356913962500,11.32296240234375,0.12677311897277832,0.30736368894577026,-0.13052764534950256
1773257356923975400,11.332975341796875,0.22485041618347168,0.5501126646995544,-0.11856099963188171
1773257356933988600,11.342988525390625,0.24517939984798431,0.4468318223953247,-0.1634882688522339
1773257356944000500,11.35300048828125,0.24998639523983002,0.35167840123176575,-0.1644347459077835
1773257356954013700,11.363013671875,0.1983756721019745,-0.13782231509685516,-0.04452778771519661
1773257356964026400,11.3730263671875,0.11562060564756393,-0.5384957194328308,0.07667054235935211
1773257356974038500,11.38303857421875,0.047685496509075165,-0.5785160660743713,0.22038589417934418
1773257356984052000,11.393052001953125,0.03576359152793884,-0.4489911198616028,0.3701311945915222
1773257356994064100,11.403064208984375,0.03321760892868042,-0.3689687252044678,0.4528827965259552
1773257357004077000,11.4130771484375,0.03406688943505287,-0.3527261018753052,0.4376247525215149
1773257357014090000,11.423090087890625,0.010365023277699947,-0.31702110171318054,0.4167468845844269
1773257357024102000,11.433101806640625,-0.0016229304019361734,-0.3769744336605072,0.41970327496528625
1773257357034115000,11.443114990234376,-0.0008862999966368079,-0.4812347888946533,0.46003684401512146
1773257357044128000,11.4531279296875,-0.006783337332308292,-0.5129738450050354,0.4744139015674591
1773257357054140200,11.46314013671875,0.01242124941200018,-0.4000805616378784,0.41798287630081177
1773257357064152800,11.47315283203125,0.04789721965789795,-0.19688349962234497,0.3735187351703644
1773257357074166000,11.483166015625,0.09887651354074478,-0.14798760414123535,0.27477988600730896
1773257357084178000,11.493177978515625,0.14989735186100006,-0.46530961990356445,0.1056009978055954
1773257357094191000,11.503191162109376,0.17046494781970978,-0.8559706211090088,0.036561205983161926
1773257357104204000,11.5132041015625,0.2029198259115219,-1.1266529560089111,-0.00495188171043992
1773257357114216200,11.52321630859375,0.2369888424873352,-1.2040308713912964,-0.08854690939188004
1773257357124228900,11.533228759765626,0.22776764631271362,-1.3120723962783813,-0.21134179830551147
1773257357134242000,11.543241943359375,0.1632688194513321,-1.1910505294799805,0.06825335323810577
1773257357144254000,11.55325390625,0.17582908272743225,-0.6915345191955566,0.18676215410232544
1773257357154267100,11.56326708984375,0.19581903517246246,-0.24812352657318115,0.21342067420482635
1773257357164280000,11.573280029296875,0.19407014548778534,-0.027811923995614052,0.24768836796283722
1773257357174292000,11.5832919921875,0.19707338511943817,0.04382231459021568,0.2640766501426697
1773257357184305000,11.593304931640626,0.17385941743850708,0.051656801253557205,0.2645280659198761
1773257357194318000,11.603318115234375,0.12389770895242691,0.033664751797914505,0.2743884027004242
1773257357204330000,11.613330078125,0.07538450509309769,0.0663827508687973,0.3113674819469452
1773257357214343200,11.62334326171875,0.0381561741232872,0.10655174404382706,0.33974984288215637
1773257357224355800,11.63335595703125,0.014786935411393642,0.14609675109386444,0.3435978591442108
1773257357234368000,11.643367919921875,-0.001395230065099895,0.17964886128902435,0.3284441828727722
1773257357244381000,11.653380859375,-0.005815278738737106,0.1636190265417099,0.3334362804889679
1773257357254394000,11.66339404296875,-0.0017006946727633476,0.27127596735954285,0.3455560803413391
1773257357264406000,11.673406005859375,0.04409422352910042,0.23384392261505127,0.3347279131412506
1773257357274419000,11.6834189453125,0.0875151976943016,0.11591914296150208,0.3067791163921356
1773257357284431000,11.69343115234375,0.12918248772621155,0.07470139861106873,0.2499757558107376
1773257357294444000,11.703444091796875,0.1810062676668167,0.0439797081053257,0.17513932287693024
1773257357304457000,11.71345703125,0.22690877318382263,0.1031053438782692,0.10600100457668304
1773257357314468900,11.72346875,0.28284183144569397,0.14475318789482117,0.07980242371559143
1773257357324482000,11.73348193359375,0.3229040205478668,0.1171489953994751,0.06317231059074402
1773257357334495000,11.743494873046876,0.3491382896900177,0.058885153383016586,0.033423203974962234
1773257357344507000,11.7535068359375,0.39667224884033203,-0.2914677858352661,-0.0075844163075089455
1773257357354520000,11.76352001953125,0.4271838068962097,-0.29555201530456543,-0.0013406352372840047
1773257357364533000,11.773532958984376,0.42284926772117615,-0.26133254170417786,0.04039083421230316
1773257357374545000,11.783544921875,0.3726974129676819,-0.11696577072143555,0.13007117807865143
1773257357384558000,11.79355810546875,0.30385681986808777,-0.08163706958293915,0.20508044958114624
1773257357394571000,11.803571044921876,0.2567044794559479,-0.16243258118629456,0.2488870471715927
1773257357404583000,11.8135830078125,0.2343166321516037,-0.12797234952449799,0.2832556664943695
1773257357414596000,11.82359619140625,0.2439492791891098,0.0031166973058134317,0.30899274349212646
1773257357424609000,11.833609130859376,0.2429599165916443,0.0553777702152729,0.3368416726589203
1773257357434621000,11.843620849609374,0.22797511518001556,0.032341960817575455,0.37732571363449097
1773257357444633900,11.8536337890625,0.14681634306907654,0.08802466094493866,0.48588308691978455
1773257357454647000,11.86364697265625,0.025971146300435066,0.19181843101978302,0.6787129640579224
1773257357464659000,11.873658935546874,-0.04457226023077965,0.17310599982738495,0.884276807308197
1773257357474672000,11.883672119140625,-0.056053414940834045,0.14357979595661163,1.0879313945770264
1773257357484685000,11.89368505859375,-0.06349349021911621,0.0622846782207489,1.201522946357727
1773257357494697200,11.903697265625,-0.0619877353310585,0.000844754686113447,1.2109140157699585
1773257357504710000,11.9137099609375,-0.060383714735507965,-0.06581097096204758,1.2764581441879272
1773257357514723000,11.92372314453125,-0.05853894352912903,-0.15282683074474335,1.3899035453796387
1773257357524735000,11.93373486328125,-0.04939178377389908,-0.44867953658103943,1.4843131303787231
1773257357534748200,11.943748046875,-0.026741066947579384,-0.8719428777694702,1.5068442821502686
1773257357544760000,11.953760009765626,0.0035931370221078396,-1.1550867557525635,1.6130625009536743
1773257357554773000,11.96377294921875,0.05186133459210396,-1.2192492485046387,1.6713205575942993
1773257357564786000,11.973785888671875,0.10934406518936157,-1.184273362159729,1.7204574346542358
1773257357574797800,11.9837978515625,0.19289062917232513,-1.188907504081726,1.7885262966156006
1773257357584811000,11.99381103515625,0.3445592522621155,-1.218478798866272,1.9009127616882324
1773257357594824200,12.00382421875,0.5471299290657043,-1.1426132917404175,2.1027538776397705
1773257357604836000,12.013836181640626,0.783706784248352,-1.1006724834442139,2.2586514949798584
1773257357614849000,12.02384912109375,1.0622612237930298,-1.1713978052139282,2.4468061923980713
1773257357624862000,12.033862060546875,1.1964584589004517,-1.462534785270691,2.696852445602417
1773257357634873900,12.043873779296876,1.3650774955749512,-1.4717589616775513,2.740549087524414
1773257357644887000,12.053886962890624,1.5154491662979126,-1.7307745218276978,2.949352979660034
1773257357654900000,12.06389990234375,1.5943669080734253,-1.735608458518982,2.896106243133545
1773257357664912000,12.073911865234376,1.600822925567627,-1.4920055866241455,2.64961314201355
1773257357674925000,12.083925048828124,1.5788049697875977,-1.592529296875,2.540649652481079
1773257357684938000,12.09393798828125,1.5389254093170166,-2.006434440612793,2.7158122062683105
1773257357694950000,12.103949951171876,1.4247794151306152,-2.3140547275543213,3.0033605098724365
1773257357704963000,12.113963134765624,1.2159380912780762,-2.2022275924682617,3.135988712310791
1773257357714976000,12.12397607421875,0.9645311832427979,-1.8632638454437256,3.1396007537841797
1773257357724988000,12.13398779296875,0.7279598712921143,-1.5829137563705444,3.1209983825683594
1773257357735001000,12.1440009765625,0.5143213868141174,-1.1393543481826782,3.069334030151367
1773257357745014000,12.154013916015625,0.3301968276500702,-0.731112003326416,3.0192465782165527
1773257357755026000,12.16402587890625,0.22823050618171692,-0.2008659988641739,2.8256382942199707
1773257357765038800,12.174038818359374,0.24231649935245514,0.16780337691307068,2.7011678218841553
1773257357775050800,12.18405078125,0.3091767430305481,0.011658786796033382,2.8460192680358887
1773257357785064000,12.19406396484375,0.37142735719680786,-0.3685780167579651,2.999999761581421
1773257357795077000,12.2040771484375,0.38844335079193115,-0.6010158061981201,3.055375099182129
1773257357805089000,12.214089111328125,0.3884023427963257,-0.5093228816986084,3.0454936027526855
1773257357815102000,12.22410205078125,0.4111364185810089,-0.3073849678039551,3.045199155807495
1773257357825115000,12.234114990234374,0.403694212436676,-0.24989691376686096,3.073936939239502
1773257357835126800,12.244126708984375,0.3810080587863922,-0.40264466404914856,3.1161231994628906
1773257357845140000,12.254139892578126,0.3797838091850281,-0.6273190379142761,3.1953747272491455
1773257357855153200,12.264153076171874,0.38856932520866394,-0.7519392371177673,3.3003735542297363
1773257357865165000,12.2741650390625,0.4411880373954773,-0.7580232620239258,3.4085893630981445
1773257357875178000,12.284177978515626,0.5285655856132507,-0.6189271807670593,3.4470887184143066
1773257357885191000,12.29419091796875,0.6372302770614624,-0.37807273864746094,3.4212963581085205
1773257357895202800,12.304202880859375,0.7706000208854675,-0.050272759050130844,3.342446804046631
1773257357905216000,12.314216064453126,0.9428167939186096,0.347215473651886,3.1853904724121094
1773257357915228000,12.324227783203124,1.109991431236267,0.5258201360702515,3.0050618648529053
1773257357925241000,12.334240966796875,1.2911345958709717,0.41751334071159363,2.8025412559509277
1773257357935253800,12.344253662109375,1.456679105758667,0.17751087248325348,2.5878405570983887
1773257357945266000,12.354265869140624,1.6308274269104004,-0.0572369247674942,2.338167905807495
1773257357955278800,12.36427880859375,1.7948112487792969,-0.15212349593639374,2.05251145362854
1773257357965292000,12.3742919921875,1.9446367025375366,-0.21404491364955902,1.7669594287872314
1773257357975304000,12.384303955078124,2.0969924926757812,-0.3356775939464569,1.5102198123931885
1773257357985316400,12.39431640625,2.247375249862671,-0.5012029409408569,1.3066232204437256
1773257357995329300,12.404329345703125,2.376197576522827,-0.4289811849594116,1.144991159439087
1773257358005341200,12.414341064453126,2.531557559967041,0.04206569492816925,0.9707390069961548
1773257358015354400,12.424354248046875,2.6719090938568115,0.5837063193321228,0.7577435970306396
1773257358025367300,12.4343671875,2.807971954345703,0.7995102405548096,0.5656610131263733
1773257358035379500,12.44437939453125,2.9436533451080322,0.6436429023742676,0.46020808815956116
1773257358045392400,12.454392333984375,3.063896656036377,0.2452094852924347,0.45330169796943665
1773257358055405300,12.4644052734375,3.175163745880127,-0.1977120190858841,0.49903589487075806
