time,seconds_elapsed,z,y,x
1773258201559949300,0.09194921875,0.015936080366373062,-0.27310189604759216,-0.2560615837574005
1773258201569976600,0.1019765625,-0.032957691699266434,-0.3400561511516571,-0.2285737544298172
1773258201580002600,0.11200244140625,-0.10222728550434113,-0.6094170212745667,-0.1833120882511139
1773258201590029600,0.122029541015625,-0.13992911577224731,-0.7888794541358948,-0.05645214766263962
1773258201600056300,0.132056396484375,-0.1639111191034317,-0.849747896194458,0.01808619312942028
1773258201610082300,0.142082275390625,-0.21284323930740356,-0.8476927876472473,0.06663268804550171
1773258201620109600,0.152109619140625,-0.28022509813308716,-0.8115150332450867,0.10294992476701736
1773258201630136600,0.162136474609375,-0.3631540834903717,-0.9444435238838196,0.19071467220783234
1773258201640162600,0.17216259765625,-0.4888097941875458,-1.0175600051879883,0.25144463777542114
1773258201650189300,0.182189208984375,-0.5611500144004822,-1.0463745594024658,0.26128607988357544
1773258201660216600,0.192216552734375,-0.5899466276168823,-1.1230769157409668,0.2108852118253708
1773258201670242600,0.20224267578125,-0.5728075504302979,-1.3878949880599976,0.12067674845457077
1773258201680269600,0.21226953125,-0.5861155390739441,-1.661350965499878,0.027138281613588333
1773258201690296300,0.22229638671875,-0.6526330709457397,-1.8874623775482178,-0.05465565249323845
1773258201700322300,0.232322265625,-0.7807455062866211,-1.9654351472854614,-0.08087396621704102
1773258201710349600,0.242349609375,-0.9545918703079224,-1.843308925628662,-0.023276180028915405
1773258201720376600,0.25237646484375,-1.0524846315383911,-1.731364369392395,0.07161970436573029
1773258201730402600,0.262402587890625,-1.0594030618667603,-1.718739628791809,0.1390104740858078
1773258201740429300,0.27242919921875,-1.0189567804336548,-1.912964105606079,0.14603617787361145
1773258201750456600,0.28245654296875,-0.9602543711662292,-2.296499252319336,0.08446361869573593
1773258201760482600,0.292482666015625,-0.9539954662322998,-2.409194231033325,-0.06240452826023102
1773258201770509600,0.302509521484375,-0.937706470489502,-2.1815569400787354,-0.18074607849121094
1773258201780536300,0.312536376953125,-0.8375281691551208,-1.7876046895980835,-0.20154379308223724
1773258201790562300,0.322562255859375,-0.7055104970932007,-1.6611729860305786,-0.13391654193401337
1773258201800589600,0.332589599609375,-0.624113917350769,-1.6346499919891357,-0.1280311644077301
1773258201810616600,0.342616455078125,-0.593935489654541,-1.30580735206604,-0.17697447538375854
1773258201820642600,0.352642578125,-0.5294259786605835,-0.6999483108520508,-0.26092782616615295
1773258201830669300,0.36266943359375,-0.3895772397518158,-0.14858101308345795,-0.27841654419898987
1773258201840696600,0.372696533203125,-0.24257364869117737,0.3815572261810303,-0.1690080612897873
1773258201850722600,0.38272265625,-0.17942264676094055,0.8108313679695129,0.03198337182402611
1773258201860749600,0.39274951171875,-0.19863031804561615,0.9787424802780151,0.2170277237892151
1773258201870776300,0.4027763671875,-0.24299085140228271,0.9952154755592346,0.3087230324745178
1773258201880802300,0.41280224609375,-0.2547634541988373,0.8201031684875488,0.31667011976242065
1773258201890829600,0.42282958984375,-0.23041602969169617,0.39429593086242676,0.282723069190979
1773258201900856600,0.432856689453125,-0.20827746391296387,-0.06001954525709152,0.19344282150268555
1773258201910882600,0.442882568359375,-0.18594180047512054,-0.42608726024627686,0.015091981738805771
1773258201920909300,0.452909423828125,-0.13511210680007935,-0.6469484567642212,-0.16347606480121613
1773258201930936600,0.4629365234375,-0.07652949541807175,-0.7630628347396851,-0.29327958822250366
1773258201940962600,0.472962646484375,0.009720364585518837,-0.865591287612915,-0.4451392889022827
1773258201950989600,0.482989501953125,0.1140635535120964,-0.9477934837341309,-0.5681147575378418
1773258201961015600,0.493015625,0.1360854059457779,-0.827903687953949,-0.5837125182151794
1773258201971042300,0.503042236328125,0.08358198404312134,-0.4963931739330292,-0.47626757621765137
1773258201981069600,0.513069580078125,0.04764231666922569,-0.12707401812076569,-0.26767250895500183
1773258201991095600,0.523095458984375,0.017280152067542076,0.08919596672058105,-0.06796896457672119
1773258202001122600,0.53312255859375,-0.012158953584730625,0.239958718419075,0.08718256652355194
1773258202011149300,0.5431494140625,-0.015971267595887184,0.3262059986591339,0.24118731915950775
1773258202021175300,0.55317529296875,0.05787809193134308,0.11045878380537033,0.4349275529384613
1773258202031202600,0.56320263671875,0.09398842602968216,-0.12516359984874725,0.6370342969894409
1773258202041229600,0.5732294921875,0.08437282592058182,-0.17485615611076355,0.7281786203384399
1773258202051255600,0.583255615234375,0.18403629958629608,-0.24570876359939575,0.7500098943710327
1773258202061282300,0.5932822265625,0.3062005937099457,-0.2884364724159241,0.7459016442298889
1773258202071309600,0.6033095703125,0.40389707684516907,-0.20523211359977722,0.7574509978294373
1773258202081336600,0.613336669921875,0.5000372529029846,-0.2618357837200165,0.7578475475311279
1773258202091362600,0.623362548828125,0.5908010005950928,-0.3883439302444458,0.7161397933959961
1773258202101389300,0.633389404296875,0.6739159822463989,-0.48199379444122314,0.6217572093009949
1773258202111416600,0.64341650390625,0.7545011043548584,-0.47091397643089294,0.5373342037200928
1773258202121442600,0.653442626953125,0.8146107196807861,-0.4499547779560089,0.5330877304077148
1773258202131469600,0.663469482421875,0.8281670212745667,-0.34251752495765686,0.6059880256652832
1773258202141495600,0.67349560546875,0.7632537484169006,-0.1403476893901825,0.7047637701034546
1773258202151522300,0.683522216796875,0.6272271871566772,0.06164322420954704,0.7725292444229126
1773258202161549600,0.693549560546875,0.43301430344581604,0.2732338011264801,0.7399416565895081
1773258202171575600,0.703575439453125,0.21746763586997986,0.5046534538269043,0.6313923001289368
1773258202181602600,0.7136025390625,0.04775660112500191,0.7145371437072754,0.5134961605072021
1773258202191629300,0.72362939453125,-0.04767670854926109,0.8210809230804443,0.45380935072898865
1773258202201656600,0.733656494140625,-0.0650412067770958,0.8297541737556458,0.4536059498786926
1773258202211682600,0.7436826171875,-0.04467388242483139,0.7773202657699585,0.4607376456260681
1773258202221709600,0.75370947265625,-0.06528554111719131,0.7642250657081604,0.4587603807449341
1773258202231736300,0.763736328125,-0.17288550734519958,0.7431384325027466,0.46352720260620117
1773258202241762300,0.77376220703125,-0.33282700181007385,0.7026642560958862,0.445180207490921
1773258202251789600,0.78378955078125,-0.5349183678627014,0.6646878719329834,0.40774521231651306
1773258202261816600,0.793816650390625,-0.7635343670845032,0.5340625047683716,0.3542841076850891
1773258202271842600,0.803842529296875,-0.9608266949653625,0.23635698854923248,0.25305628776550293
1773258202281869300,0.813869384765625,-1.0559486150741577,0.008714703842997551,0.06835268437862396
1773258202291896600,0.823896484375,-1.0866087675094604,-0.07229626178741455,-0.14809492230415344
1773258202301922600,0.833922607421875,-1.0759061574935913,-0.034040361642837524,-0.3241671621799469
1773258202311949600,0.843949462890625,-0.9710037112236023,0.1885564923286438,-0.47354573011398315
1773258202321976300,0.853976318359375,-0.6848078966140747,0.5950198173522949,-0.5581276416778564
1773258202332002300,0.864002197265625,-0.4755686819553375,1.1222002506256104,-0.7131800651550293
1773258202342029600,0.874029541015625,-0.3325484097003937,0.6193345785140991,-0.9283922910690308
1773258202352056600,0.884056640625,0.005463466048240662,-0.747085690498352,-0.3681183457374573
1773258202362082600,0.89408251953125,0.2651028037071228,-0.9554932713508606,0.07714005559682846
1773258202372109300,0.904109375,0.3466964662075043,-0.6522180438041687,0.16623876988887787
1773258202382136600,0.914136474609375,0.24084825813770294,-0.44042980670928955,-0.05242370814085007
1773258202392162600,0.92416259765625,0.19558116793632507,-0.20820936560630798,-0.23431068658828735
1773258202402189600,0.934189453125,0.1748390644788742,-0.07633985579013824,-0.32016000151634216
1773258202412216300,0.94421630859375,0.2949415147304535,0.056219253689050674,-0.3223954439163208
1773258202422242300,0.9542421875,0.2796788215637207,-0.09078405052423477,-0.08499158918857574
1773258202432269600,0.96426953125,0.22210262715816498,-0.4944116771221161,0.14520378410816193
1773258202442296600,0.974296630859375,0.1901932954788208,-0.5005438327789307,0.14710888266563416
1773258202452322600,0.984322509765625,0.039415501058101654,-0.5583674311637878,0.17163687944412231
1773258202462349300,0.994349365234375,0.005842935293912888,-0.6214172840118408,0.14528830349445343
1773258202472376600,1.00437646484375,-0.009862790815532207,-0.7372309565544128,0.08642925322055817
1773258202482402600,1.014402587890625,-0.13841752707958221,-0.8352978229522705,-0.189345121383667
1773258202492425500,1.024425537109375,-0.24413304030895233,-0.9286469221115112,-0.3041936755180359
1773258202502452700,1.03445263671875,-0.2639828324317932,-0.8718399405479431,-0.16751845180988312
1773258202512479500,1.0444794921875,-0.3609940707683563,-0.5739198327064514,-0.07288488000631332
1773258202522505500,1.05450537109375,-0.5180637240409851,-0.2961447238922119,-0.07796844840049744
1773258202532532500,1.064532470703125,-0.6628805994987488,-0.20822204649448395,-0.13639500737190247
1773258202542559700,1.074559814453125,-0.7331653833389282,-0.26696380972862244,-0.1804082840681076
1773258202552585700,1.084585693359375,-0.7192157506942749,-0.2815408706665039,-0.21354946494102478
1773258202562612500,1.094612548828125,-0.24425184726715088,-0.615372359752655,-0.160101979970932
1773258202572639500,1.104639404296875,0.2570176422595978,-0.9858587980270386,-0.20198708772659302
1773258202582665500,1.11466552734375,0.5791403651237488,-1.2243825197219849,-0.24368909001350403
1773258202592692700,1.124692626953125,0.5174626111984253,-1.3938775062561035,-0.25588318705558777
1773258202602719500,1.134719482421875,0.3044678270816803,-1.3657195568084717,-0.16907216608524323
1773258202612745500,1.144745361328125,0.2276449352502823,-1.4035016298294067,-0.10471288859844208
1773258202622772500,1.1547724609375,0.25992530584335327,-1.4212408065795898,-0.2239302396774292
1773258202632799700,1.1647998046875,0.2634872794151306,-1.4438196420669556,-0.38858017325401306
1773258202642825700,1.17482568359375,0.28656429052352905,-1.4743236303329468,-0.5424785017967224
1773258202652852500,1.1848525390625,0.38707250356674194,-1.5070130825042725,-0.6904155015945435
1773258202662879500,1.19487939453125,0.5234596133232117,-1.4873573780059814,-0.7624231576919556
1773258202672905500,1.204905517578125,0.7128189206123352,-1.4933180809020996,-0.8492443561553955
1773258202682932700,1.2149326171875,0.784714937210083,-1.2970452308654785,-0.8290002942085266
1773258202692959500,1.22495947265625,0.7577701210975647,-0.8635023832321167,-0.6172001957893372
1773258202702986500,1.234986572265625,0.6188453435897827,-0.6527701020240784,-0.15180429816246033
1773258202713012500,1.245012451171875,0.4814475178718567,-0.6225208640098572,0.10159865766763687
1773258202723039700,1.255039794921875,0.44948476552963257,0.1446409374475479,0.14324910938739777
1773258202733066500,1.26506640625,0.4968341886997223,1.0061386823654175,0.4588720500469208
1773258202743092500,1.275092529296875,0.5722719430923462,0.4150303900241852,0.703627347946167
1773258202753119500,1.285119384765625,0.5101531744003296,0.033599961549043655,0.31435996294021606
1773258202763146500,1.295146484375,0.18817244470119476,0.39071908593177795,0.11018764972686768
1773258202773172700,1.3051728515625,0.10949494689702988,0.5881991386413574,0.2393815815448761
1773258202783199500,1.315199462890625,0.1920628398656845,0.6744332313537598,0.28374290466308594
1773258202793226500,1.3252265625,0.2572825849056244,0.7063605785369873,0.22713419795036316
1773258202803252500,1.33525244140625,0.2543039321899414,0.555497944355011,0.21243397891521454
1773258202813279700,1.34527978515625,0.25523841381073,0.45718953013420105,0.22995252907276154
1773258202823306500,1.355306396484375,0.27793174982070923,0.5032442212104797,0.26685377955436707
1773258202833332500,1.36533251953125,0.36293160915374756,0.6925111413002014,0.3129376769065857
1773258202843359500,1.375359375,0.4601830542087555,1.1293666362762451,0.23279784619808197
1773258202853386500,1.385386474609375,0.5278971195220947,1.7224360704421997,0.17142583429813385
1773258202863413500,1.39541357421875,0.5676525831222534,2.233640193939209,0.2553457021713257
1773258202873439500,1.405439453125,0.6404426097869873,2.6773386001586914,0.3948686718940735
1773258202883466500,1.415466552734375,0.9258326292037964,2.3222248554229736,0.7118263244628906
1773258202893493500,1.425493408203125,0.6693971157073975,1.211876630783081,0.9688078165054321
1773258202903519500,1.43551953125,0.52940434217453,0.9193949103355408,0.6405263543128967
1773258202913546500,1.44554638671875,0.2823687195777893,1.0277022123336792,0.21984140574932098
1773258202923573500,1.455573486328125,0.2769414186477661,1.3291959762573242,0.024816855788230896
1773258202933599500,1.465599609375,0.33688250184059143,1.8244718313217163,0.06677336245775223
1773258202943626500,1.47562646484375,0.32982146739959717,2.4020440578460693,0.24547222256660461
1773258202953653500,1.485653564453125,0.2553733289241791,2.6869375705718994,0.37098193168640137
1773258202963679500,1.495679443359375,0.14997784793376923,2.6518821716308594,0.3128124475479126
1773258202973706500,1.50570654296875,0.018418479710817337,2.456773519515991,0.20578639209270477
1773258202983733500,1.5157333984375,-0.06068974733352661,2.1611335277557373,0.22805187106132507
1773258202993760500,1.525760498046875,0.03461520001292229,1.5146524906158447,0.31966328620910645
1773258203003786500,1.535786376953125,0.30642035603523254,0.5126524567604065,0.20123596489429474
1773258203013813500,1.5458134765625,0.5328928828239441,-0.49050280451774597,-0.32170233130455017
1773258203023840500,1.555840576171875,0.5383762121200562,-1.428389549255371,-0.5619028210639954
1773258203033866500,1.565866455078125,0.5948538780212402,-2.141488790512085,-0.48843151330947876
1773258203043893500,1.5758935546875,0.4967125654220581,-2.825960159301758,-0.04434160888195038
1773258203053920500,1.58592041015625,0.33647122979164124,-3.1439414024353027,0.3269326090812683
1773258203063946500,1.595946533203125,0.06521221995353699,-3.5077896118164062,0.4431930184364319
1773258203073973500,1.605973388671875,-0.18166682124137878,-4.016513347625732,0.3105854392051697
1773258203084000500,1.61600048828125,-0.3525437116622925,-4.659239768981934,-0.0637907087802887
1773258203094026500,1.626026611328125,-0.46665188670158386,-5.324147701263428,-0.57710862159729
1773258203104053500,1.636053466796875,-0.48033761978149414,-5.686593055725098,-1.0012153387069702
1773258203114080500,1.64608056640625,-0.40889883041381836,-5.732999324798584,-1.1799852848052979
1773258203124106500,1.6561064453125,-0.2038670927286148,-5.583344459533691,-1.166860818862915
1773258203134133500,1.666133544921875,-0.010301359929144382,-5.405244827270508,-1.1210129261016846
1773258203144160500,1.676160400390625,0.19845780730247498,-5.067933559417725,-1.0961965322494507
1773258203154187500,1.6861875,0.44793686270713806,-4.705109596252441,-1.0300452709197998
1773258203164213500,1.696213623046875,0.7372164726257324,-4.462421894073486,-0.8762601017951965
1773258203174240500,1.706240478515625,1.0718709230422974,-4.3160200119018555,-0.6499502658843994
1773258203184267500,1.716267578125,1.4229329824447632,-4.0224223136901855,-0.400692343711853
1773258203194293500,1.72629345703125,1.7017472982406616,-3.400911569595337,-0.1719348281621933
1773258203204320500,1.736320556640625,1.8708560466766357,-2.554084539413452,0.1054222360253334
1773258203214347500,1.746347412109375,2.1104531288146973,-1.5070754289627075,0.5244306921958923
1773258203224373500,1.75637353515625,1.9984772205352783,-0.8888157606124878,0.861576497554779
1773258203234400500,1.766400390625,1.4536842107772827,0.0849515050649643,0.9356030225753784
1773258203244427500,1.776427490234375,0.955843985080719,1.6106611490249634,1.3269202709197998
1773258203254453500,1.78645361328125,-0.20145027339458466,1.33656907081604,1.2572908401489258
1773258203264480500,1.79648046875,-0.23072490096092224,2.2882239818573,1.4224205017089844
1773258203274507500,1.806507568359375,-0.06448586285114288,2.533552408218384,1.5123947858810425
1773258203284534500,1.816534423828125,-0.07632671296596527,2.6748580932617188,1.3806325197219849
1773258203294560500,1.826560546875,0.055479783564805984,2.640218496322632,1.4405118227005005
1773258203304587500,1.83658740234375,0.09701431542634964,2.327277421951294,1.6322309970855713
1773258203314614500,1.846614501953125,0.024632522836327553,2.1980645656585693,1.775922417640686
1773258203324640500,1.856640625,-0.15678422152996063,1.9412367343902588,1.743004560470581
1773258203334667500,1.86666748046875,-0.34304970502853394,1.9401720762252808,1.5514761209487915
1773258203344694500,1.876694580078125,-0.5836108922958374,2.3767337799072266,1.144229531288147
1773258203354720500,1.886720458984375,-1.0188452005386353,2.596514940261841,0.3585304617881775
1773258203364747500,1.89674755859375,-1.4387829303741455,3.0292208194732666,-0.39075490832328796
1773258203374774500,1.9067744140625,-2.0523252487182617,3.9589040279388428,-1.0416988134384155
1773258203384801500,1.916801513671875,-2.71838641166687,4.941542625427246,-1.2975982427597046
1773258203394827500,1.92682763671875,-2.600620985031128,5.538404941558838,0.041975781321525574
1773258203404854500,1.9368544921875,-2.0083742141723633,6.746740818023682,1.5825613737106323
1773258203414881500,1.946881591796875,-1.4236018657684326,8.064692497253418,2.0459847450256348
1773258203424907500,1.956907470703125,-0.7679709792137146,4.6836137771606445,0.06388941407203674
1773258203434934500,1.9669345703125,-0.5039859414100647,2.128767490386963,-1.4268724918365479
1773258203444961500,1.97696142578125,-0.5167442560195923,3.765922784805298,-1.6769542694091797
1773258203454987500,1.986987548828125,-0.7553504109382629,4.151307582855225,-1.7241857051849365
1773258203465014500,1.9970146484375,-1.0690468549728394,3.0161783695220947,-1.4897692203521729
1773258203475041500,2.00704150390625,-1.4907751083374023,2.81111741065979,-1.330407738685608
1773258203485068300,2.017068359375,-1.8524367809295654,1.845824956893921,-1.3108958005905151
1773258203495095300,2.02709521484375,-1.613319993019104,1.1987431049346924,-1.2618731260299683
1773258203505122300,2.037122314453125,-1.069387435913086,1.724453330039978,-1.057839274406433
1773258203515149000,2.047149169921875,-0.7116312384605408,2.595154285430908,-0.8313372135162354
1773258203525175300,2.05717529296875,-0.4470749795436859,2.7549500465393066,-0.4968334138393402
1773258203535202300,2.067202392578125,-0.4539262354373932,2.075680732727051,0.0076412055641412735
1773258203545229300,2.077229248046875,-0.815961480140686,0.8167802691459656,0.5670835971832275
1773258203555255300,2.08725537109375,-1.260059118270874,-0.3520348072052002,0.9197616577148438
1773258203565282000,2.097281982421875,-1.4428436756134033,-0.9743605852127075,0.950381338596344
1773258203575309300,2.107309326171875,-1.3355352878570557,-1.13092041015625,0.8138974905014038
1773258203585335300,2.117335205078125,-1.086046576499939,-0.9995376467704773,0.6305056214332581
1773258203595362300,2.1273623046875,-0.8464575409889221,-0.6645718812942505,0.5011601448059082
1773258203605389000,2.13738916015625,-0.6980317831039429,-0.43587204813957214,0.46342167258262634
1773258203615415300,2.147415283203125,-0.6131027936935425,-0.4567975699901581,0.4364718198776245
1773258203625442300,2.1574423828125,-0.4614008665084839,0.7235487103462219,0.36554113030433655
1773258203635469300,2.16746923828125,-0.2979445457458496,0.7828460931777954,0.33493876457214355
1773258203645496000,2.17749609375,-0.19051861763000488,0.9517025947570801,0.14471086859703064
1773258203655522000,2.18752197265625,-0.1104312464594841,0.8274325728416443,-0.019686058163642883
1773258203665549300,2.19754931640625,-0.046839047223329544,0.9404141306877136,-0.15275083482265472
1773258203675576300,2.207576416015625,-0.013497067615389824,0.3514014482498169,0.01132839173078537
1773258203685602300,2.217602294921875,-0.0928892269730568,0.13330459594726562,0.21629826724529266
1773258203695629000,2.227629150390625,-0.2245340645313263,-0.11638353765010834,0.32432541251182556
1773258203705656300,2.23765625,-0.3672431707382202,-0.4454079568386078,0.3075558543205261
1773258203715682300,2.247682373046875,-0.43947821855545044,-0.7099570631980896,0.3188095688819885
1773258203725709300,2.257709228515625,-0.506226122379303,-0.8131431937217712,0.30879858136177063
1773258203735736000,2.267736083984375,-0.5744802951812744,-0.7909553647041321,0.28845682740211487
1773258203745763300,2.277763427734375,-0.6045006513595581,-0.7131320834159851,0.25404730439186096
1773258203755789300,2.287789306640625,-0.6237449049949646,-0.6307437419891357,0.19946449995040894
1773258203765816300,2.29781640625,-0.6214552521705627,-0.529310941696167,0.10794351994991302
1773258203775843000,2.307843017578125,-0.6122002601623535,-0.4430046081542969,-0.004731900990009308
1773258203785869000,2.317869140625,-0.6354060769081116,-0.3855043053627014,-0.10014833509922028
1773258203795896300,2.327896240234375,-0.6692564487457275,-0.31983232498168945,-0.14456745982170105
1773258203805923300,2.33792333984375,-0.6719503998756409,-0.2831288278102875,-0.13432008028030396
1773258203815949300,2.34794921875,-0.6294583082199097,-0.2968856692314148,-0.1036793515086174
1773258203825976000,2.35797607421875,-0.5398937463760376,-0.38033154606819153,-0.06668702512979507
1773258203836003300,2.36800341796875,-0.41960352659225464,-0.5252948999404907,-0.002557308878749609
1773258203846029300,2.378029296875,-0.3475489318370819,-0.7168049216270447,0.13596957921981812
1773258203856056300,2.388056396484375,-0.3350808322429657,-0.8588775992393494,0.3327779769897461
1773258203866083000,2.3980830078125,-0.3104294538497925,-0.9043388962745667,0.5492446422576904
1773258203876110300,2.4081103515625,-0.1682661771774292,-0.8393998146057129,0.7822813391685486
1773258203886136300,2.41813623046875,0.07714925706386566,-0.6192537546157837,0.9639266133308411
1773258203896163300,2.428163330078125,0.26615938544273376,-0.5276221036911011,1.0140223503112793
1773258203906190000,2.438190185546875,0.38754409551620483,-0.8680345416069031,0.9479948878288269
1773258203916216000,2.448216064453125,0.3286040723323822,-1.4152421951293945,0.8563321232795715
1773258203926243300,2.458243408203125,0.30534684658050537,-1.8713059425354004,0.7850954532623291
1773258203936270300,2.468270263671875,0.3721189498901367,-2.1383488178253174,0.7958878874778748
1773258203946296300,2.47829638671875,0.38351497054100037,-2.221790313720703,0.764460027217865
1773258203956323000,2.488322998046875,0.44566088914871216,-2.2163994312286377,0.656790018081665
1773258203966350300,2.498350341796875,0.5829398036003113,-2.217087745666504,0.4766632318496704
1773258203976376300,2.508376220703125,0.7381880283355713,-2.2154524326324463,0.28062766790390015
1773258203986403300,2.5184033203125,0.8130161166191101,-2.206300973892212,0.06555027514696121
1773258203996430000,2.52843017578125,0.7536689043045044,-2.157254457473755,-0.22963902354240417
1773258204006457300,2.538457275390625,0.6196720600128174,-1.9643986225128174,-0.5113799571990967
1773258204016483300,2.5484833984375,0.7186625599861145,-1.6091315746307373,-0.5131909251213074
1773258204026510300,2.55851025390625,0.9802052974700928,-1.4232935905456543,-0.2035435140132904
1773258204036537000,2.568537109375,1.1773343086242676,-1.7744615077972412,0.248076394200325
1773258204046563000,2.57856298828125,1.2669332027435303,-2.422675609588623,0.5951880216598511
1773258204056590300,2.58859033203125,1.345131278038025,-2.9097495079040527,0.7570357918739319
1773258204066617300,2.598617431640625,1.480392575263977,-2.9420268535614014,0.7649408578872681
1773258204076643300,2.608643310546875,1.4622807502746582,-2.6793973445892334,0.6040654182434082
1773258204086670000,2.618670166015625,1.2226648330688477,-2.2273995876312256,0.26288461685180664
1773258204096697300,2.628697265625,0.8700813055038452,-1.7642602920532227,-0.3591882586479187
1773258204106724400,2.638724365234375,0.5194030404090881,-1.205894947052002,-1.0660314559936523
1773258204116750300,2.648750244140625,0.2606316804885864,-0.5975255966186523,-1.6478849649429321
1773258204126777000,2.658777099609375,0.06862331926822662,-0.2719121277332306,-2.0324535369873047
1773258204136804000,2.66880419921875,-0.04213248938322067,-0.3572147786617279,-2.1215603351593018
1773258204146830300,2.678830322265625,-0.07629533857107162,-0.7159016132354736,-1.9458743333816528
1773258204156857300,2.688857421875,0.05111214891076088,-1.1668559312820435,-1.5333621501922607
1773258204166884000,2.698884033203125,0.323365718126297,-1.6568552255630493,-1.0317238569259644
1773258204176910000,2.70891015625,0.5519869327545166,-2.1599910259246826,-0.6268444061279297
1773258204186937300,2.718937255859375,0.6558039784431458,-2.616326332092285,-0.4494079351425171
1773258204196964400,2.72896435546875,0.6362974047660828,-2.850609540939331,-0.49358129501342773
1773258204206991000,2.7389912109375,0.646591305732727,-2.751554489135742,-0.7408882975578308
1773258204217017000,2.74901708984375,0.7349209189414978,-2.3949248790740967,-1.1093333959579468
1773258204227044000,2.759044189453125,0.9175280332565308,-1.9277677536010742,-1.4910904169082642
1773258204237071400,2.7690712890625,1.2017946243286133,-1.5155296325683594,-1.7679976224899292
1773258204247097300,2.779097412109375,1.5383094549179077,-1.301958441734314,-1.8674519062042236
1773258204257124000,2.7891240234375,1.6290950775146484,-0.8950045108795166,-1.8175804615020752
1773258204267151000,2.799151123046875,1.5709141492843628,-0.3132490813732147,-1.8156700134277344
1773258204277177300,2.80917724609375,1.6951359510421753,-0.9766004085540771,-1.82731032371521
1773258204287204400,2.819204345703125,2.0524303913116455,-2.324835777282715,-1.495434284210205
1773258204297231000,2.829231201171875,2.613064765930176,-3.088367462158203,-0.8302891254425049
1773258204307257000,2.839257080078125,3.0131518840789795,-3.3226969242095947,-0.026618696749210358
1773258204317284000,2.8492841796875,3.0678069591522217,-3.4487357139587402,0.789048433303833
1773258204327311400,2.859311279296875,2.9404144287109375,-3.37844181060791,1.5277445316314697
1773258204337338000,2.869338134765625,2.811652183532715,-3.116485834121704,2.0896897315979004
1773258204347364000,2.879364013671875,2.71134877204895,-2.638024091720581,2.316826105117798
1773258204357391000,2.88939111328125,2.617093324661255,-1.9818415641784668,2.0299909114837646
1773258204367418400,2.89941845703125,2.5406765937805176,-1.4134992361068726,1.4082974195480347
1773258204377444400,2.9094443359375,2.4975638389587402,-0.9496408104896545,0.7472478151321411
1773258204387471000,2.91947119140625,2.483375310897827,-0.45840707421302795,0.12474474310874939
1773258204397498000,2.929498046875,2.4686081409454346,0.06848898530006409,-0.3956103026866913
1773258204407525400,2.939525390625,2.414560556411743,0.5111821889877319,-0.823589026927948
1773258204417551400,2.94955126953125,2.3293731212615967,0.8281090259552002,-1.1766579151153564
1773258204427578000,2.959578125,2.264240264892578,1.1196200847625732,-1.4027303457260132
1773258204437605000,2.969605224609375,2.176623821258545,1.3713265657424927,-1.4726444482803345
1773258204447631000,2.979631103515625,1.9914876222610474,1.5324265956878662,-1.4303653240203857
1773258204457658400,2.989658447265625,1.6932176351547241,1.4581328630447388,-1.3286712169647217
1773258204467685000,2.99968505859375,1.358651041984558,1.2385748624801636,-1.1987144947052002
1773258204477711000,3.009711181640625,1.058503270149231,0.9167659282684326,-1.0787734985351562
1773258204487742500,3.019742431640625,0.8080192804336548,0.5537451505661011,-0.9978614449501038
1773258204497769500,3.02976953125,0.5921186804771423,0.3180258274078369,-0.9997312426567078
1773258204507796500,3.03979638671875,0.44518375396728516,0.3358871340751648,-1.0502537488937378
1773258204517822500,3.049822509765625,0.33937394618988037,0.5767011046409607,-1.1400624513626099
1773258204527849500,3.059849365234375,0.22105592489242554,0.8405138254165649,-1.2366100549697876
1773258204537876500,3.06987646484375,0.14395448565483093,1.1015994548797607,-1.2528254985809326
1773258204547902500,3.07990234375,0.10598259419202805,1.375512719154358,-1.2433072328567505
1773258204557929500,3.089929443359375,0.07360973954200745,1.7844350337982178,-1.223324179649353
1773258204567956500,3.09995654296875,0.3799261152744293,2.2625539302825928,-1.0399816036224365
1773258204577982500,3.109982421875,0.3335452973842621,1.706345796585083,-0.018289458006620407
1773258204588009500,3.120009521484375,0.14114603400230408,1.7081557512283325,0.3350044786930084
1773258204598036500,3.130036376953125,0.32714810967445374,1.9846835136413574,1.0329524278640747
1773258204608063500,3.1400634765625,0.39158159494400024,1.2968692779541016,1.484083890914917
1773258204618089500,3.15008935546875,0.7381778955459595,0.9947241544723511,1.3357548713684082
1773258204628116500,3.160116455078125,1.019210696220398,0.7568513751029968,1.4706077575683594
1773258204638143500,3.1701435546875,1.0498464107513428,0.41459256410598755,1.8216915130615234
1773258204648169500,3.18016943359375,1.027449131011963,0.18951667845249176,2.252868175506592
1773258204658196500,3.190196533203125,1.171548843383789,0.7843315601348877,2.279595136642456
1773258204668223700,3.2002236328125,1.3092060089111328,1.6436585187911987,1.9220757484436035
1773258204678249500,3.21024951171875,1.159416675567627,2.1442437171936035,1.5255329608917236
1773258204688276500,3.2202763671875,0.7701843976974487,2.4385619163513184,1.2250999212265015
1773258204698303500,3.230303466796875,0.3378300666809082,2.523902416229248,1.0133748054504395
1773258204708330500,3.24033056640625,0.06811537593603134,2.548245668411255,0.8452478647232056
1773258204718356700,3.250356689453125,-0.018775854259729385,2.6446070671081543,0.6754028797149658
1773258204728383500,3.260383544921875,0.0855175256729126,2.746739625930786,0.4847477078437805
1773258204738410500,3.270410400390625,0.12985916435718536,2.766557455062866,0.05931916460394859
1773258204748436500,3.2804365234375,-0.049127280712127686,2.6122019290924072,-0.8023035526275635
1773258204758463700,3.290463623046875,-0.24202215671539307,2.1035830974578857,-1.809213638305664
1773258204768490500,3.300490478515625,-0.3622724711894989,1.3054827451705933,-2.9983620643615723
1773258204778516500,3.3105166015625,-0.005369189195334911,0.32148948311805725,-4.514866828918457
1773258204788543500,3.32054345703125,0.23747612535953522,0.5312969088554382,-5.336782932281494
1773258204798570500,3.330570556640625,-0.005801505874842405,1.0828863382339478,-4.886822700500488
1773258204808597500,3.340597412109375,-0.26805710792541504,1.480638861656189,-3.4149181842803955
1773258204818623500,3.35062353515625,-0.4857955574989319,1.2589834928512573,-2.2852556705474854
1773258204828650500,3.360650390625,-0.4853474497795105,0.9236226677894592,-1.8848214149475098
1773258204838677500,3.370677490234375,-0.34161826968193054,0.612962007522583,-1.7666165828704834
1773258204848703700,3.380703857421875,-0.1582127958536148,0.4342856705188751,-1.4660838842391968
1773258204858730500,3.39073046875,-0.037861622869968414,0.37030670046806335,-1.042578935623169
1773258204868757500,3.400757568359375,0.006718141492456198,0.3649601936340332,-0.7695357799530029
1773258204878784500,3.410784423828125,-0.001552038942463696,0.4644812047481537,-0.8586411476135254
1773258204888810500,3.420810546875,0.08295805007219315,0.7514748573303223,-1.0369056463241577
1773258204898837500,3.43083740234375,0.18592438101768494,1.1651971340179443,-1.2078603506088257
1773258204908864500,3.440864501953125,0.25084367394447327,1.6631548404693604,-1.3441176414489746
1773258204918890500,3.450890380859375,0.3848499357700348,2.1246421337127686,-1.4317740201950073
1773258204928917500,3.46091748046875,0.5860722064971924,2.437469005584717,-1.4873359203338623
1773258204938944500,3.470944580078125,0.7905739545822144,2.5103261470794678,-1.4181456565856934
1773258204948970500,3.480970458984375,1.019883155822754,2.2003185749053955,-1.1856642961502075
1773258204958997500,3.49099755859375,1.2231310606002808,1.5242353677749634,-0.8064502477645874
1773258204969024500,3.5010244140625,1.3120580911636353,0.8670335412025452,-0.26014262437820435
1773258204979051500,3.511051513671875,1.1946076154708862,0.29960182309150696,0.35229921340942383
1773258204989077500,3.521077392578125,0.8862133622169495,-0.001768612302839756,0.8761495351791382
1773258204999104500,3.5311044921875,0.5981914401054382,0.03968269005417824,1.190109372138977
1773258205009131500,3.541131591796875,0.5247439742088318,0.23016630113124847,1.182639479637146
1773258205019157500,3.551157470703125,0.532651960849762,0.4260929226875305,0.7563974857330322
1773258205029184500,3.5611845703125,0.5962201952934265,0.752434253692627,0.07726601511240005
1773258205039211500,3.57121142578125,0.5411378145217896,1.060325026512146,-0.7513698935508728
1773258205049237500,3.581237548828125,0.2704441547393799,1.2776622772216797,-1.4889284372329712
1773258205059264500,3.591264404296875,-0.051968250423669815,1.1735552549362183,-1.9247825145721436
1773258205069291500,3.60129150390625,-0.34538891911506653,0.8468677997589111,-2.188265562057495
1773258205079318500,3.611318603515625,-0.6995488405227661,0.4818623661994934,-2.360089063644409
1773258205089344500,3.621344482421875,-0.911165714263916,0.17757418751716614,-2.3713974952697754
1773258205099371500,3.63137158203125,-0.9865754842758179,0.09276369214057922,-2.2277209758758545
1773258205109398500,3.6413984375,-1.0481407642364502,-0.03347148001194,-2.1264867782592773
1773258205119424500,3.651424560546875,-1.14171302318573,-0.03344191610813141,-2.088970422744751
1773258205129451500,3.661451416015625,-1.3473455905914307,0.2034294158220291,-2.0607872009277344
1773258205139478500,3.671478515625,-1.47867751121521,0.4837835729122162,-2.0788705348968506
1773258205149505500,3.681505615234375,-1.5359675884246826,0.702215313911438,-2.1322274208068848
1773258205159531500,3.691531494140625,-1.662377953529358,0.8817784190177917,-2.1896421909332275
1773258205169558500,3.70155859375,-1.7514275312423706,1.078147530555725,-2.2517518997192383
1773258205179585500,3.71158544921875,-1.6961400508880615,1.138532042503357,-2.4219248294830322
1773258205189611500,3.721611572265625,-1.367817759513855,1.290395975112915,-2.707486152648926
1773258205199638500,3.731638427734375,-0.7555626630783081,1.5880529880523682,-2.7311055660247803
1773258205209665500,3.74166552734375,-0.14467790722846985,1.6996572017669678,-2.525330066680908
1773258205219691500,3.75169140625,0.17093119025230408,1.3036997318267822,-2.3167295455932617
1773258205229718500,3.761718505859375,0.3065766990184784,0.7172815799713135,-1.8456881046295166
1773258205239745500,3.77174560546875,0.40233147144317627,0.43467941880226135,-1.338507890701294
1773258205249772500,3.7817724609375,0.4314877688884735,0.42904576659202576,-0.8633164167404175
1773258205259798500,3.791798583984375,0.30615752935409546,0.6621314883232117,-0.33453458547592163
1773258205269825500,3.801825439453125,0.2551024258136749,0.8789030909538269,0.22552278637886047
1773258205279852500,3.8118525390625,0.4212421178817749,0.8776457905769348,0.5132866501808167
1773258205289878500,3.82187841796875,0.6224237084388733,0.7276881337165833,0.546566367149353
1773258205299905500,3.831905517578125,0.7464122176170349,0.6118877530097961,0.3510144352912903
1773258205309932500,3.8419326171875,0.8182359337806702,0.5660610198974609,-0.043606966733932495
1773258205319959300,3.851959228515625,0.6967310905456543,0.45224469900131226,-0.5462746024131775
1773258205329985500,3.861985595703125,0.4207976460456848,0.32728520035743713,-0.9512022137641907
1773258205340012500,3.872012451171875,0.21737103164196014,0.40820083022117615,-1.1458156108856201
1773258205350039600,3.88203955078125,0.08520495146512985,0.6701068878173828,-1.2482576370239258
1773258205360065500,3.8920654296875,0.15855906903743744,0.7661253213882446,-1.2761510610580444
1773258205370092300,3.90209228515625,0.39566004276275635,0.6309288740158081,-1.112886667251587
1773258205380119600,3.91211962890625,0.5285201072692871,0.006984601728618145,-0.7864769697189331
1773258205390146600,3.922146484375,0.45243096351623535,-0.4088107645511627,-0.15860900282859802
1773258205400172500,3.932172607421875,0.47880929708480835,-0.6523930430412292,0.7600489258766174
1773258205410199300,3.94219921875,0.8778982758522034,-0.42813190817832947,2.0579326152801514
1773258205420226600,3.9522265625,1.3933948278427124,-0.45213577151298523,3.0669057369232178
1773258205430252500,3.96225244140625,1.9598411321640015,-0.6071662306785583,3.295596122741699
1773258205440279600,3.972279541015625,2.2982542514801025,-0.6689355969429016,2.5906736850738525
1773258205450306300,3.982306396484375,2.2314953804016113,-0.6294038891792297,1.5643075704574585
1773258205460333600,3.99233349609375,1.8101400136947632,-0.5156078338623047,0.9637202620506287
1773258205470359600,4.002359619140625,1.4205418825149536,-0.41725003719329834,0.9523160457611084
1773258205480386600,4.012386474609375,1.311355710029602,-0.5245762467384338,0.9689584374427795
1773258205490409000,4.022408935546875,1.397197961807251,-0.6485448479652405,0.7825473546981812
1773258205500435000,4.03243505859375,1.5476438999176025,-0.6663011908531189,0.5086641311645508
1773258205510462000,4.0424619140625,1.7145557403564453,-0.628133237361908,0.22047439217567444
1773258205520489000,4.052489013671875,1.8818597793579102,-0.5338698625564575,0.1562349796295166
1773258205530516000,4.062515869140625,2.338648557662964,-0.2816563844680786,0.40720686316490173
1773258205540542000,4.0725419921875,3.0972275733947754,-0.04038490355014801,0.38096436858177185
1773258205550569000,4.08256884765625,3.759247303009033,0.06175617128610611,0.08385863155126572
1773258205560596000,4.092595947265625,4.132900714874268,-0.0017485003918409348,0.1439717710018158
1773258205570622000,4.1026220703125,4.541421890258789,-0.038710109889507294,0.1757727712392807
1773258205580649000,4.11264892578125,4.40303373336792,-0.31640589237213135,0.084587462246418
1773258205590676000,4.122676025390625,3.8111040592193604,-0.7857712507247925,0.17757365107536316
1773258205600703000,4.132702880859375,2.8742258548736572,-1.2174817323684692,0.27205488085746765
1773258205610729000,4.14272900390625,1.7376927137374878,-1.778234839439392,0.008071249350905418
1773258205620756000,4.152755859375,0.5795544981956482,-2.1634061336517334,-0.5244158506393433
1773258205630783000,4.162782958984375,-0.6406027674674988,-2.114955425262451,-1.0303386449813843
1773258205640809000,4.17280908203125,-1.699486494064331,-1.9564834833145142,-1.3055903911590576
1773258205650836000,4.1828359375,-2.3576595783233643,-1.6778531074523926,-1.0595126152038574
1773258205660863000,4.192863037109375,-2.6651711463928223,-1.0164167881011963,-0.4072234630584717
1773258205670889700,4.2028896484375,-2.653656244277954,-0.2566348612308502,0.23130998015403748
1773258205680916000,4.212916015625,-2.483469009399414,0.2370574176311493,0.5400193333625793
1773258205690943000,4.22294287109375,-2.5058305263519287,0.7553225159645081,0.6939318180084229
1773258205700970000,4.232969970703125,-2.6979289054870605,1.1980290412902832,0.8059185743331909
1773258205710996000,4.242995849609375,-2.7921578884124756,1.4592130184173584,0.9220362901687622
1773258205721023000,4.25302294921875,-2.7067363262176514,1.5292088985443115,1.03781259059906
1773258205731050000,4.263050048828125,-2.246474027633667,1.5877825021743774,1.0273191928863525
1773258205741077000,4.273076904296875,-1.58841872215271,1.6539700031280518,0.7376852631568909
1773258205751103000,4.28310302734375,-1.1070563793182373,1.7004626989364624,0.549170970916748
1773258205761130000,4.2931298828125,-0.7463953495025635,1.7118103504180908,0.13844287395477295
1773258205771157000,4.303156982421875,-0.1751120388507843,1.7053444385528564,-1.3252359628677368
1773258205781183000,4.313182861328125,0.2491002231836319,1.7217333316802979,-2.6090376377105713
1773258205791210000,4.3232099609375,0.23186469078063965,1.6454554796218872,-2.6429662704467773
1773258205801237000,4.333237060546875,-0.09060043841600418,1.3927510976791382,-1.9188425540924072
1773258205811264000,4.343263916015625,-0.5313504338264465,0.9333608150482178,-1.1277878284454346
1773258205821290000,4.3532900390625,-0.9440360069274902,0.1289471536874771,-0.5501783490180969
1773258205831317000,4.36331689453125,-1.2438461780548096,-0.966619074344635,-0.05959605053067207
1773258205841344000,4.373343994140625,-1.239539623260498,-1.964002013206482,0.42953556776046753
1773258205851370000,4.383369873046875,-0.8739010095596313,-2.7099456787109375,0.9579209685325623
1773258205861397000,4.39339697265625,-0.19127817451953888,-2.9024360179901123,1.2593687772750854
1773258205871424000,4.403424072265625,0.723703920841217,-2.3738818168640137,1.2426928281784058
1773258205881451000,4.413450927734375,1.3404619693756104,-1.2250360250473022,1.0276539325714111
1773258205891477000,4.42347705078125,1.5758248567581177,0.059463102370500565,0.7189950942993164
1773258205901504000,4.43350390625,1.5701358318328857,1.0941267013549805,0.4314972162246704
1773258205911531000,4.443531005859375,1.3264141082763672,1.4531553983688354,0.003412533551454544
1773258205921557000,4.453556884765625,0.9032981395721436,1.3677594661712646,-0.3586181104183197
1773258205931584000,4.463583984375,0.21319091320037842,1.079852819442749,-0.6646313071250916
1773258205941611000,4.473611083984375,-0.4728415012359619,0.6458763480186462,-0.8158413171768188
1773258205951638000,4.483637939453125,-0.8594720363616943,0.2908543348312378,-0.9079399704933167
1773258205961664000,4.4936640625,-0.9598934650421143,0.29148948192596436,-0.9985918402671814
1773258205971691000,4.50369091796875,-0.8807216882705688,0.6752858757972717,-1.1170337200164795
1773258205981718000,4.513718017578125,-0.8428027629852295,1.0045708417892456,-1.3066781759262085
1773258205991744000,4.523743896484375,-0.8332549929618835,1.261136770248413,-1.4239461421966553
1773258206001771000,4.53377099609375,-0.7608047723770142,1.6466461420059204,-1.3390545845031738
1773258206011798000,4.543798095703125,-0.691933274269104,1.923475742340088,-1.1580195426940918
1773258206021825000,4.553824951171875,-0.5956720113754272,1.966909408569336,-1.0210691690444946
1773258206031851000,4.56385107421875,-0.37435805797576904,1.7818844318389893,-0.8747565150260925
1773258206041878000,4.5738779296875,-0.22004437446594238,1.5427879095077515,-0.7842074036598206
1773258206051905000,4.583905029296875,-0.18878905475139618,1.3433486223220825,-0.748573362827301
1773258206061931000,4.593930908203125,-0.19943290948867798,1.2914787530899048,-0.7325323224067688
1773258206071958000,4.6039580078125,-0.16416987776756287,1.2922228574752808,-0.7534679174423218
1773258206081985000,4.613985107421875,0.11454138159751892,1.3473126888275146,-0.9542140960693359
1773258206092012000,4.624011962890625,0.2254575490951538,1.4419753551483154,-1.121553897857666
1773258206102038000,4.6340380859375,0.089348703622818,1.4893873929977417,-1.3579800128936768
1773258206112065000,4.64406494140625,-0.30857425928115845,1.3326005935668945,-1.6440030336380005
1773258206122092000,4.654092041015625,-0.735166072845459,1.2110464572906494,-1.979081392288208
1773258206132118000,4.664117919921875,-0.9709673523902893,0.979483962059021,-2.3605427742004395
1773258206142145000,4.67414501953125,-0.9878315329551697,0.8224048614501953,-2.5959882736206055
1773258206152171800,4.684171875,-0.681149959564209,2.3384599685668945,-1.204811692237854
1773258206162199000,4.694198974609375,0.47329089045524597,2.8604578971862793,0.5355848073959351
1773258206172225000,4.70422509765625,0.3917405605316162,2.119899272918701,0.6272405385971069
1773258206182252000,4.714251953125,-0.7407037019729614,1.3359994888305664,0.38341644406318665
1773258206192278800,4.72427880859375,-1.463546872138977,0.6659908294677734,0.45096081495285034
1773258206202305000,4.734304931640625,-1.8598518371582031,0.12963524460792542,0.4237688481807709
1773258206212332000,4.74433203125,-2.213165044784546,-0.20242224633693695,0.05341940373182297
1773258206222359000,4.754359130859375,-2.4488823413848877,0.0022598004434257746,-0.5354265570640564
1773258206232385800,4.7643857421875,-2.5889971256256104,0.5946270227432251,-1.3029848337173462
1773258206242411800,4.774411865234375,-2.416224479675293,1.2190934419631958,-1.9799907207489014
1773258206252439000,4.78443896484375,-2.008209466934204,1.626313328742981,-2.2530109882354736
1773258206262466000,4.794466064453125,-1.7672796249389648,1.5972843170166016,-2.2747035026550293
1773258206272492000,4.804491943359375,-1.802219033241272,1.1821461915969849,-2.0698025226593018
1773258206282518800,4.814518798828125,-2.0977213382720947,0.6166543364524841,-1.702095866203308
1773258206292546000,4.824546142578125,-2.5461225509643555,-0.19665776193141937,-1.5593130588531494
1773258206302573000,4.834572998046875,-2.5905275344848633,-0.8524976968765259,-1.2548860311508179
1773258206312599000,4.84459912109375,-2.3069968223571777,-1.3344478607177734,-0.8024978637695312
1773258206322625800,4.854625732421875,-2.169062614440918,-1.1756528615951538,-0.47065842151641846
1773258206332653000,4.864653076171875,-2.0819082260131836,-0.8511334657669067,-0.45705127716064453
1773258206342679000,4.874678955078125,-2.1719672679901123,-0.8477504253387451,-0.7295291423797607
1773258206352706000,4.8847060546875,-2.558075189590454,-0.9263156652450562,-1.0373657941818237
1773258206362732800,4.89473291015625,-3.1277410984039307,-0.965986430644989,-1.0103360414505005
1773258206372760000,4.904760009765625,-3.5077435970306396,-1.0038654804229736,-0.6217982172966003
1773258206382786000,4.9147861328125,-3.931309938430786,-1.227247714996338,-0.17588993906974792
1773258206392813000,4.92481298828125,-4.482956409454346,-1.89454984664917,0.12197092175483704
1773258206402839800,4.93483984375,-4.322802543640137,-2.353409767150879,0.5366194844245911
1773258206412867000,4.9448671875,-4.034894943237305,-2.2070114612579346,0.8608155846595764
1773258206422893000,4.95489306640625,-3.8036680221557617,-1.8760895729064941,0.6816679239273071
1773258206432920000,4.964920166015625,-3.4596364498138428,-1.285973310470581,0.2607246935367584
1773258206442946800,4.97494677734375,-3.2666079998016357,-0.8750835061073303,-0.35880619287490845
1773258206452972800,4.984972900390625,-3.0495197772979736,-0.07332250475883484,-0.8353803157806396
1773258206463000000,4.995,-2.861905097961426,0.4155379831790924,-1.1916555166244507
1773258206473027000,5.005027099609375,-2.901397228240967,0.4867173731327057,-1.2930822372436523
1773258206483053000,5.015052978515625,-3.6499650478363037,-0.309493750333786,-0.8508539199829102
1773258206493079800,5.025079833984375,-3.3019697666168213,-0.5497123599052429,0.03424987196922302
1773258206503106800,5.03510693359375,-1.842323660850525,-0.43547844886779785,0.6337559223175049
1773258206513133800,5.0451337890625,-1.3147978782653809,-0.22859138250350952,0.28057989478111267
1773258206523159800,5.055159912109375,-1.3442354202270508,-0.6586050391197205,-0.5317702293395996
1773258206533186800,5.065186767578125,-0.9487318992614746,-1.2102878093719482,-0.9449834823608398
1773258206543213800,5.0752138671875,-0.19494444131851196,-2.0050883293151855,-0.8896579146385193
1773258206553240800,5.08524072265625,1.0636160373687744,-2.3899269104003906,-0.7583034038543701
1773258206563266800,5.095266845703125,1.2744531631469727,-2.1004955768585205,-0.2580658197402954
1773258206573293800,5.1052939453125,1.4094675779342651,-1.646178960800171,0.14842496812343597
1773258206583320800,5.11532080078125,1.8523584604263306,-1.1851650476455688,0.3406237065792084
1773258206593346800,5.125346923828125,1.908543586730957,-0.8810778856277466,0.21644330024719238
1773258206603373800,5.135373779296875,1.9058345556259155,-0.5276913046836853,-0.4611913859844208
1773258206613400800,5.14540087890625,1.6579923629760742,-0.3026328682899475,-1.27059805393219
1773258206623427800,5.155427734375,1.0787042379379272,0.17684505879878998,-1.6773301362991333
1773258206633453800,5.165453857421875,0.5978554487228394,0.6259788870811462,-1.6468086242675781
1773258206643480800,5.175480712890625,0.21549130976200104,1.3671882152557373,-1.298268437385559
1773258206653507800,5.1855078125,0.047259531915187836,2.066513776779175,-0.6720218062400818
1773258206663533800,5.195533935546875,0.18708960711956024,1.922621250152588,0.18964233994483948
1773258206673560800,5.205560791015625,-0.13706074655056,1.727927327156067,0.7442142963409424
1773258206683587800,5.215587890625,-1.2625552415847778,1.8347091674804688,0.460387647151947
1773258206693614800,5.22561474609375,-2.5254030227661133,1.899613618850708,-0.5608124732971191
1773258206703640800,5.235640869140625,-2.785390615463257,1.5255577564239502,-1.4455350637435913
1773258206713667800,5.245667724609375,-2.6389319896698,1.112165927886963,-1.5738475322723389
1773258206723694800,5.25569482421875,-2.513394355773926,0.5987625122070312,-1.326168417930603
1773258206733720800,5.265720947265625,-2.5147762298583984,0.23476530611515045,-0.9557400345802307
1773258206743747800,5.275747802734375,-2.7951242923736572,0.2760176658630371,-0.5741615295410156
1773258206753774800,5.28577490234375,-3.140238046646118,0.35246726870536804,-0.05296932905912399
1773258206763801900,5.2958017578125,-3.1166536808013916,0.4703270494937897,0.6339818835258484
1773258206773827800,5.305827880859375,-3.0277466773986816,0.5265865921974182,1.2157608270645142
1773258206783854800,5.315854736328125,-3.055145740509033,0.4592728316783905,1.5602604150772095
1773258206793881900,5.3258818359375,-3.2244420051574707,0.39420846104621887,1.6985013484954834
1773258206803907800,5.335907958984375,-3.2876510620117188,0.37575915455818176,1.873274803161621
1773258206813934800,5.345934814453125,-3.068460464477539,0.6802210807800293,1.7241065502166748
1773258206823961900,5.3559619140625,-2.27223539352417,1.7434002161026,-0.035557668656110764
1773258206833988900,5.36598876953125,-0.9835283160209656,1.4323523044586182,-0.12189449369907379
1773258206844014800,5.376014892578125,0.021528450772166252,0.8360334634780884,-0.017513226717710495
1773258206854041900,5.386041748046875,0.550128161907196,0.34531715512275696,0.1244245320558548
1773258206864068900,5.39606884765625,0.7841720581054688,-0.2131519913673401,0.4325488209724426
1773258206874095900,5.406095947265625,0.6113278865814209,-0.4400402903556824,0.8456465005874634
1773258206884121900,5.416121826171875,0.41860395669937134,-0.35590916872024536,0.9523428678512573
1773258206894148900,5.42614892578125,0.44642314314842224,-0.45903611183166504,0.7420344948768616
1773258206904175900,5.43617578125,0.4024261236190796,-0.5104878544807434,0.584942102432251
1773258206914201900,5.446201904296875,0.293199360370636,-0.6842864751815796,0.4950607717037201
1773258206924228900,5.456228759765625,0.23094744980335236,-0.7517549991607666,0.49417874217033386
1773258206934255900,5.466255859375,0.09920651465654373,-0.6074684262275696,0.34433284401893616
1773258206944283000,5.476282958984375,-0.10112392157316208,-0.5402427911758423,0.43723613023757935
1773258206954308900,5.486308837890625,-0.10077090561389923,-0.45518001914024353,0.7040355801582336
1773258206964335900,5.4963359375,-0.19649957120418549,-0.4476904273033142,0.7817186713218689
1773258206974363000,5.50636279296875,-0.3694895803928375,-0.45943930745124817,0.8995057940483093
1773258206984388900,5.516388916015625,-0.3939967751502991,-0.5144625902175903,0.9393013715744019
1773258206994415900,5.526415771484375,-0.4295850098133087,-0.5794046521186829,0.9350162744522095
1773258207004443000,5.53644287109375,-0.41380152106285095,-0.5092964172363281,0.8963586091995239
1773258207014470000,5.546469970703125,-0.3870444893836975,-0.6662148237228394,0.8405629396438599
1773258207024495900,5.556495849609375,-0.43225643038749695,-0.6728583574295044,0.921859622001648
1773258207034523000,5.56652294921875,-0.5550011992454529,-0.5604070425033569,0.8901737928390503
1773258207044550000,5.5765498046875,-0.6954725384712219,-0.35657769441604614,0.8559162616729736
1773258207054575900,5.586575927734375,-0.7645744681358337,-0.09952960908412933,0.7036498188972473
1773258207064603000,5.596602783203125,-0.7988768219947815,0.20865005254745483,0.4774039387702942
1773258207074630000,5.6066298828125,-0.7485042810440063,0.5742798447608948,0.27017074823379517
1773258207084657000,5.616656982421875,-0.714078962802887,0.7052814960479736,0.20665012300014496
1773258207094683000,5.626682861328125,-0.7454804182052612,0.6679387092590332,0.3309977650642395
1773258207104710000,5.6367099609375,-0.7358940839767456,0.577406108379364,0.6257846355438232
1773258207114737000,5.64673681640625,-0.699465274810791,0.42764711380004883,1.16379976272583
1773258207124763000,5.656762939453125,-0.6585546135902405,0.5042657256126404,1.6243761777877808
1773258207134790000,5.666789794921875,-0.45933273434638977,0.5813364386558533,1.6618638038635254
1773258207144817000,5.67681689453125,0.05806512385606766,0.4925530254840851,1.5822975635528564
1773258207154844000,5.686843994140625,0.8465406894683838,0.46661922335624695,1.474802851676941
1773258207164870000,5.696869873046875,1.8189139366149902,0.1744864135980606,1.79265296459198
1773258207174897000,5.70689697265625,2.6370863914489746,0.329345703125,2.133659839630127
1773258207184924000,5.716923828125,2.768115520477295,0.7342348694801331,1.4622130393981934
1773258207194950000,5.726949951171875,2.718977212905884,1.673068642616272,-0.019920827820897102
1773258207204977000,5.736976806640625,3.1468005180358887,2.817274570465088,-1.5647056102752686
1773258207215003600,5.747003662109375,3.9836056232452393,3.155797004699707,-2.509582281112671
1773258207225031000,5.757031005859375,4.537590026855469,3.586231231689453,-2.299602746963501
1773258207235057000,5.767056884765625,4.615861892700195,2.3432774543762207,-2.6729977130889893
1773258207245084000,5.777083984375,4.28041410446167,0.1977446973323822,-3.99395751953125
1773258207255110700,5.787110595703125,3.7616167068481445,-0.3353501856327057,-4.0607380867004395
1773258207265138000,5.797137939453125,2.9186127185821533,-1.0200908184051514,-2.7875285148620605
1773258207275164000,5.807163818359375,2.59688401222229,-0.3050183057785034,-1.3466296195983887
1773258207285191000,5.81719091796875,3.026580810546875,0.593414306640625,-0.25177744030952454
1773258207295217700,5.8272177734375,2.2688467502593994,0.5563862323760986,-0.11122500151395798
1773258207305243600,5.83724365234375,0.7486128211021423,0.05547335743904114,-0.6587099432945251
1773258207315271000,5.84727099609375,0.44901514053344727,0.15313753485679626,-0.8199159502983093
1773258207325298000,5.8572978515625,0.9228317141532898,0.5584760308265686,-0.45137813687324524
1773258207335324700,5.86732470703125,0.8933194279670715,1.0155647993087769,-0.21204230189323425
1773258207345350700,5.8773505859375,0.5526707768440247,1.2538305521011353,-0.20401498675346375
1773258207355378000,5.8873779296875,0.31975093483924866,1.369680643081665,-0.18379276990890503
1773258207365405000,5.897405029296875,0.34921935200691223,1.0926381349563599,-0.21831214427947998
1773258207375431000,5.907430908203125,0.6089596152305603,0.6056498885154724,-0.12886734306812286
1773258207385457700,5.917457763671875,0.8048422932624817,0.8031309843063354,-0.0943346694111824
1773258207395485000,5.92748486328125,0.7564935684204102,0.2708979845046997,-0.39788803458213806
1773258207405512000,5.937511962890625,0.49743619561195374,-0.3445582687854767,-0.4781605005264282
1773258207415538000,5.947537841796875,-0.3410423994064331,-0.06343337893486023,0.09098310768604279
1773258207425564700,5.957564697265625,-2.2757155895233154,-0.8583073019981384,0.3553258180618286
1773258207435592000,5.967592041015625,-3.1518571376800537,-1.325202465057373,0.2864464223384857
1773258207445618000,5.977617919921875,-3.0953586101531982,-1.005573034286499,0.46215617656707764
1773258207455645000,5.98764501953125,-3.5228872299194336,-1.3266119956970215,0.3604414463043213
1773258207465671700,5.997671630859375,-4.10931396484375,-1.586392879486084,0.3051329255104065
1773258207475699000,6.007698974609375,-4.411498069763184,-1.9273829460144043,0.5663537383079529
1773258207485725000,6.017724853515625,-4.069443225860596,-2.1977834701538086,0.9807061553001404
1773258207495752400,6.02775244140625,-2.783135414123535,-1.9562408924102783,0.8554801940917969
1773258207505779200,6.037779296875,-1.2683486938476562,-1.7201846837997437,-0.20971368253231049
1773258207515805200,6.04780517578125,-0.12482674419879913,-1.245029091835022,-1.3602259159088135
1773258207525832200,6.057832275390625,0.28833630681037903,-0.6893156170845032,-2.0254886150360107
1773258207535859200,6.067859130859375,0.1481897234916687,-0.718993067741394,-2.0128307342529297
1773258207545886200,6.07788623046875,-0.31915563344955444,-0.8672983646392822,-1.308010220527649
1773258207555912200,6.087912109375,-0.7321702241897583,-0.886893093585968,-0.39000338315963745
1773258207565939200,6.097939208984375,-0.9335747361183167,-0.7937506437301636,0.1333482265472412
1773258207575966200,6.10796630859375,-1.0443191528320312,-0.4557338058948517,0.34705936908721924
1773258207585992400,6.117992431640625,-1.1417062282562256,-0.24852228164672852,0.471107542514801
1773258207596019200,6.128019287109375,-1.3299845457077026,-0.3728693425655365,0.7806984782218933
1773258207606046200,6.138046142578125,-1.3201379776000977,-0.6748912930488586,1.1854246854782104
1773258207616073200,6.1480732421875,-1.0104893445968628,-0.6261664628982544,1.2479348182678223
1773258207626099200,6.15809912109375,0.43100762367248535,1.6207355260849,-1.7864130735397339
1773258207636126200,6.168126220703125,0.8481812477111816,0.9594335556030273,-1.7901968955993652
1773258207646153200,6.1781533203125,1.1088404655456543,0.6822088956832886,-1.3488221168518066
1773258207656179200,6.18817919921875,1.2883611917495728,0.6919563412666321,-0.9345695972442627
1773258207666206200,6.198206298828125,1.3079463243484497,0.7702453136444092,-0.23458248376846313
1773258207676233200,6.208233154296875,1.611532211303711,1.0772615671157837,0.3561512231826782
1773258207686260200,6.21826025390625,2.1826324462890625,1.5730901956558228,0.7551052570343018
1773258207696286200,6.2282861328125,2.6943681240081787,1.9291824102401733,1.2648611068725586
1773258207706313200,6.238313232421875,3.074408769607544,1.7857633829116821,1.466342568397522
1773258207716340200,6.24834033203125,2.542680025100708,1.0645877122879028,0.9201149940490723
1773258207726366200,6.2583662109375,1.8759574890136719,0.5926415324211121,0.13843433558940887
1773258207736393200,6.268393310546875,1.6742537021636963,-0.08944310992956161,-0.4022308588027954
1773258207746420200,6.278420166015625,1.776055932044983,-0.6979477405548096,-0.7129429578781128
1773258207756446200,6.2884462890625,1.8055896759033203,-1.138444185256958,-0.7945626974105835
1773258207766473200,6.29847314453125,1.6181741952896118,-1.3971787691116333,-0.5552946925163269
1773258207776500200,6.308500244140625,1.234756588935852,-1.3229869604110718,0.011472754180431366
1773258207786527200,6.31852734375,0.6920680403709412,-1.0985424518585205,0.3879382610321045
1773258207796553200,6.32855322265625,0.0018182137282565236,-1.298174262046814,0.0962720662355423
1773258207806580200,6.338580322265625,-0.6347172260284424,-1.670927882194519,-0.44404149055480957
1773258207816607200,6.348607177734375,-1.1073791980743408,-1.5546330213546753,-1.0174142122268677
1773258207826633200,6.35863330078125,-1.4321805238723755,-1.2594122886657715,-1.4412590265274048
1773258207836660200,6.36866015625,-1.5124603509902954,-0.5635436177253723,-1.6210705041885376
1773258207846687200,6.378687255859375,-1.3707045316696167,0.12374933063983917,-1.2484740018844604
1773258207856714200,6.38871435546875,-1.3027979135513306,0.21291488409042358,-0.7790855765342712
1773258207866740200,6.398740234375,-1.0731327533721924,-0.47386693954467773,-0.4105786979198456
1773258207876767200,6.408767333984375,-0.49565792083740234,-1.1494828462600708,0.1752808392047882
1773258207886794200,6.418794189453125,-0.22156433761119843,-0.7085511684417725,0.7188471555709839
1773258207896820200,6.4288203125,-0.31733953952789307,0.08116912096738815,0.7799701690673828
1773258207906847200,6.43884716796875,-0.47865280508995056,0.5962247252464294,0.41237854957580566
1773258207916874200,6.448874267578125,-0.4373522996902466,0.7275947332382202,0.04325004667043686
1773258207926901000,6.45890087890625,-0.2658868134021759,0.3802461326122284,-0.056731678545475006
1773258207936927200,6.46892724609375,-0.12379168719053268,-0.17907144129276276,-0.012245588935911655
1773258207946954200,6.478954345703125,-0.02279556542634964,-0.9640511870384216,-0.056740619242191315
1773258207956981200,6.488981201171875,0.06098706275224686,-1.8969979286193848,-0.3135456442832947
1773258207967007200,6.49900732421875,0.07564537227153778,-3.196164846420288,-0.99695885181427
1773258207977034200,6.5090341796875,-0.21689791977405548,-2.665630578994751,-0.9562504291534424
1773258207987061200,6.519061279296875,-0.7900205850601196,-0.5547068119049072,-0.7819246649742126
1773258207997088300,6.529088134765625,-1.540628433227539,0.8198810815811157,-0.7758093476295471
1773258208007114200,6.5391142578125,-1.5204635858535767,-0.8327488303184509,-0.2126692831516266
1773258208017141000,6.54914111328125,-0.7675909996032715,0.09976325184106827,0.6325926184654236
1773258208027168300,6.559168212890625,-0.3159377872943878,0.96746426820755,0.6745877265930176
1773258208037194200,6.5691943359375,-0.09527455270290375,1.044435739517212,-0.09988349676132202
1773258208047221200,6.57922119140625,-0.17523595690727234,0.6072863936424255,-0.2609347105026245
1773258208057248000,6.589248046875,-0.4562149941921234,0.43781760334968567,0.09651777148246765
1773258208067274200,6.599274169921875,-0.6641508936882019,0.7464473247528076,0.4188081920146942
1773258208077301200,6.60930126953125,-0.737159252166748,1.0313477516174316,0.5486356019973755
1773258208087328300,6.619328369140625,-0.7998231649398804,1.161170244216919,0.5698127746582031
1773258208097355000,6.62935498046875,-1.0209908485412598,1.2536131143569946,0.5601037740707397
1773258208107381000,6.639381103515625,-1.2002636194229126,1.2203893661499023,0.5799829363822937
1773258208117408300,6.649408203125,-0.9645007252693176,1.0806962251663208,0.5649642944335938
1773258208127435300,6.659435302734375,-0.7046225070953369,1.0790985822677612,0.38143253326416016
1773258208137461200,6.669461181640625,-0.5613920092582703,1.0885199308395386,0.22716820240020752
1773258208147488000,6.679488037109375,-0.6311423182487488,0.9658766388893127,0.21342575550079346
1773258208157515300,6.689515380859375,-0.8096174001693726,0.7914474010467529,0.5958924889564514
1773258208167541200,6.699541259765625,-0.8539015054702759,0.6500803828239441,0.9605244994163513
1773258208177568300,6.709568359375,-0.8743080496788025,0.3682038486003876,1.439112663269043
1773258208187595000,6.719594970703125,-1.041639804840088,-0.19975200295448303,2.174262285232544
1773258208197621000,6.72962109375,-1.48100745677948,-0.14655610918998718,2.8126044273376465
1773258208207648300,6.739648193359375,-1.6564159393310547,0.5104965567588806,2.7288784980773926
1773258208217675300,6.74967529296875,-1.3037652969360352,0.35067373514175415,2.2584097385406494
1773258208227702000,6.759701904296875,-1.3000680208206177,-0.4138321876525879,1.8874794244766235
1773258208237728000,6.76972802734375,-1.3607815504074097,-0.27180445194244385,1.2567452192306519
1773258208247755300,6.77975537109375,-1.114725947380066,-0.007485982496291399,0.637982964515686
1773258208257782300,6.7897822265625,0.30351436138153076,-0.28512465953826904,0.27310144901275635
1773258208267808300,6.799808349609375,1.5202785730361938,-1.1706347465515137,0.37613916397094727
1773258208277835000,6.8098349609375,1.4081083536148071,-0.9815696477890015,0.6590000987052917
1773258208287862300,6.8198623046875,1.0993478298187256,-0.6873468160629272,0.8953790664672852
1773258208297888300,6.82988818359375,0.941511332988739,-0.27020716667175293,0.7199921011924744
1773258208307915300,6.839915283203125,0.7874913811683655,-0.05608927458524704,0.322860985994339
1773258208317942000,6.84994189453125,0.6980195045471191,0.026679329574108124,0.05221928656101227
1773258208327969300,6.85996923828125,0.5658305883407593,0.23484185338020325,-0.02487204037606716
1773258208337995300,6.869995361328125,0.36518099904060364,0.38115042448043823,0.07722364366054535
1773258208348022300,6.880022216796875,0.20650427043437958,0.34667396545410156,0.2597505748271942
1773258208358049300,6.89004931640625,0.06079951301217079,0.0481422133743763,0.559801459312439
1773258208368075000,6.900074951171875,0.05040120333433151,0.043322160840034485,0.8303802013397217
1773258208378102300,6.910102294921875,0.16324619948863983,0.0566214844584465,0.8553807735443115
1773258208388129300,6.92012939453125,0.22350074350833893,0.054161522537469864,0.5473645925521851
1773258208398155300,6.9301552734375,0.1830950677394867,-0.04404005408287048,0.3420027494430542
1773258208408182300,6.940182373046875,0.18479256331920624,-0.13530419766902924,0.30073732137680054
1773258208418209300,6.950209228515625,0.13854117691516876,-0.16301198303699493,0.26035448908805847
1773258208428236300,6.960236328125,0.08009996265172958,-0.08202099055051804,0.2961830496788025
1773258208438262300,6.97026220703125,-0.02056611329317093,0.18425928056240082,0.18971312046051025
1773258208448289300,6.980289306640625,-0.20532025396823883,0.44701528549194336,-0.11784548312425613
1773258208458316300,6.99031640625,-1.2561092376708984,1.56375253200531,-1.2094004154205322
1773258208468342300,7.00034228515625,-1.254576325416565,1.2941713333129883,-1.7910563945770264
1773258208478369300,7.010369384765625,-0.10943811386823654,-0.8970019817352295,-1.5749303102493286
1773258208488396300,7.020396240234375,0.0037196010816842318,-0.40941286087036133,-2.3629119396209717
1773258208498422500,7.030422607421875,0.036252740770578384,-0.19079042971134186,-2.618147850036621
1773258208508449500,7.040449462890625,-0.012990972027182579,-0.8673489093780518,-1.7068885564804077
1773258208518476500,7.0504765625,-0.10781630128622055,-0.6014158129692078,-1.0091239213943481
1773258208528503300,7.06050341796875,-0.07525783032178879,-0.0981912761926651,-0.6562297940254211
1773258208538529300,7.070529296875,0.009171009995043278,0.032002367079257965,-0.2589575946331024
1773258208548556500,7.080556640625,-0.050141047686338425,0.13612984120845795,0.044545553624629974
1773258208558583600,7.09058349609375,-0.1756269335746765,0.0021727699786424637,0.393060564994812
1773258208568609500,7.100609619140625,-0.34217384457588196,-0.07805788516998291,0.7940093278884888
1773258208578636300,7.11063623046875,-0.5548006296157837,-0.20579148828983307,0.9457090497016907
1773258208588663600,7.12066357421875,-0.6614764928817749,-0.39143937826156616,1.032074213027954
1773258208598689500,7.130689453125,-0.7728050351142883,-0.32247215509414673,1.2529785633087158
1773258208608716500,7.140716552734375,-0.9622133374214172,-0.4856395125389099,1.4705910682678223
1773258208618743300,7.150743408203125,-1.0625760555267334,-0.6197604537010193,0.8679993152618408
1773258208628770600,7.1607705078125,-1.2845081090927124,-0.505398690700531,-0.19563765823841095
1773258208638796500,7.170796630859375,-0.4148659110069275,0.09377813339233398,-1.147492527961731
1773258208648823600,7.180823486328125,0.018404290080070496,-0.210318922996521,-0.8484067320823669
1773258208658850300,7.190850341796875,-0.33207181096076965,-0.5293885469436646,-0.519115686416626
1773258208668876300,7.200876220703125,-0.5185855031013489,-0.5817564129829407,-0.7574267983436584
1773258208678903600,7.210903564453125,-0.4144006073474884,-0.6697114706039429,-0.9084134697914124
1773258208688930600,7.2209306640625,-0.2975757122039795,-0.77938312292099,-0.8561750650405884
1773258208698957600,7.23095751953125,-0.1836109459400177,-0.8326433300971985,-0.7212381958961487
1773258208708983300,7.2409833984375,-0.060227759182453156,-0.9636458158493042,-0.5553120374679565
1773258208719010600,7.251010498046875,-0.05308783799409866,-1.1492445468902588,-0.2895336151123047
1773258208729037600,7.26103759765625,-0.0788632407784462,-1.2476496696472168,-0.04369056597352028
1773258208739063600,7.2710634765625,-0.1233033537864685,-1.2894190549850464,0.13224081695079803
1773258208749090600,7.281090576171875,-0.108583003282547,-1.3203964233398438,0.16565310955047607
1773258208759117600,7.29111767578125,-0.1006968542933464,-1.058965802192688,0.06198043376207352
1773258208769143600,7.3011435546875,-0.17797380685806274,-0.8560650944709778,-0.006793301552534103
1773258208779170600,7.311170654296875,-0.2611768841743469,-0.6996216773986816,-0.01758180931210518
1773258208789197600,7.321197509765625,-0.3366047739982605,-0.6604106426239014,-0.05568178743124008
1773258208799224600,7.331224609375,-0.3951980471611023,-0.5746110081672668,-0.15329033136367798
1773258208809250600,7.34125048828125,-0.38836464285850525,-0.5540828704833984,-0.25801753997802734
1773258208819277600,7.351277587890625,-0.3709208071231842,-0.5973808169364929,-0.39930182695388794
1773258208829304600,7.3613046875,-0.3677702844142914,-0.7893968820571899,-0.521084189414978
1773258208839330600,7.37133056640625,-0.4309541583061218,-1.1694915294647217,-0.7142693996429443
1773258208849357600,7.381357666015625,-0.7492144107818604,-0.9778789281845093,-1.0091630220413208
1773258208859384600,7.391384521484375,-0.5267044305801392,0.12815234065055847,-0.707777738571167
1773258208869411600,7.40141162109375,-0.5209911465644836,0.5096413493156433,-0.5170602798461914
1773258208879437600,7.4114375,-1.1002531051635742,0.31212329864501953,-0.8154109120368958
1773258208889464600,7.421464599609375,-1.544235348701477,-0.23521167039871216,-1.1906678676605225
1773258208899491600,7.43149169921875,-1.708536982536316,-1.046185851097107,-1.2896631956100464
1773258208909518600,7.4415185546875,-1.4132810831069946,-1.3139885663986206,-0.9424645304679871
1773258208919544600,7.451544677734375,-1.1798348426818848,-1.0614163875579834,-0.6470029950141907
1773258208929571600,7.461571533203125,-0.7945904731750488,-0.7149378061294556,-0.34888285398483276
1773258208939598600,7.4715986328125,-0.32273173332214355,-0.27522242069244385,-0.13674813508987427
1773258208949624600,7.48162451171875,-0.012773612514138222,0.08932971209287643,-0.06149359792470932
1773258208959651600,7.491651611328125,0.20734339952468872,-0.24227407574653625,0.08535696566104889
1773258208969678300,7.50167822265625,-0.0038367598317563534,-0.5109114050865173,0.056743696331977844
1773258208979705600,7.51170556640625,-0.17351189255714417,-1.251487135887146,-0.3838900327682495
1773258208989731600,7.521731689453125,0.20235466957092285,-0.7733672261238098,-0.2191026657819748
1773258208999758600,7.531758544921875,0.2518591284751892,-0.8701644539833069,-0.0374583825469017
1773258209009785300,7.541785400390625,0.2248629331588745,-0.8165358901023865,0.030786985531449318
1773258209019812600,7.5518125,0.15181998908519745,-0.7289133071899414,0.1771702766418457
1773258209029838600,7.561838623046875,0.06656555831432343,-0.637722909450531,0.3482924997806549
1773258209039865600,7.571865478515625,-0.004752437584102154,-0.3667619228363037,0.42612558603286743
1773258209049892400,7.581892333984375,-0.029021823778748512,-0.1589682549238205,0.44127869606018066
1773258209059918300,7.59191845703125,-0.04872899502515793,-0.12700693309307098,0.38153713941574097
1773258209069945600,7.601945556640625,-0.07296296209096909,-0.1532324105501175,0.2829016447067261
1773258209079972600,7.61197265625,-0.14066506922245026,-0.07590008527040482,0.18133996427059174
1773258209089999400,7.621999267578125,-0.20865370333194733,0.06996870040893555,0.013221001252532005
1773258209100025300,7.632025390625,-0.3905148506164551,0.2917129099369049,-0.5844911336898804
1773258209110052600,7.642052490234375,-0.7794322371482849,0.5842715501785278,-1.0993531942367554
1773258209120079600,7.65207958984375,-1.0149401426315308,-1.734655737876892,-0.5027773976325989
1773258209130106400,7.6621064453125,-0.7153288722038269,-1.5894747972488403,0.40185075998306274
1773258209140132400,7.67213232421875,-0.3559783399105072,-0.8374764919281006,0.4249570369720459
1773258209150159600,7.68215966796875,-0.04776642844080925,-0.04193622246384621,-0.049881383776664734
1773258209160186600,7.6921865234375,0.008108067326247692,-0.2823282480239868,0.08432964980602264
1773258209170213400,7.70221337890625,0.018307708203792572,-0.805928111076355,0.19992655515670776
1773258209180239400,7.7122392578125,-0.14996059238910675,-0.6908155083656311,0.14588630199432373
1773258209190266600,7.7222666015625,-0.3393792510032654,-0.512252151966095,0.23149573802947998
1773258209200293600,7.732293701171875,-0.4469408690929413,-0.32530397176742554,0.3172273635864258
1773258209210319600,7.742319580078125,-0.4146135747432709,-0.12579113245010376,0.1998991072177887
1773258209220346400,7.752346435546875,-0.3577710688114166,-0.059830084443092346,0.030631069093942642
1773258209230373600,7.76237353515625,-0.37263575196266174,-0.2120068371295929,0.04740845039486885
1773258209240400600,7.772400634765625,-0.3851296901702881,-0.5147290229797363,0.11506879329681396
1773258209250426600,7.782426513671875,-0.4505867063999176,-0.7177247405052185,0.03379923477768898
1773258209260453400,7.792453369140625,-0.5038054585456848,-0.7394577860832214,-0.02751096524298191
1773258209270480400,7.80248046875,-0.4400477409362793,-0.9428247809410095,0.00206796545535326
1773258209280506600,7.812506591796875,-0.3443107008934021,-1.0400738716125488,0.09971120208501816
1773258209290533600,7.82253369140625,-0.19516409933567047,-1.3691461086273193,0.19040994346141815
1773258209300560400,7.832560302734375,-0.13241185247898102,-1.7617144584655762,0.19853943586349487
1773258209310587400,7.84258740234375,-0.10462096333503723,-2.0689446926116943,0.20701707899570465
1773258209320613600,7.852613525390625,-0.15058845281600952,-2.3484349250793457,0.22982273995876312
1773258209330640600,7.862640625,-0.1905404031276703,-2.206251621246338,0.24870188534259796
1773258209340667400,7.87266748046875,-0.17003436386585236,-1.9871009588241577,0.12433575093746185
1773258209350694400,7.8826943359375,-0.19935737550258636,-1.7302685976028442,-0.05360521376132965
1773258209360720400,7.892720458984375,-0.10473555326461792,-1.5506948232650757,-0.23521101474761963
1773258209370747600,7.90274755859375,0.0854162722826004,-1.5826194286346436,-0.3807106912136078
1773258209380774400,7.9127744140625,0.14910756051540375,-1.5079232454299927,-0.31644394993782043
1773258209390800400,7.92280029296875,0.127944216132164,-1.352839708328247,-0.17137838900089264
1773258209400827400,7.932827392578125,0.07318811863660812,-1.017794132232666,-0.08241810649633408
1773258209410854700,7.942854736328125,-0.0065671601332724094,-0.6714840531349182,-0.017545901238918304
1773258209420881400,7.95288134765625,-0.21194790303707123,-0.27855926752090454,0.047797832638025284
1773258209430907400,7.962907470703125,-0.4856920838356018,0.2439907342195511,0.11975325644016266
1773258209440934400,7.972934326171875,-1.286104440689087,1.60731840133667,0.18248862028121948
1773258209450961700,7.982961669921875,-2.9627151489257812,4.824270725250244,0.13605694472789764
1773258209460987600,7.992987548828125,-3.9733664989471436,7.8078083992004395,-0.08912786096334457
1773258209471014400,8.003014404296875,-4.822500705718994,9.146862030029297,-1.1783703565597534
1773258209481041400,8.01304150390625,-2.173588991165161,5.491668701171875,0.6508558392524719
1773258209491068200,8.023068115234375,-1.203256368637085,1.470503807067871,0.820469856262207
1773258209501094100,8.03309423828125,0.10174402594566345,-0.2900348901748657,0.0070725297555327415
1773258209511121200,8.04312109375,0.6398764848709106,-1.7135038375854492,0.4915614426136017
1773258209521148200,8.053148193359375,0.7261203527450562,-1.8566564321517944,0.8281154036521912
1773258209531175200,8.063175048828125,0.7655090689659119,-1.3583920001983643,0.6974258422851562
1773258209541201200,8.073201171875,0.6983152627944946,-0.757969319820404,0.5053088068962097
1773258209551228200,8.083228271484375,0.6204226016998291,-0.03076872229576111,0.3352399170398712
1773258209561255200,8.093255126953125,0.665553867816925,0.45141488313674927,0.1131996363401413
1773258209571282200,8.1032822265625,0.5607100129127502,0.4780978858470917,-0.042264264076948166
1773258209581308200,8.11330810546875,0.18336467444896698,0.3363323211669922,-0.36211708188056946
1773258209591335400,8.12333544921875,-0.08828441798686981,0.09072069823741913,-0.6626949906349182
1773258209601362200,8.133362060546874,-0.17304638028144836,-0.26784640550613403,-0.6267583966255188
1773258209611388200,8.14338818359375,-0.31963449716567993,-0.31025323271751404,-0.3646213412284851
1773258209621415200,8.153415283203126,-0.706138551235199,-0.003678030800074339,-0.047066714614629745
1773258209631442400,8.1634423828125,-0.930726945400238,0.175717294216156,0.007146190851926804
1773258209641469200,8.17346923828125,-0.8588592410087585,0.741382896900177,-0.01780886948108673
1773258209651495200,8.1834951171875,-0.7381551861763,1.0470104217529297,0.08082476258277893
1773258209661522200,8.193522216796875,-0.6379040479660034,1.246266484260559,0.13850077986717224
1773258209671549400,8.203549560546875,-0.5854048728942871,1.256123661994934,0.06751316040754318
1773258209681575400,8.213575439453125,-0.4285507798194885,1.0181553363800049,-0.11767128109931946
1773258209691602200,8.223602294921875,-0.2028212547302246,0.41625145077705383,-0.23386526107788086
1773258209701629200,8.233629150390625,-0.049871888011693954,-0.28993597626686096,-0.17448626458644867
1773258209711656400,8.243656494140625,-0.10512075573205948,-0.7396309971809387,-0.06342871487140656
1773258209721682400,8.253682373046875,-0.1834423840045929,-0.7630826234817505,0.04738321900367737
1773258209731709200,8.263709228515625,-0.17719221115112305,-0.36294400691986084,0.1105605885386467
1773258209741736200,8.273736083984375,-0.13964197039604187,0.05172603204846382,0.03975265473127365
1773258209751762200,8.28376220703125,-0.08873378485441208,0.23113387823104858,-0.00827079638838768
1773258209761789400,8.29378955078125,-0.04241865500807762,0.30168354511260986,-0.017865702509880066
1773258209771816200,8.303816162109374,0.05398457869887352,0.25838667154312134,0.04186660051345825
1773258209781843200,8.31384326171875,0.18717436492443085,0.241661936044693,0.11631730943918228
1773258209791869200,8.323869140625,0.21078088879585266,0.03508692607283592,0.2352495640516281
1773258209801896400,8.333896484375,0.23635797202587128,0.20180733501911163,0.14345991611480713
1773258209811923200,8.343923095703126,0.4772278666496277,0.5323607921600342,-0.03212416172027588
1773258209821949200,8.35394921875,0.5806283354759216,0.3203679621219635,0.19496005773544312
1773258209831976200,8.36397607421875,0.4458242356777191,0.019423283636569977,0.2595534026622772
1773258209842003200,8.374003173828125,0.592391312122345,0.13399313390254974,0.1509089171886444
1773258209852030200,8.3840302734375,0.6874477863311768,-0.10537099093198776,0.1482233703136444
1773258209862056200,8.39405615234375,0.6770679354667664,-0.1937248557806015,0.21229729056358337
1773258209872083200,8.404083251953125,0.6182299256324768,-0.22499223053455353,0.2691062390804291
1773258209882110200,8.414110107421875,0.5421634912490845,-0.2891584038734436,0.33189213275909424
1773258209892136400,8.424136474609375,0.4448920786380768,-0.36923354864120483,0.3653568923473358
1773258209902163200,8.4341630859375,0.3496907651424408,-0.4263673722743988,0.3424350619316101
1773258209912190200,8.444190185546875,0.2061453014612198,-0.39758607745170593,0.2303396761417389
1773258209922217200,8.45421728515625,0.10801491141319275,-0.4012147784233093,0.14414188265800476
1773258209932243200,8.4642431640625,0.03147859126329422,-0.3204994201660156,0.08338213711977005
1773258209942270200,8.474270263671874,0.0061515518464148045,-0.16173072159290314,0.03337628394365311
1773258209952297200,8.484297119140624,-0.024550966918468475,-0.06376446783542633,-0.02918297052383423
1773258209962323200,8.4943232421875,-0.08814173191785812,-0.0793195590376854,-0.05036274716258049
1773258209972350200,8.50435009765625,-0.12731683254241943,-0.08616600930690765,-0.06058875471353531
1773258209982377200,8.514377197265626,-0.12393040210008621,-0.0776028037071228,-0.07506932318210602
1773258209992404200,8.524404296875,-0.09202039986848831,-0.05485834553837776,-0.0705249086022377
1773258210002430200,8.53443017578125,-0.06573552638292313,-0.05592666193842888,-0.055417269468307495
1773258210012457200,8.544457275390625,-0.02904222346842289,-0.057517632842063904,-0.03036651201546192
1773258210022484200,8.554484130859375,-0.028046635910868645,-0.052703164517879486,-0.023371735587716103
1773258210032510200,8.56451025390625,-0.05523351579904556,0.022689327597618103,-0.09654873609542847
1773258210042537200,8.574537109375,-0.033320989459753036,0.03597337007522583,-0.14098553359508514
1773258210052564200,8.584564208984375,0.020050890743732452,0.0475970022380352,-0.17019668221473694
1773258210062591200,8.59459130859375,0.1101570874452591,0.019563907757401466,-0.1594739407300949
1773258210072617200,8.6046171875,0.25671857595443726,0.09594869613647461,-0.14626359939575195
1773258210082644200,8.614644287109375,0.3330265283584595,0.30909863114356995,-0.2793481945991516
1773258210092671200,8.624671142578125,0.4129621088504791,0.2813519537448883,-0.34355247020721436
1773258210102697200,8.634697265625,0.38859352469444275,0.03481036424636841,-0.2232644259929657
1773258210112724200,8.64472412109375,0.27504536509513855,-0.043621327728033066,-0.03338051587343216
1773258210122751200,8.654751220703124,0.18500299751758575,-0.024879073724150658,0.07638620585203171
1773258210132778200,8.6647783203125,0.19062680006027222,0.05715560540556908,0.07777078449726105
1773258210142804200,8.67480419921875,0.11312668770551682,0.05440831184387207,-0.016346711665391922
1773258210152831200,8.684831298828126,0.0969112291932106,-0.08088347315788269,-0.026341555640101433
1773258210162858200,8.694858154296876,0.053975608199834824,-0.042411256581544876,-0.10195380449295044
1773258210172884200,8.70488427734375,-0.015489486977458,0.004497660789638758,-0.1932629495859146
1773258210182911200,8.7149111328125,-0.1276797205209732,0.06467024236917496,-0.30250927805900574
1773258210192938200,8.724938232421875,-0.27859148383140564,0.3046855032444,-0.5755360126495361
1773258210202965200,8.73496533203125,-0.6191778779029846,2.6100916862487793,-2.439451217651367
1773258210212991200,8.7449912109375,-0.48171266913414,0.45195865631103516,-0.38638943433761597
1773258210223018200,8.755018310546875,-0.71265709400177,-0.12816964089870453,-0.5133739113807678
1773258210233045000,8.765044921875,-0.7054420709609985,-0.08432576060295105,-0.19617627561092377
1773258210243071200,8.7750712890625,-0.8035561442375183,0.14485302567481995,-0.07802189886569977
1773258210253098200,8.78509814453125,-0.8840800523757935,0.37493470311164856,0.002593045122921467
1773258210263125200,8.795125244140625,-1.011172890663147,0.7119792699813843,0.02414933405816555
1773258210273152000,8.805152099609375,-1.0225962400436401,0.9524790048599243,0.10306332260370255
1773258210283178200,8.81517822265625,-0.894027590751648,1.0687414407730103,0.1462898850440979
1773258210293205200,8.825205322265624,-0.7654839754104614,1.1660523414611816,0.08303102105855942
1773258210303232300,8.835232177734374,-0.7431139945983887,1.1685903072357178,0.020761987194418907
1773258210313258200,8.84525830078125,-0.6473096609115601,1.133306860923767,-0.08659988641738892
1773258210323285000,8.855284912109376,-0.585716724395752,1.1283109188079834,-0.30398494005203247
1773258210333312300,8.865312255859376,-0.7506422996520996,0.9776831865310669,-0.2558136582374573
1773258210343338200,8.875338134765625,-1.0933812856674194,0.7927837371826172,0.00962156243622303
1773258210353365200,8.885365234375,-1.5579880475997925,0.6198407411575317,0.2868307828903198
1773258210363392000,8.89539208984375,-1.6241928339004517,1.198667287826538,0.2540312111377716
1773258210373419300,8.905419189453125,-1.3730418682098389,1.4101409912109375,0.13321691751480103
1773258210383445200,8.9154453125,-1.2163007259368896,0.8756133913993835,0.10500930994749069
1773258210393472300,8.92547216796875,-1.4220114946365356,0.572454035282135,-0.10706273466348648
1773258210403499000,8.9354990234375,-1.463557243347168,0.31812524795532227,-0.4887697696685791
1773258210413525000,8.94552490234375,0.6709375381469727,0.9592032432556152,-2.849285364151001
1773258210423552300,8.95555224609375,0.45873311161994934,-1.3087098598480225,-2.766453266143799
1773258210433579300,8.965579345703125,0.10087614506483078,-1.1959338188171387,-1.7839601039886475
1773258210443606000,8.97560595703125,0.26195788383483887,0.07190513610839844,-1.4107701778411865
1773258210453632000,8.985632080078124,-0.1806568205356598,-0.011786028742790222,-0.4590916931629181
1773258210463659300,8.9956591796875,-0.7120432257652283,-0.8992310762405396,0.918855607509613
1773258210473686300,9.005686279296874,-0.8746997714042664,-1.1393206119537354,1.861321210861206
1773258210483712300,9.015712158203126,-0.6210131645202637,-0.5064448714256287,2.259462833404541
1773258210493739000,9.025739013671876,-0.16711382567882538,0.45967137813568115,2.1768949031829834
1773258210503765800,9.035765869140626,0.12069712579250336,-0.33576759696006775,1.1556053161621094
1773258210513792800,9.045792724609376,0.23469427227973938,-1.720449447631836,0.6163906455039978
1773258210523818800,9.05581884765625,0.4604061245918274,-1.4401347637176514,0.3898102939128876
1773258210533846000,9.065845947265625,0.4866529107093811,-0.7121813297271729,-0.08317802846431732
1773258210543872800,9.075872802734375,0.24141614139080048,-0.7256914377212524,-0.3382870852947235
1773258210553898800,9.085898681640625,0.039625491946935654,-1.1503820419311523,-0.1549564152956009
1773258210563925800,9.09592578125,0.046737585216760635,-0.5215266942977905,-0.32073768973350525
1773258210573953000,9.105953125,0.0467679426074028,-0.1945006549358368,-0.46761688590049744
1773258210583979800,9.115979736328125,-0.05214449018239975,-0.15560460090637207,-0.43654167652130127
1773258210594005800,9.126005859375,-0.208780437707901,-0.10562372207641602,-0.3266782760620117
1773258210604032800,9.13603271484375,-0.38364362716674805,-0.06215700879693031,-0.22434628009796143
1773258210614060000,9.14606005859375,-0.5878955721855164,0.09539586305618286,-0.22129592299461365
1773258210624086000,9.1560859375,-0.8198739290237427,0.07444155961275101,-0.1954793781042099
1773258210634112800,9.16611279296875,-0.8634970784187317,-0.16942250728607178,-0.06068533658981323
1773258210644139800,9.176139892578124,-0.7285121083259583,-0.4236100912094116,0.1179940402507782
1773258210654167000,9.1861669921875,-0.43395453691482544,-0.6144724488258362,0.34808823466300964
1773258210664193000,9.196193115234376,-0.2003302425146103,-0.5184403657913208,0.44868239760398865
1773258210674219800,9.2062197265625,-0.11981863528490067,-0.35212597250938416,0.3208826184272766
1773258210684246800,9.216246826171876,-0.12449274212121964,-0.4147774875164032,0.1935373991727829
1773258210694272800,9.226272705078125,-0.2431589514017105,-0.4291561543941498,0.057359326630830765
1773258210704300000,9.236300048828125,-0.22600580751895905,-0.4008382558822632,-0.0009291227906942368
1773258210714326800,9.246326904296875,-0.15229083597660065,-0.09935244172811508,-0.08930372446775436
1773258210724352800,9.256352783203125,-0.22966910898685455,-0.004678051918745041,-0.17246177792549133
1773258210734379800,9.2663798828125,-0.4184046685695648,-0.052182719111442566,-0.25809359550476074
1773258210744407000,9.276406982421875,-0.708503007888794,0.11476919800043106,-0.40254226326942444
1773258210754433800,9.286433837890625,-0.939312219619751,0.6223536133766174,-0.5519922375679016
1773258210764459800,9.296459716796875,-0.5512304902076721,1.2917412519454956,-0.46918267011642456
1773258210774486800,9.30648681640625,-0.0139800775796175,1.3052607774734497,-0.32602444291114807
1773258210784514000,9.31651416015625,-0.012086709029972553,-0.5074518322944641,-0.027169244363904
1773258210794540000,9.3265400390625,-0.39279410243034363,-3.0969929695129395,0.1494651883840561
1773258210804566800,9.33656689453125,-0.4292355477809906,-3.9924001693725586,-0.012910873629152775
1773258210814593800,9.34659375,0.11862647533416748,-2.305187702178955,-0.7335944771766663
1773258210824621000,9.35662109375,0.39020678400993347,-0.031400538980960846,-0.9051629900932312
1773258210834647000,9.36664697265625,0.13818255066871643,0.1628248542547226,-0.26397207379341125
1773258210844673800,9.376673828125,-0.1129307672381401,-0.36416536569595337,-0.012464555911719799
1773258210854700800,9.38670068359375,-0.10860659182071686,-0.42255252599716187,-0.16609220206737518
1773258210864726800,9.396726806640626,-0.10531116276979446,-0.2957456707954407,-0.07204391062259674
1773258210874754000,9.406754150390626,-0.08405327796936035,-0.2546387016773224,0.008725764229893684
1773258210884780800,9.41678076171875,-0.06942127645015717,-0.14858314394950867,-0.0038418490439653397
1773258210894806800,9.426806884765625,-0.10421307384967804,-0.12303224205970764,-0.01684846170246601
1773258210904833800,9.436833740234375,-0.18531706929206848,-0.09160947799682617,-0.018722984939813614
1773258210914860800,9.44686083984375,-0.28267210721969604,0.0392414815723896,-0.019271861761808395
1773258210924887800,9.4568876953125,-0.33973830938339233,0.0900457352399826,-0.01805035211145878
1773258210934913800,9.466913818359375,-0.38459500670433044,0.05801030248403549,-0.03453025966882706
1773258210944940800,9.47694091796875,-0.34259092807769775,-0.060067128390073776,-0.06070011109113693
1773258210954967800,9.4869677734375,-0.2683830261230469,-0.28750643134117126,-0.14302533864974976
1773258210964994000,9.496994140625,-0.18069888651371002,-0.48693403601646423,-0.4078502655029297
1773258210975020800,9.507020751953124,-0.11700433492660522,-0.3385102152824402,-0.4347796142101288
1773258210985047800,9.5170478515625,-0.142401322722435,-0.12065858393907547,-0.3126447796821594
1773258210995074800,9.52707470703125,-0.25570788979530334,0.2855834662914276,-0.07327425479888916
1773258211005100800,9.537100830078124,-0.42023980617523193,0.4154462218284607,0.126230388879776
1773258211015127800,9.5471279296875,-0.5330235958099365,0.2710152566432953,0.09848584979772568
1773258211025154800,9.55715478515625,-0.5319278836250305,0.21501588821411133,0.13404318690299988
1773258211035180800,9.567180908203126,-0.44363319873809814,0.12557309865951538,0.21650902926921844
1773258211045207800,9.577207763671876,-0.2876894176006317,0.03391840308904648,0.2352517694234848
1773258211055234800,9.58723486328125,-0.24481730163097382,-0.09585770219564438,0.14101022481918335
1773258211065260800,9.5972607421875,-0.3247595727443695,0.0916648730635643,0.15028487145900726
1773258211075287800,9.607287841796875,-0.5151686668395996,0.3478255271911621,0.2897985577583313
1773258211085314800,9.617314697265625,-0.5988646149635315,0.4864256978034973,0.41357624530792236
1773258211095341800,9.627341796875,-0.5728263258934021,0.44062596559524536,0.38438159227371216
1773258211105367800,9.637367919921875,-0.4358499348163605,0.2351122498512268,0.2419663518667221
1773258211115394800,9.647394775390625,-0.387656569480896,0.03525079786777496,0.0761992335319519
1773258211125421800,9.657421875,-0.42406776547431946,-0.051628775894641876,0.009570851922035217
1773258211135447800,9.66744775390625,-0.42843323945999146,-0.015949340537190437,-0.008383912965655327
1773258211145474800,9.677474853515625,-0.2831694781780243,0.03338484838604927,0.06345610320568085
1773258211155501800,9.687501708984374,-0.086947500705719,-0.048538513481616974,0.08013814687728882
1773258211165528800,9.69752880859375,0.04045616835355759,-0.12509894371032715,0.03770101070404053
1773258211175554800,9.707554931640624,0.08097616583108902,-0.0766453891992569,0.06749513000249863
1773258211185581800,9.717581787109374,0.11186143010854721,-0.03317439556121826,0.1020505353808403
1773258211195608800,9.72760888671875,0.1486324965953827,0.09238459914922714,0.1370074599981308
1773258211205634800,9.737634765625,0.194967120885849,0.3242530822753906,0.19719505310058594
1773258211215661800,9.747661865234376,0.23464690148830414,0.47380077838897705,0.2229912281036377
1773258211225688800,9.757688720703126,0.30662623047828674,0.5500193238258362,0.20871122181415558
1773258211235714800,9.76771484375,0.34103187918663025,0.44067978858947754,0.14587447047233582
1773258211245741800,9.777741943359375,0.3075035810470581,0.3462708294391632,0.09682552516460419
1773258211255768800,9.787768798828125,0.24117541313171387,0.2617141306400299,0.14563274383544922
1773258211265795800,9.7977958984375,0.24038368463516235,-0.10249707847833633,0.04990667849779129
1773258211275821800,9.80782177734375,0.2704677879810333,-0.520331621170044,-0.24537290632724762
1773258211285848800,9.817848876953125,0.1621449589729309,-0.4310653805732727,-0.2616536617279053
1773258211295875800,9.827875732421875,0.07119721174240112,-0.11656896770000458,-0.14330120384693146
1773258211305901800,9.83790185546875,0.024244310334324837,-0.3008929193019867,-0.1641717553138733
1773258211315928800,9.8479287109375,-0.022870471701025963,-1.0514519214630127,-0.5448194742202759
1773258211325955800,9.857955810546875,-0.15647557377815247,-1.730505347251892,-1.0639257431030273
1773258211335981800,9.86798193359375,-0.20561036467552185,-1.5933873653411865,-1.3996832370758057
1773258211346008800,9.8780087890625,-0.18173329532146454,-1.2587071657180786,-1.3661402463912964
1773258211356035800,9.888035888671874,-0.1386156529188156,-0.5946111679077148,-0.7817800641059875
1773258211366062800,9.898062744140624,0.043216411024332047,0.11459216475486755,0.0671028271317482
1773258211376088800,9.9080888671875,-0.10585455596446991,-0.0970202162861824,0.33586984872817993
1773258211386115800,9.91811572265625,-0.5663362741470337,-1.1196930408477783,-0.5323679447174072
1773258211396142800,9.928142822265626,-0.5597265362739563,-1.8662307262420654,-1.502773404121399
1773258211406168800,9.9381689453125,-0.284808486700058,-1.624140977859497,-1.5614928007125854
1773258211416195800,9.94819580078125,-0.11264576017856598,-1.3539934158325195,-1.1714731454849243
1773258211426222800,9.958222900390625,-0.03460606560111046,-0.9617257714271545,-0.809346616268158
1773258211436249900,9.968249755859375,-0.05326151102781296,-0.5658622980117798,-0.5221356153488159
1773258211446275800,9.97827587890625,-0.0922798216342926,-0.23960401117801666,-0.27812057733535767
1773258211456302800,9.988302734375,-0.13041363656520844,0.07844692468643188,-0.0448651984333992
1773258211466329900,9.998329833984375,-0.13572467863559723,0.4684624671936035,0.3227379322052002
1773258211476355800,10.00835595703125,-0.022493738681077957,0.8457788228988647,0.654870867729187
1773258211486382800,10.0183828125,0.09092884510755539,1.1102771759033203,0.8791698217391968
1773258211496409900,10.028409912109375,0.20643280446529388,1.3093920946121216,1.023823618888855
1773258211506436900,10.038436767578125,0.42005324363708496,1.9849827289581299,1.4419755935668945
1773258211516462800,10.048462890625,0.8716758489608765,2.8267993927001953,2.0602824687957764
1773258211526489900,10.05848974609375,1.6044431924819946,3.155980110168457,2.3727266788482666
1773258211536516900,10.068516845703124,2.4373326301574707,3.0116724967956543,2.0954461097717285
1773258211546542800,10.07854296875,2.515688896179199,2.830204486846924,1.281821370124817
1773258211556569900,10.08856982421875,1.6696721315383911,3.5886998176574707,1.0109374523162842
1773258211566596900,10.098596923828126,0.8612164855003357,4.15195369720459,0.940580427646637
1773258211576622800,10.108622802734375,0.7917905449867249,3.839967966079712,0.7444173097610474
1773258211586649900,10.11864990234375,0.8984630107879639,3.2060422897338867,0.1977841556072235
1773258211596676900,10.1286767578125,0.8040217757225037,2.617710828781128,-0.27748754620552063
1773258211606703900,10.138703857421875,0.5262442231178284,1.6587215662002563,-0.47040823101997375
1773258211616729900,10.148729736328125,0.15682224929332733,0.37400415539741516,-0.40925300121307373
1773258211626756900,10.1587568359375,-0.21547439694404602,-0.9111008048057556,-0.21543928980827332
1773258211636783900,10.168783935546875,-0.4774557054042816,-2.1429171562194824,-0.22350333631038666
1773258211646809900,10.178809814453125,-0.6101795434951782,-3.2745985984802246,-0.35523614287376404
1773258211656836900,10.1888369140625,-0.7761335968971252,-4.139300346374512,-0.4112818241119385
1773258211666863900,10.19886376953125,-1.0738023519515991,-4.087522506713867,-0.42307597398757935
1773258211676891000,10.208890869140625,-1.1550759077072144,-3.4018661975860596,-0.5543631315231323
1773258211686916900,10.218916748046874,-0.9554623365402222,-2.334238052368164,-0.7350415587425232
1773258211696943900,10.22894384765625,-0.7546262145042419,-1.3617628812789917,-0.7390285730361938
1773258211706971000,10.238970947265624,-0.7254602313041687,-0.7758180499076843,-0.5076667666435242
1773258211716996900,10.248996826171876,-0.6255749464035034,-0.8736906051635742,-0.464082807302475
1773258211727023900,10.25902392578125,-0.2504056990146637,-1.572028398513794,-0.5325620174407959
1773258211737051000,10.26905078125,0.31628647446632385,-2.7013461589813232,-0.6053837537765503
1773258211747076900,10.279076904296875,1.2927625179290771,-2.509469985961914,-0.3491738438606262
1773258211757103900,10.289103759765625,0.9946417212486267,-0.532194197177887,-0.10072966665029526
1773258211767131000,10.299130859375,0.4488429129123688,0.2791760563850403,0.37272942066192627
1773258211777158000,10.309157958984375,0.23979675769805908,0.013145964592695236,0.16945408284664154
1773258211787183900,10.319183837890625,0.09624455869197845,-0.09268698841333389,-0.15766729414463043
1773258211797211000,10.3292109375,0.01777079328894615,-0.010541524738073349,-0.1947946846485138
1773258211807238000,10.33923779296875,0.026026863604784012,0.1679491251707077,-0.10263219475746155
1773258211817263900,10.349263916015625,0.015079939737915993,0.1157437115907669,-0.12772236764431
1773258211827291000,10.359290771484375,-0.018123336136341095,0.016336627304553986,-0.20002642273902893
1773258211837318000,10.36931787109375,-0.022280531004071236,-0.027237216010689735,-0.1980772465467453
1773258211847345000,10.379344970703125,0.005525483284145594,-0.055719662457704544,-0.18125194311141968
1773258211857371000,10.389370849609374,0.17911750078201294,0.03137662634253502,-0.9927805066108704
1773258211867398000,10.39939794921875,0.2908130884170532,-0.9053568840026855,-2.040036201477051
1773258211877425000,10.4094248046875,0.15011964738368988,-0.6667017340660095,-1.8653929233551025
1773258211887451000,10.419450927734376,0.1130547970533371,-0.5684278607368469,-1.232482671737671
1773258211897478000,10.429477783203126,0.14350004494190216,-0.591286838054657,-0.5781562924385071
1773258211907505000,10.4395048828125,0.19841212034225464,-0.5736931562423706,-0.10556858777999878
1773258211917531000,10.44953076171875,0.22544880211353302,-0.35083478689193726,0.15629629790782928
1773258211927558000,10.459557861328125,0.1836433857679367,-0.193539559841156,0.15060566365718842
1773258211937585000,10.4695849609375,0.044822122901678085,-0.08397179841995239,0.05440615862607956
1773258211947612000,10.47961181640625,-0.029561031609773636,0.003170429263263941,0.006474287249147892
1773258211957638000,10.489637939453125,0.16739624738693237,0.034952059388160706,0.004338698461651802
1773258211967665000,10.499664794921875,0.16305454075336456,0.03776402026414871,-0.09614510834217072
1773258211977692000,10.50969189453125,-0.011500764638185501,0.008755275048315525,-0.333937406539917
1773258211987718000,10.5197177734375,-0.10838621854782104,0.10303662717342377,-0.32219570875167847
1773258211997745000,10.529744873046875,-0.11784922331571579,0.08386532962322235,-0.22000250220298767
1773258212007771600,10.539771728515625,-0.07545807957649231,-0.0013058781623840332,-0.14222395420074463
1773258212017799000,10.549798828125,0.0013693200889974833,-0.07190201431512833,-0.03578300401568413
1773258212027825000,10.559824951171874,0.011063260026276112,-0.16592100262641907,-0.06703376770019531
1773258212037852000,10.569851806640624,0.002751002088189125,-0.15619592368602753,-0.054827962070703506
1773258212047878700,10.579878662109374,-0.04398386925458908,-0.10782792419195175,0.0307614766061306
1773258212057905000,10.58990478515625,-0.07688136398792267,-0.052686646580696106,0.09378412365913391
1773258212067932000,10.599931884765626,-0.017711706459522247,-0.0451325960457325,0.13254648447036743
1773258212077959000,10.609958984375,-0.041231147944927216,-0.06113100424408913,0.1517833024263382
1773258212087985700,10.619985595703126,-0.1409212201833725,-0.023769591003656387,0.00898079015314579
1773258212098011600,10.63001171875,-0.24413016438484192,0.07862681895494461,0.056554168462753296
1773258212108039000,10.640038818359375,-0.2032955288887024,0.03342606872320175,0.2150869518518448
1773258212118066000,10.65006591796875,-0.2090519517660141,0.017395172268152237,0.2439308613538742
1773258212128092000,10.660091796875,-0.19255873560905457,-0.022123346105217934,0.118156298995018
1773258212138118700,10.67011865234375,-0.12416770309209824,-0.06174718588590622,-0.0149061419069767
1773258212148146000,10.68014599609375,-0.09869908541440964,-0.07084667682647705,-0.07638594508171082
1773258212158172000,10.690171875,-0.044171400368213654,-0.031814318150281906,-0.04999561607837677
1773258212168199000,10.700198974609375,0.017386624589562416,-0.02503984607756138,-0.044511374086141586
1773258212178225700,10.7102255859375,0.03714141994714737,-0.04033837467432022,-0.04178669676184654
1773258212188253000,10.7202529296875,0.07055113464593887,-0.07877898216247559,-0.03045746497809887
1773258212198279000,10.73027880859375,0.13732828199863434,-0.14153370261192322,-0.07157693803310394
1773258212208306000,10.740305908203124,0.26872217655181885,-0.16644850373268127,-0.025903021916747093
1773258212218332700,10.750332763671874,0.39747509360313416,-0.046509310603141785,0.026693077757954597
1773258212228358700,10.760358642578124,0.4872026741504669,0.11050000786781311,0.09991070628166199
1773258212238386000,10.770385986328124,0.5972724556922913,0.17243313789367676,0.08420950919389725
1773258212248413000,10.780412841796876,0.596514105796814,0.16597425937652588,0.08526210486888885
1773258212258439700,10.790439697265626,0.5468270182609558,0.19420509040355682,0.13303335011005402
1773258212268465700,10.800465576171876,0.42076578736305237,0.19838525354862213,0.19853146374225616
1773258212278493000,10.810492919921876,-0.1909167617559433,-0.4974033534526825,-0.20530016720294952
1773258212288520000,10.82052001953125,0.029957240447402,-0.003281612414866686,0.18326705694198608
1773258212298546000,10.8305458984375,0.13318216800689697,0.15278096497058868,0.27942898869514465
1773258212308572700,10.84057275390625,0.167237788438797,0.3447124660015106,0.3227587938308716
1773258212318600000,10.850599853515625,0.19519245624542236,0.5375886559486389,0.33864375948905945
1773258212328626000,10.8606259765625,0.12293977290391922,0.5693390965461731,0.3097720146179199
1773258212338653000,10.87065283203125,-0.08265440165996552,0.40730544924736023,0.16482973098754883
1773258212348679700,10.8806796875,-0.19706584513187408,0.04098936915397644,-0.12983499467372894
1773258212358707000,10.89070703125,-0.11149554699659348,-0.25420287251472473,-0.28079256415367126
1773258212368733000,10.90073291015625,-0.12267415225505829,-0.36403200030326843,-0.19911299645900726
1773258212378760000,10.910760009765625,-0.007686049677431583,-0.3792559504508972,-0.20175112783908844
1773258212388786700,10.92078662109375,-0.08747410774230957,-0.2945112884044647,-0.23667068779468536
1773258212398812700,10.930812744140624,-0.2570474147796631,-0.20837585628032684,-0.33994218707084656
1773258212408840000,10.94083984375,-0.33267152309417725,-0.11156673729419708,-0.3381445109844208
1773258212418867000,10.950866943359374,-0.29649221897125244,-0.1346350461244583,-0.2239271104335785
1773258212428893700,10.960893798828126,-0.20170998573303223,-0.138097882270813,-0.031077006831765175
1773258212438919700,10.970919677734376,-0.1541547179222107,-0.06753423064947128,0.1405823677778244
1773258212448947000,10.980947021484376,-0.1272926926612854,0.056067924946546555,0.23258407413959503
1773258212458974000,10.990973876953126,-0.040646493434906006,0.15102238953113556,0.3221062421798706
1773258212469000000,11.001,0.029046446084976196,0.020798824727535248,0.2295243889093399
1773258212479026700,11.011026611328125,-0.10417073220014572,0.5779374241828918,0.5426508784294128
1773258212489053700,11.0210537109375,-0.4057700037956238,0.2887379825115204,0.2325270175933838
1773258212499080400,11.03108056640625,-0.2564585506916046,-0.1660337746143341,-0.004950257018208504
1773258212509107500,11.041107421875,0.34416329860687256,-0.05593165010213852,0.3298729658126831
1773258212519134500,11.051134521484375,0.17929495871067047,0.2563881576061249,0.6217423677444458
1773258212529161500,11.061161376953125,0.12059025466442108,0.4092032313346863,0.4841158092021942
1773258212539187500,11.0711875,0.29180246591567993,0.5896224975585938,0.5049406290054321
1773258212549214500,11.08121435546875,0.5678731799125671,0.6990248560905457,0.5175811052322388
1773258212559241500,11.091241455078125,0.5804795026779175,0.43183043599128723,0.15997211635112762
1773258212569267500,11.101267333984374,0.5608400702476501,0.5301327109336853,0.31347841024398804
1773258212579294500,11.11129443359375,0.5577893853187561,0.48945531249046326,0.33968043327331543
1773258212589321500,11.121321533203124,0.3979131579399109,0.2510993778705597,0.1639035940170288
1773258212599348500,11.131348388671874,0.27349400520324707,-0.1330363005399704,-0.3347565531730652
1773258212609374500,11.14137451171875,0.04804804548621178,-0.06132994219660759,-0.388688862323761
1773258212619401500,11.1514013671875,0.2319430559873581,-0.014809842221438885,-0.2655531167984009
1773258212629428500,11.161428466796876,0.3769787847995758,-0.2480825036764145,-0.33611878752708435
1773258212639454500,11.171454345703125,0.21851380169391632,-0.43000170588493347,-0.5175876617431641
1773258212649481500,11.1814814453125,-0.04561622068285942,-0.324385404586792,-0.6594268083572388
1773258212659508500,11.191508544921875,0.22403044998645782,-0.23811256885528564,-0.6262645721435547
1773258212669535500,11.201535400390625,0.30403757095336914,-0.22103863954544067,-0.6240774393081665
1773258212679561500,11.2115615234375,0.08731591701507568,0.05981779471039772,-0.259718656539917
1773258212689588500,11.22158837890625,0.05424824357032776,0.28136682510375977,0.11705945432186127
1773258212699615500,11.231615478515625,0.14801467955112457,0.197480708360672,0.0940105989575386
1773258212709641500,11.241641357421875,0.4227072298526764,-0.13381412625312805,-0.1717315912246704
1773258212719668500,11.25166845703125,0.3767804801464081,-0.3906107544898987,-0.47604116797447205
1773258212729695500,11.261695556640625,0.20508910715579987,-1.4658424854278564,-1.6990245580673218
1773258212739721500,11.271721435546874,-0.20555859804153442,-1.3485177755355835,-2.265683174133301
1773258212749748500,11.28174853515625,-0.4565742015838623,-0.8519929051399231,-2.0472404956817627
1773258212759775500,11.291775390625,-0.45216429233551025,-0.46830809116363525,-1.298815131187439
1773258212769802500,11.301802490234374,-0.3401965796947479,-0.18375204503536224,-0.3517661988735199
1773258212779828500,11.311828369140626,-0.11252693086862564,0.11346790939569473,0.30798962712287903
1773258212789855500,11.32185546875,0.08865873515605927,0.3800584673881531,0.4873845875263214
1773258212799882500,11.331882568359376,0.19538918137550354,0.42116010189056396,0.42036959528923035
1773258212809908500,11.341908447265626,0.2499566674232483,0.2691534459590912,0.32906949520111084
1773258212819935500,11.351935546875,0.28021177649497986,0.05889633670449257,0.18925756216049194
1773258212829962500,11.36196240234375,0.16008390486240387,0.14424073696136475,0.13460272550582886
1773258212839989500,11.371989501953125,0.06009845435619354,0.3806553781032562,0.24379126727581024
1773258212850015500,11.382015380859375,-0.061064545065164566,0.5536016225814819,0.39026495814323425
1773258212860042500,11.39204248046875,0.0016720739658921957,0.4928567707538605,0.45461413264274597
1773258212870069500,11.402069580078125,0.043441399931907654,0.457493394613266,0.5472792983055115
1773258212880095500,11.412095458984375,-0.10506471991539001,0.43588900566101074,0.5363206267356873
1773258212890122500,11.42212255859375,-0.12652091681957245,0.33664339780807495,0.4136334955692291
1773258212900149500,11.4321494140625,-0.035531628876924515,0.4286057949066162,0.5277875065803528
1773258212910175500,11.442175537109375,-0.03907255828380585,0.5547792911529541,0.6685154438018799
1773258212920202500,11.452202392578124,0.02747051976621151,0.6636266708374023,0.7781642079353333
1773258212930229500,11.4622294921875,0.08076902478933334,0.6175142526626587,0.7099910378456116
1773258212940256300,11.47225634765625,0.044740449637174606,0.465543657541275,0.4944547414779663
1773258212950282500,11.482282470703124,-0.05511309579014778,0.3890538215637207,0.2962123453617096
1773258212960309500,11.4923095703125,-0.10905196517705917,0.41043633222579956,0.2272585928440094
1773258212970336500,11.50233642578125,-0.004827827215194702,0.7063506841659546,0.46616271138191223
1773258212980362500,11.512362548828126,0.19136777520179749,0.48154497146606445,0.35510411858558655
1773258212990389500,11.522389404296876,0.2602124810218811,0.03744484484195709,0.14675918221473694
1773258213000416500,11.53241650390625,0.20400649309158325,-0.0826735720038414,0.11694402992725372
1773258213010443500,11.542443603515625,0.18123780190944672,0.04184212535619736,0.1427774578332901
1773258213020469500,11.552469482421875,0.22854113578796387,0.21770316362380981,0.20369699597358704
1773258213030496300,11.562496337890625,0.29336708784103394,0.2915671467781067,0.2471405267715454
1773258213040523500,11.5725234375,0.4045726954936981,0.4008624851703644,0.32185232639312744
1773258213050549500,11.582549560546875,0.557271420955658,0.34193164110183716,0.2789311707019806
1773258213060576500,11.592576416015625,0.7108439207077026,0.04561927914619446,0.11380987614393234
1773258213070603300,11.602603271484375,0.8519076108932495,-0.43397000432014465,-0.10466726869344711
1773258213080629500,11.61262939453125,0.9412481784820557,-0.7614642381668091,-0.14746081829071045
1773258213090656500,11.622656494140625,0.9523152112960815,-0.7394378781318665,-0.012453429400920868
1773258213100683500,11.63268359375,0.8430308103561401,-0.6086795926094055,0.0075216107070446014
1773258213110710300,11.642710205078124,0.6009634733200073,-0.5041310787200928,-0.01821911334991455
1773258213120736300,11.652736328125,0.21857479214668274,-0.41516947746276855,-0.01948012039065361
1773258213130763500,11.662763427734374,-0.06926396489143372,-0.25278106331825256,0.11170966178178787
1773258213140790500,11.67279052734375,-0.041648056358098984,-0.22577419877052307,0.18216785788536072
1773258213150816500,11.68281640625,0.0096629299223423,-0.1912393420934677,0.22647756338119507
1773258213160843300,11.69284326171875,0.0257798470556736,-0.10538540780544281,0.2916499078273773
1773258213170870500,11.70287060546875,0.06080867350101471,-0.07322188466787338,0.34319034218788147
1773258213180897500,11.7128974609375,0.12980079650878906,-0.08599333465099335,0.4063858091831207
1773258213190923500,11.722923583984375,0.2967001795768738,-0.08618289232254028,0.5093612670898438
1773258213200950300,11.7329501953125,0.44011566042900085,-0.1554993838071823,0.48579180240631104
1773258213210977500,11.7429775390625,0.5043096542358398,-0.26086655259132385,0.4227045774459839
1773258213221003500,11.75300341796875,0.3599655032157898,-0.3150501847267151,0.38560622930526733
1773258213231030500,11.763030517578125,0.2353232353925705,-0.3131641745567322,0.4702413082122803
1773258213241057300,11.773057373046875,0.25479570031166077,-0.31244805455207825,0.5491992235183716
1773258213251083300,11.783083251953125,0.4858619272708893,-0.31286105513572693,0.6141842603683472
1773258213261110500,11.793110595703125,0.7884840965270996,-0.3594546616077423,0.708854615688324
1773258213271137500,11.803137451171875,0.280464231967926,-0.14345303177833557,0.7227157354354858
1773258213281164300,11.813164306640624,-0.636097252368927,0.2276347577571869,0.8437401652336121
1773258213291190300,11.823190185546874,-1.0729740858078003,0.33202871680259705,1.03767991065979
1773258213301217500,11.833217529296874,-1.0006970167160034,0.3087367117404938,1.1927838325500488
1773258213311244500,11.84324462890625,-0.6542484164237976,0.14597544074058533,1.2409402132034302
1773258213321270500,11.8532705078125,-0.42287296056747437,-0.10331640392541885,1.1612001657485962
1773258213331297300,11.86329736328125,-0.35300612449645996,-0.17442139983177185,0.9347525238990784
1773258213341324500,11.873324462890626,-0.3378759026527405,-0.23432761430740356,0.7328798174858093
1773258213351350500,11.8833505859375,-0.2513183355331421,-0.2708076536655426,0.5874592661857605
1773258213361377500,11.89337744140625,-0.16203612089157104,-0.26072174310684204,0.4845115840435028
1773258213371404300,11.903404296875,-0.07177606225013733,-0.2237318456172943,0.45572078227996826
1773258213381431600,11.913431640625,-0.07228579372167587,-0.15844924747943878,0.47781625390052795
1773258213391457500,11.92345751953125,-0.06123090162873268,-0.14624808728694916,0.5289011001586914
1773258213401484500,11.933484619140625,-0.3112444579601288,-0.11563637852668762,0.4406578242778778
1773258213411511300,11.94351123046875,-0.3687951862812042,-0.0795111358165741,0.2525620460510254
1773258213421537300,11.953537353515625,-0.40646082162857056,-0.12746161222457886,0.18745414912700653
1773258213431564500,11.963564453125,-0.4405772089958191,-0.1721647083759308,0.2717049717903137
1773258213441591600,11.973591552734375,-0.23403415083885193,-0.23366163671016693,0.4111800491809845
1773258213451618600,11.98361865234375,-0.06266262382268906,-0.1324249505996704,0.4975348711013794
1773258213461644300,11.993644287109374,-0.010188760235905647,-0.013743843883275986,0.5305982828140259
1773258213471671600,12.003671630859374,-0.011182780377566814,0.030719032511115074,0.5281856060028076
1773258213481698600,12.013698486328124,-0.03670545294880867,0.03886404633522034,0.5022310018539429
1773258213491724500,12.023724609375,-0.07157434523105621,0.028452616184949875,0.4509221613407135
1773258213501750500,12.03375048828125,-0.08985401690006256,0.016597555950284004,0.38449016213417053
1773258213511777300,12.04377734375,-0.10358767211437225,0.013463147915899754,0.30439746379852295
1773258213521803300,12.05380322265625,-0.08817249536514282,0.008002602495253086,0.23812603950500488
1773258213531830500,12.06383056640625,-0.0636366754770279,0.0033309487625956535,0.1811211109161377
1773258213541857500,12.073857421875,-0.023917220532894135,-0.008874318562448025,0.13857418298721313
1773258213551884300,12.08388427734375,0.04952215403318405,-0.019221963360905647,0.10582392662763596
1773258213561910300,12.09391015625,0.1112760677933693,-0.01544533483684063,0.1006038635969162
1773258213571937500,12.1039375,0.15958841145038605,0.007943928241729736,0.10942573845386505
1773258213581964500,12.113964599609375,0.18637928366661072,0.042109888046979904,0.12466700375080109
1773258213591990500,12.123990478515625,0.18822890520095825,0.0753234475851059,0.1481994241476059
1773258213602017300,12.134017333984374,0.1665574312210083,0.09380525350570679,0.1686554253101349
1773258213612044500,12.14404443359375,0.12149963527917862,0.09505593776702881,0.19888001680374146
1773258213622070500,12.154070556640624,0.06161899119615555,0.10119425505399704,0.21886011958122253
1773258213632097500,12.16409765625,-0.003198536578565836,0.10447634756565094,0.23229901492595673
1773258213642124300,12.174124267578126,-0.05810439586639404,0.0975598469376564,0.23314429819583893
1773258213652151600,12.184151611328126,-0.09549553692340851,0.0794476866722107,0.23789487779140472
1773258213662177500,12.194177490234376,-0.12030767649412155,0.05408613383769989,0.24080224335193634
1773258213672204500,12.20420458984375,-0.13339972496032715,0.04169505089521408,0.24255837500095367
1773258213682231600,12.2142314453125,-0.13486632704734802,0.044068727642297745,0.24491633474826813
1773258213692257300,12.22425732421875,-0.12951408326625824,0.041595183312892914,0.2511020004749298
1773258213702284500,12.234284423828125,-0.12733455002307892,0.031490884721279144,0.26616138219833374
1773258213712311600,12.2443115234375,-0.13195425271987915,0.004832908511161804,0.2989887595176697
1773258213722337500,12.254337646484375,-0.15123367309570312,-0.03558375686407089,0.3347126543521881
1773258213732364500,12.264364501953125,-0.17570345103740692,-0.07883276045322418,0.37705573439598083
1773258213742391600,12.2743916015625,-0.20829468965530396,-0.11000825464725494,0.4219971001148224
1773258213752418600,12.28441845703125,-0.2432733178138733,-0.14455550909042358,0.46684372425079346
1773258213762444500,12.294444580078125,-0.2682287395000458,-0.17936569452285767,0.5090465545654297
1773258213772471600,12.304471435546875,-0.2783411741256714,-0.21457795798778534,0.5458132028579712
1773258213782498300,12.314498291015624,-0.26969894766807556,-0.24330200254917145,0.5831456780433655
1773258213792524500,12.324524658203124,-0.24995890259742737,-0.2705818712711334,0.6178032755851746
1773258213802551600,12.334551513671874,-0.22799155116081238,-0.2750445306301117,0.6460471749305725
1773258213812578600,12.34457861328125,-0.2186930924654007,-0.26142358779907227,0.6678305864334106
1773258213822604500,12.3546044921875,-0.21460913121700287,-0.23292753100395203,0.6726599931716919
1773258213832631300,12.36463134765625,-0.21923735737800598,-0.1911170929670334,0.6665163040161133
1773258213842658600,12.374658447265626,-0.23902571201324463,-0.15460169315338135,0.6518867611885071
1773258213852685600,12.384685546875,-0.2597728371620178,-0.12248855829238892,0.6137135624885559
1773258213862711600,12.394711669921875,-0.2903805375099182,-0.09234743565320969,0.5722851157188416
1773258213872738300,12.40473828125,-0.31394320726394653,-0.07093861699104309,0.5280934572219849
1773258213882765600,12.414765625,-0.32872986793518066,-0.05860258638858795,0.49481573700904846
1773258213892791600,12.42479150390625,-0.3302575349807739,-0.05763107165694237,0.4709469974040985
1773258213902818600,12.434818603515625,-0.31407350301742554,-0.05952804163098335,0.4620661735534668
1773258213912845300,12.44484521484375,-0.2873840630054474,-0.055098336189985275,0.4586516320705414
1773258213922871300,12.454871337890625,-0.25482529401779175,-0.04778795689344406,0.45732271671295166
1773258213932898600,12.464898681640625,-0.21850667893886566,-0.03931558132171631,0.45281895995140076
1773258213942925600,12.474925537109375,-0.1818365454673767,-0.032551415264606476,0.4420270323753357
1773258213952952300,12.484952392578125,-0.14998672902584076,-0.02857464924454689,0.4142031967639923
1773258213962978300,12.494978271484374,-0.12139023840427399,-0.03150945156812668,0.3760552704334259
1773258213973005600,12.505005615234374,-0.09203749895095825,-0.041300565004348755,0.3285525143146515
1773258213983032600,12.515032470703124,-0.0667976588010788,-0.05381156504154205,0.2753177881240845
1773258213993058600,12.52505859375,-0.042535822838544846,-0.05197998136281967,0.22409111261367798
