time,seconds_elapsed,z,y,x
1774472074673301500,0.061301513671875,-0.9057464599609375,-0.2288360595703125,0.2272796630859375
1774472074683315500,0.0713154296875,-1.0043487548828125,-0.248443603515625,0.253997802734375
1774472074693328400,0.081328369140625,-1.08544921875,-0.234710693359375,0.2211761474609375
1774472074703342300,0.09134228515625,-1.1250762939453125,-0.20501708984375,0.1539154052734375
1774472074713355500,0.10135546875,-1.169830322265625,-0.193206787109375,0.1251220703125
1774472074723369500,0.111369384765625,-1.2151031494140625,-0.1887359619140625,0.11248779296875
1774472074733382400,0.12138232421875,-1.254913330078125,-0.19561767578125,0.0949554443359375
1774472074743395600,0.1313955078125,-1.3056182861328125,-0.1913604736328125,0.0871429443359375
1774472074753409300,0.1414091796875,-1.35003662109375,-0.2032928466796875,0.0810699462890625
1774472074763422500,0.15142236328125,-1.3816070556640625,-0.2182159423828125,0.0176849365234375
1774472074773436700,0.161436767578125,-1.3209075927734375,-0.111541748046875,-0.061004638671875
1774472074783449300,0.171449462890625,-1.1950836181640625,0.036285400390625,0.0098724365234375
1774472074793463600,0.181463623046875,-1.0659637451171875,-0.0807037353515625,0.079193115234375
1774472074803476500,0.1914765625,-0.9463653564453125,-0.23876953125,0.242462158203125
1774472074813489400,0.201489501953125,-0.8248748779296875,-0.39349365234375,0.346038818359375
1774472074823503600,0.211503662109375,-0.6973724365234375,-0.5202178955078125,0.253448486328125
1774472074833516300,0.221516357421875,-0.446685791015625,-0.569549560546875,0.043304443359375
1774472074843530500,0.231530517578125,-0.38787841796875,-0.590789794921875,-0.10845947265625
1774472074853543400,0.24154345703125,-0.493194580078125,-0.490478515625,-0.1757965087890625
1774472074863557600,0.2515576171875,-0.5025177001953125,-0.447235107421875,-0.22509765625
1774472074873570600,0.261570556640625,-0.5634918212890625,-0.419281005859375,-0.252044677734375
1774472074883583500,0.27158349609375,-0.60369873046875,-0.367706298828125,-0.173797607421875
1774472074893597400,0.281597412109375,-0.57415771484375,-0.38287353515625,-0.050567626953125
1774472074903610400,0.2916103515625,-0.5732574462890625,-0.3701629638671875,0.105438232421875
1774472074913624600,0.30162451171875,-0.5775299072265625,-0.2948455810546875,0.1929473876953125
1774472074923637500,0.311637451171875,-0.5428619384765625,-0.2315521240234375,0.19512939453125
1774472074933651500,0.3216513671875,-0.537017822265625,-0.220855712890625,0.178131103515625
1774472074943664600,0.33166455078125,-0.57122802734375,-0.238555908203125,0.1911468505859375
1774472074953677300,0.34167724609375,-0.7805633544921875,-0.2955474853515625,0.5319366455078125
1774472074963691500,0.35169140625,-1.3412628173828125,-0.4873809814453125,1.4624786376953125
1774472074973704700,0.36170458984375,-1.4217376708984375,-0.565826416015625,1.5225372314453125
1774472074983718400,0.371718505859375,-1.114776611328125,-0.18719482421875,0.432037353515625
1774472074993731600,0.381731689453125,-0.99700927734375,-0.134857177734375,0.047607421875
1774472075003744300,0.391744140625,-1.051483154296875,-0.242034912109375,-0.0658721923828125
1774472075013758500,0.401758544921875,-1.0368804931640625,-0.270751953125,-0.2209930419921875
1774472075023771600,0.411771728515625,-1.1240234375,-0.32012939453125,-0.2527618408203125
1774472075033785600,0.42178564453125,-1.203765869140625,-0.31744384765625,-0.1670989990234375
1774472075043798500,0.431798583984375,-1.1400146484375,-0.329254150390625,-0.1537933349609375
1774472075053812500,0.4418125,-1.1202850341796875,-0.2939300537109375,-0.0992431640625
1774472075063825400,0.451825439453125,-1.169586181640625,-0.2273712158203125,0.0512847900390625
1774472075073838600,0.461838623046875,-1.11993408203125,-0.1816253662109375,0.114898681640625
1774472075083852500,0.4718525390625,-1.042327880859375,-0.18267822265625,0.0548858642578125
1774472075093865500,0.481865478515625,-1.0015716552734375,-0.234527587890625,-0.0641632080078125
1774472075103879400,0.49187939453125,-1.027923583984375,-0.2646636962890625,-0.1903533935546875
1774472075113892600,0.501892578125,-1.051055908203125,-0.3025360107421875,-0.3543701171875
1774472075123906300,0.51190625,-1.1293487548828125,-0.30224609375,-0.382781982421875
1774472075133919500,0.52191943359375,-1.203857421875,-0.28515625,-0.269500732421875
1774472075143932700,0.5319326171875,-1.193389892578125,-0.23089599609375,-0.232025146484375
1774472075153946400,0.5419462890625,-1.148590087890625,-0.20245361328125,-0.2045745849609375
1774472075163959600,0.55195947265625,-1.0807037353515625,-0.232391357421875,-0.2143402099609375
1774472075173973500,0.561973388671875,-1.0179901123046875,-0.2698211669921875,-0.251556396484375
1774472075183986400,0.571986328125,-0.9231414794921875,-0.289031982421875,-0.2954559326171875
1774472075194000400,0.58200048828125,-0.844879150390625,-0.3256072998046875,-0.3407440185546875
1774472075204013300,0.592013427734375,-0.8545989990234375,-0.3720550537109375,-0.3757171630859375
1774472075214026500,0.602026611328125,-0.8850250244140625,-0.419677734375,-0.3825225830078125
1774472075224040400,0.61204052734375,-0.8836669921875,-0.445892333984375,-0.3393402099609375
1774472075234053400,0.622053466796875,-0.845062255859375,-0.4827880859375,-0.2913665771484375
1774472075244067300,0.6320673828125,-0.73468017578125,-0.520965576171875,-0.3135223388671875
1774472075254080500,0.64208056640625,-0.6271820068359375,-0.545654296875,-0.3081817626953125
1774472075264094500,0.652094482421875,-0.55548095703125,-0.5802764892578125,-0.305694580078125
1774472075274107400,0.662107421875,-0.4856414794921875,-0.5985260009765625,-0.300506591796875
1774472075284120600,0.67212060546875,-0.466033935546875,-0.551605224609375,-0.2762908935546875
1774472075294134300,0.68213427734375,-0.4913177490234375,-0.6040496826171875,-0.331512451171875
1774472075304147500,0.6921474609375,-0.56982421875,-0.6977996826171875,-0.3828125
1774472075314161700,0.70216162109375,-0.6128997802734375,-0.642181396484375,-0.36041259765625
1774472075324174300,0.71217431640625,-0.6301727294921875,-0.6020050048828125,-0.3634490966796875
1774472075334188500,0.7221884765625,-0.685333251953125,-0.62518310546875,-0.3790740966796875
1774472075344201500,0.732201416015625,-0.6826934814453125,-0.6418609619140625,-0.3904876708984375
1774472075354214400,0.74221435546875,-0.665252685546875,-0.63275146484375,-0.390350341796875
1774472075364228600,0.752228515625,-0.64324951171875,-0.6611785888671875,-0.3810272216796875
1774472075374241300,0.7622412109375,-0.5511016845703125,-0.6350860595703125,-0.3902435302734375
1774472075384255500,0.77225537109375,-0.49908447265625,-0.6396331787109375,-0.3929290771484375
1774472075394268400,0.782268310546875,-0.511810302734375,-0.688262939453125,-0.4231719970703125
1774472075404282600,0.79228271484375,-0.550262451171875,-0.6983184814453125,-0.467681884765625
1774472075414295600,0.802295654296875,-0.60125732421875,-0.694854736328125,-0.4652557373046875
1774472075424308500,0.81230859375,-0.579742431640625,-0.6802825927734375,-0.45709228515625
1774472075434322400,0.822322509765625,-0.5221405029296875,-0.6867828369140625,-0.427978515625
1774472075444335400,0.83233544921875,-0.5273895263671875,-0.7071685791015625,-0.45263671875
1774472075454349600,0.842349609375,-0.5052642822265625,-0.5955657958984375,-0.4263458251953125
1774472075464362500,0.852362548828125,-0.504913330078125,-0.7683868408203125,-0.420257568359375
1774472075474375400,0.86237548828125,-0.4239959716796875,-0.874481201171875,-0.5364227294921875
1774472075484389600,0.8723896484375,-0.3518218994140625,-0.78643798828125,-0.4962921142578125
1774472075494402300,0.88240234375,-0.264129638671875,-0.7774200439453125,-0.542510986328125
1774472075504416500,0.89241650390625,-0.3750152587890625,-0.79754638671875,-0.5788421630859375
1774472075514429700,0.9024296875,-0.5079193115234375,-0.77386474609375,-0.599212646484375
1774472075524440000,0.912440185546875,-0.5872344970703125,-0.7687225341796875,-0.599945068359375
1774472075534453000,0.922452880859375,-0.615447998046875,-0.7233734130859375,-0.5815887451171875
1774472075544466000,0.9324658203125,-0.5372467041015625,-0.6158599853515625,-0.5369720458984375
1774472075554480000,0.942480224609375,-0.45880126953125,-0.543182373046875,-0.398956298828125
1774472075564493000,0.9524931640625,-0.481231689453125,-0.5431671142578125,-0.347381591796875
1774472075574507000,0.962507080078125,-0.520660400390625,-0.58648681640625,-0.394439697265625
1774472075584520000,0.97252001953125,-0.5509033203125,-0.59820556640625,-0.4458770751953125
1774472075594534000,0.982533935546875,-0.571075439453125,-0.6524505615234375,-0.4986724853515625
1774472075604547000,0.992547119140625,-0.6573944091796875,-0.7422027587890625,-0.6006622314453125
1774472075614560000,1.00256005859375,-0.8055419921875,-0.8156890869140625,-0.6667327880859375
1774472075624574000,1.012573974609375,-0.875152587890625,-0.789886474609375,-0.6726226806640625
1774472075634587100,1.022587158203125,-0.741546630859375,-0.7313385009765625,-0.67034912109375
1774472075644600800,1.032600830078125,-0.665496826171875,-0.6335906982421875,-0.644866943359375
1774472075654614000,1.042614013671875,-0.5185699462890625,-0.5828704833984375,-0.6075439453125
1774472075664628000,1.0526279296875,-0.3430938720703125,-0.5405731201171875,-0.560699462890625
1774472075674641000,1.062640869140625,-0.27606201171875,-0.5297698974609375,-0.46551513671875
1774472075684654000,1.072654052734375,-0.2806243896484375,-0.5865325927734375,-0.3444061279296875
1774472075694668000,1.08266796875,-0.304534912109375,-0.75567626953125,-0.1428375244140625
1774472075704681000,1.092680908203125,-0.2142181396484375,-0.92718505859375,-0.0067138671875
1774472075714695000,1.10269482421875,-0.155303955078125,-0.9784698486328125,-0.038238525390625
1774472075724708000,1.1127080078125,-0.15234375,-1.0577392578125,-0.28802490234375
1774472075734721800,1.1227216796875,-0.209716796875,-0.94976806640625,-0.3117523193359375
1774472075744735000,1.13273486328125,-0.168304443359375,-0.8260345458984375,-0.2393341064453125
1774472075754748000,1.142747802734375,-0.0603790283203125,-0.71722412109375,-0.1683349609375
1774472075764761900,1.152761962890625,-0.10662841796875,-0.6435546875,-0.0526580810546875
1774472075774775000,1.162775146484375,-0.2311553955078125,-0.6593170166015625,-0.0017547607421875
1774472075784788700,1.172788818359375,-0.19281005859375,-0.5995025634765625,0.0871429443359375
1774472075794802000,1.182802001953125,-0.01800537109375,-0.7866668701171875,0.2134552001953125
1774472075804816100,1.192816162109375,0.1332244873046875,-0.84454345703125,0.1326446533203125
1774472075814828800,1.202828857421875,0.182281494140625,-1.0097808837890625,0.051544189453125
1774472075824842000,1.212842041015625,0.2240753173828125,-1.032440185546875,-0.153289794921875
1774472075834856000,1.22285595703125,0.2905120849609375,-0.985809326171875,-0.371307373046875
1774472075844868900,1.232868896484375,0.50738525390625,-0.9442596435546875,-0.468109130859375
1774472075854883000,1.242883056640625,0.7541961669921875,-0.9882965087890625,-0.517364501953125
1774472075864896000,1.25289599609375,0.721405029296875,-1.1874847412109375,-0.411529541015625
1774472075874910000,1.262909912109375,0.5405426025390625,-1.22735595703125,-0.32257080078125
1774472075884923000,1.2729228515625,0.350433349609375,-1.096221923828125,-0.3149566650390625
1774472075894936000,1.28293603515625,0.188720703125,-1.0478668212890625,-0.2700347900390625
1774472075904950000,1.292949951171875,0.131317138671875,-1.105438232421875,-0.1502532958984375
1774472075914963000,1.302962890625,0.2044830322265625,-1.076416015625,-0.15008544921875
1774472075924977200,1.31297705078125,0.272796630859375,-0.9977569580078125,-0.19451904296875
1774472075934989800,1.32298974609375,0.2771453857421875,-0.9462127685546875,-0.1466217041015625
1774472075945003000,1.3330029296875,0.2642822265625,-0.740570068359375,0.052001953125
1774472075955017000,1.343016845703125,0.2729949951171875,-0.6962432861328125,0.1397857666015625
1774472075965030000,1.35302978515625,0.2571258544921875,-0.7790374755859375,0.0144805908203125
1774472075975044000,1.363044189453125,0.2366943359375,-0.8792877197265625,-0.1630859375
1774472075985056800,1.373056884765625,0.309478759765625,-1.0885772705078125,-0.398712158203125
1774472075995071000,1.383071044921875,0.3454437255859375,-1.02215576171875,-0.4220123291015625
1774472076005084200,1.393084228515625,0.2830810546875,-0.8626556396484375,-0.342254638671875
1774472076015096800,1.403096923828125,0.1866455078125,-0.87030029296875,-0.320220947265625
1774472076025111000,1.413111083984375,-0.2658538818359375,-0.870574951171875,-0.170806884765625
1774472076035124000,1.4231240234375,-0.19110107421875,-0.890899658203125,-0.0736083984375
1774472076045138000,1.433137939453125,-0.015380859375,-0.917694091796875,-0.1233673095703125
1774472076055151000,1.443151123046875,0.0863189697265625,-0.989715576171875,-0.162628173828125
1774472076065165000,1.4531650390625,0.221893310546875,-1.005157470703125,-0.2447509765625
1774472076075178000,1.463177978515625,0.238922119140625,-1.0384979248046875,-0.323638916015625
1774472076085191000,1.47319091796875,0.2294769287109375,-1.07806396484375,-0.43475341796875
1774472076095205000,1.483205078125,0.1082305908203125,-1.1055908203125,-0.5591888427734375
1774472076105218000,1.493218017578125,0.08966064453125,-1.1088104248046875,-0.707611083984375
1774472076115232000,1.50323193359375,0.1044158935546875,-1.05413818359375,-0.629852294921875
1774472076125245000,1.513244873046875,0.069854736328125,-1.0260009765625,-0.421844482421875
1774472076135259000,1.5232587890625,0.028961181640625,-0.97857666015625,-0.281463623046875
1774472076145272000,1.53327197265625,0.02508544921875,-0.931915283203125,-0.192169189453125
1774472076155285000,1.543284912109375,0.05084228515625,-0.9127044677734375,-0.14532470703125
1774472076165299000,1.553298828125,0.0200653076171875,-0.9111175537109375,-0.154327392578125
1774472076175312100,1.56331201171875,-0.0605316162109375,-0.8198089599609375,-0.1294708251953125
1774472076185325800,1.573325927734375,-0.029815673828125,-0.723388671875,-0.13922119140625
1774472076195339000,1.583339111328125,0.068115234375,-0.656707763671875,-0.1157684326171875
1774472076205353000,1.59335302734375,0.297576904296875,-0.72113037109375,-0.12445068359375
1774472076215366000,1.603365966796875,0.5715484619140625,-1.0410003662109375,-0.1716461181640625
1774472076225379000,1.613379150390625,0.668914794921875,-1.2888946533203125,-0.0582427978515625
1774472076235393000,1.62339306640625,0.65960693359375,-1.25714111328125,0.1130523681640625
1774472076245406000,1.633406005859375,0.50555419921875,-1.1336822509765625,0.171356201171875
1774472076255420000,1.643419921875,0.2470245361328125,-1.0847015380859375,0.1236114501953125
1774472076265433000,1.65343310546875,0.0613250732421875,-0.980438232421875,0.1280517578125
1774472076275446800,1.66344677734375,-0.0290985107421875,-0.7863006591796875,0.186065673828125
1774472076285460000,1.6734599609375,0.083648681640625,-0.7921142578125,0.210693359375
1774472076295473000,1.683472900390625,0.1130828857421875,-0.88970947265625,0.160430908203125
1774472076305486800,1.69348681640625,0.254852294921875,-0.976348876953125,-0.0285797119140625
1774472076315500000,1.7035,0.3406829833984375,-1.04925537109375,-0.1231689453125
1774472076325514000,1.713513916015625,0.358245849609375,-1.075469970703125,-0.140625
1774472076335527000,1.72352685546875,0.3149871826171875,-1.068267822265625,-0.106353759765625
1774472076345541000,1.733541015625,0.2230682373046875,-1.056549072265625,-0.0239105224609375
1774472076355553800,1.7435537109375,0.2568206787109375,-1.0255889892578125,-0.0240478515625
1774472076365567000,1.75356689453125,0.2560272216796875,-1.057891845703125,-0.1490020751953125
1774472076375581000,1.763580810546875,0.2332611083984375,-1.051788330078125,-0.1575164794921875
1774472076385593900,1.77359375,0.264801025390625,-1.00152587890625,-0.0988922119140625
1774472076395608000,1.783608154296875,0.2988128662109375,-0.9518280029296875,-0.1305389404296875
1774472076405621000,1.79362109375,0.3432769775390625,-0.934234619140625,-0.1985321044921875
1774472076415635000,1.803635009765625,0.33624267578125,-0.92327880859375,-0.19720458984375
1774472076425647900,1.81364794921875,0.3071136474609375,-0.939483642578125,-0.1376800537109375
1774472076435662000,1.823662109375,0.255279541015625,-0.951446533203125,-0.13555908203125
1774472076445675000,1.833675048828125,0.164276123046875,-0.9319915771484375,-0.1502838134765625
1774472076455688000,1.84368798828125,0.1270599365234375,-0.853424072265625,-0.127410888671875
1774472076465702100,1.8537021484375,0.1783447265625,-0.8170013427734375,-0.0960540771484375
1774472076475714800,1.86371484375,0.1827850341796875,-0.80096435546875,-0.0107421875
1774472076485729000,1.87372900390625,0.1507720947265625,-0.7919158935546875,0.07720947265625
1774472076495742200,1.8837421875,0.13494873046875,-0.7688140869140625,0.133392333984375
1774472076505756000,1.893755859375,0.153472900390625,-0.767059326171875,0.1455535888671875
1774472076515769000,1.90376904296875,0.1716766357421875,-0.72076416015625,0.174102783203125
1774472076525782000,1.913781982421875,0.1627349853515625,-0.6357574462890625,0.2512664794921875
1774472076535796200,1.923796142578125,0.112701416015625,-0.56109619140625,0.1715087890625
1774472076545809200,1.93380908203125,0.0979461669921875,-0.5348358154296875,-0.01483154296875
1774472076555823000,1.943822998046875,0.0449066162109375,-0.625762939453125,-0.0325775146484375
1774472076565836300,1.953836181640625,0.05401611328125,-0.912322998046875,-0.01678466796875
1774472076575850200,1.963850341796875,0.0176544189453125,-1.8065643310546875,-0.0804901123046875
1774472076585863200,1.97386328125,0.2510833740234375,-2.0299072265625,-0.0733489990234375
1774472076595877000,1.983877197265625,0.276153564453125,-1.1018218994140625,0.3927001953125
1774472076605890300,1.993890380859375,0.1259918212890625,-0.9718017578125,-0.0566558837890625
1774472076615904000,2.003904052734375,0.125335693359375,-1.048095703125,-0.1773223876953125
1774472076625917200,2.013917236328125,0.2028045654296875,-1.053985595703125,-0.0643768310546875
1774472076635930000,2.02393017578125,0.21417236328125,-1.031494140625,-0.015167236328125
1774472076645944000,2.033944091796875,0.186981201171875,-1.0082244873046875,-0.031494140625
1774472076655957200,2.043957275390625,0.1949005126953125,-1.029388427734375,-0.102203369140625
1774472076665971200,2.05397119140625,0.2220611572265625,-1.086700439453125,-0.10992431640625
1774472076675984100,2.063984130859375,0.2455902099609375,-1.1601104736328125,-0.0993499755859375
1774472076685998000,2.073998046875,0.252960205078125,-1.2093505859375,-0.0720367431640625
1774472076696011000,2.084010986328125,0.21112060546875,-1.1896820068359375,-0.0199432373046875
1774472076706025200,2.094025146484375,0.18243408203125,-1.1492156982421875,-0.022674560546875
1774472076716038100,2.1040380859375,0.1469573974609375,-1.1297607421875,-0.00079345703125
1774472076726051000,2.114051025390625,0.135528564453125,-1.110504150390625,0.0344390869140625
1774472076736065000,2.12406494140625,0.1973876953125,-1.127044677734375,0.05242919921875
1774472076746078200,2.134078125,0.2607269287109375,-1.146148681640625,0.04901123046875
1774472076756092200,2.144092041015625,0.2269439697265625,-1.18499755859375,0.031158447265625
1774472076766105000,2.15410498046875,0.100311279296875,-1.2221832275390625,0.0050506591796875
1774472076776119300,2.164119384765625,0.0283050537109375,-1.1946868896484375,0.070343017578125
1774472076786132200,2.17413232421875,-0.0041046142578125,-1.164886474609375,0.0981597900390625
1774472076796146200,2.184146240234375,0.0171356201171875,-1.06268310546875,0.0645904541015625
1774472076806159400,2.194159423828125,0.0628509521484375,-0.972900390625,0.052886962890625
1774472076816173000,2.204173095703125,0.0946502685546875,-0.9574432373046875,0.0507354736328125
1774472076826186200,2.214186279296875,0.091461181640625,-0.9623565673828125,0.06884765625
1774472076836200200,2.2242001953125,0.080230712890625,-0.966827392578125,0.08074951171875
1774472076846213000,2.234213134765625,0.0408172607421875,-0.9743804931640625,0.0950164794921875
1774472076856227000,2.24422705078125,0.025146484375,-0.971527099609375,0.0908966064453125
1774472076866240300,2.254240234375,0.0725860595703125,-0.9628448486328125,0.0756683349609375
1774472076876253200,2.264253173828125,0.1232757568359375,-0.95306396484375,0.0618896484375
1774472076886267100,2.27426708984375,0.1579742431640625,-0.949432373046875,0.0170440673828125
1774472076896280300,2.2842802734375,0.1849822998046875,-0.9670257568359375,-0.0563201904296875
1774472076906294000,2.2942939453125,0.1986236572265625,-0.9491729736328125,-0.1373291015625
1774472076916307200,2.30430712890625,0.22808837890625,-0.91448974609375,-0.2317047119140625
1774472076926321200,2.314321044921875,0.2540435791015625,-0.856109619140625,-0.236541748046875
1774472076936334000,2.324333984375,0.2339324951171875,-0.8348388671875,-0.14117431640625
1774472076946348300,2.334348388671875,0.1517486572265625,-0.885711669921875,-0.0224151611328125
1774472076956361000,2.34436083984375,0.0919342041015625,-0.9359283447265625,0.0414886474609375
1774472076966375200,2.354375244140625,0.0531158447265625,-0.9588165283203125,0.0461578369140625
1774472076976388000,2.36438818359375,0.0044097900390625,-0.9418487548828125,0.00396728515625
1774472076986402300,2.37440234375,-0.0131988525390625,-0.9243011474609375,-0.06085205078125
1774472076996415200,2.384415283203125,-0.03228759765625,-0.974212646484375,-0.0479583740234375
1774472077006429200,2.39442919921875,-0.093109130859375,-1.0222320556640625,-0.0379486083984375
1774472077016442000,2.404442138671875,-0.1356048583984375,-1.0322265625,-0.06903076171875
1774472077026456000,2.4144560546875,-0.1041107177734375,-1.02410888671875,-0.1086578369140625
1774472077036469200,2.42446923828125,-0.0370635986328125,-1.0275726318359375,-0.1080322265625
1774472077046482200,2.434482177734375,-0.0065460205078125,-1.05303955078125,-0.074127197265625
1774472077056496000,2.44449609375,-0.046875,-1.0827484130859375,-0.0438995361328125
1774472077066509300,2.45450927734375,-0.1048736572265625,-1.124237060546875,-0.0643310546875
1774472077076523000,2.46452294921875,-0.1327972412109375,-1.0562744140625,-0.10064697265625
1774472077086536200,2.4745361328125,-0.1390380859375,-1.020904541015625,-0.0319061279296875
1774472077096550100,2.484550048828125,-0.1486358642578125,-1.0174407958984375,-0.0092315673828125
1774472077106563000,2.49456298828125,-0.156646728515625,-1.011810302734375,-0.0097503662109375
1774472077116577000,2.504576904296875,-0.1580657958984375,-0.99334716796875,-0.0197296142578125
1774472077126590200,2.514590087890625,-0.1669769287109375,-0.9831085205078125,0.0015869140625
1774472077136604200,2.524604248046875,-0.1679840087890625,-0.9713287353515625,0.0040130615234375
1774472077146617000,2.5346171875,-0.142181396484375,-0.988800048828125,0.0121002197265625
1774472077156631300,2.54463134765625,-0.1016998291015625,-1.0176544189453125,0.009002685546875
1774472077166644200,2.554644287109375,-0.114776611328125,-1.0826568603515625,-0.033294677734375
1774472077176658200,2.564658203125,-0.14599609375,-1.07550048828125,-0.0553131103515625
1774472077186671400,2.57467138671875,-0.130157470703125,-1.01580810546875,0.034515380859375
1774472077196685000,2.58468505859375,-0.230804443359375,-0.980438232421875,0.1220245361328125
1774472077206698200,2.5946982421875,-0.2906646728515625,-0.988372802734375,0.123504638671875
1774472077216712200,2.604712158203125,-0.2701568603515625,-1.0076141357421875,0.1149749755859375
1774472077226725000,2.61472509765625,-0.2388153076171875,-1.017364501953125,0.1272735595703125
1774472077236739000,2.624739013671875,-0.237274169921875,-1.05780029296875,0.20184326171875
1774472077246752300,2.634752197265625,-0.260284423828125,-1.022247314453125,0.0233917236328125
1774472077256766200,2.64476611328125,-0.19586181640625,-0.9149627685546875,-0.091796875
1774472077266779100,2.654779052734375,-0.1273956298828125,-0.90850830078125,-0.0667877197265625
1774472077276792300,2.664792236328125,-0.142730712890625,-0.8925018310546875,-0.18212890625
1774472077286806000,2.674805908203125,-0.1734466552734375,-0.93634033203125,-0.2089080810546875
1774472077296819200,2.684819091796875,-0.2158355712890625,-0.973297119140625,-0.130126953125
1774472077306833200,2.694833251953125,-0.2815093994140625,-0.9921875,0.016815185546875
1774472077316846000,2.70484619140625,-0.3323974609375,-1.031158447265625,0.0953826904296875
1774472077326860300,2.7148603515625,-0.39788818359375,-1.0436859130859375,0.1855926513671875
1774472077336873200,2.724873291015625,-0.525604248046875,-1.0030517578125,0.2380828857421875
1774472077346887200,2.73488720703125,-0.5041961669921875,-0.9805450439453125,0.1640625
1774472077356900000,2.744900146484375,-0.4120941162109375,-0.9914398193359375,0.1186676025390625
1774472077366914300,2.754914306640625,-0.3670196533203125,-1.059600830078125,0.1689300537109375
1774472077376927200,2.76492724609375,-0.3717803955078125,-1.1672821044921875,0.1987457275390625
1774472077386941200,2.774941162109375,-0.3661346435546875,-1.182403564453125,0.1435089111328125
1774472077396954000,2.7849541015625,-0.398529052734375,-1.0957183837890625,-0.007232666015625
1774472077406968000,2.794968017578125,-0.389312744140625,-1.0468902587890625,-0.1043701171875
1774472077416981200,2.804981201171875,-0.364013671875,-1.0628204345703125,-0.0919342041015625
1774472077426995200,2.8149951171875,-0.3147430419921875,-1.0508270263671875,-0.008392333984375
1774472077437008100,2.825008056640625,-0.266693115234375,-1.0343780517578125,0.04833984375
1774472077447022000,2.83502197265625,-0.201995849609375,-1.0641326904296875,0.007415771484375
1774472077457035000,2.845034912109375,-0.1793365478515625,-1.199798583984375,-0.0956573486328125
1774472077467049200,2.85504931640625,-0.137603759765625,-1.316436767578125,-0.1503143310546875
1774472077477062100,2.865062255859375,-0.24322509765625,-1.2174530029296875,-0.0970001220703125
1774472077487076400,2.875076416015625,-0.3040618896484375,-1.1078948974609375,-0.07012939453125
1774472077497089000,2.885089111328125,-0.3875579833984375,-1.0334625244140625,-0.0709381103515625
1774472077507102200,2.895102294921875,-0.51416015625,-0.9406280517578125,0.0364837646484375
1774472077517116200,2.9051162109375,-0.61639404296875,-0.8077545166015625,0.203369140625
1774472077527129000,2.915129150390625,-0.770843505859375,-0.674102783203125,0.298248291015625
1774472077537143300,2.925143310546875,-0.824066162109375,-0.61688232421875,0.273468017578125
1774472077547156000,2.935156005859375,-0.8207244873046875,-0.600341796875,0.18695068359375
1774472077557170200,2.945170166015625,-0.8380279541015625,-0.5971221923828125,0.062164306640625
1774472077567183400,2.955183349609375,-0.812469482421875,-0.585540771484375,-0.033538818359375
1774472077577197000,2.965197021484375,-0.7451019287109375,-0.5754241943359375,-0.0873260498046875
1774472077587210200,2.975210205078125,-0.61407470703125,-0.5679168701171875,-0.072967529296875
1774472077597224200,2.98522412109375,-0.727996826171875,-0.5550994873046875,-0.031494140625
1774472077607237000,2.995237060546875,-0.9955902099609375,-0.53948974609375,-0.0250244140625
1774472077617251000,3.0052509765625,-1.06866455078125,-0.5544891357421875,-0.0919647216796875
1774472077627264300,3.01526416015625,-0.9843902587890625,-0.5743865966796875,-0.1801910400390625
1774472077637278000,3.02527783203125,-0.902191162109375,-0.5847015380859375,-0.1753082275390625
1774472077647291100,3.035291015625,-0.8587799072265625,-0.591583251953125,-0.0984039306640625
1774472077657305300,3.045305419921875,-0.8047943115234375,-0.5726318359375,-0.01458740234375
1774472077667318000,3.055318115234375,-0.7159576416015625,-0.5510711669921875,0.0823822021484375
1774472077677332200,3.065332275390625,-0.6184539794921875,-0.5677642822265625,0.2185821533203125
1774472077687345200,3.07534521484375,-0.4260406494140625,-0.5429534912109375,0.328399658203125
1774472077697358000,3.085358154296875,0.426300048828125,-0.249267578125,0.4291839599609375
1774472077707372300,3.095372314453125,0.0401153564453125,-0.361236572265625,0.516937255859375
1774472077717385200,3.10538525390625,-0.3061676025390625,-0.6005859375,0.46600341796875
1774472077727399200,3.115399169921875,-0.0238494873046875,-0.75201416015625,0.37054443359375
1774472077737412000,3.125412109375,0.106292724609375,-0.7901763916015625,0.3289642333984375
1774472077747426300,3.13542626953125,-0.06536865234375,-0.757049560546875,0.3989715576171875
1774472077757439200,3.145439208984375,-0.2330780029296875,-0.7055816650390625,0.5550689697265625
1774472077767453200,3.155453125,-0.333099365234375,-0.7819671630859375,0.5177001953125
1774472077777466000,3.165466064453125,-0.364471435546875,-0.7617034912109375,0.5444488525390625
1774472077787480000,3.17547998046875,-0.2886199951171875,-0.7157745361328125,0.5196533203125
1774472077797493200,3.1854931640625,-0.264984130859375,-0.827484130859375,0.2830657958984375
1774472077807507200,3.195507080078125,-0.2556915283203125,-0.9210662841796875,0.134124755859375
1774472077817520000,3.20552001953125,-0.2242584228515625,-1.005767822265625,0.005157470703125
1774472077827534000,3.2155341796875,-0.282073974609375,-1.134918212890625,-0.226287841796875
1774472077837547000,3.225547119140625,-0.343658447265625,-1.2386474609375,-0.37176513671875
1774472077847561200,3.235561279296875,-0.3955535888671875,-1.2624969482421875,-0.3658447265625
1774472077857574100,3.24557421875,-0.3671417236328125,-1.071075439453125,-0.065155029296875
1774472077867587000,3.255587158203125,-0.273101806640625,-0.916015625,0.1659088134765625
1774472077877601000,3.26560107421875,-0.24627685546875,-0.958465576171875,0.1718292236328125
1774472077887614200,3.2756142578125,-0.212799072265625,-0.98876953125,0.208648681640625
1774472077897628200,3.285628173828125,-0.2341461181640625,-0.949493408203125,0.2118682861328125
1774472077907641000,3.29564111328125,-0.29669189453125,-0.886016845703125,0.123931884765625
1774472077917655300,3.3056552734375,-0.338531494140625,-0.8575286865234375,0.053955078125
1774472077927668000,3.31566796875,-0.3491668701171875,-0.8299713134765625,0.0324249267578125
1774472077937682200,3.32568212890625,-0.353271484375,-0.8065185546875,0.089080810546875
1774472077947695400,3.3356953125,-0.3355560302734375,-0.795928955078125,0.1125640869140625
1774472077957709000,3.345708984375,-0.30853271484375,-0.764617919921875,0.0439605712890625
1774472077967722200,3.35572216796875,-0.361114501953125,-0.7629852294921875,-0.00494384765625
1774472077977736200,3.365736083984375,-0.41888427734375,-0.7870635986328125,-0.014373779296875
1774472077987749000,3.3757490234375,-0.4496307373046875,-0.8057403564453125,-0.0110626220703125
1774472077997763000,3.38576318359375,-0.50531005859375,-0.8282470703125,-0.0575408935546875
1774472078007776300,3.3957763671875,-0.5677642822265625,-0.875579833984375,-0.097412109375
1774472078017789200,3.4057890625,-0.5843048095703125,-0.9155120849609375,-0.0933074951171875
1774472078027803100,3.41580322265625,-0.534942626953125,-0.8892822265625,-0.132080078125
1774472078037816300,3.42581640625,-0.5102691650390625,-0.847503662109375,-0.1605682373046875
1774472078047830000,3.435830078125,-0.4703826904296875,-0.8417205810546875,-0.1809844970703125
1774472078057843200,3.44584326171875,-0.4588775634765625,-0.871551513671875,-0.1708831787109375
1774472078067857200,3.455857177734375,-0.4348297119140625,-0.8994903564453125,-0.1862945556640625
1774472078077870000,3.4658701171875,-0.4047088623046875,-0.9136810302734375,-0.200164794921875
1774472078087884300,3.47588427734375,-0.413909912109375,-0.90643310546875,-0.21087646484375
1774472078097897200,3.485897216796875,-0.4044342041015625,-0.892333984375,-0.252899169921875
1774472078107911200,3.4959111328125,-0.3892974853515625,-0.9059600830078125,-0.3005828857421875
1774472078117924000,3.505924072265625,-0.45611572265625,-0.9037933349609375,-0.29595947265625
1774472078127938300,3.515938232421875,-0.5417327880859375,-0.8963165283203125,-0.2513275146484375
1774472078137951200,3.525951171875,-0.5966949462890625,-0.909393310546875,-0.165252685546875
1774472078147964200,3.535964111328125,-0.579498291015625,-0.9127349853515625,-0.1272430419921875
1774472078157978000,3.54597802734375,-0.5543365478515625,-0.9026031494140625,-0.1272125244140625
1774472078167991000,3.555990966796875,-0.5465087890625,-0.870452880859375,-0.113739013671875
1774472078178005200,3.566005126953125,-0.51458740234375,-0.845977783203125,-0.1145477294921875
1774472078188018200,3.57601806640625,-0.4700775146484375,-0.83648681640625,-0.1217193603515625
1774472078198032100,3.5860322265625,-0.4422454833984375,-0.8334503173828125,-0.1275482177734375
1774472078208045300,3.59604541015625,-0.4223785400390625,-0.837860107421875,-0.148681640625
1774472078218059000,3.60605908203125,-0.40289306640625,-0.833038330078125,-0.14544677734375
1774472078228072200,3.616072265625,-0.395904541015625,-0.831512451171875,-0.12652587890625
1774472078238086100,3.626086181640625,-0.413055419921875,-0.8419647216796875,-0.1244354248046875
1774472078248099000,3.63609912109375,-0.4428558349609375,-0.8436431884765625,-0.1528472900390625
1774472078258113000,3.646113037109375,-0.5349273681640625,-0.84649658203125,-0.1198577880859375
1774472078268126200,3.656126220703125,-0.587005615234375,-0.8557586669921875,-0.06927490234375
1774472078278139100,3.66613916015625,-0.5303497314453125,-0.8624420166015625,-0.1573028564453125
1774472078288153000,3.676153076171875,-0.4976959228515625,-0.86492919921875,-0.22100830078125
1774472078298166300,3.686166259765625,-0.501922607421875,-0.8541107177734375,-0.2408294677734375
1774472078308180000,3.696179931640625,-0.5377960205078125,-0.8337249755859375,-0.241851806640625
1774472078318193200,3.706193115234375,-0.561981201171875,-0.808502197265625,-0.2274017333984375
1774472078328207400,3.716207275390625,-0.5367279052734375,-0.801727294921875,-0.214141845703125
1774472078338220000,3.726219970703125,-0.4987640380859375,-0.812713623046875,-0.2246856689453125
1774472078348234200,3.736234130859375,-0.477691650390625,-0.814239501953125,-0.2112884521484375
1774472078358247200,3.7462470703125,-0.48272705078125,-0.806640625,-0.172332763671875
1774472078368261000,3.75626123046875,-0.5038909912109375,-0.8213958740234375,-0.10467529296875
1774472078378274300,3.7662744140625,-0.529998779296875,-0.8466644287109375,-0.0856170654296875
1774472078388288300,3.776288330078125,-0.548492431640625,-0.853546142578125,-0.1231842041015625
1774472078398301200,3.78630126953125,-0.54766845703125,-0.841766357421875,-0.15386962890625
1774472078408314000,3.796314208984375,-0.5662384033203125,-0.852935791015625,-0.137542724609375
1774472078418328300,3.806328369140625,-0.5734405517578125,-0.8572540283203125,-0.1237335205078125
1774472078428341200,3.81634130859375,-0.583831787109375,-0.8675689697265625,-0.1431121826171875
1774472078438355200,3.826355224609375,-0.58642578125,-0.877716064453125,-0.205291748046875
1774472078448368000,3.8363681640625,-0.57098388671875,-0.880889892578125,-0.2276763916015625
1774472078458382000,3.846382080078125,-0.5673980712890625,-0.8884735107421875,-0.198577880859375
1774472078468395300,3.856395263671875,-0.5437469482421875,-0.8863983154296875,-0.1707916259765625
1774472078478409200,3.8664091796875,-0.510833740234375,-0.884552001953125,-0.1209869384765625
1774472078488422100,3.876422119140625,-0.505340576171875,-0.887420654296875,-0.078826904296875
1774472078498436000,3.88643603515625,-0.5105133056640625,-0.90869140625,-0.071380615234375
1774472078508449000,3.896448974609375,-0.5074310302734375,-0.91265869140625,-0.083984375
1774472078518462200,3.906462158203125,-0.50347900390625,-0.88818359375,-0.11016845703125
1774472078528476000,3.916475830078125,-0.522064208984375,-0.8643951416015625,-0.1309051513671875
1774472078538488800,3.92648876953125,-0.55474853515625,-0.851409912109375,-0.1386871337890625
1774472078548503000,3.9365029296875,-0.58026123046875,-0.892730712890625,-0.150604248046875
1774472078558516000,3.946515869140625,-0.5742034912109375,-0.911529541015625,-0.144256591796875
1774472078568530200,3.9565302734375,-0.5845489501953125,-0.9052886962890625,-0.1483612060546875
1774472078578542800,3.96654296875,-0.6146087646484375,-0.8880462646484375,-0.1513214111328125
1774472078588557000,3.97655712890625,-0.6207733154296875,-0.871795654296875,-0.175079345703125
1774472078598570000,3.986570068359375,-0.61627197265625,-0.871124267578125,-0.1828155517578125
1774472078608584000,3.996583984375,-0.5994110107421875,-0.864837646484375,-0.1765899658203125
1774472078618597000,4.00659716796875,-0.589935302734375,-0.8489990234375,-0.1656494140625
1774472078628609800,4.01660986328125,-0.5807342529296875,-0.834747314453125,-0.177947998046875
1774472078638624000,4.0266240234375,-0.5701446533203125,-0.82574462890625,-0.20635986328125
1774472078648637200,4.03663720703125,-0.5660247802734375,-0.8165283203125,-0.2446136474609375
1774472078658651000,4.04665087890625,-0.55987548828125,-0.8088836669921875,-0.274810791015625
1774472078668664000,4.0566640625,-0.566619873046875,-0.8119049072265625,-0.2907257080078125
1774472078678678000,4.066677978515625,-0.590362548828125,-0.8253631591796875,-0.30328369140625
1774472078688691000,4.07669091796875,-0.6001129150390625,-0.8324127197265625,-0.31573486328125
1774472078698705000,4.086704833984375,-0.59881591796875,-0.826416015625,-0.3151092529296875
1774472078708718000,4.096718017578125,-0.59759521484375,-0.8100433349609375,-0.2788543701171875
1774472078718731800,4.106731689453125,-0.5909881591796875,-0.78515625,-0.194244384765625
1774472078728745000,4.116744873046875,-0.5671539306640625,-0.7521514892578125,-0.08770751953125
1774472078738758000,4.1267578125,-0.552337646484375,-0.760955810546875,-0.035858154296875
1774472078748771800,4.136771728515625,-0.55328369140625,-0.780487060546875,-0.0272064208984375
1774472078758785000,4.146784912109375,-0.56805419921875,-0.7960357666015625,-0.0458831787109375
1774472078768799000,4.156799072265625,-0.56365966796875,-0.8059844970703125,-0.0873565673828125
1774472078778812000,4.16681201171875,-0.5524444580078125,-0.82843017578125,-0.1488494873046875
1774472078788826000,4.176826171875,-0.539581298828125,-0.830657958984375,-0.16876220703125
1774472078798838800,4.1868388671875,-0.567901611328125,-0.8260498046875,-0.1505126953125
1774472078808853000,4.19685302734375,-0.596954345703125,-0.8196563720703125,-0.117767333984375
1774472078818866000,4.206865966796875,-0.61163330078125,-0.825042724609375,-0.0968475341796875
1774472078828880100,4.216880126953125,-0.6251068115234375,-0.825958251953125,-0.0951080322265625
1774472078838893000,4.22689306640625,-0.6178741455078125,-0.83087158203125,-0.1311187744140625
1774472078848906000,4.236906005859375,-0.5782012939453125,-0.84393310546875,-0.148468017578125
1774472078858920000,4.246919921875,-0.5063018798828125,-0.8640289306640625,-0.1194000244140625
1774472078868932900,4.256932861328125,-0.45123291015625,-0.886444091796875,-0.0781097412109375
1774472078878947000,4.266947021484375,-0.417327880859375,-0.899932861328125,-0.0167694091796875
1774472078888960000,4.2769599609375,-0.427093505859375,-0.9126434326171875,-0.0035400390625
1774472078898974000,4.286973876953125,-0.447052001953125,-0.939453125,-0.07171630859375
1774472078908987100,4.296987060546875,-0.45111083984375,-0.9783782958984375,-0.1467742919921875
1774472078919000800,4.307000732421875,-0.429351806640625,-0.9929656982421875,-0.1723785400390625
1774472078929014000,4.317013916015625,-0.42523193359375,-0.9851226806640625,-0.171905517578125
1774472078939028000,4.327028076171875,-0.4484405517578125,-0.9896240234375,-0.17425537109375
1774472078949041000,4.337041015625,-0.4446258544921875,-0.9921875,-0.1591644287109375
1774472078959054000,4.34705419921875,-0.43927001953125,-1.002685546875,-0.175933837890625
1774472078969068000,4.357068115234375,-0.460052490234375,-0.9869384765625,-0.2012939453125
1774472078979081000,4.3670810546875,-0.4897003173828125,-0.9539947509765625,-0.2321014404296875
1774472078989095000,4.377094970703125,-0.5270843505859375,-0.911834716796875,-0.247955322265625
1774472078999108000,4.387108154296875,-0.5449066162109375,-0.8831329345703125,-0.2555389404296875
1774472079009121800,4.397121826171875,-0.53411865234375,-0.8853607177734375,-0.2567596435546875
1774472079019135000,4.407135009765625,-0.5292205810546875,-0.9006195068359375,-0.2453460693359375
1774472079029149000,4.41714892578125,-0.4915771484375,-0.875,-0.2765045166015625
1774472079039161900,4.427161865234375,-0.4350433349609375,-0.842437744140625,-0.378326416015625
1774472079049176000,4.437176025390625,-0.3495025634765625,-0.836822509765625,-0.4476318359375
1774472079059189000,4.44718896484375,-0.2860870361328125,-0.7976837158203125,-0.4451751708984375
1774472079069202000,4.457201904296875,-0.2876739501953125,-0.7230224609375,-0.4203643798828125
1774472079079216000,4.467216064453125,-0.2999725341796875,-0.656158447265625,-0.4136199951171875
1774472079089228800,4.477228759765625,-0.3097686767578125,-0.6470489501953125,-0.459503173828125
1774472079099243000,4.487242919921875,-0.286163330078125,-0.6863250732421875,-0.472412109375
1774472079109256000,4.497255859375,-0.297088623046875,-0.7069549560546875,-0.4418792724609375
1774472079119270000,4.507269775390625,-0.3473052978515625,-0.6878509521484375,-0.402069091796875
1774472079129283000,4.517282958984375,-0.3458404541015625,-0.687164306640625,-0.436737060546875
1774472079139297000,4.527297119140625,-0.26507568359375,-0.7333831787109375,-0.5224761962890625
1774472079149310000,4.53731005859375,-0.1720123291015625,-0.758392333984375,-0.5871429443359375
1774472079159323000,4.547322998046875,-0.130401611328125,-0.761871337890625,-0.640655517578125
1774472079169337000,4.557337158203125,-0.1459808349609375,-0.78753662109375,-0.7273712158203125
1774472079179350000,4.56735009765625,-0.13836669921875,-0.8072967529296875,-0.7426605224609375
1774472079189364000,4.577364013671875,-0.1712188720703125,-0.7948150634765625,-0.6915130615234375
1774472079199377200,4.587377197265625,-0.2325592041015625,-0.79632568359375,-0.6104583740234375
1774472079209390800,4.597390869140625,-0.270233154296875,-0.8058624267578125,-0.503265380859375
1774472079219404000,4.607404052734375,-0.3167724609375,-0.7927703857421875,-0.4051055908203125
1774472079229418000,4.61741796875,-0.3613433837890625,-0.77252197265625,-0.326873779296875
1774472079239431000,4.627430908203125,-0.3854827880859375,-0.7547454833984375,-0.30828857421875
1774472079249444900,4.63744482421875,-0.3726654052734375,-0.7579803466796875,-0.333038330078125
1774472079259458000,4.6474580078125,-0.3567047119140625,-0.756011962890625,-0.3922271728515625
1774472079269471000,4.657470947265625,-0.313873291015625,-0.7541656494140625,-0.487518310546875
1774472079279485000,4.66748486328125,-0.257843017578125,-0.7536773681640625,-0.569427490234375
1774472079289497900,4.677497802734375,-0.228302001953125,-0.7538299560546875,-0.655120849609375
1774472079299511800,4.68751171875,-0.209808349609375,-0.7600555419921875,-0.725982666015625
1774472079309525000,4.69752490234375,-0.2103118896484375,-0.75933837890625,-0.769317626953125
1774472079319539000,4.7075390625,-0.2316741943359375,-0.74462890625,-0.781646728515625
1774472079329552000,4.7175517578125,-0.257476806640625,-0.7371673583984375,-0.791290283203125
1774472079339566000,4.727566162109375,-0.2753448486328125,-0.7306365966796875,-0.7736358642578125
1774472079349578800,4.737578857421875,-0.256927490234375,-0.7058258056640625,-0.713348388671875
1774472079359592000,4.747592041015625,-0.24212646484375,-0.6597900390625,-0.6422576904296875
1774472079369606100,4.757606201171875,-0.2457427978515625,-0.6241455078125,-0.59619140625
1774472079379618800,4.767618896484375,-0.2433624267578125,-0.6153564453125,-0.5966033935546875
1774472079389633000,4.777633056640625,-0.233489990234375,-0.625091552734375,-0.61761474609375
1774472079399646000,4.78764599609375,-0.2047271728515625,-0.646026611328125,-0.6433258056640625
1774472079409660000,4.797659912109375,-0.1854248046875,-0.668670654296875,-0.6709136962890625
1774472079419673000,4.807673095703125,-0.1754302978515625,-0.6866912841796875,-0.6844024658203125
1774472079429687000,4.81768701171875,-0.15740966796875,-0.6909942626953125,-0.6909332275390625
1774472079439700000,4.827699951171875,-0.1430511474609375,-0.6809539794921875,-0.7083587646484375
1774472079449714000,4.8377138671875,-0.134979248046875,-0.6573638916015625,-0.743560791015625
1774472079459727000,4.84772705078125,-0.14208984375,-0.64056396484375,-0.79266357421875
1774472079469740000,4.857739990234375,-0.1554107666015625,-0.6530609130859375,-0.8198394775390625
1774472079479754000,4.86775390625,-0.1358642578125,-0.675201416015625,-0.81304931640625
1774472079489767200,4.87776708984375,-0.109954833984375,-0.687347412109375,-0.7828369140625
1774472079499780900,4.88778076171875,-0.103546142578125,-0.6885986328125,-0.749908447265625
1774472079509794000,4.8977939453125,-0.108734130859375,-0.6870574951171875,-0.710540771484375
1774472079519808000,4.90780810546875,-0.113128662109375,-0.686767578125,-0.679443359375
1774472079529821000,4.917821044921875,-0.13116455078125,-0.6943206787109375,-0.6743011474609375
1774472079539835000,4.9278349609375,-0.1428985595703125,-0.7098388671875,-0.690338134765625
1774472079549848000,4.93784814453125,-0.1466827392578125,-0.72686767578125,-0.710052490234375
1774472079559861000,4.947861083984375,-0.156158447265625,-0.7446136474609375,-0.7248687744140625
1774472079569875000,4.957875,-0.171356201171875,-0.758087158203125,-0.73504638671875
1774472079579887900,4.967887939453125,-0.1808929443359375,-0.76312255859375,-0.7285003662109375
1774472079589901800,4.97790185546875,-0.1913604736328125,-0.7641754150390625,-0.7137603759765625
1774472079599915000,4.9879150390625,-0.201263427734375,-0.7670135498046875,-0.6968841552734375
1774472079609929000,4.997928955078125,-0.20770263671875,-0.769775390625,-0.6765594482421875
1774472079619942000,5.00794189453125,-0.206756591796875,-0.7686614990234375,-0.6623382568359375
1774472079629956000,5.0179560546875,-0.198577880859375,-0.7653961181640625,-0.639984130859375
1774472079639968800,5.02796875,-0.188995361328125,-0.76763916015625,-0.6101531982421875
1774472079649983000,5.03798291015625,-0.1796722412109375,-0.7640533447265625,-0.58721923828125
1774472079659996200,5.04799609375,-0.1750030517578125,-0.75823974609375,-0.5843658447265625
1774472079670008800,5.0580087890625,-0.1838531494140625,-0.7595977783203125,-0.598297119140625
1774472079680023000,5.06802294921875,-0.1962432861328125,-0.768341064453125,-0.6195831298828125
1774472079690036000,5.078035888671875,-0.195709228515625,-0.7801666259765625,-0.632354736328125
1774472079700050000,5.0880498046875,-0.196380615234375,-0.7896881103515625,-0.6376190185546875
1774472079710063000,5.09806298828125,-0.2017669677734375,-0.79266357421875,-0.64031982421875
1774472079720077000,5.1080771484375,-0.2026824951171875,-0.79254150390625,-0.629547119140625
1774472079730090000,5.118090087890625,-0.2011566162109375,-0.7897796630859375,-0.6143341064453125
1774472079740104000,5.12810400390625,-0.1966094970703125,-0.7843017578125,-0.5984954833984375
1774472079750117000,5.1381171875,-0.1861114501953125,-0.7790679931640625,-0.588958740234375
1774472079760130000,5.148130126953125,-0.1829681396484375,-0.777130126953125,-0.5897064208984375
1774472079770144000,5.15814404296875,-0.1798858642578125,-0.7763671875,-0.5977325439453125
1774472079780157000,5.168156982421875,-0.178131103515625,-0.7747344970703125,-0.603363037109375
1774472079790171000,5.1781708984375,-0.170440673828125,-0.76776123046875,-0.5971527099609375
1774472079800184000,5.18818408203125,-0.1553192138671875,-0.76611328125,-0.5829620361328125
1774472079810198000,5.198197998046875,-0.1533966064453125,-0.763885498046875,-0.5720977783203125
1774472079820211000,5.2082109375,-0.1532440185546875,-0.756744384765625,-0.565185546875
1774472079830225000,5.218224853515625,-0.1588897705078125,-0.7531890869140625,-0.564788818359375
1774472079840237800,5.22823779296875,-0.165252685546875,-0.7582550048828125,-0.57318115234375
1774472079850252000,5.238251953125,-0.166534423828125,-0.761932373046875,-0.583221435546875
1774472079860265000,5.248264892578125,-0.167205810546875,-0.763824462890625,-0.5934295654296875
1774472079870278000,5.25827783203125,-0.1587371826171875,-0.7660369873046875,-0.5947723388671875
1774472079880291800,5.268291748046875,-0.1461334228515625,-0.753570556640625,-0.5909271240234375
1774472079890305000,5.278304931640625,-0.133758544921875,-0.74298095703125,-0.5830535888671875
1774472079900319000,5.288319091796875,-0.1229705810546875,-0.7326202392578125,-0.586029052734375
1774472079910332000,5.298331787109375,-0.1185760498046875,-0.72796630859375,-0.602813720703125
1774472079920346000,5.30834619140625,-0.1165771484375,-0.7397918701171875,-0.6210784912109375
1774472079930358800,5.31835888671875,-0.1218109130859375,-0.7559051513671875,-0.6376953125
1774472079940373000,5.328373046875,-0.1392669677734375,-0.767791748046875,-0.6560211181640625
1774472079950386000,5.338385986328125,-0.155975341796875,-0.7612762451171875,-0.664886474609375
1774472079960398800,5.34839892578125,-0.1666412353515625,-0.7481231689453125,-0.6652374267578125
1774472079970413000,5.3584130859375,-0.1782684326171875,-0.7447357177734375,-0.6584930419921875
1774472079980426000,5.368426025390625,-0.185943603515625,-0.7444305419921875,-0.6529388427734375
1774472079990440000,5.37843994140625,-0.187164306640625,-0.7424774169921875,-0.6462554931640625
1774472080000453000,5.388453125,-0.185089111328125,-0.7332611083984375,-0.629638671875
1774472080010467000,5.398467041015625,-0.184539794921875,-0.7223663330078125,-0.6292724609375
1774472080020480000,5.40847998046875,-0.196990966796875,-0.7199249267578125,-0.664794921875
1774472080030494000,5.418493896484375,-0.2088775634765625,-0.7244720458984375,-0.69525146484375
1774472080040507100,5.428507080078125,-0.2183685302734375,-0.7259368896484375,-0.7079620361328125
1774472080050520800,5.438520751953125,-0.2333831787109375,-0.7283935546875,-0.7134857177734375
1774472080060534000,5.448533935546875,-0.24822998046875,-0.7245330810546875,-0.7147369384765625
1774472080070547000,5.458546875,-0.2556304931640625,-0.707183837890625,-0.7213287353515625
1774472080080561000,5.468560791015625,-0.2750091552734375,-0.6954345703125,-0.7271728515625
1774472080090574000,5.478573974609375,-0.2984619140625,-0.6986083984375,-0.7025299072265625
1774472080100588000,5.488588134765625,-0.2991943359375,-0.7051544189453125,-0.678375244140625
1774472080110601000,5.49860107421875,-0.289031982421875,-0.709564208984375,-0.6628265380859375
1774472080120615000,5.508614990234375,-0.280487060546875,-0.694793701171875,-0.64849853515625
1774472080130627800,5.5186279296875,-0.2702789306640625,-0.6776885986328125,-0.65838623046875
1774472080140642000,5.52864208984375,-0.2718048095703125,-0.680633544921875,-0.6746826171875
1774472080150655000,5.538655029296875,-0.26983642578125,-0.682281494140625,-0.7008819580078125
1774472080160668000,5.54866796875,-0.2525634765625,-0.67633056640625,-0.75518798828125
1774472080170681900,5.558681884765625,-0.2165069580078125,-0.67840576171875,-0.7874603271484375
1774472080180695000,5.568695068359375,-0.1977081298828125,-0.6954803466796875,-0.8010711669921875
1774472080190709000,5.578708984375,-0.18505859375,-0.7103271484375,-0.801727294921875
1774472080200722000,5.588721923828125,-0.1856231689453125,-0.69873046875,-0.7993927001953125
1774472080210736000,5.598736083984375,-0.1781005859375,-0.662445068359375,-0.8226776123046875
1774472080220748800,5.608748779296875,-0.1544036865234375,-0.6460723876953125,-0.84417724609375
1774472080230763000,5.618762939453125,-0.1314544677734375,-0.6640777587890625,-0.841217041015625
1774472080240776000,5.62877587890625,-0.1060333251953125,-0.6859283447265625,-0.8159332275390625
1774472080250788900,5.638788818359375,-0.0893096923828125,-0.698272705078125,-0.758575439453125
1774472080260803000,5.648802978515625,-0.09368896484375,-0.6907196044921875,-0.700408935546875
1774472080270815700,5.658815673828125,-0.1145172119140625,-0.716033935546875,-0.667633056640625
1774472080280830000,5.668829833984375,-0.142547607421875,-0.7539520263671875,-0.6473388671875
1774472080290843100,5.678843017578125,-0.1629791259765625,-0.7636871337890625,-0.6248779296875
1774472080300857000,5.688857177734375,-0.1884765625,-0.752227783203125,-0.659759521484375
1774472080310870000,5.6988701171875,-0.2120819091796875,-0.7410736083984375,-0.6585845947265625
1774472080320884000,5.708884033203125,-0.2347412109375,-0.7460174560546875,-0.6391143798828125
1774472080330897000,5.71889697265625,-0.2525482177734375,-0.758392333984375,-0.642974853515625
1774472080340910800,5.728910888671875,-0.268280029296875,-0.735565185546875,-0.6531982421875
1774472080350924000,5.738924072265625,-0.2833404541015625,-0.706146240234375,-0.6920166015625
1774472080360937000,5.74893701171875,-0.2974395751953125,-0.6933746337890625,-0.722869873046875
1774472080370951000,5.758950927734375,-0.3090972900390625,-0.701019287109375,-0.735198974609375
1774472080380964000,5.768964111328125,-0.32305908203125,-0.70843505859375,-0.73785400390625
1774472080390977800,5.778977783203125,-0.3374481201171875,-0.7140655517578125,-0.7385101318359375
1774472080400991000,5.788990966796875,-0.3609771728515625,-0.7153167724609375,-0.7592620849609375
1774472080411005000,5.7990048828125,-0.40789794921875,-0.6924591064453125,-0.780303955078125
1774472080421017900,5.809017822265625,-0.49798583984375,-0.6392669677734375,-0.805023193359375
1774472080431032000,5.819031982421875,-0.40802001953125,-0.6114349365234375,-0.760345458984375
1774472080441045000,5.829044921875,-0.2612152099609375,-0.722076416015625,-0.672027587890625
1774472080451058000,5.839057861328125,-0.06732177734375,-0.5751953125,-0.656402587890625
1774472080461072000,5.84907177734375,0.03631591796875,-0.40789794921875,-0.688385009765625
1774472080471085000,5.8590849609375,-0.0882415771484375,-0.61285400390625,-0.681640625
1774472080481099000,5.86909912109375,-0.180206298828125,-0.658538818359375,-0.67706298828125
1774472080491112000,5.87911181640625,-0.2725677490234375,-0.6679229736328125,-0.7098541259765625
1774472080501126100,5.889126220703125,-0.3102569580078125,-0.6934051513671875,-0.7574462890625
1774472080511138800,5.899138916015625,-0.306365966796875,-0.67999267578125,-0.7833099365234375
1774472080521153000,5.909153076171875,-0.3341827392578125,-0.7060546875,-0.7835845947265625
1774472080531166200,5.919166259765625,-0.35504150390625,-0.7169647216796875,-0.8014068603515625
1774472080541180400,5.929180419921875,-0.455535888671875,-0.6886138916015625,-0.77001953125
1774472080551193300,5.939193359375,-0.4188079833984375,-0.6789398193359375,-0.6761932373046875
1774472080561206300,5.949206298828125,-0.3222808837890625,-0.7152862548828125,-0.6250457763671875
1774472080571220500,5.959220458984375,-0.258697509765625,-0.7451934814453125,-0.6075286865234375
1774472080581233200,5.969233154296875,-0.170654296875,-0.7416839599609375,-0.591278076171875
1774472080591247400,5.979247314453125,-0.1252899169921875,-0.738311767578125,-0.4585113525390625
1774472080601260300,5.98926025390625,-0.289825439453125,-0.73675537109375,-0.4120635986328125
1774472080611274200,5.999274169921875,-0.3901214599609375,-0.7348480224609375,-0.544586181640625
1774472080621287400,6.009287353515625,-0.2919464111328125,-0.742279052734375,-0.5795745849609375
1774472080631301400,6.01930126953125,-0.271240234375,-0.7196502685546875,-0.681884765625
1774472080641314300,6.029314208984375,-0.2420654296875,-0.667572021484375,-0.7216033935546875
1774472080651327500,6.039327392578125,-0.12054443359375,-0.743896484375,-0.6631622314453125
1774472080661341200,6.049341064453125,-0.054779052734375,-0.832977294921875,-0.589202880859375
1774472080671354400,6.059354248046875,-0.09686279296875,-0.8297271728515625,-0.542022705078125
1774472080681368300,6.069368408203125,-0.145965576171875,-0.8073883056640625,-0.4922637939453125
1774472080691381200,6.07938134765625,-0.18463134765625,-0.8161773681640625,-0.4442138671875
1774472080701395200,6.089395263671875,-0.1968231201171875,-0.836639404296875,-0.400177001953125
1774472080711408400,6.099408447265625,-0.233245849609375,-0.8537139892578125,-0.439361572265625
1774472080721422000,6.109422119140625,-0.20062255859375,-0.819549560546875,-0.5593414306640625
1774472080731435300,6.119435302734375,-0.0750274658203125,-0.7972869873046875,-0.6623382568359375
1774472080741448400,6.129448486328125,-0.0200347900390625,-0.788116455078125,-0.6615142822265625
1774472080751462100,6.139462158203125,-0.014312744140625,-0.7829132080078125,-0.631378173828125
1774472080761475300,6.149475341796875,-0.03472900390625,-0.8004913330078125,-0.642181396484375
1774472080771489300,6.1594892578125,-0.0407867431640625,-0.7717742919921875,-0.6199493408203125
1774472080781502200,6.169502197265625,-0.0479736328125,-0.7493133544921875,-0.5670318603515625
1774472080791516400,6.179516357421875,-0.0977630615234375,-0.7743377685546875,-0.5745086669921875
1774472080801529300,6.189529296875,-0.1129150390625,-0.7521209716796875,-0.5513763427734375
1774472080811543300,6.199543212890625,-0.1097869873046875,-0.7840728759765625,-0.5328216552734375
1774472080821556200,6.20955615234375,-0.0521087646484375,-0.7928314208984375,-0.5606231689453125
1774472080831570400,6.2195703125,0.034088134765625,-0.7582550048828125,-0.6596832275390625
1774472080841583400,6.229583251953125,0.044189453125,-0.7393951416015625,-0.8298492431640625
1774472080851596300,6.23959619140625,0.1570587158203125,-0.77752685546875,-0.8883209228515625
1774472080861610500,6.249610595703125,0.31475830078125,-0.7555084228515625,-0.7810211181640625
1774472080871623200,6.259623046875,0.35894775390625,-0.7222442626953125,-0.66766357421875
1774472080881637400,6.269637451171875,0.30889892578125,-0.6124725341796875,-0.6717071533203125
1774472080891650300,6.279650390625,0.3737640380859375,-0.5740966796875,-0.6400299072265625
1774472080901664300,6.289664306640625,0.555023193359375,-0.62060546875,-0.3954925537109375
1774472080911677400,6.299677490234375,0.26202392578125,-0.5519866943359375,-0.4437103271484375
1774472080921691400,6.30969140625,0.225860595703125,-0.522735595703125,-0.5950164794921875
1774472080931704300,6.319704345703125,0.210906982421875,-0.7189788818359375,-0.6867218017578125
1774472080941717500,6.329717529296875,0.173187255859375,-0.72967529296875,-0.6484375
1774472080951731200,6.339731201171875,0.2275848388671875,-0.7013092041015625,-0.6372528076171875
1774472080961744400,6.349744384765625,0.192230224609375,-0.695648193359375,-0.652679443359375
1774472080971758300,6.35975830078125,0.1558074951171875,-0.68731689453125,-0.654205322265625
1774472080981771300,6.369771240234375,0.161651611328125,-0.6891937255859375,-0.6278533935546875
1774472080991785200,6.37978515625,0.2147064208984375,-0.6978912353515625,-0.59429931640625
1774472081001798400,6.38979833984375,0.2498016357421875,-0.7372894287109375,-0.59820556640625
1774472081011812000,6.39981201171875,0.2020263671875,-0.7815704345703125,-0.6136932373046875
1774472081021825300,6.4098251953125,0.178436279296875,-0.7871856689453125,-0.6208343505859375
1774472081031838500,6.41983837890625,0.18463134765625,-0.8256988525390625,-0.639984130859375
1774472081041852200,6.42985205078125,0.1758575439453125,-0.8378448486328125,-0.670867919921875
1774472081051865300,6.439865234375,0.152191162109375,-0.8377227783203125,-0.688201904296875
1774472081061879300,6.44987939453125,0.1431732177734375,-0.83575439453125,-0.7008209228515625
1774472081071892200,6.459892333984375,0.1362457275390625,-0.827606201171875,-0.7020111083984375
1774472081081906400,6.469906494140625,0.1346282958984375,-0.810150146484375,-0.69830322265625
1774472081091919000,6.479919189453125,0.1415863037109375,-0.8035430908203125,-0.6869354248046875
1774472081101933300,6.489933349609375,0.163177490234375,-0.794281005859375,-0.6732025146484375
1774472081111946200,6.4999462890625,0.15972900390625,-0.7808990478515625,-0.66455078125
1774472081121960400,6.50996044921875,0.164642333984375,-0.7626953125,-0.6675567626953125
1774472081131973400,6.519973388671875,0.19195556640625,-0.7443084716796875,-0.66558837890625
1774472081141986300,6.529986328125,0.217315673828125,-0.730560302734375,-0.67535400390625
1774472081152000300,6.540000244140625,0.2333984375,-0.7241668701171875,-0.6835174560546875
1774472081162013200,6.55001318359375,0.243896484375,-0.71881103515625,-0.6827239990234375
1774472081172027400,6.56002734375,0.249725341796875,-0.7085418701171875,-0.67828369140625
1774472081182040300,6.570040283203125,0.25140380859375,-0.69482421875,-0.678863525390625
1774472081192054300,6.58005419921875,0.2603759765625,-0.679443359375,-0.687255859375
1774472081202067500,6.5900673828125,0.2835845947265625,-0.6729583740234375,-0.6800384521484375
1774472081212081200,6.6000810546875,0.293243408203125,-0.6703643798828125,-0.6655426025390625
1774472081222094300,6.61009423828125,0.286468505859375,-0.66937255859375,-0.661224365234375
1774472081232107500,6.620107421875,0.2703094482421875,-0.6761016845703125,-0.6659393310546875
1774472081242121200,6.630121337890625,0.2565765380859375,-0.6849212646484375,-0.66455078125
1774472081252134400,6.640134521484375,0.244110107421875,-0.69110107421875,-0.6601715087890625
1774472081262148400,6.6501484375,0.2267303466796875,-0.6934967041015625,-0.663116455078125
1774472081272161300,6.660161376953125,0.2181854248046875,-0.7019500732421875,-0.6718292236328125
1774472081282175200,6.67017529296875,0.219940185546875,-0.717010498046875,-0.6842193603515625
1774472081292188400,6.6801884765625,0.226104736328125,-0.7147979736328125,-0.683685302734375
1774472081302202000,6.6902021484375,0.2300872802734375,-0.706756591796875,-0.6785430908203125
1774472081312215300,6.70021533203125,0.2299346923828125,-0.6989288330078125,-0.6767730712890625
1774472081322228200,6.710228271484375,0.23321533203125,-0.6971435546875,-0.67626953125
1774472081332242200,6.7202421875,0.235260009765625,-0.7025909423828125,-0.687652587890625
1774472081342255400,6.73025537109375,0.22760009765625,-0.7067718505859375,-0.7083892822265625
1774472081352269300,6.740269287109375,0.2223663330078125,-0.715087890625,-0.7204437255859375
1774472081362282200,6.7502822265625,0.2094268798828125,-0.718963623046875,-0.7301025390625
1774472081372296400,6.76029638671875,0.19732666015625,-0.7232513427734375,-0.7315826416015625
1774472081382309000,6.77030908203125,0.1901092529296875,-0.730224609375,-0.712249755859375
1774472081392323300,6.7803232421875,0.186309814453125,-0.7387542724609375,-0.6858367919921875
1774472081402336300,6.790336181640625,0.1846923828125,-0.7474212646484375,-0.6594085693359375
1774472081412350500,6.8003505859375,0.191070556640625,-0.753814697265625,-0.64642333984375
1774472081422363400,6.81036328125,0.2023773193359375,-0.758636474609375,-0.644500732421875
1774472081432376300,6.820376220703125,0.2141265869140625,-0.7607269287109375,-0.6573333740234375
1774472081442390300,6.830390380859375,0.215789794921875,-0.7633819580078125,-0.6824493408203125
1774472081452403200,6.8404033203125,0.22149658203125,-0.77081298828125,-0.7008209228515625
1774472081462417400,6.85041748046875,0.235809326171875,-0.7817535400390625,-0.7013702392578125
1774472081472430300,6.860430419921875,0.240875244140625,-0.788848876953125,-0.6895904541015625
1774472081482444300,6.8704443359375,0.23651123046875,-0.789764404296875,-0.675018310546875
1774472081492457500,6.88045751953125,0.2374267578125,-0.7837066650390625,-0.6590576171875
1774472081502471200,6.89047119140625,0.2457122802734375,-0.7840118408203125,-0.6411590576171875
1774472081512484400,6.900484375,0.2533416748046875,-0.787445068359375,-0.6176605224609375
1774472081522497500,6.91049755859375,0.25994873046875,-0.7884674072265625,-0.590301513671875
1774472081532511200,6.92051123046875,0.258941650390625,-0.7858428955078125,-0.566802978515625
1774472081542524400,6.9305244140625,0.2562408447265625,-0.7811126708984375,-0.5503692626953125
1774472081552538400,6.940538330078125,0.25982666015625,-0.782012939453125,-0.546661376953125
1774472081562551300,6.95055126953125,0.2656097412109375,-0.783843994140625,-0.5440826416015625
1774472081572565200,6.960565185546875,0.26849365234375,-0.788543701171875,-0.5503997802734375
1774472081582578200,6.970578125,0.2731781005859375,-0.790863037109375,-0.55987548828125
1774472081592592100,6.980592041015625,0.2796478271484375,-0.7833099365234375,-0.56732177734375
1774472081602605300,6.990605224609375,0.28472900390625,-0.775970458984375,-0.5723419189453125
1774472081612618200,7.0006181640625,0.287567138671875,-0.77557373046875,-0.578125
1774472081622632200,7.010632080078125,0.295166015625,-0.7775421142578125,-0.5809478759765625
1774472081632645400,7.020645263671875,0.2918853759765625,-0.779876708984375,-0.5878448486328125
1774472081642659000,7.0306591796875,0.2783966064453125,-0.7845458984375,-0.611328125
1774472081652672300,7.04067236328125,0.2599029541015625,-0.787750244140625,-0.6371002197265625
1774472081662686500,7.0506865234375,0.24920654296875,-0.7899017333984375,-0.6435394287109375
1774472081672699100,7.06069921875,0.24359130859375,-0.7984466552734375,-0.6557464599609375
1774472081682713300,7.07071337890625,0.2326812744140625,-0.8045196533203125,-0.655120849609375
1774472081692726300,7.080726318359375,0.22515869140625,-0.8132476806640625,-0.6467437744140625
1774472081702740200,7.090740234375,0.215240478515625,-0.8187255859375,-0.6273345947265625
1774472081712753400,7.10075341796875,0.2112579345703125,-0.815093994140625,-0.61956787109375
1774472081722766300,7.110766357421875,0.2137603759765625,-0.807525634765625,-0.632293701171875
1774472081732780300,7.1207802734375,0.2303924560546875,-0.802215576171875,-0.6480865478515625
1774472081742793200,7.130793212890625,0.2494354248046875,-0.796173095703125,-0.6545562744140625
1774472081752807400,7.140807373046875,0.251434326171875,-0.7837677001953125,-0.64788818359375
1774472081762820400,7.1508203125,0.246734619140625,-0.776947021484375,-0.623291015625
1774472081772834300,7.160834228515625,0.2395477294921875,-0.7707366943359375,-0.604400634765625
1774472081782847500,7.170847412109375,0.2407379150390625,-0.766937255859375,-0.60888671875
1774472081792861200,7.180861083984375,0.2419586181640625,-0.7633514404296875,-0.6183624267578125
1774472081802874400,7.190874267578125,0.2431182861328125,-0.757537841796875,-0.61962890625
1774472081812887300,7.20088720703125,0.246246337890625,-0.7494964599609375,-0.5911407470703125
1774472081822901200,7.2109013671875,0.2518768310546875,-0.7491302490234375,-0.55072021484375
1774472081832914400,7.22091455078125,0.26226806640625,-0.7542724609375,-0.5184783935546875
1774472081842928400,7.230928466796875,0.260009765625,-0.747955322265625,-0.4870758056640625
1774472081852941300,7.24094140625,0.241302490234375,-0.74273681640625,-0.4716033935546875
1774472081862955300,7.250955322265625,0.238555908203125,-0.7476043701171875,-0.47308349609375
1774472081872968200,7.26096826171875,0.2350921630859375,-0.73577880859375,-0.45538330078125
1774472081882982100,7.270982177734375,0.2039337158203125,-0.7042999267578125,-0.4298858642578125
1774472081892995300,7.280995361328125,0.2171630859375,-0.6830902099609375,-0.46746826171875
1774472081903009500,7.291009521484375,0.2517852783203125,-0.6692657470703125,-0.5406036376953125
1774472081913022200,7.301022216796875,0.263153076171875,-0.6558990478515625,-0.5852813720703125
1774472081923035400,7.311035400390625,0.2482757568359375,-0.631683349609375,-0.5893402099609375
1774472081933049000,7.321049072265625,0.2205810546875,-0.6319122314453125,-0.5636444091796875
1774472081943062300,7.331062255859375,0.1817169189453125,-0.6576995849609375,-0.5679779052734375
1774472081953076500,7.341076416015625,0.1386566162109375,-0.685089111328125,-0.6309661865234375
1774472081963089200,7.351089111328125,0.099365234375,-0.6849822998046875,-0.72735595703125
1774472081973103400,7.361103271484375,0.0782318115234375,-0.6509552001953125,-0.829925537109375
1774472081983116300,7.3711162109375,0.061798095703125,-0.6164093017578125,-0.934783935546875
1774472081993130200,7.381130126953125,0.046295166015625,-0.5874481201171875,-1.0097503662109375
1774472082003143400,7.391143310546875,0.0430755615234375,-0.5616607666015625,-1.050323486328125
1774472082013156400,7.40115625,0.0273590087890625,-0.5248870849609375,-1.0120849609375
1774472082023170300,7.41117041015625,-0.0089111328125,-0.4997711181640625,-0.9091949462890625
1774472082033183200,7.421183349609375,-0.058746337890625,-0.500701904296875,-0.8054962158203125
1774472082043197400,7.431197509765625,-0.0737152099609375,-0.5,-0.730316162109375
1774472082053210400,7.44121044921875,-0.0800018310546875,-0.518096923828125,-0.742828369140625
1774472082063224300,7.451224365234375,-0.10205078125,-0.565093994140625,-0.8622894287109375
1774472082073237200,7.4612373046875,-0.1761016845703125,-0.5810394287109375,-0.9759979248046875
1774472082083251200,7.471251220703125,-0.2458953857421875,-0.5521392822265625,-1.0189361572265625
1774472082093264400,7.481264404296875,-0.25909423828125,-0.4985198974609375,-1.0349273681640625
1774472082103278300,7.4912783203125,-0.2709503173828125,-0.441619873046875,-0.9671783447265625
1774472082113291300,7.501291259765625,-0.2598114013671875,-0.4419403076171875,-0.8444671630859375
1774472082123304400,7.511304443359375,-0.203765869140625,-0.4927520751953125,-0.75848388671875
1774472082133318100,7.521318115234375,-0.185394287109375,-0.5018463134765625,-0.7056884765625
1774472082143331300,7.531331298828125,-0.204742431640625,-0.4888763427734375,-0.70184326171875
1774472082153345300,7.54134521484375,-0.207244873046875,-0.4865570068359375,-0.7626800537109375
1774472082163358200,7.551358154296875,-0.2212982177734375,-0.45697021484375,-0.887054443359375
1774472082173372200,7.5613720703125,-0.225677490234375,-0.3855133056640625,-0.997222900390625
1774472082183385300,7.57138525390625,-0.1829833984375,-0.3137359619140625,-1.032684326171875
1774472082193399300,7.5813994140625,-0.1343231201171875,-0.2535400390625,-1.0068511962890625
1774472082203412200,7.591412109375,-0.0858612060546875,-0.220703125,-1.0030059814453125
1774472082213425400,7.60142529296875,-0.0485687255859375,-0.199310302734375,-0.9613494873046875
1774472082223439000,7.611439208984375,-0.0416717529296875,-0.2097625732421875,-0.9351959228515625
1774472082233452300,7.621452392578125,-0.0213775634765625,-0.226104736328125,-0.9680633544921875
1774472082243466500,7.631466552734375,-0.048797607421875,-0.2279510498046875,-0.955902099609375
1774472082253479200,7.641479248046875,-0.084075927734375,-0.2851715087890625,-1.0132904052734375
1774472082263493400,7.651493408203125,-0.1075439453125,-0.361297607421875,-1.1474761962890625
1774472082273506300,7.66150634765625,-0.1311798095703125,-0.397430419921875,-1.218414306640625
1774472082283520300,7.671520263671875,-0.1391754150390625,-0.394683837890625,-1.16656494140625
1774472082293533400,7.681533447265625,-0.1604156494140625,-0.3760833740234375,-1.057403564453125
1774472082303547400,7.69154736328125,-0.14166259765625,-0.35321044921875,-0.965911865234375
1774472082313560300,7.701560302734375,-0.10107421875,-0.3418121337890625,-0.9073638916015625
1774472082323573200,7.7115732421875,-0.089691162109375,-0.3350067138671875,-0.9106292724609375
1774472082333587500,7.72158740234375,-0.080108642578125,-0.34442138671875,-0.958038330078125
1774472082343600400,7.731600341796875,-0.127288818359375,-0.383209228515625,-1.0115509033203125
1774472082353614300,7.7416142578125,-0.218719482421875,-0.439971923828125,-1.0464630126953125
1774472082363627300,7.751627197265625,-0.3099365234375,-0.4661865234375,-1.0619659423828125
1774472082373641200,7.76164111328125,-0.415283203125,-0.4505615234375,-0.989288330078125
1774472082383654400,7.771654296875,-0.4936370849609375,-0.4389495849609375,-0.8490447998046875
1774472082393668400,7.78166845703125,-0.541107177734375,-0.4474029541015625,-0.71429443359375
1774472082403681300,7.791681396484375,-0.567626953125,-0.4355010986328125,-0.6038055419921875
1774472082413694500,7.801694580078125,-0.605621337890625,-0.3963470458984375,-0.516021728515625
1774472082423708200,7.811708251953125,-0.6184844970703125,-0.3614501953125,-0.460968017578125
1774472082433721300,7.821721435546875,-0.602935791015625,-0.34716796875,-0.438079833984375
1774472082443735300,7.8317353515625,-0.5798797607421875,-0.3323822021484375,-0.4595947265625
1774472082453748200,7.841748291015625,-0.5603485107421875,-0.294189453125,-0.4952392578125
1774472082463762200,7.85176220703125,-0.540374755859375,-0.2286834716796875,-0.5340118408203125
1774472082473775400,7.861775390625,-0.5128631591796875,-0.141815185546875,-0.5638580322265625
1774472082483789300,7.871789306640625,-0.50146484375,-0.0692138671875,-0.5523223876953125
1774472082493802200,7.88180224609375,-0.52789306640625,-0.0440521240234375,-0.521148681640625
1774472082503816400,7.89181640625,-0.5687408447265625,-0.0371551513671875,-0.4985504150390625
1774472082513829000,7.9018291015625,-0.5689239501953125,-0.04345703125,-0.5031585693359375
1774472082523842300,7.91184228515625,-0.5718536376953125,-0.0642242431640625,-0.5523529052734375
1774472082533856500,7.9218564453125,-0.6094818115234375,-0.0496826171875,-0.647979736328125
1774472082543869200,7.931869140625,-0.6658935546875,0.0083160400390625,-0.7424163818359375
1774472082553883400,7.94188330078125,-0.716217041015625,0.0410919189453125,-0.7514801025390625
1774472082563896300,7.951896240234375,-0.7431488037109375,0.0289154052734375,-0.72235107421875
1774472082573910300,7.96191015625,-0.7490997314453125,-0.00567626953125,-0.7401123046875
1774472082583923500,7.97192333984375,-0.761993408203125,-0.0399017333984375,-0.8340606689453125
1774472082593937400,7.9819375,-0.7465972900390625,-0.0587310791015625,-0.905670166015625
1774472082603950300,7.991950439453125,-0.697845458984375,-0.09710693359375,-0.9312591552734375
1774472082613964300,8.00196435546875,-0.6279754638671875,-0.1584930419921875,-0.9468994140625
1774472082623977200,8.011977294921875,-0.571319580078125,-0.1953277587890625,-0.9880828857421875
1774472082633990400,8.021990478515624,-0.538330078125,-0.2040252685546875,-1.0702667236328125
1774472082644004400,8.03200439453125,-0.4903717041015625,-0.21990966796875,-1.16326904296875
1774472082654017300,8.042017333984376,-0.4751434326171875,-0.2226409912109375,-1.109649658203125
1774472082664031200,8.05203125,-0.4669647216796875,-0.256561279296875,-0.9635009765625
1774472082674044400,8.06204443359375,-0.4183197021484375,-0.331390380859375,-0.8673553466796875
1774472082684058000,8.07205810546875,-0.3975067138671875,-0.355072021484375,-0.8351287841796875
1774472082694071300,8.0820712890625,-0.3953704833984375,-0.3368682861328125,-0.831695556640625
1774472082704085200,8.092085205078124,-0.4339447021484375,-0.344940185546875,-0.8445281982421875
1774472082714098200,8.10209814453125,-0.4607086181640625,-0.381927490234375,-0.91497802734375
1774472082724111400,8.112111328125,-0.4611968994140625,-0.4432830810546875,-0.949676513671875
1774472082734125300,8.122125244140625,-0.4532470703125,-0.4697265625,-0.9297943115234375
1774472082744138200,8.13213818359375,-0.4438323974609375,-0.4766845703125,-0.9111480712890625
1774472082754152200,8.142152099609374,-0.4321136474609375,-0.475006103515625,-0.9175262451171875
1774472082764165400,8.152165283203125,-0.4294281005859375,-0.4501800537109375,-0.884552001953125
1774472082774179300,8.162179443359374,-0.4495391845703125,-0.41412353515625,-0.8218231201171875
1774472082784192300,8.172192138671875,-0.4936981201171875,-0.4055328369140625,-0.73760986328125
1774472082794206500,8.18220654296875,-0.492431640625,-0.4127044677734375,-0.7140350341796875
1774472082804219100,8.19221923828125,-0.5023956298828125,-0.4557342529296875,-0.747650146484375
1774472082814233300,8.2022333984375,-0.6192626953125,-0.6148223876953125,-0.746826171875
1774472082824246500,8.21224658203125,-0.6082763671875,-0.6273345947265625,-0.7319793701171875
1774472082834259200,8.22225927734375,-0.62152099609375,-0.517822265625,-0.8112640380859375
1774472082844273400,8.2322734375,-0.53155517578125,-0.5197906494140625,-0.863372802734375
1774472082854286000,8.2422861328125,-0.4722747802734375,-0.5339508056640625,-0.9496612548828125
1774472082864300300,8.25230029296875,-0.457122802734375,-0.522216796875,-0.9786529541015625
1774472082874313500,8.2623134765625,-0.496673583984375,-0.5256805419921875,-0.9405975341796875
1774472082884327400,8.272327392578125,-0.479095458984375,-0.537933349609375,-0.884521484375
1774472082894340400,8.28234033203125,-0.4564666748046875,-0.515106201171875,-0.756011962890625
1774472082904354300,8.292354248046875,-0.373016357421875,-0.4747772216796875,-0.6651153564453125
1774472082914367200,8.3023671875,-0.307281494140625,-0.500213623046875,-0.6560211181640625
1774472082924381200,8.312381103515625,-0.264251708984375,-0.5060882568359375,-0.7226104736328125
1774472082934394400,8.322394287109375,-0.2438201904296875,-0.4963836669921875,-0.7469329833984375
1774472082944407300,8.3324072265625,-0.2696075439453125,-0.50177001953125,-0.7556610107421875
1774472082954421200,8.342421142578125,-0.2769775390625,-0.5219268798828125,-0.6930084228515625
1774472082964434400,8.352434326171876,-0.3146209716796875,-0.559814453125,-0.6129302978515625
1774472082974448000,8.3624482421875,-0.3104248046875,-0.58502197265625,-0.5913238525390625
1774472082984461300,8.37246142578125,-0.3295135498046875,-0.6211700439453125,-0.6083526611328125
1774472082994475300,8.382475341796875,-0.33642578125,-0.6358489990234375,-0.5848846435546875
1774472083004488200,8.39248828125,-0.34039306640625,-0.6437835693359375,-0.5646514892578125
1774472083014502400,8.40250244140625,-0.3066864013671875,-0.629913330078125,-0.59716796875
1774472083024515300,8.412515380859375,-0.3025360107421875,-0.590576171875,-0.6616668701171875
1774472083034529300,8.422529296875,-0.3418426513671875,-0.5738983154296875,-0.719207763671875
1774472083044542200,8.432542236328125,-0.2459716796875,-0.457305908203125,-0.711578369140625
1774472083054555400,8.442555419921876,-0.289520263671875,-0.5796356201171875,-0.7100982666015625
1774472083064569300,8.4525693359375,-0.369903564453125,-0.61279296875,-0.7513275146484375
1774472083074582300,8.462582275390625,-0.3211517333984375,-0.490020751953125,-0.79119873046875
1774472083084596500,8.472596435546874,-0.2721099853515625,-0.4802398681640625,-0.7925872802734375
1774472083094609200,8.482609130859375,-0.30816650390625,-0.50115966796875,-0.8701324462890625
1774472083104623400,8.492623291015626,-0.2949981689453125,-0.4755859375,-0.898406982421875
1774472083114636300,8.50263623046875,-0.3411865234375,-0.5130157470703125,-0.8885345458984375
1774472083124650200,8.512650146484376,-0.3191070556640625,-0.5425262451171875,-0.9111328125
1774472083134663400,8.522663330078124,-0.26116943359375,-0.527069091796875,-0.9857635498046875
1774472083144677400,8.532677490234375,-0.1932220458984375,-0.4620819091796875,-0.9961090087890625
1774472083154690300,8.542690185546874,-0.3208465576171875,-0.50665283203125,-0.99053955078125
1774472083164703500,8.552703369140625,-0.3926544189453125,-0.54339599609375,-0.9918060302734375
1774472083174717200,8.56271728515625,-0.26629638671875,-0.50811767578125,-0.9265289306640625
1774472083184730400,8.57273046875,-0.3285675048828125,-0.5243072509765625,-0.852386474609375
1774472083194744300,8.582744384765626,-0.4020843505859375,-0.601654052734375,-0.7407379150390625
1774472083204757200,8.59275732421875,-0.3704376220703125,-0.6257781982421875,-0.6559600830078125
1774472083214771200,8.602771240234375,-0.403228759765625,-0.613677978515625,-0.82672119140625
1774472083224784400,8.612784423828124,-0.3520050048828125,-0.5499114990234375,-0.8339691162109375
1774472083234798000,8.622798095703125,-0.2984619140625,-0.6007537841796875,-0.7949676513671875
1774472083244811300,8.632811279296876,-0.3039093017578125,-0.600372314453125,-0.80828857421875
1774472083254825500,8.642825439453125,-0.3403778076171875,-0.6300201416015625,-0.847503662109375
1774472083264838100,8.652838134765625,-0.3424835205078125,-0.6671600341796875,-0.8160552978515625
1774472083274851300,8.662851318359374,-0.311553955078125,-0.6543121337890625,-0.808837890625
1774472083284865300,8.672865234375,-0.270111083984375,-0.64862060546875,-0.7648773193359375
1774472083294878200,8.682878173828126,-0.2304229736328125,-0.64605712890625,-0.772705078125
1774472083304892400,8.692892333984375,-0.1894073486328125,-0.65740966796875,-0.78045654296875
1774472083314905300,8.7029052734375,-0.145599365234375,-0.650177001953125,-0.7476348876953125
1774472083324919300,8.712919189453125,-0.059967041015625,-0.5926513671875,-0.681549072265625
1774472083334932200,8.72293212890625,0.0370330810546875,-0.525787353515625,-0.554534912109375
1774472083344946400,8.732946533203124,0.1490020751953125,-0.5005645751953125,-0.5474700927734375
1774472083354959400,8.74295947265625,0.2570037841796875,-0.4501953125,-0.50634765625
1774472083364973300,8.752973388671874,0.320831298828125,-0.4160308837890625,-0.5160369873046875
1774472083374986500,8.762986572265625,0.344573974609375,-0.4176177978515625,-0.7465362548828125
1774472083384999200,8.772999267578125,0.333465576171875,-0.477813720703125,-0.9624481201171875
1774472083395013400,8.783013427734375,0.2854461669921875,-0.54144287109375,-1.10235595703125
1774472083405026300,8.7930263671875,0.2231903076171875,-0.5307769775390625,-1.0855255126953125
1774472083415040300,8.803040283203124,0.10980224609375,-0.481597900390625,-1.020751953125
1774472083425053400,8.813053466796875,0.0243682861328125,-0.466888427734375,-0.9360504150390625
1774472083435067400,8.8230673828125,-0.0944671630859375,-0.465850830078125,-0.827972412109375
1774472083445080300,8.833080322265625,-0.171844482421875,-0.45233154296875,-0.7826080322265625
1774472083455094300,8.84309423828125,-0.20391845703125,-0.4666900634765625,-0.7840728759765625
1774472083465107200,8.853107177734374,-0.242401123046875,-0.474365234375,-0.872833251953125
1774472083475121200,8.86312109375,-0.290863037109375,-0.4786376953125,-0.9960479736328125
1774472083485134300,8.87313427734375,-0.3638763427734375,-0.4760284423828125,-1.066314697265625
1774472083495147300,8.883147216796875,-0.44873046875,-0.44415283203125,-1.0846710205078125
1774472083505161200,8.8931611328125,-0.461181640625,-0.422760009765625,-1.062347412109375
1774472083515174400,8.90317431640625,-0.41351318359375,-0.430084228515625,-1.016265869140625
1774472083525188000,8.91318798828125,-0.3839874267578125,-0.4267730712890625,-0.9514617919921875
1774472083535201500,8.923201416015624,-0.3853607177734375,-0.3983917236328125,-0.891357421875
1774472083545215500,8.933215576171875,-0.3873138427734375,-0.374725341796875,-0.8373260498046875
1774472083555228400,8.943228515625,-0.369659423828125,-0.37359619140625,-0.7906646728515625
1774472083565242600,8.95324267578125,-0.3497161865234375,-0.373779296875,-0.784942626953125
1774472083575255600,8.963255615234376,-0.3304595947265625,-0.377166748046875,-0.803314208984375
1774472083585269500,8.97326953125,-0.284637451171875,-0.3863983154296875,-0.823516845703125
1774472083595282400,8.983282470703125,-0.2257080078125,-0.3880462646484375,-0.8411407470703125
1774472083605295600,8.993295654296874,-0.15167236328125,-0.37152099609375,-0.8614959716796875
1774472083615309600,9.0033095703125,-0.11212158203125,-0.35205078125,-0.8970184326171875
1774472083625322500,9.013322509765626,-0.09893798828125,-0.343719482421875,-0.9344482421875
1774472083635336700,9.023336669921875,-0.0968170166015625,-0.3188018798828125,-0.9368896484375
1774472083645349400,9.033349365234375,-0.0711669921875,-0.274871826171875,-0.9187774658203125
1774472083655363600,9.043363525390625,-0.00885009765625,-0.2477874755859375,-0.929046630859375
1774472083665376800,9.053376708984375,0.048858642578125,-0.2175140380859375,-0.95648193359375
1774472083675390500,9.063390380859374,0.10369873046875,-0.1795196533203125,-0.9672088623046875
1774472083685403600,9.073403564453125,0.1602783203125,-0.1453857421875,-0.973968505859375
1774472083695417600,9.08341748046875,0.217987060546875,-0.1071014404296875,-1.04705810546875
1774472083705430500,9.093430419921875,0.2525787353515625,-0.0432586669921875,-1.1196441650390625
1774472083715443700,9.103443603515625,0.2553558349609375,0.0322265625,-1.1423492431640625
1774472083725457400,9.11345751953125,0.2569122314453125,0.095703125,-1.140167236328125
1774472083735470600,9.123470703125,0.2636566162109375,0.1395111083984375,-1.14044189453125
1774472083745484500,9.133484619140624,0.274749755859375,0.1718902587890625,-1.1534576416015625
1774472083755497500,9.14349755859375,0.259246826171875,0.2097320556640625,-1.162200927734375
1774472083765511400,9.153511474609376,0.19287109375,0.2483673095703125,-1.15264892578125
1774472083775524600,9.163524658203125,0.1117401123046875,0.2519683837890625,-1.14239501953125
1774472083785538600,9.17353857421875,0.034759521484375,0.2254180908203125,-1.137908935546875
1774472083795551500,9.183551513671874,-0.020751953125,0.1992645263671875,-1.133880615234375
1774472083805565700,9.193565673828125,-0.067596435546875,0.190887451171875,-1.129119873046875
1774472083815578400,9.203578369140626,-0.1232757568359375,0.2004547119140625,-1.0956878662109375
1774472083825591600,9.213591552734375,-0.1824798583984375,0.19390869140625,-1.0253143310546875
1774472083835605500,9.22360546875,-0.2572479248046875,0.1665496826171875,-0.9509124755859375
1774472083845618400,9.233618408203125,-0.3474578857421875,0.1319732666015625,-0.88623046875
1774472083855632600,9.243632568359375,-0.43560791015625,0.08197021484375,-0.8596649169921875
1774472083865645600,9.2536455078125,-0.5183563232421875,0.0386962890625,-0.8622283935546875
1774472083875659500,9.263659423828125,-0.5607147216796875,0.0339202880859375,-0.8726959228515625
1774472083885672400,9.27367236328125,-0.5638580322265625,0.048370361328125,-0.879547119140625
1774472083895686700,9.283686767578125,-0.65826416015625,0.0430450439453125,-0.8893890380859375
1774472083905699600,9.293699462890626,-0.76409912109375,0.043365478515625,-0.704986572265625
1774472083915713500,9.303713623046875,-0.9678802490234375,0.0343475341796875,-0.4270477294921875
1774472083925726700,9.313726806640625,-1.04730224609375,0.016632080078125,-0.403289794921875
1774472083935740400,9.323740478515624,-0.95880126953125,0.0179595947265625,-0.5215301513671875
1774472083945753600,9.333753662109375,-0.9310150146484375,-0.0019989013671875,-0.650360107421875
1774472083955766500,9.3437666015625,-0.8307647705078125,-0.068878173828125,-0.78814697265625
1774472083965780500,9.353780517578125,-0.7745513916015625,-0.128662109375,-0.848602294921875
1774472083975793700,9.363793701171875,-0.6883544921875,-0.19091796875,-0.749298095703125
1774472083985807600,9.3738076171875,-0.731964111328125,-0.2139434814453125,-0.623443603515625
1774472083995820500,9.383820556640625,-0.77532958984375,-0.2272491455078125,-0.5694580078125
1774472084005834500,9.39383447265625,-0.7858123779296875,-0.2619476318359375,-0.627716064453125
1774472084015847400,9.403847412109375,-0.822845458984375,-0.2821044921875,-0.6440887451171875
1774472084025861400,9.413861328125,-0.830780029296875,-0.244415283203125,-0.6279296875
1774472084035874600,9.42387451171875,-0.796905517578125,-0.135955810546875,-0.6199188232421875
1774472084045888800,9.433888671875,-0.76434326171875,-0.09222412109375,-0.6740570068359375
1774472084055901400,9.4439013671875,-0.736419677734375,-0.0973968505859375,-0.6844482421875
1774472084065914600,9.45391455078125,-0.70050048828125,-0.11419677734375,-0.6432647705078125
1774472084075928600,9.463928466796874,-0.694976806640625,-0.1300201416015625,-0.6095428466796875
1774472084085941500,9.47394140625,-0.7113800048828125,-0.1396331787109375,-0.5780029296875
1774472084095955700,9.483955810546876,-0.70880126953125,-0.1556243896484375,-0.5610198974609375
1774472084105968400,9.493968505859375,-0.70758056640625,-0.18438720703125,-0.5953216552734375
1774472084115982600,9.503982666015625,-0.6682586669921875,-0.215911865234375,-0.6562652587890625
1774472084125995500,9.51399560546875,-0.641204833984375,-0.2783355712890625,-0.6936187744140625
1774472084136009500,9.524009521484375,-0.6014251708984375,-0.3336334228515625,-0.800323486328125
1774472084146022700,9.534022705078126,-0.5800323486328125,-0.3599090576171875,-0.891571044921875
1774472084156036600,9.54403662109375,-0.5605621337890625,-0.35882568359375,-0.978118896484375
1774472084166049500,9.554049560546876,-0.58837890625,-0.29608154296875,-0.9906158447265625
1774472084176062500,9.5640625,-0.612030029296875,-0.2021636962890625,-0.8694610595703125
1774472084186076700,9.57407666015625,-0.627655029296875,-0.179168701171875,-0.7742919921875
1774472084196089600,9.584089599609374,-0.61419677734375,-0.203155517578125,-0.736328125
1774472084206103600,9.594103515625,-0.5765380859375,-0.2672576904296875,-0.7561798095703125
1774472084216116700,9.60411669921875,-0.527252197265625,-0.3184814453125,-0.762725830078125
1774472084226130400,9.61413037109375,-0.5137176513671875,-0.34393310546875,-0.79766845703125
1774472084236143600,9.6241435546875,-0.5037841796875,-0.33233642578125,-0.850250244140625
1774472084246157600,9.634157470703125,-0.4661102294921875,-0.3056182861328125,-0.8960113525390625
1774472084256170500,9.64417041015625,-0.377716064453125,-0.3294677734375,-0.95135498046875
1774472084266184400,9.654184326171874,-0.2945556640625,-0.3753509521484375,-0.9535064697265625
1774472084276197400,9.664197265625,-0.3004608154296875,-0.374114990234375,-0.9339447021484375
1774472084286211600,9.674211669921876,-0.349884033203125,-0.36834716796875,-0.8598175048828125
1774472084296224500,9.684224609375,-0.3628692626953125,-0.3676605224609375,-0.77947998046875
1774472084306237400,9.694237548828125,-0.38836669921875,-0.384124755859375,-0.745361328125
1774472084316251400,9.70425146484375,-0.462310791015625,-0.2911834716796875,-0.7508697509765625
1774472084326264600,9.7142646484375,-0.5371551513671875,-0.2491912841796875,-0.7077484130859375
1774472084336278500,9.724278564453124,-0.5615081787109375,-0.268341064453125,-0.779144287109375
1774472084346291500,9.73429150390625,-0.58251953125,-0.3072052001953125,-0.789398193359375
1774472084356305700,9.7443056640625,-0.592987060546875,-0.3193359375,-0.791351318359375
1774472084366318600,9.754318603515625,-0.6327667236328125,-0.3564605712890625,-0.784088134765625
1774472084376332500,9.76433251953125,-0.60614013671875,-0.38299560546875,-0.697357177734375
1774472084386345700,9.774345703125,-0.6062774658203125,-0.35565185546875,-0.6204071044921875
1774472084396359400,9.784359375,-0.6464080810546875,-0.3098602294921875,-0.62652587890625
1774472084406372600,9.79437255859375,-0.7036590576171875,-0.30621337890625,-0.6544952392578125
1774472084416385500,9.804385498046875,-0.6875762939453125,-0.3020477294921875,-0.61907958984375
1774472084426399500,9.8143994140625,-0.6750335693359375,-0.2444000244140625,-0.531158447265625
1774472084436412700,9.82441259765625,-0.6591339111328125,-0.207550048828125,-0.5159759521484375
1774472084446426600,9.834426513671875,-0.66217041015625,-0.189300537109375,-0.55059814453125
1774472084456439600,9.844439453125,-1.0691375732421875,-0.11944580078125,-0.6200714111328125
1774472084466453500,9.85445361328125,-1.349700927734375,-0.0355072021484375,-0.524017333984375
1774472084476466700,9.864466796875,-1.272003173828125,-0.0436553955078125,-0.2780303955078125
1774472084486480400,9.87448046875,-1.0636444091796875,-0.1033172607421875,-0.257720947265625
1774472084496493600,9.88449365234375,-0.96051025390625,-0.1612701416015625,-0.324371337890625
1774472084506507500,9.894507568359375,-0.929107666015625,-0.0587921142578125,-0.418212890625
1774472084516520400,9.9045205078125,-1.0188751220703125,-0.0815277099609375,-0.3209991455078125
1774472084526534700,9.91453466796875,-1.0347900390625,-0.207427978515625,-0.233489990234375
1774472084536547600,9.924547607421875,-0.8270111083984375,-0.2685546875,-0.2683868408203125
1774472084546560500,9.934560546875,-0.544586181640625,-0.3821868896484375,-0.1894683837890625
1774472084556574500,9.944574462890625,-0.7730712890625,-0.3025360107421875,-0.2571258544921875
1774472084566587400,9.95458740234375,-0.91552734375,-0.15399169921875,-0.4263458251953125
1774472084576601600,9.9646015625,-0.978240966796875,-0.1665191650390625,-0.4026031494140625
1774472084586614500,9.974614501953125,-0.9916534423828125,-0.2188568115234375,-0.4291229248046875
1774472084596628700,9.984628662109374,-0.908660888671875,-0.225860595703125,-0.5287933349609375
1774472084606641400,9.994641357421875,-0.918121337890625,-0.1872406005859375,-0.497955322265625
1774472084616655600,10.004655517578126,-0.93011474609375,-0.1663665771484375,-0.4350433349609375
1774472084626668500,10.01466845703125,-0.9388580322265625,-0.189788818359375,-0.3856658935546875
1774472084636682500,10.0246826171875,-0.92022705078125,-0.220367431640625,-0.351959228515625
1774472084646695700,10.03469580078125,-0.911651611328125,-0.22052001953125,-0.3526611328125
1774472084656709400,10.04470947265625,-0.9231109619140625,-0.1985015869140625,-0.3970947265625
1774472084666722600,10.05472265625,-0.938568115234375,-0.1839141845703125,-0.457000732421875
1774472084676735700,10.06473583984375,-0.9384918212890625,-0.1795501708984375,-0.5458526611328125
1774472084686749400,10.07474951171875,-0.937530517578125,-0.24530029296875,-0.612518310546875
1774472084696762600,10.0847626953125,-0.9248046875,-0.3016815185546875,-0.6097412109375
1774472084706776600,10.094776611328125,-0.86907958984375,-0.2580718994140625,-0.5435028076171875
1774472084716789500,10.10478955078125,-0.857025146484375,-0.2172088623046875,-0.45538330078125
1774472084726803500,10.114803466796875,-0.8801116943359375,-0.1989593505859375,-0.3766326904296875
1774472084736816600,10.124816650390626,-0.8943634033203125,-0.16412353515625,-0.3499603271484375
1774472084746830300,10.134830322265625,-0.90771484375,-0.119110107421875,-0.3807220458984375
1774472084756843500,10.144843505859376,-0.930572509765625,-0.11883544921875,-0.4343109130859375
1774472084766857700,10.154857666015625,-0.92547607421875,-0.12530517578125,-0.4817962646484375
1774472084776870400,10.164870361328125,-0.8689117431640625,-0.16400146484375,-0.5690155029296875
1774472084786883600,10.174883544921874,-0.8812408447265625,-0.22637939453125,-0.6084136962890625
1774472084796897500,10.1848974609375,-0.904510498046875,-0.28533935546875,-0.3375701904296875
1774472084806910500,10.194910400390626,-0.8827056884765625,-0.2735748291015625,-0.1805267333984375
1774472084816924700,10.204924560546875,-0.8239593505859375,-0.17352294921875,-0.32183837890625
1774472084826937300,10.214937255859375,-0.811187744140625,-0.0681304931640625,-0.4829254150390625
1774472084836951600,10.22495166015625,-0.8159942626953125,-0.115447998046875,-0.518402099609375
1774472084846964500,10.234964599609375,-0.8344573974609375,-0.200042724609375,-0.453704833984375
1774472084856978700,10.244978759765624,-0.8166046142578125,-0.1557159423828125,-0.5352783203125
1774472084866991600,10.25499169921875,-0.7978515625,-0.0708160400390625,-0.6597900390625
1774472084877005600,10.265005615234376,-0.8020782470703125,-0.024871826171875,-0.660125732421875
1774472084887018500,10.2750185546875,-0.7973785400390625,-0.0209808349609375,-0.6058197021484375
1774472084897031400,10.285031494140625,-0.7945098876953125,0.0153961181640625,-0.6750946044921875
1774472084907045600,10.295045654296874,-0.80499267578125,0.029754638671875,-0.694793701171875
1774472084917058600,10.30505859375,-0.8231048583984375,0.00347900390625,-0.6490478515625
1774472084927072500,10.315072509765624,-0.827545166015625,-0.0312652587890625,-0.6074981689453125
1774472084937085700,10.325085693359375,-0.8113861083984375,-0.0266265869140625,-0.603363037109375
1774472084947099400,10.335099365234376,-0.8137969970703125,0.1012725830078125,-0.6005096435546875
1774472084957112600,10.345112548828125,-0.830108642578125,0.08258056640625,-0.6373291015625
1774472084967126500,10.35512646484375,-0.807342529296875,-0.040008544921875,-0.6542816162109375
1774472084977139500,10.365139404296874,-0.78802490234375,-0.1219329833984375,-0.618316650390625
1774472084987153400,10.3751533203125,-0.76214599609375,-0.1548309326171875,-0.5870361328125
1774472084997166600,10.38516650390625,-0.731597900390625,-0.093902587890625,-0.634765625
1774472085007180500,10.3951806640625,-0.726898193359375,-0.005889892578125,-0.696197509765625
1774472085017193500,10.405193359375,-0.7556610107421875,0.044891357421875,-0.7330169677734375
1774472085027206700,10.41520654296875,-0.7899932861328125,0.066497802734375,-0.7461395263671875
1774472085037220400,10.425220458984375,-0.7864227294921875,0.0377197265625,-0.7426910400390625
1774472085047233500,10.435233642578124,-0.7588043212890625,-0.0495147705078125,-0.7440643310546875
1774472085057247700,10.445247802734375,-0.7482147216796875,-0.1264190673828125,-0.644500732421875
1774472085067260400,10.455260498046876,-0.7867431640625,-0.205352783203125,-0.450042724609375
1774472085077274600,10.465274658203125,-0.76031494140625,-0.1546783447265625,-0.472564697265625
1774472085087287600,10.47528759765625,-0.7288055419921875,-0.0670623779296875,-0.635528564453125
1774472085097301500,10.485301513671875,-0.7575531005859375,-0.0649261474609375,-0.729217529296875
1774472085107314700,10.495314697265625,-0.7385406494140625,-0.151275634765625,-0.71881103515625
1774472085117328600,10.50532861328125,-0.75244140625,-0.181854248046875,-0.7299346923828125
1774472085127341600,10.515341552734375,-0.746185302734375,-0.1322784423828125,-0.7573089599609375
1774472085137354500,10.5253544921875,-0.697113037109375,-0.092803955078125,-0.729461669921875
1774472085147368400,10.535368408203125,-0.6741485595703125,-0.0810089111328125,-0.6734161376953125
1774472085157381600,10.545381591796875,-0.7138214111328125,-0.016204833984375,-0.6064453125
1774472085167395600,10.5553955078125,-0.7092742919921875,0.0751495361328125,-0.52984619140625
1774472085177408500,10.565408447265625,-0.6978302001953125,0.0884857177734375,-0.51873779296875
1774472085187422500,10.57542236328125,-0.684967041015625,0.0367584228515625,-0.545806884765625
1774472085197435600,10.585435546875,-0.70733642578125,0.024078369140625,-0.613128662109375
1774472085207449300,10.595449462890626,-0.7346038818359375,0.0679779052734375,-0.75628662109375
1774472085217462500,10.605462646484375,-0.631744384765625,0.0883636474609375,-0.669097900390625
1774472085227476500,10.6154765625,-0.6958770751953125,-0.0695648193359375,-0.5212249755859375
1774472085237489400,10.625489501953124,-0.7382659912109375,-0.1749267578125,-0.5025787353515625
1774472085247503600,10.635503662109375,-0.700592041015625,-0.13604736328125,-0.5073089599609375
1774472085257516500,10.6455166015625,-0.542999267578125,-0.06640625,-0.49609375
1774472085267529500,10.655529541015625,-0.498016357421875,0.0126953125,-0.54461669921875
1774472085277543400,10.66554345703125,-0.48614501953125,0.0704803466796875,-0.6072845458984375
1774472085287556600,10.675556640625,-0.4233551025390625,0.157867431640625,-0.6941680908203125
1774472085297570600,10.685570556640625,-0.4076080322265625,0.1711883544921875,-0.8009185791015625
1774472085307583500,10.69558349609375,-0.416656494140625,0.1264801025390625,-0.86859130859375
1774472085317597700,10.70559765625,-0.3990631103515625,0.1345977783203125,-0.8993988037109375
1774472085327610400,10.7156103515625,-0.3396453857421875,0.1551055908203125,-0.89312744140625
1774472085337624600,10.72562451171875,-0.2966766357421875,0.108306884765625,-0.84844970703125
1774472085347637800,10.7356376953125,-0.2285614013671875,-0.0129241943359375,-0.7618408203125
1774472085357651500,10.7456513671875,-0.160430908203125,-0.0150604248046875,-0.81878662109375
1774472085367664600,10.75566455078125,-0.0893707275390625,0.0494537353515625,-1.0740203857421875
1774472085377677600,10.765677490234374,-0.019378662109375,-0.0879058837890625,-1.1813812255859375
1774472085387691500,10.77569140625,0.013641357421875,-0.150665283203125,-1.4026947021484375
1774472085397704700,10.78570458984375,-0.02056884765625,-0.1766815185546875,-1.48028564453125
1774472085407718700,10.79571875,-0.07244873046875,-0.12939453125,-1.5740814208984375
1774472085417731600,10.805731689453125,-0.097564697265625,-0.066680908203125,-1.637176513671875
1774472085427745500,10.81574560546875,-0.1613311767578125,0.030487060546875,-1.48443603515625
1774472085437758500,10.825758544921875,-0.2530517578125,0.10882568359375,-1.2781219482421875
1774472085447772400,10.8357724609375,-0.2339019775390625,0.0890655517578125,-1.167999267578125
1774472085457785600,10.84578564453125,-0.19158935546875,0.0183868408203125,-1.07073974609375
1774472085467799600,10.855799560546876,-0.112396240234375,-0.049835205078125,-1.019073486328125
1774472085477812500,10.8658125,-0.0288848876953125,-0.073699951171875,-1.0137176513671875
1774472085487826700,10.87582666015625,-0.0050506591796875,-0.052978515625,-1.02972412109375
1774472085497839400,10.88583935546875,-0.0044097900390625,-0.0743408203125,-1.0446014404296875
1774472085507852500,10.8958525390625,-0.044647216796875,-0.0932159423828125,-1.0338897705078125
1774472085517866500,10.905866455078124,-0.130523681640625,-0.0677032470703125,-0.988250732421875
1774472085527879400,10.91587939453125,-0.1715087890625,-0.0388031005859375,-0.9192962646484375
1774472085537893400,10.925893310546876,-0.14813232421875,-0.01568603515625,-0.9069061279296875
1774472085547906000,10.935906005859374,-0.12969970703125,0.0024566650390625,-0.9199981689453125
1774472085557920300,10.945920166015625,-0.1286773681640625,0.0190582275390625,-0.924285888671875
1774472085567933400,10.955933349609374,-0.141632080078125,0.0408935546875,-0.9290313720703125
1774472085577947100,10.965947021484375,-0.1580963134765625,0.0679779052734375,-0.9323577880859375
1774472085587960300,10.975960205078126,-0.1694793701171875,0.0884246826171875,-0.9489898681640625
1774472085597974300,10.985974365234375,-0.190948486328125,0.112091064453125,-0.9998931884765625
1774472085607987200,10.9959873046875,-0.21240234375,0.0991973876953125,-1.030487060546875
1774472085618000400,11.00600048828125,-0.20343017578125,0.08758544921875,-1.06158447265625
1774472085628014300,11.016014404296875,-0.214019775390625,0.0731353759765625,-1.0556182861328125
1774472085638027300,11.02602734375,-0.2424163818359375,0.05340576171875,-1.0205535888671875
1774472085648041200,11.036041259765625,-0.268707275390625,0.0407257080078125,-0.9782257080078125
1774472085658054100,11.04605419921875,-0.290191650390625,0.0309295654296875,-0.9329376220703125
1774472085668068000,11.056068115234375,-0.285003662109375,0.0645294189453125,-0.93817138671875
1774472085678081300,11.066081298828125,-0.2836151123046875,0.0773468017578125,-0.9324798583984375
1774472085688095200,11.07609521484375,-0.2884368896484375,0.048858642578125,-0.9142608642578125
1774472085698108200,11.086108154296875,-0.29620361328125,0.0147857666015625,-0.9016876220703125
1774472085708122400,11.096122314453124,-0.28692626953125,-0.00823974609375,-0.9220123291015625
1774472085718135000,11.106135009765625,-0.277252197265625,-0.027679443359375,-0.9342803955078125
1774472085728149200,11.116149169921876,-0.2691497802734375,-0.0242919921875,-0.95220947265625
1774472085738162200,11.126162109375,-0.29010009765625,-0.031005859375,-0.959991455078125
1774472085748175000,11.136175048828125,-0.3225555419921875,-0.0374603271484375,-0.9502716064453125
1774472085758189300,11.146189208984374,-0.3369903564453125,-0.04071044921875,-0.9399566650390625
1774472085768202200,11.1562021484375,-0.34478759765625,-0.029144287109375,-0.90679931640625
1774472085778216200,11.16621630859375,-0.337188720703125,-0.01800537109375,-0.9161376953125
1774472085788229000,11.17622900390625,-0.330291748046875,-0.03289794921875,-0.926666259765625
1774472085798243300,11.186243408203126,-0.3254547119140625,-0.0563507080078125,-0.9307708740234375
1774472085808256300,11.19625634765625,-0.3284149169921875,-0.0657196044921875,-0.93951416015625
1774472085818270200,11.206270263671875,-0.3340301513671875,-0.058929443359375,-0.963897705078125
1774472085828283400,11.216283447265624,-0.3320465087890625,-0.073974609375,-1.0185394287109375
1774472085838297000,11.226297119140625,-0.312896728515625,-0.11480712890625,-1.0872650146484375
1774472085848310300,11.236310302734376,-0.3212890625,-0.1537017822265625,-1.12530517578125
1774472085858324200,11.24632421875,-0.3749542236328125,-0.169525146484375,-1.093902587890625
1774472085868337200,11.256337158203126,-0.4123077392578125,-0.162017822265625,-1.040985107421875
1774472085878350300,11.266350341796874,-0.40411376953125,-0.1422271728515625,-0.979522705078125
1774472085888364300,11.2763642578125,-0.3740997314453125,-0.1120758056640625,-0.93243408203125
1774472085898377200,11.286377197265624,-0.3379364013671875,-0.0750579833984375,-0.9189453125
1774472085908391200,11.29639111328125,-0.302490234375,-0.060516357421875,-0.92291259765625
1774472085918404000,11.306404052734376,-0.31390380859375,-0.04376220703125,-0.876373291015625
1774472085928418000,11.31641796875,-0.329803466796875,-0.04229736328125,-0.8360748291015625
1774472085938431200,11.32643115234375,-0.3373565673828125,-0.043731689453125,-0.8354949951171875
1774472085948445400,11.336445556640625,-0.373046875,-0.0518646240234375,-0.8132171630859375
1774472085958458000,11.3464580078125,-0.4021759033203125,-0.06494140625,-0.7832794189453125
1774472085968472300,11.356472412109374,-0.4009857177734375,-0.0816802978515625,-0.762664794921875
1774472085978485000,11.366485107421875,-0.3717498779296875,-0.10015869140625,-0.787628173828125
1774472085988498200,11.376498291015626,-0.3516082763671875,-0.11669921875,-0.8005218505859375
1774472085998512400,11.386512451171875,-0.3534393310546875,-0.1348114013671875,-0.7864532470703125
1774472086008525000,11.396525146484375,-0.35577392578125,-0.1604766845703125,-0.754669189453125
1774472086018539300,11.406539306640624,-0.365692138671875,-0.1590118408203125,-0.8457794189453125
1774472086028552200,11.41655224609375,-0.368255615234375,-0.14508056640625,-1.0170135498046875
1774472086038566100,11.426566162109374,-0.363861083984375,-0.1907806396484375,-1.0541839599609375
1774472086048579300,11.436579345703125,-0.3753814697265625,-0.1829986572265625,-1.08343505859375
1774472086058593300,11.44659326171875,-0.3827667236328125,-0.1392364501953125,-1.0668182373046875
1774472086068606200,11.456606201171875,-0.3811492919921875,-0.1245880126953125,-1.0559234619140625
1774472086078620200,11.4666201171875,-0.380767822265625,-0.0856475830078125,-1.0159912109375
1774472086088633300,11.47663330078125,-0.416717529296875,-0.06829833984375,-0.9006195068359375
1774472086098646300,11.486646240234375,-0.3963470458984375,-0.0339813232421875,-0.959075927734375
1774472086108660200,11.49666015625,-0.36248779296875,-0.0678863525390625,-0.941253662109375
1774472086118673400,11.50667333984375,-0.3393707275390625,-0.0989990234375,-0.94354248046875
1774472086128687000,11.51668701171875,-0.340728759765625,-0.1250762939453125,-0.9393768310546875
1774472086138700300,11.5267001953125,-0.3708343505859375,-0.1422119140625,-0.919525146484375
1774472086148714200,11.53671435546875,-0.376800537109375,-0.1226959228515625,-0.9149932861328125
1774472086158727200,11.54672705078125,-0.3730316162109375,-0.1346282958984375,-0.895050048828125
1774472086168741000,11.5567412109375,-0.3727569580078125,-0.1444244384765625,-0.8871917724609375
1774472086178754300,11.56675439453125,-0.391693115234375,-0.118133544921875,-0.8728790283203125
1774472086188768300,11.576768310546875,-0.406097412109375,-0.0766448974609375,-0.8705291748046875
1774472086198781200,11.58678125,-0.3731689453125,-0.0605621337890625,-0.9300384521484375
1774472086208795400,11.59679541015625,-0.3509674072265625,-0.115081787109375,-0.9193572998046875
1774472086218808000,11.60680810546875,-0.336944580078125,-0.1433563232421875,-0.9466400146484375
1774472086228821200,11.6168212890625,-0.3575439453125,-0.1667633056640625,-0.963287353515625
1774472086238835500,11.62683544921875,-0.37933349609375,-0.160186767578125,-1.0073394775390625
1774472086248848100,11.63684814453125,-0.3920745849609375,-0.1605682373046875,-1.0066680908203125
1774472086258862300,11.6468623046875,-0.3817596435546875,-0.136749267578125,-1.015716552734375
1774472086268875000,11.656875,-0.3701629638671875,-0.0937347412109375,-0.9820709228515625
1774472086278889200,11.66688916015625,-0.3884429931640625,-0.0482940673828125,-0.8793792724609375
1774472086288902400,11.67690234375,-0.409088134765625,-0.0378265380859375,-0.800537109375
1774472086298916000,11.686916015625,-0.390380859375,-0.062835693359375,-0.7888031005859375
1774472086308929300,11.69692919921875,-0.3553619384765625,-0.1016998291015625,-0.806549072265625
1774472086318943200,11.706943115234376,-0.32086181640625,-0.13421630859375,-0.8605804443359375
1774472086328956200,11.7169560546875,-0.276580810546875,-0.1510162353515625,-0.9476165771484375
1774472086338969300,11.72696923828125,-0.2675628662109375,-0.1749725341796875,-1.0135040283203125
1774472086348983300,11.7369833984375,-0.3118743896484375,-0.1937408447265625,-1.03790283203125
1774472086358996200,11.746996337890625,-0.3622589111328125,-0.1952362060546875,-1.0467987060546875
1774472086369010200,11.75701025390625,-0.3757171630859375,-0.1862335205078125,-1.04510498046875
1774472086379023400,11.7670234375,-0.3568267822265625,-0.20074462890625,-0.9800262451171875
1774472086389037000,11.777037109375,-0.3374176025390625,-0.1785430908203125,-0.9062042236328125
1774472086399050200,11.78705029296875,-0.3229522705078125,-0.094879150390625,-0.903167724609375
1774472086409064200,11.797064208984375,-0.3032379150390625,-0.03631591796875,-0.90716552734375
1774472086419077000,11.8070771484375,-0.282379150390625,-0.0412750244140625,-0.9070587158203125
1774472086429091300,11.81709130859375,-0.261962890625,-0.07672119140625,-0.9374847412109375
1774472086439104300,11.827104248046876,-0.2436065673828125,-0.1191558837890625,-0.9757537841796875
1774472086449118200,11.8371181640625,-0.2225189208984375,-0.154083251953125,-1.01361083984375
1774472086459131100,11.847131103515625,-0.2096710205078125,-0.1837921142578125,-1.0526580810546875
1774472086469144000,11.85714404296875,-0.2256317138671875,-0.205169677734375,-1.07305908203125
1774472086479158300,11.867158203125,-0.2677001953125,-0.2062835693359375,-1.0551300048828125
1774472086489171200,11.877171142578124,-0.30877685546875,-0.1811370849609375,-1.0144500732421875
1774472086499185400,11.887185302734375,-0.3149261474609375,-0.150604248046875,-0.97308349609375
1774472086509198000,11.897197998046876,-0.2939605712890625,-0.1169586181640625,-0.9419708251953125
1774472086519212300,11.90721240234375,-0.266815185546875,-0.081512451171875,-0.908233642578125
1774472086529225000,11.917224853515625,-0.241668701171875,-0.069580078125,-0.887176513671875
1774472086539239000,11.927239013671874,-0.2449188232421875,-0.0809326171875,-0.8746795654296875
1774472086549252000,11.937252197265625,-0.2744140625,-0.1080780029296875,-0.876617431640625
1774472086559265800,11.947265869140624,-0.3047637939453125,-0.140838623046875,-0.9124603271484375
1774472086569279000,11.957279052734375,-0.31982421875,-0.160858154296875,-0.9623565673828125
1774472086579292000,11.9672919921875,-0.32122802734375,-0.172393798828125,-0.9807281494140625
1774472086589305900,11.977305908203125,-0.314849853515625,-0.1969146728515625,-0.9562835693359375
1774472086599319000,11.987319091796875,-0.3113555908203125,-0.1954803466796875,-0.9258575439453125
1774472086609333000,11.9973330078125,-0.320587158203125,-0.1876220703125,-0.902679443359375
1774472086619346000,12.007345947265625,-0.3217315673828125,-0.1839752197265625,-0.9156646728515625
1774472086629359900,12.01735986328125,-0.3237152099609375,-0.1734466552734375,-0.914459228515625
1774472086639372800,12.027372802734375,-0.331756591796875,-0.140472412109375,-0.9163818359375
1774472086649387000,12.037386962890626,-0.3448944091796875,-0.1214447021484375,-0.8966217041015625
1774472086659400000,12.04739990234375,-0.37548828125,-0.086029052734375,-0.8863525390625
1774472086669414000,12.057413818359375,-0.372802734375,-0.0470428466796875,-0.93756103515625
1774472086679426800,12.0674267578125,-0.3665924072265625,-0.0741424560546875,-0.9336090087890625
1774472086689441000,12.07744091796875,-0.3653106689453125,-0.11102294921875,-0.9300079345703125
1774472086699454000,12.087453857421876,-0.3482666015625,-0.15765380859375,-0.9428253173828125
1774472086709467000,12.097466796875,-0.3458404541015625,-0.184600830078125,-0.9588775634765625
1774472086719481000,12.107481201171876,-0.3652191162109375,-0.1816864013671875,-0.9704437255859375
1774472086729493800,12.11749365234375,-0.3611602783203125,-0.1653594970703125,-0.989501953125
1774472086739508000,12.127508056640625,-0.34375,-0.149383544921875,-0.9996337890625
1774472086749521000,12.13752099609375,-0.333648681640625,-0.1384735107421875,-1.0168914794921875
1774472086759534800,12.147534912109375,-0.326934814453125,-0.147491455078125,-1.024658203125
1774472086769548000,12.157548095703126,-0.3538360595703125,-0.1627197265625,-0.9817047119140625
1774472086779562000,12.16756201171875,-0.3816375732421875,-0.1711883544921875,-0.9295654296875
1774472086789575000,12.177574951171875,-0.38531494140625,-0.180511474609375,-0.887359619140625
1774472086799588900,12.1875888671875,-0.3738555908203125,-0.183135986328125,-0.8807830810546875
1774472086809602000,12.19760205078125,-0.351959228515625,-0.1974945068359375,-0.8973846435546875
1774472086819615700,12.20761572265625,-0.331512451171875,-0.2203369140625,-0.922698974609375
1774472086829629000,12.21762890625,-0.33258056640625,-0.2354583740234375,-0.93023681640625
1774472086839641900,12.227641845703126,-0.3511962890625,-0.2301788330078125,-0.927947998046875
1774472086849655800,12.23765576171875,-0.3684844970703125,-0.21112060546875,-0.910308837890625
1774472086859669000,12.2476689453125,-0.36572265625,-0.1930694580078125,-0.8738555908203125
1774472086869683000,12.257682861328124,-0.3563690185546875,-0.1771087646484375,-0.8469696044921875
1774472086879696000,12.26769580078125,-0.337738037109375,-0.1769256591796875,-0.8618316650390625
1774472086889709800,12.277709716796876,-0.3253326416015625,-0.1805572509765625,-0.8986053466796875
1774472086899722800,12.28772265625,-0.3280792236328125,-0.2039794921875,-0.9131622314453125
1774472086909737000,12.297737060546876,-0.3389129638671875,-0.22137451171875,-0.9163360595703125
1774472086919750000,12.30775,-0.3562469482421875,-0.2183380126953125,-0.895965576171875
1774472086929764000,12.31776416015625,-0.3586273193359375,-0.1998443603515625,-0.8805694580078125
1774472086939777000,12.327777099609374,-0.340545654296875,-0.1842041015625,-0.9046173095703125
1774472086949791000,12.337791015625,-0.3405609130859375,-0.1768035888671875,-0.9386749267578125
1774472086959804000,12.347803955078126,-0.3643341064453125,-0.1871337890625,-0.9287872314453125
1774472086969816800,12.35781689453125,-0.383209228515625,-0.1950836181640625,-0.89593505859375
1774472086979831000,12.3678310546875,-0.394561767578125,-0.192108154296875,-0.853607177734375
1774472086989844000,12.377843994140624,-0.3892669677734375,-0.1936492919921875,-0.8296966552734375
1774472086999858000,12.38785791015625,-0.3767547607421875,-0.193359375,-0.823944091796875
1774472087009871000,12.39787109375,-0.372467041015625,-0.183563232421875,-0.83477783203125
1774472087019884800,12.407884765625,-0.3792572021484375,-0.174468994140625,-0.855743408203125
1774472087029898000,12.41789794921875,-0.378814697265625,-0.1773681640625,-0.87017822265625
1774472087039912000,12.427911865234375,-0.3861846923828125,-0.1881866455078125,-0.89208984375
1774472087049924900,12.4379248046875,-0.392791748046875,-0.2016754150390625,-0.934661865234375
1774472087059938800,12.447938720703124,-0.3878326416015625,-0.2029876708984375,-1.0030975341796875
1774472087069952000,12.457951904296875,-0.3987274169921875,-0.2234649658203125,-1.016754150390625
1774472087079966000,12.467966064453124,-0.4156646728515625,-0.2217254638671875,-0.99908447265625
1774472087089979000,12.477978759765625,-0.423309326171875,-0.21875,-0.944427490234375
1774472087099992000,12.487991943359376,-0.4087371826171875,-0.19879150390625,-0.9139404296875
1774472087110005800,12.498005859375,-0.381103515625,-0.1905975341796875,-0.88885498046875
1774472087120019000,12.50801904296875,-0.373565673828125,-0.1906890869140625,-0.856903076171875
1774472087130033000,12.518032958984374,-0.3761749267578125,-0.17877197265625,-0.845611572265625
1774472087140045800,12.5280458984375,-0.39593505859375,-0.1772613525390625,-0.8359222412109375
1774472087150060000,12.53806005859375,-0.4119720458984375,-0.18218994140625,-0.8530731201171875
1774472087160073000,12.548072998046875,-0.4213714599609375,-0.16864013671875,-0.87335205078125
1774472087170087000,12.5580869140625,-0.403900146484375,-0.1725006103515625,-0.970428466796875
1774472087180099800,12.568099853515625,-0.4120025634765625,-0.175079345703125,-0.9749755859375
1774472087190114000,12.578114013671875,-0.4480743408203125,-0.1880645751953125,-0.9554595947265625
1774472087200127000,12.588126953125,-0.463043212890625,-0.1508636474609375,-1.0119781494140625
1774472087210140000,12.598139892578125,-0.4629974365234375,-0.149139404296875,-0.95220947265625
1774472087220153900,12.60815380859375,-0.4398956298828125,-0.15655517578125,-0.8735504150390625
1774472087230167000,12.6181669921875,-0.426116943359375,-0.1512451171875,-0.8272705078125
1774472087240181000,12.628180908203126,-0.408721923828125,-0.1544036865234375,-0.7766571044921875
1774472087250194000,12.63819384765625,-0.3737640380859375,-0.1529083251953125,-0.8333892822265625
1774472087260207900,12.648207763671875,-0.3604278564453125,-0.2032012939453125,-0.84942626953125
1774472087270221000,12.658220947265624,-0.3674163818359375,-0.238067626953125,-0.907440185546875
1774472087280234800,12.66823486328125,-0.3732147216796875,-0.22882080078125,-0.9382476806640625
1774472087290248000,12.678248046875,-0.3760986328125,-0.2191009521484375,-0.9398193359375
1774472087300262000,12.688261962890625,-0.37646484375,-0.196197509765625,-0.946746826171875
1774472087310274800,12.69827490234375,-0.382232666015625,-0.17523193359375,-0.9497222900390625
1774472087320289000,12.7082890625,-0.382659912109375,-0.1613616943359375,-0.9436492919921875
1774472087330302000,12.718302001953125,-0.376007080078125,-0.164886474609375,-0.91534423828125
1774472087340315000,12.72831494140625,-0.381622314453125,-0.1634979248046875,-0.9114227294921875
1774472087350328800,12.738328857421875,-0.3956298828125,-0.160308837890625,-0.9046783447265625
1774472087360342000,12.748342041015626,-0.3829803466796875,-0.1519317626953125,-0.905792236328125
1774472087370356000,12.75835595703125,-0.35711669921875,-0.158294677734375,-0.8854217529296875
1774472087380369000,12.768368896484375,-0.34649658203125,-0.1562957763671875,-0.8969879150390625
1774472087390383000,12.778383056640624,-0.3411865234375,-0.1685638427734375,-0.910400390625
1774472087400395800,12.788395751953125,-0.33154296875,-0.1704864501953125,-0.947235107421875
1774472087410410000,12.798409912109374,-0.34039306640625,-0.1751556396484375,-0.976348876953125
1774472087420423000,12.8084228515625,-0.367828369140625,-0.1782379150390625,-0.99017333984375
1774472087430436900,12.818436767578126,-0.3793182373046875,-0.17474365234375,-0.985504150390625
1774472087440450000,12.828449951171875,-0.364410400390625,-0.1720733642578125,-0.9643402099609375
