time,seconds_elapsed,z,y,x
1774473183753255700,0.065255615234375,-0.5799129345864057,-0.15875614523887632,-0.24466142766997218
1774473183763268400,0.075268310546875,-0.607066898971796,-0.12901976314485072,-0.25849516110271215
1774473183773282600,0.085282470703125,-0.6347077700912952,-0.12144728206396102,-0.2742185076743364
1774473183783295700,0.095295654296875,-0.5271387912541627,-0.08934913927465676,-0.26631416429057714
1774473183793308400,0.105308349609375,-0.3342190951287746,-0.12178133632391691,-0.20406068334281444
1774473183803321600,0.115321533203125,-0.12562486000955103,-0.14094400969445706,-0.2194065749041736
1774473183813334500,0.12533447265625,0.03520809150338173,-0.1012161026790738,-0.22703078617230057
1774473183823347500,0.135347412109375,0.1211211188495159,-0.041997313252091405,-0.18559432167336343
1774473183833360400,0.1453603515625,0.14326689968407152,-0.009966390480101108,-0.08428294192627071
1774473183843373600,0.15537353515625,0.09344459189474583,0.03082213150411844,0.019448942966014144
1774473183853386500,0.165386474609375,0.04992693720757961,0.13937164581120012,0.14224939320459962
1774473183863399400,0.1753994140625,0.008985855010151863,0.19860007984936237,0.24321371307969092
1774473183873413600,0.18541357421875,-0.0032516952723264693,0.2078963159829378,0.2764649714268744
1774473183883426300,0.19542626953125,-0.05251403109133243,0.22615970242619512,0.3083462565951049
1774473183893439500,0.205439453125,-0.11047054549753665,0.18085545658320187,0.2714687705747783
1774473183903452400,0.215452392578125,-0.14947101502120494,0.058714347036182876,0.07816489743739366
1774473183913465600,0.225465576171875,-0.1063987660139799,-0.04281856650710106,-0.10594283894002438
1774473183923478500,0.235478515625,0.07487199337184429,0.08687485811561345,-0.06261763808503747
1774473183933491500,0.245491455078125,0.33631343705952166,0.3999015276119113,0.3493950369507074
1774473183943504600,0.255504638671875,0.3938409123986959,0.10055822329223156,0.47452904470339413
1774473183953517300,0.265517333984375,0.32075872505307196,-0.06071721129119396,0.18663535515889523
1774473183963530500,0.275530517578125,0.3023813568413257,0.016180150428414343,-0.14663316124677658
1774473183973544700,0.285544677734375,0.30665070472359657,0.003279460062086582,-0.18446634055674074
1774473183983557400,0.295557373046875,0.42088206405937667,0.42287060752809047,-0.02073372207954526
1774473183993570600,0.305570556640625,0.45876901938319203,0.9560349426820873,0.4599139516346156
1774473184003583500,0.31558349609375,0.37579730618596074,0.7012476961866021,0.7033879230856895
1774473184013596400,0.325596435546875,0.008539864808320998,0.4236348698988557,0.4426709942802787
1774473184023609300,0.335609375,-0.31646599629521366,0.3961541577771306,0.11706395241320132
1774473184033622500,0.34562255859375,-0.5710995135337114,0.30172523102015253,-0.09492956975549459
1774473184043635700,0.3556357421875,-0.8239321188300848,0.08281739941835403,-0.12350976755172013
1774473184053648400,0.3656484375,-1.0162485883653163,-0.0035740590944886206,-0.1796153933942318
1774473184063661600,0.37566162109375,-0.9934633405834435,0.08156798387914896,-0.277419641803205
1774473184073675500,0.385675537109375,-0.7085311311930418,0.164385383297503,-0.29686843863874673
1774473184083688400,0.3956884765625,-0.3295949424594641,0.12936696914732457,-0.284482419796288
1774473184093701600,0.40570166015625,-0.058278585967421526,-0.008374152852594852,-0.3387009167179465
1774473184103714600,0.415714599609375,-0.029350597646832465,-0.24807810424566268,-0.3918485695376992
1774473184113727500,0.4257275390625,-0.20793898608088493,-0.4714370700374245,-0.4684907874524593
1774473184123740400,0.435740478515625,-0.33079788850843905,-0.5791501335203647,-0.5207265861243009
1774473184133753600,0.445753662109375,-0.49351709215939044,-0.6337862713322043,-0.5128399245277047
1774473184143766500,0.4557666015625,-0.6382558179616927,-0.6168728381931782,-0.48858898810744283
1774473184153779500,0.465779541015625,-0.6169792211771011,-0.5428498628661036,-0.5474252079576254
1774473184163792600,0.475792724609375,-0.4689397002637386,-0.5213958636879921,-0.5613458890214562
1774473184173806300,0.485806396484375,-0.3158966719746589,-0.5531354022979736,-0.43514030651450153
1774473184183819500,0.495819580078125,-0.3459539565861225,-0.5715498876497149,-0.3078878453031182
1774473184193832400,0.50583251953125,-0.44647593952119347,-0.5094920754045248,-0.32253099542260166
1774473184203845400,0.515845458984375,-0.5042682032763958,-0.37214024498313664,-0.38689708461016414
1774473184213858600,0.525858642578125,-0.37426059813797474,-0.26797201450020075,-0.4351926212236285
1774473184223871500,0.53587158203125,-0.06662029785513877,-0.15754121649116276,-0.39022710581570863
1774473184233884700,0.545884765625,0.1799462327837944,0.007931377521157265,-0.48061903214156626
1774473184243897300,0.5558974609375,0.17462065384685993,-0.062086746078729625,-0.1336181968510151
1774473184253910500,0.56591064453125,0.09554594808816909,-0.15387801780849694,-0.0838771376043558
1774473184263923500,0.57592333984375,0.16134791529774664,-0.08803191919624805,-0.19751023878604174
1774473184273937400,0.5859375,0.2628478033542633,-0.08726999491304159,-0.24945319199115037
1774473184283950600,0.59595068359375,0.2580371882021427,-0.22652912026047706,-0.2375616786673665
1774473184293963500,0.605963623046875,0.2814876218944788,-0.4309454851731658,-0.23137977516204117
1774473184303976400,0.6159765625,0.26455110014081,-0.27768530700206756,-0.5623816618099808
1774473184313989400,0.6259892578125,-0.03767068222463131,0.45830666256844993,-1.4642767257645726
1774473184324002600,0.63600244140625,-0.40815293086767196,0.6210290810897946,-1.3606903868228197
1774473184334015500,0.646015380859375,-0.9249918619036674,0.9799424724921584,-1.3289663380429149
1774473184344028400,0.6560283203125,-1.1877356203615665,1.1631462457671762,-1.4218530037939547
1774473184354041600,0.66604150390625,-1.1358511193454266,1.1660635945186018,-1.2329174088686703
1774473184364055300,0.67605517578125,-0.5793868648856878,0.7273419223859906,-1.1134265215694903
1774473184374068500,0.686068359375,0.29057693727910516,-0.04119359565377235,-1.0063283751145005
1774473184384081700,0.69608154296875,0.9387795642375946,-0.5491100923046469,-0.8334168632730841
1774473184394094600,0.706094482421875,1.8110580730855463,-0.43277211607843635,-0.8277867484316229
1774473184404107500,0.716107421875,2.8806501291036604,0.15807517723739145,-0.904428966346383
1774473184414120400,0.726120361328125,2.717725173747539,-0.48079731131792064,-0.5467679130926728
1774473184424133600,0.736133544921875,2.884102899906039,-0.5273313912168145,-0.06337444780170917
1774473184434146300,0.746146240234375,3.0899691713660955,-0.5252250665873289,0.40192981856912374
1774473184444159500,0.756159423828125,2.9159377155840396,-0.5644251503363251,1.1376385872840882
1774473184454173400,0.76617333984375,2.4058032506227494,-0.16843436642736195,2.137188846565783
1774473184464186400,0.776186279296875,0.758925101390481,1.20439303291291,3.485809733149409
1774473184474199600,0.786199462890625,0.5331266334921121,1.9825731621325016,3.871928234602511
1774473184484212500,0.79621240234375,0.266350843039155,1.2985738301277159,3.7686671820923685
1774473184494225400,0.806225341796875,1.050382913157344,0.5622498521238565,3.274890854474902
1774473184504238600,0.816238525390625,1.0304916332513094,0.7534764805957674,2.2604876017153264
1774473184514251500,0.82625146484375,1.2822025410413742,1.1328501839637755,0.9831830618485807
1774473184524264400,0.836264404296875,1.3044126192837953,1.1116412455879152,0.3808493288785219
1774473184534277400,0.84627734375,0.9037193567723035,0.7391510181233286,0.09139321232289076
1774473184544291600,0.85629150390625,0.610050883218646,0.40044878623113034,-0.1879284637093544
1774473184554304500,0.866304443359375,0.06501461622416972,0.16964155026003716,-0.4720578322842717
1774473184564317400,0.8763173828125,-0.9166595023661851,0.13575184787884353,-0.8253428624108433
1774473184574330600,0.88633056640625,-1.943328946980834,0.318755568537116,-1.1265060756340621
1774473184584343600,0.896343505859375,-2.658204478764534,0.4831413902260363,-1.0329714673683046
1774473184594356500,0.9063564453125,-2.8237206196576357,0.5482517219096422,-0.5201458636268973
1774473184604369400,0.916369384765625,-2.595312261521816,0.5161566478602588,0.0681204732850194
1774473184614382600,0.926382568359375,-2.0119448025673625,0.47979324884191155,0.49569794332981104
1774473184624396500,0.936396484375,-1.4244330834150314,0.4312684335172176,0.664009267899394
1774473184634409700,0.94640966796875,-1.0960744047522544,0.37319472247213126,0.6095785895317792
1774473184644422700,0.956422607421875,-0.9108867641836405,0.3703847796179354,0.3984010599210858
1774473184654435800,0.966435791015625,-0.7859329353034495,0.25626652526780963,0.2406049918860197
1774473184664448800,0.97644873046875,-0.6010206045448779,0.046173868284374475,0.12948124317675827
1774473184674462000,0.9864619140625,-0.2545616210460663,-0.09966112832203507,0.03801905727088451
1774473184684474600,0.996474609375,-0.024321371307969093,-0.22407529736757278,0.030073943485319613
1774473184694487800,1.00648779296875,-0.005752864438295364,-0.2529471715867519,0.002255377711355686
1774473184704500700,1.016500732421875,-0.050507951965928076,-0.25197335811853405,-0.05121463893055916
1774473184714514700,1.0265146484375,-0.07605915732979775,-0.2943732608221471,-0.11595452986657619
1774473184724527900,1.03652783203125,-0.030799627411365507,-0.27012758509889245,-0.028432606019079685
1774473184734540800,1.046540771484375,-0.14136778806447983,-0.23719547570347785,0.02618102770000696
1774473184744553700,1.0565537109375,-0.2723661578059196,-0.23360943391025066,-0.024822306567430494
1774473184754566700,1.066566650390625,-0.3729547762364149,-0.24269670346826314,-0.09192571176439523
1774473184764579800,1.076579833984375,-0.42244273750483985,-0.2333830778084695,-0.0884083512932062
1774473184774592800,1.0865927734375,-0.4198614888399839,-0.17722469886541364,-0.05547901837676763
1774473184784605700,1.096605712890625,-0.30619477764964104,-0.026605098330974578,0.010206921237707138
1774473184794620000,1.106619873046875,-0.19446517200171945,0.04840338090211153,0.11486322749853134
1774473184804632600,1.116632568359375,-0.16232289780974388,0.007439794611930847,0.14079846374392507
1774473184814645800,1.126645751953125,-0.06534428656995296,0.00755377638041973,0.024103929165005682
1774473184824659000,1.136658935546875,0.0780173056602478,0.021607143913209437,-0.09825812965631485
1774473184834671600,1.146671630859375,0.26843057192265984,0.03557940903380513,-0.06921732861101627
1774473184844684800,1.156684814453125,0.4040016564071178,0.056928340402245516,0.014257365672290325
1774473184854697700,1.16669775390625,0.5810048214763402,0.061562283813208336,0.10602145713418722
1774473184864711000,1.1767109375,0.6908090120196342,0.08056494431644677,0.2095496361479163
1774473184874723600,1.1867236328125,0.7402461198836564,0.015120558372884988,0.09916413858532905
1774473184884737800,1.19673779296875,0.6360545085251331,-0.06280673091635107,-0.09127280081361532
1774473184894750700,1.206750732421875,0.48605157858431336,-0.022407646641135214,-0.19644845477342604
1774473184904763600,1.216763671875,0.4396832106411457,0.01741466065943241,-0.21920155385136603
1774473184914776800,1.22677685546875,0.38334815995693206,0.007281973701715469,-0.22203122431933878
1774473184924789800,1.236789794921875,0.2761006681591272,0.050678193966299294,-0.1683852665886283
1774473184934802700,1.246802734375,0.11393383769392966,0.15373422542363405,-0.06583499269634485
1774473184944815900,1.25681591796875,-0.018389058649539946,0.18976926927044988,-0.016729016482830046
1774473184954828800,1.266828857421875,-0.12681962275207043,0.22588848426938055,0.02369271801561117
1774473184964842800,1.2768427734375,-0.1246773500263691,0.2543510470353067,0.07045271562486886
1774473184974855700,1.286855712890625,-0.041860535129904744,0.2557204356923699,0.15156155755966902
1774473184984868900,1.296868896484375,0.0010416180074214936,0.17925328208357094,0.2939107578769326
1774473184994881800,1.3068818359375,0.0411783980846405,0.13272782388255,0.31389380771964787
1774473185004894700,1.316894775390625,0.08219897525906562,0.06944485375657677,0.2331993918046355
1774473185014908000,1.326907958984375,0.05197743999660015,-0.008570698338001967,0.08646919992417097
1774473185024920600,1.336920654296875,-0.01756488278508186,-0.0658231561280787,-0.005074526785314083
1774473185034933800,1.346933837890625,-0.14143091642856598,-0.11100275267809628,-0.06278320391029119
1774473185044946700,1.35694677734375,-0.20433248602151868,-0.10015271123126149,-0.028737434184551238
1774473185054960600,1.366960693359375,-0.2433411388516426,-0.06618672874346375,0.10702566574066877
1774473185064973800,1.376973876953125,-0.2366220597296953,-0.026201047574728725,0.16436112563908098
1774473185074986800,1.38698681640625,-0.10720891335308551,-0.17589315800070762,0.12402780007645486
1774473185084999700,1.396999755859375,0.07548866396546364,-0.1508526786379516,0.0288175136834383
1774473185095012600,1.4070126953125,0.17410919719338416,0.05950739711001515,0.09652458386197686
1774473185105025800,1.41702587890625,0.3769154965609312,-0.0016156185030937193,0.13818857350647448
1774473185115039000,1.4270390625,0.3977589626252651,-0.20016981338411569,0.08050590760558843
1774473185125051600,1.4370517578125,0.2854173625588417,-0.23611118759810923,-0.03321794059947133
1774473185135064800,1.44706494140625,0.26568156547546384,-0.1428197404384613,-0.047648470881581306
1774473185145078800,1.457078857421875,0.3297901727706194,-0.10735299799889325,0.006349222896248102
1774473185155091700,1.467091796875,0.41243981440663335,-0.06429185490757226,0.11298588931933044
1774473185165105000,1.47710498046875,0.5785153427481651,-0.0002868541173636913,0.2336604334451258
1774473185175117800,1.487117919921875,0.72317457357347,-0.021011369977146387,0.3070180767312646
1774473185185130800,1.497130859375,0.6486971324771642,-0.11732114204466343,0.25993250042945143
1774473185195143700,1.507143798828125,0.5441986471265554,-0.08892053859904409,0.06393178942352533
1774473185205156900,1.517156982421875,0.46601767533719535,-0.08830956709384917,-0.16812018591165542
1774473185215169800,1.527169677734375,0.2762555664598942,-0.16263123310655356,-0.4537164121687412
1774473185225182700,1.5371826171875,0.13331366094648836,-0.2171215327069163,-0.6221981248691678
1774473185235197000,1.547197021484375,0.14557926827967166,-0.2720342955030501,-0.7630003880053758
1774473185245209600,1.557209716796875,0.3382072879821062,-0.37896760678514835,-0.8766822967648505
1774473185255222800,1.567222900390625,0.6032172378063202,-0.4301557961001992,-0.8618494692921638
1774473185265235700,1.577235595703125,0.6954413479954004,-0.39534517948180437,-0.6421148314774036
1774473185275248600,1.58724853515625,0.6327525443702936,-0.31342034498900173,-0.30855916869342326
1774473185285261800,1.59726171875,0.5044458979308605,-0.11640753433108329,0.11403905163407325
1774473185295274800,1.607274658203125,0.38312896424829956,0.06752323804423213,0.4637894778937101
1774473185305288000,1.617287841796875,0.23365151948630808,0.22364085147306323,0.7759519317761063
1774473185315301600,1.627301513671875,-0.057709261646866794,0.38368046065121886,0.9835966110855341
1774473185325314800,1.637314697265625,-0.37593233074247834,0.5013626910932362,0.9338821475848555
1774473185335327700,1.64732763671875,-0.6722837597697973,0.4929721716277301,0.7207306875526904
1774473185345340700,1.657340576171875,-0.9401298098027706,0.4427987123131752,0.5532096365779638
1774473185355353900,1.667353759765625,-1.01950554433465,0.451488945377618,0.39103403828442096
1774473185365366800,1.67736669921875,-0.9448615144997835,0.39097865483537314,0.13192907472029328
1774473185375379700,1.687379638671875,-0.7604641475260258,0.33607918991222974,-0.021133827313035727
1774473185385392600,1.697392578125,-0.5365326425433159,0.34009880081713195,-0.0520209868773818
1774473185395405800,1.70740576171875,-0.37880817843973635,0.3294942585639655,0.0011497545570135115
1774473185405419800,1.717419677734375,-0.25248364572823045,0.3795430685855448,0.09824132465198636
1774473185415432700,1.7274326171875,-0.21490940961539745,0.4323682114526629,0.20279636249542235
1774473185425446000,1.73744580078125,-0.4102952035933733,0.46035190466046333,0.3104414753086865
1774473185435458600,1.74745849609375,-0.7888222270041704,0.47669805930554865,0.40172216716781256
1774473185445471700,1.7574716796875,-1.2867115428984164,0.46796515614315864,0.4704781618773937
1774473185455485000,1.76748486328125,-1.711959985473752,0.41343145579248664,0.4658741752132773
1774473185465497900,1.777497802734375,-1.8058119891256093,0.36218291459232566,0.3866930864706635
1774473185475510800,1.7875107421875,-1.6222545801073311,0.26007293181344865,0.20414558514729142
1774473185485523700,1.797523681640625,-1.2456775217205285,0.1564206880286336,0.06864362037628889
1774473185495537700,1.80753759765625,-0.7661421931624413,0.07800532296150922,0.07007189961373805
1774473185505550800,1.81755078125,-0.43999476080834865,0.011988251696527003,0.18188114636912942
1774473185515563800,1.827563720703125,-0.20471417881548404,0.010701719017326831,0.36520021658688784
1774473185525576700,1.83757666015625,0.06455868915021419,0.041988399293273686,0.4953258951470256
1774473185535589600,1.847589599609375,0.2569990773260593,0.025724808365106582,0.559775132573396
1774473185545602800,1.857602783203125,0.31401041983664035,0.017795915061980486,0.5216463313177228
1774473185555615700,1.86761572265625,0.368389075756073,0.02056245716586709,0.45230771441459655
1774473185565628700,1.877628662109375,0.4160065669775009,-0.001414250712096691,0.3771823308035731
1774473185575643000,1.887642822265625,0.4738724804908037,-0.020488515146821738,0.17976546938940882
1774473185585655800,1.89765576171875,0.5617337192952633,-0.10589841527640818,-0.12723214907571673
1774473185595668700,1.907668701171875,0.7388514506548642,-0.2124154008425772,-0.41742534773424267
1774473185605681700,1.917681640625,0.8829933796077967,-0.3108021253146231,-0.5750445978976786
1774473185615694800,1.92769482421875,0.9140005122900009,-0.29662001683562994,-0.5638663474097848
1774473185625707800,1.937707763671875,0.8736188175410031,-0.22680998302847147,-0.4324639269120991
1774473185635720700,1.947720703125,0.7531617155581712,-0.08040814631953835,-0.20184344568476079
1774473185645734000,1.95773388671875,0.5882891332656145,0.08734086819216609,0.0003160802118480205
1774473185655746800,1.967746826171875,0.3935971667706966,0.1987415341466665,0.09627382397130131
1774473185665760800,1.9777607421875,0.2301642618924379,0.20963117695152758,0.009593465514481068
1774473185675774000,1.98777392578125,0.1142284367263317,0.12913476782664657,-0.17510960640758275
1774473185685786600,1.99778662109375,0.05136193844676017,0.06409297133460641,-0.28525106608122586
1774473185695799800,2.0077998046875,-0.0009732289463281631,0.04505333982184529,-0.27582959613278507
1774473185705812700,2.017812744140625,0.017013678643107412,0.09050663874670863,-0.25870368928685783
1774473185715826000,2.027825927734375,0.061145665836334226,0.08742518547475338,-0.22751813129782675
1774473185725838600,2.037838623046875,0.1468716461777687,0.0598169014506042,-0.13746815027743578
1774473185735851800,2.047851806640625,0.20107202292084692,0.043568508091568946,-0.051176645007729525
1774473185745865000,2.057864990234375,0.16937866154015063,0.022205986589193344,0.030023674602806565
1774473185755878700,2.067878662109375,0.07087327912449837,0.03207593095749616,0.10613850764259695
1774473185765891800,2.077891845703125,-0.01606616865992546,0.08128259106650948,0.20189502974152565
1774473185775904800,2.08790478515625,0.010485738179087638,0.28683760462030766,0.3530620350256562
1774473185785917700,2.097917724609375,0.05183657022118568,0.3923661636710167,0.6022559915587306
1774473185795931000,2.107930908203125,0.16768296353816986,0.48161140417978165,0.6807640033453702
1774473185805943800,2.11794384765625,0.4585971699476242,0.5756530851848423,0.6690506230674683
1774473185815956700,2.127956787109375,0.768951405364275,0.523345682581514,0.6497345127008854
1774473185825969700,2.1379697265625,0.9312363092511892,0.36030528415217994,0.5638078952208161
1774473185835982800,2.14798291015625,1.004184641084075,0.22817484164088964,0.5847891623206436
1774473185845996800,2.157996826171875,0.903477949231863,0.1575394629254937,0.5791140392936766
1774473185856009700,2.168009765625,0.4569751217037439,0.11738821593150496,0.3638970250338316
1774473185866023000,2.17802294921875,-0.15404197619855403,-0.0987736779630184,-0.051054918324202295
1774473185876035600,2.18803564453125,-0.38038872562944887,-0.2629794669099152,-0.35935368251577016
1774473185886048800,2.198048828125,-0.46510874379873274,-0.3008331044860184,-0.6379581501893699
1774473185896061700,2.208061767578125,-0.4844605100005865,-0.34410482158809896,-0.7933079941160976
1774473185906075000,2.218074951171875,-0.38310032267570493,-0.2805303211696446,-0.5870436632491648
1774473185916087800,2.228087890625,-0.30123920106887814,-0.1660192681096494,-0.16635814467519522
1774473185926100700,2.238100830078125,-0.23454992963075635,0.01783624707236886,0.18554186083376406
1774473185936114700,2.24811474609375,-0.21683482472002505,0.15744228616133332,0.3815630301058292
1774473185946127600,2.258127685546875,-0.2255114676505327,0.14634908360838889,0.41475875887349245
1774473185956140800,2.268140869140625,-0.1949427263855934,0.12397007853984832,0.36039997669830914
1774473185966154000,2.278154052734375,-0.2056044056534767,0.07845642772987485,0.3469605032801628
1774473185976166700,2.288166748046875,-0.2681108384490013,0.038354572835564614,0.3235267284616828
1774473185986179800,2.298179931640625,-0.36629999452233314,0.04378653475642204,0.2515339437879622
1774473185996192800,2.30819287109375,-0.3519558273494243,0.10464973038956522,0.19499650239944458
1774473186006205700,2.318205810546875,-0.30833763489723204,0.15095950001329184,0.1368985336959362
1774473186016218600,2.328218505859375,-0.28612638761103154,0.13009718311801552,0.07997267751172185
1774473186026232800,2.33823291015625,-0.18648761725127697,0.07935001556873321,0.038612200858443975
1774473186036245800,2.348245849609375,-0.07886486240029335,0.04915113052949309,0.07149652558937668
1774473186046258700,2.3582587890625,-0.013614099332690238,0.056371437171846624,0.09175093971937895
1774473186056272000,2.36827197265625,0.030445407146215436,0.09611059623360634,0.12854527750089764
1774473186066284500,2.378284423828125,0.04936579619348049,0.13851093732863665,0.1143627306304872
1774473186076297700,2.388297607421875,-0.008694763109087943,0.09252806157171725,0.04223119507320225
1774473186086311000,2.398310791015625,-0.10109832151830196,-0.03381897523254156,-0.0919821911919862
1774473186096323800,2.40832373046875,0.07256020929813385,-0.11174348804280161,-0.09326887000165879
1774473186106336800,2.418336669921875,0.4058674502789974,-0.10270239571407437,-0.007799787030741572
1774473186116350700,2.428350830078125,0.3577092763096094,0.035597675342857835,-0.17959077040962873
1774473186126363600,2.43836376953125,-0.10014847344756125,-0.1542693552136421,0.38923232262469826
1774473186136376800,2.448376953125,-0.3225631441265344,-0.0238178057000041,0.5367597292974591
1774473186146389800,2.4583896484375,-0.4263251318961382,0.10329510091021657,0.21042707656957207
1774473186156403000,2.46840283203125,-0.4675117132872343,-0.10564458664581179,-0.015641805768013
1774473186166415600,2.47841552734375,-0.3397580245554447,-0.364057622423023,-0.1901218821004033
1774473186176428800,2.4884287109375,-0.21899872475564477,-0.42294688763469457,-0.38474494807757437
1774473186186441700,2.498441650390625,-0.13545359558463096,-0.3743706343837082,-0.3750819244582206
1774473186196454700,2.50845458984375,-0.007008417457342147,-0.3369982044532895,-0.21147264009974895
1774473186206468900,2.51846875,0.10042670586705207,-0.2366875261813402,-0.15299655879884957
1774473186216481800,2.528481689453125,0.23187574198544025,-0.26520956404954193,0.13843874887526034
1774473186226494700,2.53849462890625,0.3688239600419998,-0.13554887265264987,0.27535964053347706
1774473186236507600,2.548507568359375,0.5598071351468563,-0.04449132202491164,0.2780749639067799
1774473186246520800,2.558520751953125,0.5300345126956701,0.079879154009372,0.21404212526157498
1774473186256533800,2.56853369140625,0.21162088946402072,0.182149588046968,0.2766157050091773
1774473186266546700,2.578546630859375,-0.09730711254179478,0.17147534155845642,0.2594508178597316
1774473186276560000,2.588559814453125,-0.2168272259354591,0.14319208088219165,0.040594460716843604
1774473186286572800,2.59857275390625,0.1544306832551956,0.08047989638149738,-0.2705099720126018
1774473186296586800,2.608586669921875,0.6903665289491414,-0.03111848410218954,-0.3962874287679791
1774473186306600000,2.618599853515625,1.0567822588056326,-0.012281973946094512,-0.35586229673605413
1774473186316612600,2.628612548828125,1.1274492017030715,0.05119125805497169,-0.1504798724033404
1774473186326625800,2.638625732421875,0.9222375947594642,0.10207155046463012,0.03758881262745708
1774473186336638700,2.648638671875,0.5730325274229049,0.20188100121617317,0.24393786263577638
1774473186346652000,2.65865185546875,0.363704132810235,0.3306307152479887,0.46651714929193255
1774473186356664600,2.66866455078125,0.4927946231037378,0.35836131047755476,0.5352716826967895
1774473186366677800,2.678677734375,0.9901906025230884,0.2822580217450857,0.6689199824251234
1774473186376691000,2.68869091796875,1.3556266736924647,-0.02698269947171211,0.4044793569214642
1774473186386703600,2.69870361328125,1.0080535914719104,-0.20999211921840905,0.012717004362493753
1774473186396717800,2.7087177734375,0.4081488392144441,-0.30291268723905085,0.240966226413846
1774473186406730800,2.718730712890625,-0.43266485631167884,-0.29818215158581735,0.49716217066347596
1774473186416743700,2.72874365234375,-0.9317617944300174,0.08499649702310562,0.008144289619475602
1774473186426756900,2.7387568359375,-1.3737199642658233,0.5230056369721889,0.0718935620829463
1774473186436769800,2.748769775390625,-1.7597493261307477,0.7513242709979414,0.7809355654075741
1774473186446782700,2.75878271484375,-1.8148884450286626,0.5069809693664312,1.181151565796137
1774473186456795600,2.768795654296875,-1.6164450170457363,0.30384675321877,0.5477881960511207
1774473186466808800,2.778808837890625,-1.4684657018870115,-0.023538404236733913,0.0005576338827610015
1774473186476821800,2.78882177734375,-1.2561802110344171,-0.3312912249833345,0.11307312921136617
1774473186486835700,2.798835693359375,-0.40442660382092,-0.2813607806444168,-0.12852993380129338
1774473186496849000,2.808848876953125,0.5734732569277287,-0.25627690053135155,-0.14582915138751268
1774473186506861600,2.818861572265625,0.45756899594366546,-0.35913843232989306,0.20427695644199848
1774473186516874800,2.828874755859375,0.16591887647509573,-0.34149113195836545,0.10251374127417802
1774473186526887700,2.8388876953125,0.05667699598968029,-0.3482154717773199,-0.09645575640946626
1774473186536900900,2.84890087890625,-0.061439095824956894,-0.4291203155726194,-0.3634907823204994
1774473186546913800,2.858913818359375,0.08966448883414269,-0.24427637387514112,-0.9043833736389875
1774473186556926700,2.8689267578125,0.3054039195328951,-0.26138065341114997,-0.9127306384846567
1774473186566940000,2.87893994140625,0.4268687372535467,-0.3747004508599639,-0.6067220310568809
1774473186576952600,2.88895263671875,0.5652174697577953,-0.26205519167184826,-0.49657063451111316
1774473186586966800,2.898966796875,0.4506511793792248,-0.277199569311738,-0.6109241589218378
1774473186596980000,2.90897998046875,0.1951613375723362,-0.427043509298563,-0.54508536683321
1774473186606992600,2.91899267578125,0.011630816560983658,-0.4717246548071503,-0.4757829902872443
1774473186617005800,2.929005859375,0.047073885864019394,-0.3917144217640161,-0.5218254872769117
1774473186627018800,2.939018798828125,0.20180267528295515,-0.4126765457719564,-0.5951379762470722
1774473186637032200,2.9490322265625,0.6713409259617328,-0.4719485266909003,-0.6109057464823127
1774473186647045400,2.95904541015625,1.237668402788043,-0.5604460175722837,-0.9128431589484214
1774473186657058300,2.969058349609375,1.1697072117179632,-0.7955161716848611,-1.0506456557467578
1774473186667071200,2.9790712890625,0.5449374827951192,-0.6500789422243833,-0.912924115230143
1774473186677085400,2.98908544921875,-0.1864285805404186,-0.34722967561036344,-0.6558814910233021
1774473186687098400,2.999098388671875,-0.6609475422412157,-0.16589111168533563,-0.22010902408510447
1774473186697111300,3.009111328125,-0.88628832949996,-0.14811054032295942,0.19685031357258556
1774473186707124200,3.019124267578125,-0.9337871627777814,-0.2442667292639613,0.06217150175273418
1774473186717137400,3.029137451171875,-0.750150258782506,-0.2896227052941918,-0.5318000610634684
1774473186727150000,3.039150146484375,-0.6515133589416742,-0.4159013530373573,-0.5780392496690153
1774473186737163300,3.049163330078125,-0.5026543383389711,-0.47647798681408166,-0.4587506069436669
1774473186747176400,3.059176513671875,-0.032173838374018666,-0.21556495091468095,-0.47307168550193307
1774473186757189400,3.069189453125,0.28287878399193284,-0.0011532616883516312,-0.27829876272529364
1774473186767202300,3.079202392578125,0.506524457770586,-0.0438841499119997,-0.1265177171960473
1774473186777216300,3.08921630859375,0.5602952109247445,-0.11426584612727164,-0.20505407829433678
1774473186787229200,3.099229248046875,0.40731764908730983,0.0055246086403727525,-0.6847945740357041
1774473186797242400,3.109242431640625,0.02542202602624893,0.03355886299163103,-0.7937272424414753
1774473186807255300,3.11925537109375,-0.18072832307219505,-0.011660334916412829,-0.5488710228517651
1774473186817268500,3.1292685546875,-0.23581775760948656,0.1765998449653387,-0.1839259500697255
1774473186827281200,3.13928125,-0.2531920862585306,0.4501093275874853,0.17558774531334637
1774473186837294300,3.14929443359375,-0.19716157147884367,0.5518576374471187,0.25561960566639896
1774473186847307300,3.159307373046875,-0.13940437903702257,0.4729050967633724,0.2887818705558777
1774473186857320200,3.1693203125,-0.040426118412613864,0.5170364994347095,0.2702218392536044
1774473186867334400,3.17933447265625,0.0973106196731329,0.5879641390949487,0.13459902458190917
1774473186877347300,3.189347412109375,0.03156827369630336,0.5279349100679159,0.09561375262737273
1774473186887360300,3.1993603515625,-0.14369652327299118,0.5518579297080636,0.11580547678470611
1774473186897373200,3.209373291015625,-0.29629940657913684,0.68988429839015,0.3261401258304715
1774473186907386400,3.219386474609375,-0.4114443736284971,0.7289218850538134,0.3270893893793225
1774473186917399300,3.2293994140625,-0.5321463902831077,0.6015078035399317,0.12368249377012253
1774473186927412200,3.239412109375,-0.6294587635219097,0.44044718075096606,0.11608984668403863
1774473186937425400,3.24942529296875,-0.596757101881504,0.53056613535434,0.23031097688674926
1774473186947438300,3.259438232421875,-0.5588759917765855,0.658766691070795,0.4343474025711417
1774473186957452300,3.269452392578125,-0.5880874732136726,0.7462681566521525,0.6163228030949831
1774473186967465500,3.279465576171875,-0.6640057607680558,0.8018184866994619,0.7884776513502001
1774473186977478100,3.28947802734375,-0.606753595238924,0.8274366198197006,1.0941428521677852
1774473186987491300,3.2994912109375,-0.5243249028772116,0.7384072140187025,1.1818895246818661
1774473186997504300,3.309504150390625,-0.4460346254944801,0.7055301958113909,0.8956231440782546
1774473187007517400,3.319517333984375,-0.3924176015973091,0.6154825528785586,0.6063885613188147
1774473187017530000,3.329530029296875,-0.46440790205299853,0.539314966738224,0.4929869308054447
1774473187027543300,3.339543212890625,-0.5064671746253967,0.6063982059299945,0.463442856413126
1774473187037556500,3.349556396484375,-0.4617816452026367,0.6325234117895364,0.3804249659866094
1774473187047569200,3.359569091796875,-0.22580255955159662,0.5300228222578763,0.1658341208010912
1774473187057583400,3.369583251953125,-0.11585106949210167,0.31780045976936816,-0.1237728024020791
1774473187067596300,3.37959619140625,-0.3247562702566385,0.06513415095061063,-0.025848727005720138
1774473187077609200,3.389609130859375,-0.5543424400001764,0.22797113576233385,0.14207330598533152
1774473187087622400,3.399622314453125,-0.658882426404953,0.4552291548192501,0.3372776059165597
1774473187097635300,3.40963525390625,-0.5588613787293434,0.47051206414699553,0.6259931332379579
1774473187107648300,3.419648193359375,-0.27581016077995296,0.4567705390423536,0.7020780095309018
1774473187117661200,3.4296611328125,0.06709492962956429,0.3637742754369974,0.7461246565282345
1774473187127674400,3.43967431640625,0.2668389188170433,0.3812263454973697,0.7597764575228094
1774473187137687300,3.449687255859375,0.26488077048659325,0.21298808616399764,0.5245224712759256
1774473187147701200,3.459701171875,0.33002631961405277,0.10319149440526962,0.7803671178698539
1774473187157714400,3.46971435546875,0.3523112166583538,0.40453240228295323,1.2146893859997392
1774473187167727000,3.47972705078125,0.5868862807303666,0.519801287972927,1.3370610894322394
1774473187177740300,3.489740234375,0.6804840173602104,0.3135901485979557,1.1092185484856367
1774473187187753200,3.499753173828125,0.08824877681732177,-0.09708265613615512,0.5204653048396111
1774473187197766400,3.509766357421875,-0.9386872097790241,-0.549949173477292,-0.19950608877837656
1774473187207779300,3.519779296875,-0.8656558758378028,-0.7463695712000131,-0.6390729795634746
1774473187217792300,3.529792236328125,-1.0105728808164596,-1.0119739797860383,-1.7322043166011571
1774473187227805400,3.539805419921875,-1.3999661661565304,-1.1247796902328728,-2.2975801917910577
1774473187237819100,3.549819091796875,-1.5921230612158774,-0.7347697342991828,-1.7415484835296868
1774473187247832300,3.559832275390625,-1.8008716101139783,-0.28962825825214383,-1.0338292532414197
1774473187257845500,3.569845458984375,-1.89527481790781,0.01833060646057129,-0.6140133571088313
1774473187267858200,3.579858154296875,-1.649023344567418,0.17786124320328234,-0.48274961442947384
1774473187277871400,3.589871337890625,-1.0198995120882988,0.16318214498758316,-0.2629290518969297
1774473187287884300,3.59988427734375,-0.27508009293973446,0.18580957185924052,-0.11489888333380222
1774473187297897200,3.609897216796875,0.3182213155299425,0.17135493004918098,-0.03264145588576794
1774473187307910100,3.61991015625,0.5333703791201114,-0.02462123103737831,0.09208324041366577
1774473187317923300,3.62992333984375,0.450512647691369,-0.06994096671044826,0.2017962455421686
1774473187327936500,3.6399365234375,0.4564817852288484,0.22181436669826507,0.2681435716748237
1774473187337950200,3.6499501953125,0.38736265629529953,0.32803017736077306,0.44874622254073615
1774473187347963400,3.65996337890625,0.24637597650289533,0.21234160495400428,0.5660264480531215
1774473187357976300,3.669976318359375,0.030661095723509786,0.20290566808879373,0.32833237517774105
1774473187367989200,3.6799892578125,-0.14971417612731455,0.2596183199137449,0.17914368422925472
1774473187378002400,3.69000244140625,-0.09832827228307724,0.2871820341438055,0.24403087468147278
1774473187388015400,3.700015380859375,-0.05301964252591133,0.3344429670125246,0.25966040548980235
1774473187398028300,3.7100283203125,0.09343991571962833,0.4670148696810007,0.3053624184787273
1774473187408041200,3.720041259765625,0.26522914553284643,0.5380722732007504,0.3360492331653833
1774473187418054400,3.730054443359375,0.3007967179983854,0.4865630352377891,0.24643209060430527
1774473187428067300,3.7400673828125,0.2578583245038986,0.3733160107642412,0.16714344983398913
1774473187438081300,3.750081298828125,0.18676818775832651,0.20535072315335273,0.1842903994679451
1774473187448094500,3.760094482421875,0.04015373121201992,0.16789572950601578,0.3417185109734535
1774473187458107100,3.770107177734375,-0.09264964212477207,0.26436931383311746,0.5485591804236173
1774473187468120300,3.780120361328125,-0.02587912214398384,0.4167500788211822,0.6950204922348261
1774473187478133200,3.79013330078125,0.14349427869915962,0.39257191537618635,0.7207341946840286
1774473187488146400,3.800146484375,0.21399346381425857,0.27465806813538074,0.5798743561416864
1774473187498159400,3.810159423828125,0.059769701308012006,0.12513561518788338,0.4028004639238119
1774473187508172300,3.82017236328125,-0.17959201251864432,0.030274726754426953,0.23594518338143824
1774473187518185500,3.830185546875,-0.22231237934827802,0.05943360122144222,0.17145897494554518
1774473187528199200,3.84019921875,-0.16702829902172087,0.17565701115727422,0.029543489870429037
1774473187538212400,3.85021240234375,-0.14546996268630027,0.10937398243248463,-0.12427753705382347
1774473187548225300,3.860225341796875,-0.14152853158414364,-0.07014145771861076,-0.3235895645648241
1774473187558238200,3.87023828125,-0.1150870993822813,-0.1910696843445301,-0.4679816688865423
1774473187568251400,3.88025146484375,-0.05553542473912239,-0.3422369818896055,-0.4009042749136686
1774473187578264300,3.890264404296875,0.043833296507596965,-0.41273149082958693,-0.0918202055633068
1774473187588277200,3.90027734375,0.24058453361988066,-0.15191490104198455,-0.0666015931546688
1774473187598290200,3.910290283203125,0.28589316337704657,0.08072188844382762,0.0007224690556526184
1774473187608303400,3.920303466796875,0.33121991331279277,-0.20427403383255005,-0.024312603479623794
1774473187618316300,3.93031640625,0.2688455824643373,-0.1772106703400612,-0.1047603511571884
1774473187628330200,3.940330322265625,0.10369126062095164,-0.007857143241167068,-0.1403098034441471
1774473187638343000,3.950343017578125,-0.050535424494743346,0.018587796092033385,-0.16223171239495277
1774473187648355800,3.96035595703125,-0.03000526216328144,-0.08524433430433273,-0.09711305127441883
1774473187658368800,3.97036865234375,0.1731575955569744,-0.0526549008667469,-0.10138649080991745
1774473187668381700,3.980381591796875,0.2509972065627575,0.025385201147198676,-0.21659867787659168
1774473187678395000,3.990394775390625,0.17626257583498953,-0.07376140178143978,-0.2396639116436243
1774473187688407800,4.00040771484375,0.015437223106622695,-0.09339724562168121,-0.32061025649309155
1774473187698420700,4.010420654296875,-0.24763971282839772,0.00023205519020557403,-0.3991390188068151
1774473187708434000,4.020433837890625,-0.5690045870810747,-0.0361982715845108,-0.06936345908343791
1774473187718446800,4.03044677734375,-0.7205068156689405,-0.04611819257438182,0.02815992655754089
1774473187728460800,4.040460693359375,-0.5426414808124304,-0.024587328767776487,-0.15745733759999275
1774473187738474000,4.050473876953125,-0.21660452309548853,-0.04994447286427021,-0.0728279203236103
1774473187748486700,4.060486572265625,-0.04761164600253105,-0.039355274310708045,0.09605331308841705
1774473187758499800,4.070499755859375,-0.09740297413170337,0.11537936032712459,-0.00727671300470829
1774473187768512800,4.0805126953125,-0.3146364427804947,0.19813538494706154,-0.43726095193028447
1774473187778526000,4.09052587890625,-0.5664537335544825,0.15942600732445716,-0.5626455734431743
1774473187788538600,4.10053857421875,-0.8848562508702278,0.3592307867884636,-0.8806587991803884
1774473187798551800,4.1105517578125,-1.065591588205099,0.28779285951852795,-1.2537591213673351
1774473187808565000,4.12056494140625,-1.4504536598563194,-0.012654898911714552,-0.8729869493782519
1774473187818578700,4.13057861328125,-1.7338097059711812,0.05456628744602203,-0.5207932216197252
1774473187828591900,4.140591796875,-1.679602022704482,0.4184335018634796,-0.37827743256390095
1774473187838604800,4.150604736328125,-1.2194821732342243,0.6721458126038312,-0.6465145277410745
1774473187848617700,4.16061767578125,-1.2176342072799802,0.41602118002474303,-0.643307840654254
1774473187858631000,4.170630859375,-1.2755015820980071,0.49264381645619865,0.16820201897621154
1774473187868643800,4.180643798828125,-0.29534429781138893,1.003695980784297,0.293839153945446
1774473187878656800,4.19065673828125,0.8127309258580208,1.0107675266057252,0.6180927353769541
1774473187888669700,4.200669677734375,1.5913912398099899,0.6004805063188076,0.9708850135505199
1774473187898683000,4.210682861328125,2.2785633566319943,0.5770376714110375,1.195852875843644
1774473187908695800,4.22069580078125,1.9770473844483494,-0.09669979429841041,0.45033378399312496
1774473187918709800,4.230709716796875,1.605660003659129,-1.1298229450970887,0.260101134994626
1774473187928723000,4.240722900390625,1.9953665927320718,-2.3679361690431833,0.1644084719121456
1774473187938735600,4.250735595703125,2.468255907404423,-2.4888643956691023,-0.1845651247560978
1774473187948748800,4.260748779296875,1.6979191851615905,-1.2619658086985348,0.17067103943824766
1774473187958761700,4.27076171875,0.5354267271280289,-0.30064532682895656,1.1320464663654566
1774473187968775000,4.28077490234375,-1.2357763054311275,0.18151216692626476,1.1075190510913728
1774473187978787800,4.290787841796875,-3.3708950677245855,0.1983586723089218,-0.5652636469870805
1774473187988800800,4.30080078125,-4.428554693886637,-0.27036650842130183,-1.8768232154160738
1774473187998814000,4.31081396484375,-4.293841395275295,-0.9424591295331716,-2.0451497375547887
1774473188008826600,4.32082666015625,-3.2096611341953274,-1.159636484080553,-1.65514650362283
1774473188018840800,4.3308408203125,-1.5242685453906655,-0.8381973755478859,-1.2360703199416399
1774473188028854000,4.34085400390625,0.43930823984891176,-0.1498825184315443,-1.1627689368873835
1774473188038866700,4.35086669921875,2.449153732049465,0.6941635831445455,-0.8840075250864028
1774473188048879900,4.3608798828125,2.6240362517029046,0.8274486025184392,0.7038388817235827
1774473188058892800,4.370892822265625,1.578906436768174,0.26157880633175373,1.9673948822230098
1774473188068905700,4.38090576171875,0.6844786399543284,0.3670470134973526,1.9887667560756206
1774473188078918700,4.390918701171875,0.6054442662060261,0.8060580239653586,1.4648700154826044
1774473188088931800,4.400931884765625,0.08137421487271786,0.7668658312618732,1.255947279061377
1774473188098945000,4.410945068359375,-0.5354495234817266,0.6051677873522043,0.9309738589227199
1774473188108957700,4.420957763671875,-0.864087019085884,0.5752396820783615,0.3674897888287902
1774473188118972000,4.430971923828125,-1.3230004153758286,0.6712000561863184,0.20736206297576426
1774473188128984600,4.440984619140625,-1.4329226793408394,0.7886199824303388,0.2359273554638028
1774473188138997800,4.450997802734375,-1.044761566144228,0.8887789772719145,-0.11601122848987579
1774473188149011000,4.461010986328125,-0.6609434505879879,0.9009896395474671,-0.33375966092348097
1774473188159023900,4.47102392578125,-0.3081073332726955,0.9243903888791799,-0.1700394635364413
1774473188169036800,4.481036865234375,0.08246201010942458,0.9780804780125617,0.35965748776793477
1774473188179049700,4.4910498046875,0.31635844426751136,1.0023153400808573,1.288513916145265
1774473188189063000,4.50106298828125,0.3903051394879818,0.9395692533105611,1.5792892986059188
1774473188199075600,4.51107568359375,0.274058933198452,0.913918094703555,1.4624959798276425
1774473188209089800,4.52108984375,0.19322130942046642,1.1147259137302636,1.2398404861301182
1774473188219103000,4.53110302734375,0.24760522603690624,1.0088070401877165,1.03084468447268
1774473188229115600,4.54111572265625,0.365063730725646,0.5307517210543156,0.7208174890533089
1774473188239128800,4.55112890625,0.6134685827076435,0.27549334991574287,0.5258867453664541
1774473188249141800,4.561141845703125,1.1602139917075633,0.4284855248004198,0.6227791396275162
1774473188259154700,4.57115478515625,1.5768687934607266,0.45633214762508867,0.5318216883733868
1774473188269167900,4.58116796875,1.3663894752472638,0.30271219623088835,0.23646014716625213
1774473188279180800,4.591180908203125,0.6504635576277971,0.05785773020684719,-0.10939181035012006
1774473188289194000,4.601194091796875,0.07945347594320773,-0.09366904830038547,-0.4347378631934523
1774473188299206700,4.61120654296875,-0.19689269140958784,0.052043490970134734,-0.4250277855619788
1774473188309220900,4.621220947265625,-0.3527636366009712,0.289682034265995,0.007696984243392944
1774473188319233800,4.63123388671875,-0.48368718754053114,0.2329968549698591,0.3569499823749065
1774473188329246700,4.641246826171875,-0.5835773023128509,-0.28579788630902764,0.23898498946875332
1774473188339260000,4.651260009765625,-0.4317500795543194,-0.6455576654076576,0.1364995975062251
1774473188349272800,4.66127294921875,-0.3332259924381971,-0.6296311974793672,0.204962308357656
1774473188359285800,4.67128564453125,-0.038030747708678245,-0.5248498035341501,0.05030132347792387
1774473188369298700,4.681298583984375,0.20835691923201083,-0.45065527103245256,-0.009944763170182704
1774473188379311900,4.691311767578125,0.31771395052969453,-0.48569618927538394,-0.16203794338852165
1774473188389324800,4.70132470703125,0.22806699735224245,-0.4573398633629083,-0.23947774142175912
1774473188399337700,4.711337646484375,0.03155716778039932,-0.2594797882258892,-0.09715162971913814
1774473188409352000,4.72135205078125,-0.324565131598711,-0.23337913228571414,-0.20921996580213306
1774473188419364600,4.731364501953125,-0.6740384944826364,-0.28749299978911874,-0.41923371233046053
1774473188429377800,4.741377685546875,-0.7497650588572025,-0.10717091943025589,-0.43964726254493
1774473188439391000,4.751390869140625,-0.6796294463574886,0.09861761061847209,-0.350967985355854
1774473188449403600,4.761403564453125,-0.6928034007072449,0.17892390399873256,-0.1945323920190334
1774473188459416800,4.771416748046875,-0.5147954425096511,0.2389449497193098,-0.01546615694016218
1774473188469429800,4.7814296875,-0.24788404297828673,0.29461539901494976,0.16122838057130573
1774473188479443000,4.79144287109375,-0.14332768996059894,0.3278945682823658,0.2973138443186879
1774473188489455600,4.80145556640625,-0.11768822179138659,0.4147258795171976,0.3127040134131908
1774473188499468800,4.81146875,-0.0236544318318367,0.567137039643526,0.24252193142324685
1774473188509482800,4.821482666015625,0.10454875423312186,0.6895271555155515,0.45878772408366203
1774473188519495700,4.83149560546875,0.27065117058157917,0.6067319679290056,0.7052683300048113
1774473188529508900,4.8415087890625,0.39864860494136806,0.3829039233207702,0.6307055487126112
1774473188539521800,4.851521728515625,0.30954116546809674,0.31914661368131636,0.31193682843297715
1774473188549534700,4.86153466796875,0.03580313478708267,0.3199713740676641,0.05354629674851894
1774473188559548000,4.8715478515625,-0.22150457009673116,0.4699667052239179,0.008469137659668922
1774473188569560800,4.881560791015625,-0.3655214113652706,0.7743927196353674,-0.1386369017958641
1774473188579573800,4.89157373046875,-0.43459670115709303,0.9081804278343916,-0.4070359095364809
1774473188589586700,4.901586669921875,-0.25720249094367026,0.5577180539131165,-0.4312076432406902
1774473188599599900,4.911599853515625,0.28442133725881574,0.16669979771971702,-0.386399364221096
1774473188609613800,4.92161376953125,0.6562129149347543,0.07645429412722587,-0.3735071494221687
1774473188619626800,4.931626708984375,0.5981324818879366,-0.04924830729365349,-0.3427437623679638
1774473188629640000,4.941639892578125,0.23601649505198,-0.1529232013016939,-0.3993237277239561
1774473188639652900,4.95165283203125,-0.09158639680743216,-0.20768588810265062,-0.5010778828024864
1774473188649665800,4.961665771484375,-0.1987549781501293,0.05202244818210602,-0.7261953826993703
1774473188659679000,4.971678955078125,-0.46214814042747016,0.42562896632552144,-1.1949176408201456
1774473188669692000,4.98169189453125,-1.0313871207863092,0.5909504614293575,-1.6715888121187685
1774473188679704800,4.991704833984375,-1.5353782606869935,0.6356430051147938,-2.1477947039932013
1774473188689717800,5.0017177734375,-1.7525988698542116,0.6876841579973697,-2.3043460326641796
1774473188699731700,5.011731689453125,-1.987245830118656,0.5979167933106422,-2.04205118701756
1774473188709745000,5.021744873046875,-2.4179309107899662,0.22429683116376398,-1.453235399529338
1774473188719757800,5.0317578125,-3.130043407601118,-0.821494078028202,-0.02131166809797287
1774473188729771000,5.04177099609375,-2.1031904231131078,0.08871522528529166,0.09080255295336245
1774473188739784000,5.051783935546875,-0.6150076288431883,1.7952058394372463,-0.9401999524295329
1774473188749796900,5.061796875,-0.5516068775564432,1.7338035684913395,-0.9145376879066228
1774473188759810000,5.07181005859375,-0.9711194068282842,1.1048083308279513,-0.46043052285462616
1774473188769822700,5.08182275390625,-1.15738549028337,1.0567688148021697,-0.17714900328069924
1774473188779836000,5.0918359375,-1.2498714662790298,1.3062293133169411,-0.12462795792669057
1774473188789848800,5.101848876953125,-1.517201091222465,1.1930267125070095,-0.09851064311265945
1774473188799862800,5.11186279296875,-1.6530606372594832,0.7993670018941164,-0.10826660571247339
1774473188809876000,5.1218759765625,-1.4334712531343101,0.8529933781415223,-0.49354339564442634
1774473188819889000,5.131888916015625,-1.20201490560472,0.8568991534084082,-0.9361907167881727
1774473188829901800,5.14190185546875,-0.7115273903995752,0.8919885869681835,-1.408517721402645
1774473188839914800,5.151914794921875,-0.252407950143516,1.2127636786341667,-1.671397965721786
1774473188849928000,5.161927978515625,-0.009681436058878898,1.1359884819895028,-1.7436837419927118
1774473188859941000,5.171941162109375,0.2947019082546234,0.9012801469266414,-1.6413754601627588
1774473188869953800,5.181953857421875,0.4495680603176355,0.4501385536819696,-0.9159235893070697
1774473188879967000,5.191967041015625,-0.04799976853728294,0.26420915483534335,-0.04449760563522577
1774473188889980700,5.201980712890625,-0.3440183123484254,0.8583686414390802,0.3472366898730397
1774473188899993900,5.211993896484375,-0.49463878966569896,1.193022036331892,0.3529993450529873
1774473188910007000,5.222007080078125,-0.32862200577408074,1.3878028501540423,0.41184842438474295
1774473188920020000,5.23202001953125,0.20477116969972847,1.253457508072257,0.5745034767583013
1774473188930033000,5.242032958984375,0.8773860611200333,1.1123597691208122,1.0618424648046494
1774473188940045800,5.2520458984375,1.3496867622494697,1.5806863059222698,1.062973222400248
1774473188950059000,5.26205908203125,1.6046815140157937,2.258188092601299,0.317746683755517
1774473188960071700,5.27207177734375,1.6813012278378008,2.552958389917016,-0.014037512376531957
1774473188970086000,5.2820859375,1.4841665443658827,2.4115952780276535,-0.38319698798321183
1774473188980099000,5.29209912109375,0.02183028514459729,1.981428668272495,-1.050728511724621
1774473188990111700,5.30211181640625,-1.1737661317199468,1.4780045146048069,-1.4567334707781672
1774473189000125000,5.312125,-0.20889774811044334,2.2015186953961847,-1.7824641390249132
1774473189010137900,5.322137939453125,0.3589417407140136,3.373523662662506,-1.6394048907421528
1774473189020150800,5.33215087890625,-0.7430284440785646,3.204833567908406,-0.9705319623291492
1774473189030164000,5.3421640625,0.09316928208470344,-0.7496697817891835,3.7188638712644573
1774473189040177000,5.352177001953125,2.6891344545572995,-3.369844097366929,10.680165357166528
1774473189050190000,5.362190185546875,4.838870940268039,-2.347809326815605,6.095141167673468
1774473189060203800,5.372203857421875,3.5631302887171503,-0.028310148683190345,2.3685019862324
1774473189070217000,5.382217041015625,-0.8087040084294974,1.6940373752921818,1.9915544870980082
1774473189080230000,5.39222998046875,-4.243651130956411,3.236488935366273,1.7534797443419694
1774473189090242800,5.402242919921875,-2.6033365780234337,4.215338644185662,0.4255252136901021
1774473189100256000,5.412256103515625,-3.1333366039276123,4.701929151952267,-0.02598930452018976
1774473189110269000,5.42226904296875,-2.9466876586347817,4.152918720629811,-0.20645598098151385
1774473189120281900,5.43228173828125,-1.56954268835634,3.763602007657289,-0.23879786939881742
1774473189130296000,5.442296142578125,-0.7931387750290334,3.4291245538532733,-0.21768084709011018
1774473189140308700,5.452308837890625,-3.12039704285562,2.4898142437398434,0.017562252436578274
1774473189150322000,5.462322021484375,-4.089784511324763,2.7726047649264336,1.8303376508340239
1774473189160334800,5.4723349609375,-1.0463368526369332,3.8989246703386304,2.145609176647663
1774473189170348000,5.48234814453125,2.842628733745217,3.061937255102396,0.7894429892510175
1774473189180360700,5.492360595703125,6.842154297474027,1.2877087372422218,-0.7096126428194344
1774473189190374000,5.502373779296875,3.4434137759685512,1.5621873571574687,-1.1235737485092132
1774473189200387800,5.512387939453125,3.0593174279928204,0.7816583267241716,-2.0106877882435916
1774473189210400800,5.52240087890625,1.6323108408279716,1.2383207292169331,-4.47776734534502
1774473189220414000,5.5324140625,-0.1838145986497402,1.980434981060028,-4.7566120515152805
1774473189230427000,5.542427001953125,-0.5622397691212594,2.6469343122094866,-2.1487556579798457
1774473189240439800,5.552439697265625,-0.34341070184409617,0.9147130444735289,-0.26005543268937614
1774473189250453000,5.562452880859375,-3.968986633080244,-16.58268025870323,-0.04978952433115337
1774473189260466700,5.572466796875,-0.7042237893879413,-16.689292375206946,-2.7891099095255134
1774473189270480000,5.58247998046875,5.935450956454873,-7.642963899391889,-2.191734821876138
1774473189280492800,5.592492919921875,6.7847039790242905,-5.246349332875013,-0.6576526654142886
1774473189290506000,5.602506103515625,5.127065366324782,-4.979235688769817,0.3762554982822388
1774473189300519000,5.612518798828125,3.260606893056631,-2.418389175951481,-0.5729398076381534
1774473189310531800,5.62253173828125,1.111416350790858,-1.3792635698676108,-1.4541351248480379
1774473189320545000,5.632544921875,-0.8712282691426575,-1.02713355499506,-1.808747311925143
1774473189330558700,5.642558837890625,-1.9386393278598784,-0.7439549112737178,-0.9821514537785202
1774473189340572000,5.652572021484375,-2.1715005737513304,-0.3255184868007898,-0.19795476768314837
1774473189350585000,5.662585205078125,-1.5149243784621358,-0.23559680833518504,0.09850684372037649
1774473189360597800,5.67259765625,-0.4055991547316313,-0.6715437550574541,0.045950288661569354
1774473189370611000,5.68261083984375,0.6019844811409711,-1.0085866754353046,0.42623672296032306
1774473189380624000,5.692623779296875,0.9538662203408778,-1.2846756531566381,0.8082797916680574
1774473189390637800,5.702637939453125,0.8088768807783723,-1.5871756679415703,1.037054498898238
1774473189400651000,5.712651123046875,1.0308471686907112,-1.4218009813457726,0.9510811196669936
1774473189410664000,5.722663818359375,0.8075812880098819,-1.196378945544362,0.6506872833810746
1774473189420676900,5.7326767578125,0.12059329558312892,-1.0929957279592752,0.7164679155416787
1774473189430689800,5.742689697265625,-0.310282923746109,-0.9959124873012304,0.8050961931958794
1774473189440703000,5.752702880859375,-0.6054360828995704,-0.9240613030552863,0.8260271914131939
1774473189450717000,5.762717041015625,-0.8344143498778342,-0.847535112735629,0.8324252218872308
1774473189460729900,5.772729736328125,-0.8132605026900768,-0.7330944945633411,0.6236500772431492
1774473189470743000,5.782742919921875,-0.7660871750395745,-0.009966098219156264,0.6753573219962418
1774473189480755700,5.792755615234375,-1.353065298771858,0.5757371102064848,0.6022600832119583
1774473189490769000,5.802768798828125,-1.0043868125926703,0.5502478641629218,0.09274535758420824
1774473189500781800,5.81278173828125,-0.697297131929919,0.051204117536544795,-0.10026786204352975
1774473189510795800,5.822795654296875,-0.38053660966753955,-0.4939490538358688,-0.017175445076078176
1774473189520809000,5.83280908203125,0.06095913028828799,-0.7922317431867122,0.007962649442255497
1774473189530822000,5.84282177734375,0.403251057235524,-1.3157237023711204,-0.28121991086900233
1774473189540834800,5.852834716796875,0.28589155594184995,-1.8395330569416284,-0.9267219736319035
1774473189550847700,5.86284765625,0.09765314950048923,-2.151205973741412,-0.9519780685067176
1774473189560861000,5.87286083984375,-0.4155347847472876,-1.8300100263148544,-0.5729372503548861
1774473189570873900,5.882873779296875,-1.192150441129133,-0.8874450983196497,-0.6812191997669637
1774473189580887800,5.8928876953125,-1.6850912677705288,-0.36071079621315,-0.8326735706251114
1774473189590901000,5.90290087890625,-1.8047750472933053,-0.2433230186730623,-1.0388687817785889
1774473189600914000,5.912913818359375,-1.9777397506266832,-0.14574001179933546,-0.7479881853777914
1774473189610926800,5.9229267578125,-2.3028730375021693,0.2020060889005661,-0.3933940454140305
1774473189620940000,5.93293994140625,-2.222238827341795,0.05996843875050544,-0.6479235908214003
1774473189630953700,5.94295361328125,-1.9013895013958215,0.14555354931652545,-0.5677655468054116
1774473189640967400,5.952967529296875,-1.715931373322755,0.04101239386796951,-0.6763357385743409
1774473189650980400,5.96298046875,-1.4831202501833438,-0.7538175491183996,-0.7742009964555502
1774473189660993300,5.9729931640625,-0.951009515735507,-1.08368020260334,-0.164762107655406
1774473189671006200,5.983006103515625,-1.087345154851675,-0.8743962316542864,-0.12507022180147467
1774473189681019400,5.993019287109375,-1.0676940403770654,-0.714181704300642,-0.4076864093344658
1774473189691033300,6.003033447265625,-0.6739226860832422,-0.4938748195558786,-0.2632633984178305
1774473189701046300,6.01304638671875,-0.09446743213646114,0.24347090271115301,-0.16580620988085865
1774473189711059500,6.0230595703125,1.03635796800144,1.147323530474305,-0.25074812717251477
1774473189721072000,6.033072021484375,1.9859166273415088,1.766166207435727,-0.5923788867972791
1774473189731085300,6.043085205078125,2.520950555759668,1.9617261889368294,-0.9197697433412074
1774473189741098200,6.05309814453125,1.8977917691648005,2.0635668532550335,-0.30477870030663906
1774473189751112200,6.0631123046875,0.17314656270630657,1.4209212759017944,0.22805158058740196
1774473189761125400,6.07312548828125,-0.18455336125306784,0.6874480111539364,0.9265659062873571
1774473189771138300,6.08313818359375,-0.33297581706941126,0.16758242577314375,0.8379735036641359
1774473189781151200,6.093151123046875,-0.8774351609587668,0.5827519574046135,0.5290549270737915
1774473189791164200,6.1031640625,-1.6313234372258185,0.8592004160881042,0.36092568107284606
1774473189801177300,6.11317724609375,-1.2177829681009054,0.5211053563088178,0.14801467873305083
1774473189811191300,6.12319140625,-0.5238140307456255,-0.042209494698047634,-0.11712503495067357
1774473189821204200,6.133204345703125,-0.06132394501268863,-0.5976981821238995,-0.24928777229636906
1774473189831217400,6.143217529296875,0.13822291416749358,-0.7132832941561937,0.19229367318153381
1774473189841230000,6.15322998046875,0.16054953146167097,-0.9524123682707547,0.6979509927287697
1774473189851243300,6.1632431640625,0.30960020217895506,-1.1094506036758423,0.7180771043039857
1774473189861256400,6.17325634765625,0.43642026332244277,-0.9847627322554587,0.681618574348092
1774473189871270100,6.183270263671875,0.5288122774243355,-1.114952708223462,0.6846859990946949
1774473189881283300,6.193283447265625,0.4620470181405544,-1.3088789510428904,0.9970433910273014
1774473189891296300,6.203296142578125,0.31417510887905953,-1.3072452123612164,1.3221907064281404
1774473189901309200,6.21330908203125,0.09875365808829664,-0.9485931022435427,1.4096999169245361
1774473189911322400,6.223322265625,-0.3604582827568054,-0.6223726046532392,1.7532731158539652
1774473189921336000,6.233336181640625,-0.7939911540746688,-0.46909518308639525,2.2952102477893233
1774473189931349200,6.243349365234375,-1.4369266542851924,-0.3339583983659744,2.208811628883332
1774473189941362400,6.253362548828125,-1.3862187958329915,-0.14710136328041554,2.0562340261489154
1774473189951375400,6.263375244140625,-1.3568027317345142,-0.16604104155004024,2.248516593414545
1774473189961388300,6.27338818359375,-1.2243015562146902,-0.23137480672597885,2.0191294533744455
1774473189971401200,6.283401123046875,-0.6727028619647025,0.04425824392139911,1.6472230171471833
1774473189981415200,6.293415283203125,-0.45085634656250473,0.22369652718305585,1.2483335891872644
1774473189991428400,6.303428466796875,-0.16321677790954708,0.4083119208216667,0.6352326707482338
1774473190001441300,6.313441162109375,0.2887302864991128,0.6599158611059188,0.2524813076406717
1774473190011454500,6.323454345703125,0.6707137339740992,0.4958095870107412,-0.018154665371775625
1774473190021467100,6.333467041015625,1.1085368498317896,0.6057996555149555,0.010512626186013221
1774473190031480300,6.343480224609375,1.2313035439312456,0.6441460450440645,0.04396159906238317
1774473190041494300,6.353494384765625,1.0599589891456067,0.80148647826612,-0.015785305891931056
1774473190051507200,6.363507080078125,0.7715601996231823,0.7781769143491983,-0.3441007299348712
1774473190061520400,6.373520263671875,1.1337246287107468,0.9060556907653808,-0.2717997560948133
1774473190071533300,6.383533203125,1.320437286889553,0.9690724111706018,-0.2501829675704241
1774473190081546200,6.393546142578125,1.338136025187373,0.9278507584661245,-0.25137100831121206
1774473190091559200,6.40355908203125,1.1310481760431081,0.8309323529809712,-0.2999561755210161
1774473190101573000,6.413572998046875,1.034790061097592,0.8067126884818077,-0.3900336290702224
1774473190111586300,6.42358642578125,0.9111183079171925,0.8143132266134023,-0.6055123630061745
1774473190121599200,6.43359912109375,0.7878999975927173,0.8670137201875447,-0.6358709686517715
1774473190131612400,6.4436123046875,0.6952401263348758,0.9237591052383184,-0.5422320232287049
1774473190141625000,6.453625,0.5056925369910895,0.9870622413694858,-0.39895723249912257
1774473190151639300,6.463639404296875,0.3762478264324367,1.0466454801946878,-0.35906858196407554
1774473190161652200,6.47365234375,0.19125629295781255,0.9785895965784788,-0.4074415677279234
1774473190171665200,6.4836650390625,-0.09993453843593597,0.9696715461075306,-0.3074322104901075
1774473190181678300,6.49367822265625,-0.4234463615894317,1.0060375754743813,-0.1165776302009821
1774473190191691300,6.503691162109375,-0.6702630675971507,0.9782388834446668,0.073934420260787
1774473190201704200,6.5137041015625,-0.6891767346426845,0.9047212272912263,0.13661737866699694
1774473190211718400,6.523718505859375,-0.6806886000216007,0.7799123598396778,0.11733546283096075
1774473190221731000,6.53373095703125,-0.5662501738063991,0.6838368349194526,0.14495412211865186
1774473190231744300,6.543744140625,-0.2624117500245571,0.5656406636059284,0.03038607817441225
1774473190241757200,6.553757080078125,-0.05206789475902915,0.4731996957957744,-0.12678601274341345
1774473190251770400,6.563770263671875,0.07053425642848014,0.5241694200545549,-0.12043079849779605
1774473190261783300,6.573783203125,0.2055652426868677,0.5395528671473264,-0.08552811968177557
1774473190271797200,6.58379736328125,0.2554185301363468,0.4274655341029167,-0.11100772111415863
1774473190281810200,6.59381005859375,0.19934534525871275,0.36743981220722194,-0.2447352235585451
1774473190291823000,6.603822998046875,0.18132058987691999,0.36581133422255513,-0.3424158455878496
1774473190301836300,6.613836181640625,0.18955591878071426,0.40223581577837464,-0.4081663748711347
1774473190311849500,6.623849365234375,0.18786431243196128,0.4404968651115894,-0.30511691928505896
1774473190321862100,6.633862060546875,0.052408524890244,0.42400341095030303,-0.26263620643019675
1774473190331876400,6.64387646484375,-0.05808613213524222,0.3604489304065704,-0.3131985189318657
1774473190341889300,6.65388916015625,-0.08882336183488368,0.2889665794730186,-0.33269758464992044
1774473190351902200,6.663902099609375,-0.08357201717793941,0.26761107223331926,-0.3833323778659105
1774473190361915400,6.673915283203125,-0.0999395068719983,0.32448855923116204,-0.39845337463021274
1774473190371928300,6.68392822265625,-0.15663666886687277,0.4511526991605758,-0.36480537205040453
1774473190381942300,6.6939423828125,-0.18428367746621369,0.5160860668420791,-0.3373994787305593
1774473190391955500,6.70395556640625,-0.0009422492861747741,0.3958236106485128,-0.3915975173860788
1774473190401968000,6.713968017578125,0.14132351053133607,0.23887305352687835,-0.47684302073419094
1774473190411981300,6.723981201171875,0.055214083830267185,0.2473275781393051,-0.4419125771284103
1774473190421994200,6.733994140625,-0.11503317723795771,0.3377443466454744,-0.3073538845568895
1774473190432007400,6.74400732421875,-0.3341454453706741,0.4507885420233011,-0.21166355956196783
1774473190442021400,6.754021484375,-0.4647691365808248,0.5109785145699978,-0.2484948683530092
1774473190452034300,6.764034423828125,-0.4413027746669948,0.47332536800205705,-0.36207156317234035
1774473190462047200,6.774047119140625,-0.3899266615644097,0.41345045275390147,-0.4721867193609476
1774473190472060200,6.78406005859375,-0.2960164979845285,0.4712415474653244,-0.4741115499436855
1774473190482073300,6.7940732421875,-0.23995617258846758,0.4992009830147028,-0.35582945391237736
1774473190492086300,6.804086181640625,-0.2174764836244285,0.39130291835367675,-0.4095867630630731
1774473190502100200,6.814100341796875,-0.19703692218586802,0.2714607333987951,-0.4505018340364098
1774473190512113400,6.824113525390625,-0.19269114806652068,0.1983113260358572,-0.4232765579804778
1774473190522126000,6.8341259765625,-0.21821078924834728,0.13006839541494847,-0.41159196540564297
1774473190532139300,6.84413916015625,-0.21494272736310957,0.06795300776362419,-0.3637485564738512
1774473190542152200,6.854152099609375,-0.22044921582490204,0.08183949429690837,-0.17496698306649922
1774473190552165400,6.864165283203125,-0.21104922705590723,0.05138356575667858,-0.09609335283786058
1774473190562179300,6.874179443359375,-0.22157442046254872,0.05872632973492145,-0.11126198813617229
1774473190572192300,6.884192138671875,-0.22543284945636988,0.022530980759859084,-0.21739391990751028
1774473190582205200,6.894205078125,-0.2847606522157788,-0.038571430456638335,-0.28886341135948895
1774473190592218000,6.904218017578125,-0.2974415623515844,-0.08037526696324349,-0.32430764970630405
1774473190602231300,6.914231201171875,-0.3249168676458299,-0.17190379610359668,-0.3736076871871948
1774473190612244500,6.924244384765625,-0.35469533531591296,-0.2250029336065054,-0.43695758506953714
1774473190622258200,6.934258056640625,-0.37823651603162284,-0.21703473120629785,-0.39760201849788424
1774473190632271400,6.944271240234375,-0.3838255682103336,-0.244966694226861,-0.3093140787139535
1774473190642284000,6.954283935546875,-0.36447263296470045,-0.2575637254714966,-0.23934417816996573
1774473190652297000,6.964296875,-0.32016134368181226,-0.30349136390984055,-0.14927724601477382
1774473190662310100,6.97431005859375,-0.28405484203398224,-0.32679625165164466,-0.04296235889196395
1774473190672323300,6.9843232421875,-0.29230244589745996,-0.3072153528690338,-0.027378128530085085
1774473190682336000,6.9943359375,-0.3084264822244644,-0.2505032855659723,-0.058653849020600314
1774473190692350200,7.00435009765625,-0.3114545978739858,-0.19179390696585177,-0.1573477397456765
1774473190702363100,7.014363037109375,-0.2823186658911407,-0.16257248865664004,-0.2469941084012389
1774473190712376000,7.0243759765625,-0.3214630739301443,-0.08863631483018397,-0.27703765674829484
1774473190722389200,7.03438916015625,-0.3392570892959833,-0.045185880160331725,-0.22171032180190084
1774473190732402200,7.044402099609375,-0.29449323394000526,-0.013231822016835213,-0.17087065366357565
1774473190742415000,7.0544150390625,-0.25527415322959424,0.02736322322189808,-0.1851674745634198
1774473190752429300,7.06442919921875,-0.24026933019086716,0.059252983957529065,-0.15962591381072996
1774473190762442000,7.07444189453125,-0.22887772921323776,0.07118716737926006,-0.16438362973183393
1774473190772455200,7.084455078125,-0.2542237673938274,0.0704103377878666,-0.19607991372197867
1774473190782468000,7.094468017578125,-0.2471560209646821,0.1280629008114338,-0.20376082361340522
1774473190792481300,7.104481201171875,-0.22986615572869776,0.19701544100642204,-0.20884324144423005
1774473190802494000,7.114493896484375,-0.1494067176133394,0.16254501612782477,-0.26828268788456916
1774473190812508200,7.124508056640625,-0.06049728493019938,0.12328911053836344,-0.3540679971978068
1774473190822521000,7.13452099609375,-0.008670797711610794,0.11808803476393222,-0.3986097342357039
1774473190832534000,7.144533935546875,0.009184592452645302,0.14564765734076499,-0.409475119382143
1774473190842547200,7.154547119140625,0.03707826928943395,0.0859820009291172,-0.4312354080304503
1774473190852560100,7.16456005859375,0.035656419792771336,0.06860708775818347,-0.4004290586173534
1774473190862573000,7.174572998046875,0.021332710886001586,0.035118075132369996,-0.3643763329833746
1774473190872587300,7.184587158203125,0.023083353945612905,-0.004462824627757072,-0.3337435865715146
1774473190882600200,7.19460009765625,-0.0077829089611768714,-0.045379356905817986,-0.3316159268930554
1774473190892613000,7.204613037109375,-0.05657148978859186,-0.054036710613965984,-0.3045645460993051
1774473190902626000,7.2146259765625,-0.033301965621113774,-0.06322831732928752,-0.26996318831741806
1774473190912639200,7.22463916015625,0.03303776172697544,-0.1129869122326374,-0.22746873919814825
1774473190922652200,7.234652099609375,0.0764180537700653,-0.13495675197839735,-0.15231412949264048
1774473190932665000,7.2446650390625,0.06310673677623271,-0.15126608174443243,-0.11591595142185687
1774473190942679000,7.254678955078125,0.049368718802928924,-0.1458440566956997,-0.1012856607839465
1774473190952692000,7.26469189453125,0.027410277234017847,-0.11052841316461562,-0.004016542164981365
1774473190962705200,7.274705078125,-0.00034282208830118175,-0.10183072744607925,0.0639437721222639
1774473190972718300,7.28471826171875,0.041138066074252126,-0.09448620990216731,0.05612228471636772
1774473190982731000,7.29473095703125,0.05844897409826517,-0.05860884083509445,0.08056406753361224
1774473190992744200,7.304744140625,0.044621232014894485,-0.046510406762361525,0.08363309971541166
1774473191002758100,7.314758056640625,0.02124795521199703,-0.010407996767759322,0.14404548284113405
1774473191012771000,7.32477099609375,-0.02010170778632164,0.03734510353207588,0.26023615955114365
1774473191022784300,7.3347841796875,-0.10651537813097238,0.07929682407677173,0.3862736920148134
1774473191032797200,7.344797119140625,-0.1493742766484618,0.06865151142179965,0.3363327262818813
1774473191042810000,7.35481005859375,-0.18332652287185192,0.0626367811769247,0.25437925021648405
1774473191052823000,7.364822998046875,-0.18663140963613986,0.06714870564341545,0.17952859189361334
1774473191062836200,7.374836181640625,-0.23491817842125892,0.08935995292961597,0.1677791173890233
1774473191072850200,7.38485009765625,-0.268243817178905,0.1187555587619543,0.1900920714840293
1774473191082863000,7.394863037109375,-0.2505906715884805,0.15171499455571175,0.2011541482463479
1774473191092876300,7.404876220703125,-0.2872439934641123,0.10295534756183623,0.1276025898233056
1774473191102889000,7.414888916015625,-0.3433966733187437,0.06751461634635925,0.10544248820245265
1774473191112902100,7.424902099609375,-0.3945806248500943,0.09593582418859005,0.16311638627499342
1774473191122915000,7.4349150390625,-0.4941638656303286,0.13282324708104132,0.14226093751192093
1774473191132928300,7.44492822265625,-0.6411623530581593,0.14764906029105185,0.16804741293638945
1774473191142942200,7.454942138671875,-0.6823062643513083,0.1185854628920555,0.13740239156484604
1774473191152955100,7.464955078125,-0.6297004633232951,0.03954933557808399,0.0661532648652792
1774473191162968000,7.474968017578125,-0.5241179821282624,-0.01561433323919773,-0.039191023659706115
1774473191172981000,7.48498095703125,-0.46335488586872814,-0.01206336275935173,-0.12175123344659805
1774473191182994200,7.494994140625,-0.4887164138793945,-0.0022521628409624098,-0.18510025454610585
1774473191193007000,7.505007080078125,-0.5681774886071682,0.010552373674511908,-0.2295639579117298
1774473191203020000,7.51502001953125,-0.5899129350751638,0.04911386725902557,-0.241993815895915
1774473191213034200,7.5250341796875,-0.5958113454639912,0.02931727989912033,-0.27185119402110575
1774473191223047200,7.535047119140625,-0.6170961255550385,0.0012760112851858138,-0.29643676922321316
1774473191233060000,7.54506005859375,-0.5324632011473178,-0.006553074905276298,-0.34095454086363314
1774473191243073300,7.5550732421875,-0.43921646991223096,0.009728782331943511,-0.4107476235359907
1774473191253086200,7.565086181640625,-0.45004152304828166,0.10997428641319275,-0.45985389201045035
1774473191263099100,7.57509912109375,-0.5524314918123185,0.206424489864707,-0.4672369879990816
1774473191273112000,7.585112060546875,-0.5864098953902721,0.27814766381680966,-0.5198047951042651
1774473191283126000,7.5951259765625,-0.4893821843117475,0.3963479267835617,-0.48805824223160743
1774473191293139200,7.60513916015625,-0.262335469917953,0.38471184952557086,-0.5367150133728981
1774473191303152000,7.615152099609375,0.06217851601541042,0.33356969130933284,-0.6549012478142976
1774473191313165300,7.625165283203125,0.33953839045539497,0.29014672916829587,-0.7774959463477135
1774473191323178000,7.635177978515625,0.4742255317121744,0.2663251240760088,-0.7967933520138263
1774473191333191200,7.645191162109375,0.5206657958477735,0.25908523595035077,-0.8454442779362201
1774473191343205000,7.655205078125,0.5978361292898654,0.28315701641142366,-0.8436340136438608
1774473191353218000,7.665218017578125,0.6153489896267652,0.3037251726657152,-0.7758598695784806
1774473191363231200,7.675231201171875,0.5175299820400774,0.3715466630041599,-0.6660393124222755
1774473191373244200,7.685244140625,0.37904666337072845,0.46208851919472216,-0.5165986925393342
1774473191383257000,7.695257080078125,0.20558160929977892,0.5551414814233779,-0.41856151215732096
1774473191393270300,7.705270263671875,0.03892915785312653,0.6527741726577282,-0.3709416828483343
1774473191403283200,7.715283203125,-0.018394903868436813,0.7083359008818865,-0.36537235828340053
1774473191413296000,7.725296142578125,0.01757540417909622,0.7037801372736692,-0.35695699663758274
1774473191423310000,7.73531005859375,0.11779109764397144,0.6777186443001032,-0.3608668635576963
1774473191433323300,7.7453232421875,0.1742126575678587,0.6371633465498685,-0.34796821901798247
1774473191443336200,7.755336181640625,0.22992226983010766,0.554908257189393,-0.3626414720147848
1774473191453349000,7.76534912109375,0.24444588522315025,0.5215951856523752,-0.3275403480172157
1774473191463362300,7.7753623046875,0.24907822119891643,0.4917874918878078,-0.28196225366890426
1774473191473375000,7.785375,0.1936275521337986,0.43229426943361754,-0.25176117667257786
1774473191483388200,7.79538818359375,0.062943947429955,0.41378479927480216,-0.11131050345301627
1774473191493402400,7.80540234375,-0.037784956254065034,0.3878524856388569,-0.04863397478759288
1774473191503415000,7.8154150390625,-0.013095628416538238,0.33917233362197874,-0.020789105528593064
1774473191513428200,7.82542822265625,0.05590732679143548,0.2974509147018194,-0.06446867277920246
1774473191523441200,7.835441162109375,0.15283084684312342,0.28451719884872434,-0.0772241094559431
1774473191533454000,7.8454541015625,0.21891864525675772,0.28735680618882176,-0.05456219579279423
1774473191543467000,7.855467041015625,0.2761789940923452,0.2687117269515991,0.00045300446450710294
1774473191553480200,7.865480224609375,0.26823212674111124,0.24815292304754255,0.04265490037798881
1774473191563494100,7.875494140625,0.16696575517952442,0.20486440094113348,0.1182026010543108
1774473191573507000,7.885507080078125,0.04447583219483495,0.16799918988049029,0.14407587797939778
1774473191583520300,7.895520263671875,-0.058439329487085336,0.11260288135111331,0.09588029460906981
1774473191593533000,7.905532958984375,-0.12779051361083985,0.0993143607109785,0.049691374886035915
1774473191603546000,7.915546142578125,-0.11432707479521631,0.08406710721850395,0.011507482442259787
1774473191613559300,7.925559326171875,-0.12097411159425973,0.05648819541931152,-0.08862053273916244
1774473191623572200,7.935572265625,-0.11205109268724918,0.0034738135904073715,-0.16120763004422187
1774473191633586200,7.945586181640625,-0.06948328607082367,-0.09426701419353485,-0.21256664588153362
1774473191643598800,7.955598876953125,-0.013539134400337934,-0.19406535902917385,-0.2690092485934496
1774473191653611800,7.96561181640625,0.0429079983562231,-0.2759539531648159,-0.30035891110301016
1774473191663624700,7.975624755859375,0.08590732825770973,-0.29264322215914723,-0.28153204555809497
1774473191673638000,7.985637939453125,0.07691723546385765,-0.33324235905110833,-0.2870855880320072
1774473191683650800,7.99565087890625,0.06579962912201881,-0.35202947710752486,-0.313100903776288
1774473191693663700,8.005663818359375,0.05070668940842151,-0.302153393304348,-0.30278292337954044
1774473191703678000,8.015677978515624,0.00005742927566170692,-0.2946931404262781,-0.23582068021893499
1774473191713691000,8.02569091796875,-0.09284721052348613,-0.2639981424331665,-0.1306844814866781
1774473191723703800,8.035703857421876,-0.12724953860193491,-0.2304091765642166,-0.09924597164988518
1774473191733716700,8.045716796875,-0.11781199430152774,-0.21060382137596606,-0.10864625267982482
1774473191743730000,8.05572998046875,-0.15141279673874378,-0.18776012140512466,-0.0755640672892332
1774473191753742600,8.06574267578125,-0.2043202110618353,-0.11691489933133124,-0.042616321933269495
1774473191763755800,8.075755859375,-0.2926736172974109,-0.08343231644630432,-0.020991934624314305
1774473191773769000,8.08576904296875,-0.31942338479608295,-0.07425649182200432,-0.03294073109328747
1774473191783782700,8.09578271484375,-0.2110375366181135,-0.09867547828555107,-0.08220657404363155
1774473191793795800,8.1057958984375,-0.05369739565700292,-0.1687310112863779,-0.1476595816850662
1774473191803808800,8.115808837890626,0.08355857317447662,-0.2182622271746397,-0.18423136275708674
1774473191813821700,8.12582177734375,0.12401859385669231,-0.27170214093923567,-0.15915654273331165
1774473191823835000,8.1358349609375,0.15699088913202286,-0.3482102110803127,-0.14717033686339853
1774473191833847800,8.145847900390624,0.19505320102274418,-0.3855120599925518,-0.1321668289989233
1774473191843861000,8.155861083984375,0.19689868275895714,-0.323244696649909,-0.10339899967610836
1774473191853875000,8.165875,0.1617661407098174,-0.24576105947494506,-0.12415478745698928
1774473191863888000,8.175887939453125,0.10017799180299043,-0.1797322977721691,-0.08196575102508068
1774473191873900800,8.18590087890625,0.03814779821708798,-0.10654665005207062,0.006404021823406219
1774473191883913700,8.195913818359376,-0.009808861830830573,-0.062172670796513556,0.08441197513341903
1774473191893927000,8.205927001953125,-0.04093757506608963,-0.06350947235822678,0.10951309864223002
1774473191903939800,8.21593994140625,-0.01870996116697788,-0.00944470469355583,0.15911737976670265
1774473191913952800,8.225952880859374,-0.02878478045761585,0.017189619731903076,0.17599603385329246
1774473191923965700,8.235965576171875,-0.03558510812222957,0.06531272238790989,0.20894728634059428
1774473191933979600,8.245979736328126,-0.10807400574982165,0.13694471092522142,0.24319851551055907
1774473191943992800,8.255992919921875,-0.18068097679913042,0.15718553492128848,0.21924247038364408
1774473191954005800,8.266005859375,-0.17475626292526722,0.17017536487579343,0.1781114185720682
1774473191964019000,8.27601904296875,-0.10506371801793575,0.1828045448243618,0.1536035847812891
1774473191974031600,8.286031494140625,-0.05355784105584025,0.17807108656167983,0.09499123681485652
1774473191984044800,8.296044921875,-0.030217735870182512,0.17600012550652025,0.04820376667678356
1774473191994058000,8.30605810546875,-0.052560500581562516,0.19340777190327643,0.033542788639664645
1774473192004071700,8.31607177734375,-0.10155980155020952,0.25117139408588407,0.033199089768528936
1774473192014084900,8.3260849609375,-0.13829247227236627,0.2979951045811176,-0.011131050345301628
1774473192024097800,8.336097900390625,-0.17108078928291798,0.3522533489912748,-0.013923311412334442
1774473192034110700,8.34611083984375,-0.1429588566482067,0.34052257918715473,-0.06227028595209121
1774473192044124000,8.3561240234375,-0.13049831126481293,0.3292255246251821,-0.10613631568551063
1774473192054136800,8.36613671875,-0.17660539792329072,0.39928514927923675,-0.08065116129517555
1774473192064149800,8.376149658203126,-0.2339149927280843,0.4665402379065752,-0.05514437959492206
1774473192074162700,8.38616259765625,-0.266761177405715,0.49486967581212515,-0.07984569013118743
1774473192084177000,8.396177001953125,-0.2286950661227107,0.47312838412523267,-0.13749591506719588
1774473192094189800,8.40618994140625,-0.10382146287187934,0.46932080853581426,-0.24947277347445487
1774473192104202800,8.41620263671875,-0.03646057578250766,0.4820329905927181,-0.3734644793242216
1774473192114216000,8.4262158203125,-0.05143967985808849,0.5465560239076614,-0.4836158758699894
1774473192124228600,8.436228515625,-0.16409779852777717,0.6730734488427639,-0.5303273581624031
1774473192134241800,8.44624169921875,-0.2960723198249936,0.6973299382209778,-0.49260056183636186
1774473192144255000,8.4562548828125,-0.32678514573574063,0.664997694414854,-0.46256139740347857
1774473192154268000,8.466267822265625,-0.3142603029444814,0.6320739144563674,-0.4981237091720104
1774473192164281900,8.47628173828125,-0.3351863327257335,0.6900041253775357,-0.5345417609870433
1774473192174294800,8.486294677734374,-0.45424248186945915,0.7432359493494033,-0.5588339062005281
1774473192184307700,8.4963076171875,-0.6338733650937676,0.765870390483737,-0.5807195747941732
1774473192194321000,8.50632080078125,-0.9235974849358201,0.7224146951168775,-0.4831330607891082
1774473192204333800,8.516333740234375,-0.9733043496519327,0.6298930632859469,-0.5590402424275874
1774473192214347000,8.526346923828125,-0.8080231865584849,0.4585159214049577,-0.5912029748857021
1774473192224359700,8.536359619140624,-0.48158583134710786,0.09769289698898792,-0.5760691186398268
1774473192234372900,8.546372802734375,0.1702257798887789,-0.1051484736919403,-0.8837947591185569
1774473192244386800,8.55638671875,0.5667031782709062,-0.3072165219128132,-1.0522574748575686
1774473192254399700,8.566399658203125,0.6276521524913609,-0.4070698118060827,-1.0965034438192844
1774473192264413000,8.576412841796875,0.39422508941069245,-0.36721886293292044,-0.9613935471057892
1774473192274425900,8.58642578125,-0.14622392285875976,-0.3170575324475765,-0.71304773183465
1774473192284438800,8.596438720703125,-0.6131517718434334,-0.31690204962491986,-0.6491922225177288
1774473192294451700,8.60645166015625,-0.39993104596734047,-0.15046061058044433,-0.2147065805196762
1774473192304465000,8.61646484375,-0.5058370600283145,-0.2334416761279106,-0.1095271271675825
1774473192314477800,8.626477783203125,-0.5076361453395336,-0.21353286056518553,-0.301959332036972
1774473192324491800,8.63649169921875,-0.28100824087969956,0.08382920680940151,-0.012446224597096442
1774473192334505000,8.6465048828125,-0.5360574262470007,0.11778759051263332,0.11932020690739154
1774473192344517600,8.656517578125,-0.6643582274675369,0.10541501567363738,0.18937632443010807
1774473192354530800,8.66653076171875,-0.6824146931618452,0.3625771746069193,0.37999709596335884
1774473192364544000,8.6765439453125,-0.8019698778688907,0.291862300914526,-0.08971709580421447
1774473192374556700,8.686556640625,-0.2460638052811846,0.22894845636188982,-0.5447913523226976
1774473192384569900,8.69656982421875,0.3415022378742695,0.21373627418279648,-0.7429021873503923
1774473192394582800,8.706582763671875,1.1042143835227936,0.05157236632704734,-0.41704526237547396
1774473192404596700,8.7165966796875,1.2537550297141073,0.05301029017567634,-0.7457055543333292
1774473192414610000,8.72660986328125,1.1477600952606648,0.1532546252131462,-0.8865206769511104
1774473192424622800,8.736622802734376,0.8185527638792991,0.17328502132892606,-0.5451286214530467
1774473192434635800,8.7466357421875,0.4001438119351864,0.41068274160623547,-0.1357367964401841
1774473192444648700,8.756648681640625,-0.1318670423347503,0.5419944150805474,0.053526130743324754
1774473192454662000,8.766661865234376,-0.291742035535723,0.514486230430007,0.18705518800616264
1774473192464674800,8.7766748046875,-0.19713935964703558,0.5629653069168329,0.445122771346569
1774473192474687700,8.786687744140625,-0.35441907565779984,0.5103741189360619,0.5508665805831551
1774473192484702000,8.796701904296874,-0.17451142131872474,0.33802667071819303,0.3805091371387243
1774473192494714600,8.806714599609375,-0.05071911049857735,0.24018881230056285,0.3710772919267416
1774473192504727800,8.816727783203126,-0.1830314854480326,0.12342881126999854,0.19838322222828864
1774473192514740700,8.82674072265625,0.1967754947707057,0.1301443832606077,0.4353729462265968
1774473192524754000,8.83675390625,0.4463048207379877,-0.026290625554323196,0.4352677322864532
1774473192534766800,8.846766845703126,0.5750843453861773,-0.0622708704739809,0.30615795277059077
1774473192544779800,8.85677978515625,0.5369568593047559,0.04078852198421955,0.09315203868895769
1774473192554793000,8.86679296875,0.38988998281583187,0.17926994095742702,-0.0648746232315898
1774473192564806700,8.876806640625,0.22010405564904212,0.2953372835487127,-0.1818999972000718
1774473192574819800,8.88681982421875,0.07364734694771469,0.43686113895773887,-0.30993162609040736
1774473192584833000,8.8968330078125,-0.0870844822783023,0.6469517501145601,-0.4055722667247057
1774473192594845700,8.906845703125,-0.0899123261153698,0.7932201697021722,-0.4522156522169709
1774473192604859000,8.91685888671875,0.35156551285758614,0.655655865573883,-0.010371464149653911
1774473192614871800,8.926871826171874,0.3347300403255969,0.34992519830465313,-0.07625584894567727
1774473192624884700,8.936884765625,-0.038944282357022166,0.359438876581192,-0.4264589874088764
1774473192634897700,8.946897705078126,-0.19268997902274132,0.3963941040128469,-0.13245002985447643
1774473192644910800,8.956910888671874,-0.3681926033359021,0.3323766821324825,0.2411681787267327
1774473192654924800,8.9669248046875,-0.4871346976459026,0.2540595167428255,0.21372034596130252
1774473192664937700,8.976937744140624,-0.298055894857645,0.2136123555421829,0.268653128632158
1774473192674951000,8.986950927734375,-0.18857019567899405,0.06353109966814517,0.4232895635925233
1774473192684963600,8.996963623046875,-0.725500386172533,0.1548363414466381,0.11049816415682434
1774473192694976800,9.006976806640624,-0.765070180016756,0.3072369801789522,0.35633711117357014
1774473192704989700,9.01698974609375,-0.6392110728599131,0.10395838712453842,0.4770161853440106
1774473192715003000,9.0270029296875,-0.13327917415499688,-0.2303255899339914,0.4983619018420577
1774473192725015800,9.037015869140625,0.28450433936715125,-0.6645242316842078,0.34984921045899386
1774473192735029800,9.04702978515625,0.6915197906374931,-0.9037959291398525,0.27762743933498857
1774473192745042700,9.057042724609374,0.9621358899056911,-0.8266863859742879,-0.021739245860278606
1774473192755055600,9.0670556640625,0.8261819435834884,-0.5397282237142325,-0.25282456812039017
1774473192765068800,9.07706884765625,0.4139104714810848,-0.22702421030104158,-0.3828321732588112
1774473192775082000,9.08708203125,-0.1092833450069651,0.06482523113191127,-0.43106341246441005
1774473192785094700,9.0970947265625,-0.6370902813136577,0.2283183417648077,-0.3507270162068307
1774473192795107800,9.10710791015625,-1.257459729450941,0.4076648550897836,-0.25773805912509556
1774473192805120800,9.117120849609375,-1.8957284068942069,0.6342185252696275,-0.12145137371718882
1774473192815133700,9.1271337890625,-1.1847487135052681,0.5648480519235134,0.12381181923821567
1774473192825148000,9.13714794921875,-0.18037295202957465,0.4385159204274416,0.19975597188621758
1774473192835160800,9.147160888671875,0.2677928950736299,0.2718231369704008,-0.15698708973973988
1774473192845173800,9.157173828125,0.6684674163520335,0.15641922672390937,-0.26378669163957236
1774473192855186700,9.167186767578125,0.6148094759225845,0.22422551949322223,-0.2656177795242518
1774473192865199900,9.177199951171875,0.3312976547241211,0.2706546777129173,-0.30569391545541585
1774473192875212500,9.187212646484374,0.19096680849194525,0.3016431056946516,-0.32000133081451054
1774473192885225700,9.197225830078125,0.0020569325298070906,0.3617050679475069,-0.4326583535056561
1774473192895239000,9.207239013671876,-0.9943144044548272,0.5497773240417242,-0.6201265792921186
1774473192905251800,9.217251953125,-1.6693974395543336,0.7660925088018179,-0.3165124657854438
1774473192915265800,9.227265869140625,-0.9514742106378078,0.8486936351209878,-0.42206250601559875
1774473192925278700,9.23727880859375,-0.0910620806723833,0.9294652079254389,-0.041820641510933634
1774473192935291600,9.247291748046875,0.25373510709404945,0.6895616423070431,0.4100563898688182
1774473192945304800,9.257304931640626,0.556618568238616,0.1753711799532175,0.5199421942809597
1774473192955317800,9.26731787109375,0.23359480259669943,-0.3554559444248676,0.7936885178662836
1774473192965331000,9.2773310546875,-0.2627075181007385,-0.7109767707794904,0.6033731955530122
1774473192975343600,9.287343505859376,0.594075315451622,-0.6066483812987804,0.05967683539278805
1774473192985356800,9.297356689453125,1.036312886750698,-0.09742810857295989,-0.8374136778242885
1774473192995370800,9.307370849609375,1.1733306629121303,0.2473532971024513,-1.5263473974913357
1774473193005383700,9.3173837890625,0.9174515295267105,0.26362521746754647,-1.201171367452666
1774473193015396900,9.32739697265625,0.24903966102050615,-0.05982581540942192,-0.6299670053049922
1774473193025409800,9.337409912109376,0.26515315768718717,-0.16707096911966798,-0.6153749277856201
1774473193035422700,9.347422607421874,0.49892746330294757,-0.21891280003786084,-0.6681621497951448
1774473193045435600,9.357435546875,0.5218009373575448,-0.28771979428231714,-0.5636395529165864
1774473193055448800,9.36744873046875,0.178646804090403,-0.5270329927921295,-0.11609392007095738
1774473193065461800,9.377461669921875,0.21005433426704256,-1.037935519516468,0.5528938851596787
1774473193075474700,9.387474609375,0.4235234819462523,-1.5112971278756857,0.7449640883162617
1774473193085489000,9.397489013671875,0.17198855177760122,-1.5973071858555077,0.9080850046359003
1774473193095501600,9.40750146484375,-0.15461484418306498,-1.475464182472229,0.5865875900447368
1774473193105514800,9.4175146484375,-0.0557529034147039,-1.139296875885129,0.22281543349958954
1774473193115528000,9.42752783203125,0.10150750510739162,-0.7710106759816407,-0.001598557770438492
1774473193125540600,9.43754052734375,0.02429974399805069,-0.3536222992569208,-0.004022679644823074
1774473193135553800,9.4475537109375,-0.1572112538844347,-0.09446224450469017,-0.23582663503568618
1774473193145566700,9.457566650390625,-0.4260136182615533,0.12629589113891124,-0.2807423564851284
1774473193155580000,9.467579833984376,-0.8641846342414617,0.500782114726305,-0.40924448896404353
1774473193165592600,9.477592529296874,-1.0855319679498672,0.7827958063215017,-0.6168244690068065
1774473193175606800,9.487606689453125,-0.87560151579082,0.6514531531870364,-0.4810245807351544
1774473193185619700,9.49761962890625,-0.30175946208331733,0.4735352113604545,-0.09487794916611164
1774473193195632600,9.507632568359375,-0.42043548933565617,0.35906536709368225,0.1894894659483805
1774473193205645800,9.517645751953125,-0.8535194478422403,0.3022784809887409,0.2714423940245062
1774473193215658800,9.52765869140625,-0.8539525785624981,0.2601034730821848,0.219767151844874
1774473193225671700,9.537671630859375,-0.5713678456136957,0.48158700039088725,0.01944992934670299
1774473193235684900,9.547684814453126,-0.37357141029741614,0.7808060938090086,-0.07984346164148301
1774473193245697800,9.55769775390625,-0.2835556603401899,0.9071446550458669,-0.26797080892380326
1774473193255710700,9.567710693359375,-0.3664140128234401,0.7093599832326173,-0.3138602707762271
1774473193265724700,9.577724609375,-0.4931529715547338,0.49592941399812696,-0.24066932582650333
1774473193275737900,9.58773779296875,-0.7730559180736541,0.42693946440219877,0.010792055048746987
1774473193285750800,9.597750732421876,-1.251920800024271,0.36109833422601223,0.7537002794142812
1774473193295763700,9.607763671875,-1.5997522409200668,-0.20438626203536986,0.764589483827725
1774473193305777000,9.61777685546875,-1.1895295180410146,-0.44713937186598773,0.4410892415141687
1774473193315789800,9.627789794921876,-0.7140437571346759,-0.09748188458681106,0.25543504287973046
1774473193325802800,9.637802734375,-0.32967502195835113,-0.12453063503205776,0.21539332067482173
1774473193335815700,9.647815673828125,0.4143512009859085,-0.548891773378849,0.25605200573429465
1774473193345828900,9.657828857421874,0.5347516043454408,-1.0857511636584996,0.33493217530157415
1774473193355842800,9.6678427734375,0.7660954314112662,-1.0942021811395883,-0.14459166374811902
1774473193365855700,9.677855712890626,1.0359627581387758,-0.9725421331077814,-0.28180302625289183
1774473193375868700,9.68786865234375,1.021775242832303,-0.8825438822746277,-0.4536249344930052
1774473193385881600,9.697881591796875,1.2294330738842487,-0.9991524921357631,-0.3432658134806901
1774473193395894800,9.707894775390624,0.6944026525974273,-0.9875234291404485,-0.3942608913764357
1774473193405908000,9.717907958984375,0.2155611880550161,-0.6771481509357691,-0.409167368607223
1774473193415920600,9.727920654296875,-0.21811543911509215,-0.44268239245712754,-0.34598647061623633
1774473193425933800,9.737933837890624,-0.5914771887172013,-0.36620705554187294,-0.23476187361469492
1774473193435946800,9.74794677734375,-0.9740046799410134,-0.3384504490882158,-0.3152753982711583
1774473193445960700,9.757960693359376,-1.0103414101481436,-0.23495909495353698,-0.3677382836971432
1774473193455974000,9.767973876953125,-0.870513837262988,-0.1036930141866207,-0.24179029268044977
1774473193465986800,9.77798681640625,-0.4686509464502334,0.2570826639562845,-0.19206086907265707
1774473193475999700,9.787999755859374,1.710018203756213,0.634917028927803,-0.6831598124407231
1774473193486012700,9.7980126953125,0.051469490474462504,0.4440238701939583,-1.0692887622226028
1774473193496025900,9.80802587890625,-0.26067981166541576,0.6458376513928175,-0.3587652516359463
1774473193506038800,9.818038818359375,-0.4312205027222633,0.9034247577399015,-0.24444504497293382
1774473193516051700,9.8280517578125,0.15370185752399265,0.8425310208380222,-0.28679736394146454
1774473193526065000,9.83806494140625,0.15278350057005882,0.6024754795283079,-0.4683334049336612
1774473193536078600,9.84807861328125,-0.04081358336023986,0.5872919389218092,-0.442356777231954
1774473193546091800,9.858091796875,-0.037267289055511355,0.7280985859721899,-0.2647305483609438
1774473193556104700,9.868104736328124,-0.25726854191720483,0.6915788273483514,-0.1997480077754706
1774473193566118000,9.878117919921875,-0.7463590498059988,0.599054857429862,0.05830194857669994
1774473193576130800,9.888130859375,-0.6243721079073846,0.46484278633892534,0.22676625348459928
1774473193586143700,9.898143798828125,-0.3087966307111084,0.2662391993582249,0.3326605771077797
1774473193596157000,9.908156982421875,0.23078546253070234,0.24019874917268752,0.14811428491631523
1774473193606169600,9.918169677734374,0.5273102022983134,0.4167033170700073,-0.2639152133900672
1774473193616182800,9.928182861328125,0.5003694422721863,0.419618912255764,-0.451745039030537
1774473193626196700,9.93819677734375,0.35928324762806296,0.1906336310148239,-0.4128411982817575
1774473193636209700,9.948209716796875,0.2372444294117391,0.04362228410542011,-0.3794972566824406
1774473193646222600,9.95822265625,-0.08895546378195285,0.12456862895488738,-0.21642036216761915
1774473193656235500,9.968235595703124,-0.161542122695595,0.07141805352568625,-0.14280980356633663
1774473193666248400,9.97824853515625,-0.07455152924582362,-0.01818798311948776,-0.20835856319982557
1774473193676261600,9.98826171875,0.1734802516400814,0.011115852776169777,-0.25860220167376097
1774473193686274600,9.998274658203124,0.4055570691555738,-0.053796472117304796,-0.38605646906755864
1774473193696287700,10.008287841796875,0.07359379012957215,-0.15162614722847936,-0.07883673228435217
1774473193706300400,10.018300537109376,-0.12696677613779903,-0.011575871503353118,-0.026526845462992787
1774473193716314600,10.028314697265625,0.004815437457710505,0.1333463941723108,-0.19345869837291538
1774473193726327600,10.03832763671875,0.09007380028739571,0.28450960006415843,-0.44024961235225196
1774473193736340500,10.048340576171874,-0.19140169277787208,0.3759855222344398,-0.4106175674155354
1774473193746353700,10.058353759765625,-0.4173690875023603,0.34941081904172894,-0.19609649953059852
1774473193756366600,10.06836669921875,-0.31956396231055256,0.14967559768259525,-0.0759157302711159
1774473193766379500,10.078379638671874,-0.5524626176029444,-0.1824555852562189,0.1970949359834194
1774473193776392400,10.088392333984375,-0.6784874367155135,-0.4869038114994764,0.39366964748501776
1774473193786405600,10.098405517578126,-0.3081348058015108,-0.5101888254970312,0.23970950435101984
1774473193796418600,10.10841845703125,0.43561742250695823,-0.08051146056354046,-0.44824382597655055
1774473193806432500,10.1184326171875,0.5413024872936308,0.35482524530589576,-0.9213272749815136
1774473193816445700,10.12844580078125,0.048698856717348096,0.46486441364884373,-0.8331171496741473
1774473193826458400,10.138458251953125,-0.3182423583179712,0.2077706437766552,-0.39444077798798677
1774473193836471600,10.148471435546876,-0.3974935896873474,-0.009420154774188994,-0.002187573172152042
1774473193846484700,10.158484619140625,-0.44356838151142,0.07042611987888812,0.0776804749213159
1774473193856497400,10.168497314453125,-0.5362454961650073,0.11007248609066009,0.178218093816936
1774473193866510600,10.178510498046874,-0.45071240804716944,0.15506430498361587,0.34643852523267266
1774473193876523500,10.1885234375,-0.2756083545975387,0.21590309682786463,0.2669929403349757
1774473193886536700,10.19853662109375,0.0433123413734138,-0.01561784037053585,-0.0010455635301768779
1774473193896550700,10.208550537109375,0.31212372930720444,-0.06253916602134704,0.038285453122109174
1774473193906563600,10.2185634765625,0.09948504110276699,-0.05447977820634842,-0.05220131188035011
1774473193916576500,10.228576416015626,0.2965928365677595,-0.5652922885596752,-0.30981399106010793
1774473193926589400,10.23858935546875,0.026522242353111503,-0.39003859750628467,-0.15335034067258238
1774473193936602600,10.2486025390625,-0.6481463667266071,-0.031520342901349065,0.35979558106437326
1774473193946615600,10.258615478515624,-0.8033598709225654,-0.0690115769058466,-0.16937369310408829
1774473193956628500,10.26862841796875,-0.4424612970523536,-0.22947394154071807,-0.6005940496958792
1774473193966641700,10.2786416015625,-0.12236892695352435,-0.3692249420583248,-0.519082472179085
1774473193976654600,10.288654541015624,0.12051555417180061,-0.33258009575009345,-0.27739976805895566
1774473193986668500,10.29866845703125,0.1321061117876321,-0.29156653283834455,-0.0928752675741911
1774473193996681500,10.308681396484374,0.2685093362472951,-0.13912205496430397,0.09154109636098146
1774473194006694700,10.318694580078125,0.2159095265686512,-0.7396826407819986,-0.40838191731795664
1774473194016707600,10.32870751953125,-0.43138643387369807,-0.22262451403737066,-0.3353461994625628
1774473194026720500,10.338720458984374,-1.5121739107102155,0.3435486490100622,-0.3052076663084328
1774473194036733700,10.348733642578125,-1.5156816265702246,0.45104339356720446,-0.3759200557827949
1774473194046746400,10.358746337890626,-0.8643570681989192,0.6543769316792488,-0.2636728560015559
1774473194056759600,10.368759521484375,-0.3051468029666692,0.43381987156569957,-0.1311940384440124
1774473194066772500,10.3787724609375,0.18962175055854022,0.03394669326543808,0.18070567284896968
1774473194076786400,10.388786376953124,0.7254184800427407,-0.23453823919296263,0.4952316409923136
1774473194086799600,10.398799560546875,1.1057511646360159,-0.8105038974583149,0.20317104102671146
1774473194096812500,10.4088125,0.7436790169417857,-0.6646627633720636,0.18155995159074664
1774473194106825500,10.418825439453125,-0.02712123115956783,-0.27550679391920563,0.38666707524657246
1774473194116838400,10.42883837890625,-0.45045770263373847,-0.0718044224947691,0.08775894747376442
1774473194126851600,10.4388515625,-0.5899515135198832,0.2039841109752655,-0.28798735917732116
1774473194136864800,10.44886474609375,-0.6617623657554388,0.35948388476669785,-0.37107115444689986
1774473194146877400,10.45887744140625,-0.4420265223642811,0.4416933814197778,-0.32864903991147876
1774473194156890600,10.468890625,-0.2844359503060579,0.42872693234086034,-0.4313365303173661
1774473194166904600,10.478904541015625,0.1808955328652635,0.3392056513696909,-0.3657635495580733
1774473194176917500,10.48891748046875,0.6090951533963903,-0.0942167453110218,-0.4347138977959752
1774473194186930700,10.4989306640625,0.4044721599956974,-0.004293897801637649,-0.19029168570935726
1774473194196943600,10.508943603515625,0.021727281427849084,0.038055882149934765,-0.15755042271092534
1774473194206956500,10.51895654296875,-0.223305993495509,-0.07143032848536968,-0.2496038525082171
1774473194216969500,10.528969482421875,-0.42132805426120756,0.012160393393039703,0.004964782800525426
1774473194226982700,10.538982666015626,-0.5875543892502785,-0.08627426187396049,0.08037482857182622
1774473194236995600,10.54899560546875,-0.5725637773999944,-0.0889753375262022,0.17325462619066237
1774473194247008500,10.559008544921875,-0.45433246170785274,0.1249117433041334,0.04672478016540408
1774473194257022700,10.569022705078124,-0.38026016734633594,0.3642798868715763,-0.07044467844888568
1774473194267035400,10.579035400390625,-0.017131715532205997,0.27006021895110605,-0.11102686420604586
1774473194277048600,10.589048583984376,0.44420741006731984,0.03694645960330963,-0.23502485366612672
1774473194287061500,10.5990615234375,0.4657020335167646,-0.03980301807820797,-0.1640587816916406
1774473194297074400,10.609074462890625,0.27610242172479627,-0.10655834048986434,-0.04431172767430543
1774473194307087600,10.619087646484376,0.3372849124401808,-0.28924598093628884,-0.004793956278264522
1774473194317100500,10.6291005859375,0.11712883434295654,-0.34096038608253,0.03725187229067087
1774473194327113700,10.63911376953125,-0.15323533599078654,-0.3659071958124637,0.14135931249707936
1774473194337126400,10.64912646484375,-0.39757710325233636,-0.3898685016363859,0.277367327094078
1774473194347140600,10.659140625,-0.3923906770577654,-0.10215279900729655,0.16072072331011295
1774473194357153500,10.669153564453126,-0.5600105487644672,0.253506559035182,-0.02082271553725004
1774473194367166500,10.67916650390625,-0.8283061691958457,0.32662732482552526,0.06506254701912403
1774473194377179600,10.6891796875,-0.7325831109751015,0.0486509259223938,0.1814645283922553
1774473194387192600,10.699192626953124,-0.5752215253671631,-0.15261223565638066,0.08667319806367159
1774473194397205500,10.70920556640625,-0.44006724152266974,-0.1741208876311779,-0.10238660776317118
1774473194407218400,10.719218505859375,-0.15278989377822727,-0.07288637251257896,-0.21783640297800302
1774473194417231600,10.729231689453124,0.05146422977745533,-0.1340969202786684,-0.19564941335022448
1774473194427244500,10.73924462890625,0.046216465317085384,-0.302213014537096,-0.213399589574337
1774473194437258500,10.749258544921876,0.08435111179165541,-0.34485388638973236,-0.2635913151979446
1774473194447271700,10.759271728515625,0.14524075704030692,-0.31871991270184513,-0.2038897106900811
1774473194457284400,10.769284423828125,0.1582603976111859,-0.25109482171833514,-0.15196020148843525
1774473194467297500,10.779297607421874,0.08458912179861217,-0.22013678887486457,-0.13741203617602585
1774473194477310700,10.789310791015625,-0.0907920315593481,-0.29661563292145726,-0.020251345390081405
1774473194487323600,10.79932373046875,-0.11195296607501805,-0.4757189851403236,0.20059768340736625
1774473194497336600,10.809336669921874,-0.03356858066804707,-0.6326514220833778,0.42046325412541624
1774473194507349500,10.819349609375,-0.004952727036550641,-0.7137760461091995,0.6589034691929817
1774473194517362700,10.82936279296875,-0.326241503845714,-0.7309446230530738,0.8872741256669163
1774473194527376600,10.839376708984375,-0.4007172279089689,-0.6471978338301182,0.861644009847939
1774473194537389600,10.8493896484375,-0.4451016920259222,-0.5999713877528906,0.14798837524801492
1774473194547402500,10.859402587890624,-0.61809551185593,-0.3228291015863418,-0.320917130485177
1774473194557415400,10.86941552734375,-0.31418340178336945,-0.07691431285440921,-0.46024011484906074
1774473194567428600,10.8794287109375,-0.11481770785637199,-0.10504092166423797,-0.682947630994767
1774473194577441500,10.889441650390625,0.268600083270669,0.007565466818213462,-0.862444950967282
1774473194587454500,10.899454345703125,0.5379476969730108,0.17802315576672553,-1.0086047956138848
1774473194597467600,10.909467529296874,-0.21102518859319389,0.40576223633885383,-0.8640126386754214
1774473194607480600,10.91948046875,-1.1957792260855435,0.5948550676524639,-0.5336963962040842
1774473194617494500,10.92949462890625,-1.0841712009906768,0.7565069343328475,-0.40283670428097246
1774473194627507500,10.939507568359375,-0.33194409940149633,0.8762667017012834,-0.41931306117698547
1774473194637520600,10.949520751953125,0.22005433475580066,0.8222913658857345,-0.3909587810911238
1774473194647533800,10.959533935546874,0.32984628687202927,0.6290671338558197,-0.32363837214261293
1774473194657547000,10.969547119140625,0.0763876951644197,0.48099838684797286,-0.16716873040571809
1774473194667560200,10.979560302734376,-0.32485797706544395,0.40453707845807074,-0.0018150865979492663
1774473194677572900,10.98957275390625,-0.9504285009771585,0.28846330612599846,0.23864026768431065
1774473194687586000,10.9995859375,-1.497534559983015,0.11035188755393027,0.5010509947955608
1774473194697599000,11.009598876953126,-1.2115519647568465,0.1730266626536846,0.23447511082887648
1774473194707613000,11.019613037109375,-0.9389175114035606,0.585074847394228,-0.061645285921543835
1774473194717626000,11.029626220703125,-0.6247182909965515,1.0324883600264787,-0.4281691523276269
1774473194727639000,11.03963916015625,-0.07794486147854476,1.2173363933771848,-0.7352668701663613
1774473194737652000,11.04965185546875,-0.022300660869013517,1.064136713221669,-0.6770825383536517
1774473194747665000,11.059664794921876,-0.6769692872375249,0.8884785330206155,-0.4897248602695763
1774473194757678000,11.069677978515625,-0.9641665189504622,0.6338999608397483,-0.009619038347154855
1774473194767691000,11.07969091796875,-1.4977671996951103,0.514881367227435,0.3173572460465133
1774473194777704000,11.089703857421876,-0.6872527808427811,0.4314665864378214,0.5654799200862646
1774473194787717000,11.099717041015625,0.670163698875904,0.025199907708168028,0.5110203078851103
1774473194797730800,11.109730712890626,0.5016062905907631,-0.6732184102714062,0.41629897405281663
1774473194807744000,11.119743896484374,0.5298947754314169,-0.9477911382108927,0.42720936738476156
1774473194817757200,11.129757080078125,0.8219453289270401,-0.9080606008470058,0.40031741493642325
1774473194827770000,11.13977001953125,1.384373460227251,-0.8280302017986774,0.17004297066777943
1774473194837783000,11.149782958984375,1.1401064387023447,-0.8751806600302457,0.15506941955015063
1774473194847796000,11.1597958984375,0.5364133635452016,-0.7885837420731783,0.1705592496268451
1774473194857809200,11.16980908203125,0.04390694626569747,-0.38546588276326654,0.2909900481246412
1774473194867821800,11.17982177734375,-0.34541502740383145,-0.04198796090185642,0.20980901773646474
1774473194877835000,11.1898349609375,-0.6063748250544071,0.09407587553560733,0.11233517032563686
1774473194887848000,11.199847900390624,-0.6196750361323357,0.237737912017107,0.09441767471060156
1774473194897862000,11.20986181640625,-0.22005846294164658,0.37635961624383923,-0.08452098846584558
1774473194907875000,11.219875,0.00007722995467483997,0.3635036418020725,-0.1558139543071389
1774473194917888000,11.229887939453125,-0.00992393957786262,0.3270411663234234,-0.1093967787861824
1774473194927901000,11.23990087890625,-0.28005620085187255,0.3786234695225954,-0.021887568289786576
1774473194937913900,11.249913818359374,-0.3397977720439434,0.24696517456769942,-0.05411269845962524
1774473194947927000,11.259927001953125,0.21311536580547688,0.007604629784822464,-0.14403978375270962
1774473194957940200,11.269940185546876,0.7237151101909577,-0.12294774975478648,-0.12258169292137026
1774473194967953000,11.279952880859375,0.6077774583939463,-0.22232465430796144,0.12097747259512542
1774473194977966000,11.289966064453125,0.1892098818220198,-0.23308161064386365,0.3436760747820139
1774473194987980000,11.29997998046875,-0.2672083366513252,-0.391114117783308,0.23514848004579542
1774473194997993000,11.309992919921875,-0.1038927745424211,-0.637986937892437,-0.15852189809158443
1774473195008006100,11.320006103515626,0.31608386510983105,-0.9124731565922498,-0.07360270408838987
1774473195018019000,11.33001904296875,0.3483540034651756,-0.6777718357920647,-0.03232143015116453
1774473195028032000,11.340031982421875,0.3207759684488177,-0.10016484006047248,0.12449424854442477
1774473195038045000,11.350044921875,-0.08258271387964486,0.11375205138623713,0.17852891333177684
1774473195048058000,11.36005810546875,-0.1403705937206745,0.07326689626276493,-0.13701076189875602
1774473195058070800,11.37007080078125,-0.5592439483061432,0.4014508028805256,-0.41365021310970185
1774473195068084000,11.380083984375,-0.44679903399571774,-0.7503308760464191,0.14488792501464484
1774473195078098200,11.39009814453125,1.0356804340660573,-0.18104513393640517,-0.15213862679526208
1774473195088110800,11.40011083984375,0.38395708563551306,0.9900888957142829,0.20527400465533135
1774473195098124000,11.4101240234375,-0.7119068912364542,0.48004736973345274,0.16484817850366235
1774473195108137200,11.42013720703125,-0.34791678109169005,-0.10221826545894146,-0.5899016830287873
1774473195118150000,11.43014990234375,-0.08510273387655615,0.06039338616430759,-0.5708111981116235
1774473195128163000,11.4401630859375,-0.26315058569312094,0.32402211076319215,-0.480084194612503
1774473195138176000,11.450176025390626,-0.19740926262959838,0.41031975351274014,-0.7503108561716973
1774473195148189200,11.460189208984374,-0.3428559905707836,0.6067237846225499,-0.7045226262040436
1774473195158201900,11.470201904296875,-0.5787023897528648,0.4746101471155882,-0.4999120538935065
1774473195168215000,11.480215087890626,-0.43842751149162645,0.3159644765138626,-0.5189272816173732
1774473195178229000,11.49022900390625,-0.19556005456633865,0.35551848826706406,-0.4774678746342659
1774473195188242000,11.500241943359375,-0.034876156135275956,0.34402854148149487,-0.42083296422064304
1774473195198255000,11.510255126953124,0.16366496006846426,0.10930383980572222,-0.7232474926792085
1774473195208268000,11.52026806640625,0.3924610023476183,-0.4936071085304021,-0.9526004381887614
1774473195218281000,11.530281005859376,-0.01842866000756621,-0.8885697184354067,-0.24399565723761915
1774473195228294000,11.5402939453125,-0.6911876360736787,-0.9967325715124606,0.007114362049847841
1774473195238307000,11.55030712890625,-1.1122786667086184,-1.1420242550224065,-0.30608488753437996
1774473195248320000,11.560320068359376,-0.7766590571321547,-0.656405807158351,-0.6633962505675852
1774473195258333000,11.5703330078125,-0.606628507554531,-0.23209493769407272,-0.5989975742846727
1774473195268347100,11.58034716796875,-0.2623544668793678,-0.03951134165525436,-0.4827105975933373
1774473195278360000,11.590360107421875,-0.39215807387828827,-0.0019569792866706848,-0.22576690371632574
1774473195288373000,11.600373046875,-0.25828984778895975,-0.1749134993135929,-0.16411869518533348
1774473195298386200,11.61038623046875,-0.08328852406144141,-0.2195733097732067,-0.1609878498136997
1774473195308398800,11.62039892578125,-0.030536738691478965,-0.5097299758136272,0.017058394567668438
1774473195318412000,11.630412109375,-0.29048502121195197,-0.9404916288524866,0.33625352356582877
1774473195328425000,11.640425048828124,-0.31149317631870505,-1.277944883596897,0.6304939517885446
1774473195338438100,11.650438232421875,-0.46862873461842536,-1.1817711589992046,1.5153139623016119
1774473195348450800,11.660450927734376,-0.33059418262988327,-1.1127022989481687,0.6709896283060311
1774473195358465000,11.670465087890625,-0.470604418605566,-0.6432733538627624,0.5217854475274681
1774473195368478000,11.68047802734375,-0.23333193214312195,-0.24773966607153414,-0.2322048278093338
1774473195378491000,11.690490966796874,-0.004150178482010961,0.11746961060464381,-0.8755892408311367
1774473195388504000,11.700504150390625,-0.21768888426609337,0.10969020877480506,-1.02561350582093
1774473195398517000,11.71051708984375,-0.3118586486302316,0.16055997979044914,-0.7347177118510008
1774473195408530000,11.720530029296874,-0.2646329332053661,0.46605683830380434,0.6421677307084203
1774473195418543000,11.730543212890625,-0.16658179736323653,0.14640402866601943,0.8240157054603099
1774473195428556000,11.74055615234375,-0.060025648830458515,-0.7747884409546851,0.9673831429094075
1774473195438569000,11.75056884765625,0.5736930371582508,-1.0236638330578804,1.0828472589105367
1774473195448583200,11.760583251953125,1.1512053403437137,-0.20408114160895346,0.8228305873289704
1774473195458596000,11.77059619140625,0.7457014626801014,-0.10316752900779247,0.14134966788589953
1774473195468609000,11.780609130859375,0.5390355652749538,-0.5699982742935419,-0.22302695735841988
1774473195478622000,11.7906220703125,1.155444293087721,-0.05937690259814262,-0.5157327233597636
1774473195488635100,11.80063525390625,1.3272025432407855,0.39952831038534636,-0.3724523796722293
1774473195498647800,11.810647705078125,1.6079998447835444,0.1327887602895498,-0.017010171511769295
1774473195508661000,11.820660888671876,1.6007845065772532,-0.14242226555347443,-0.15072949064970015
1774473195518674000,11.830673828125,1.1302689352989197,-0.20281682076156138,-0.1916401777088642
1774473195528687000,11.84068701171875,1.6054618507385252,-0.36893034302592276,-0.34308979932665823
1774473195538700000,11.850699951171874,1.1674269918262958,-0.492232897567749,-0.15027297905385492
1774473195548714000,11.8607138671875,0.6552946310460567,-0.1681248620867729,-0.325331732057035
1774473195558727000,11.870726806640626,0.20269699377417563,0.2819587465375662,-0.6608470044761896
1774473195568740000,11.880739990234375,0.25157356341229753,0.2253852109223604,-0.7455728678643703
1774473195578753000,11.8907529296875,-0.1689782640457153,-0.08988719167411327,0.3746501819774508
1774473195588766200,11.90076611328125,0.15410097637679426,-0.054527709001302715,0.25800796210765836
1774473195598779000,11.91077880859375,0.12180731101538986,0.610578706485033,-0.028206396047770976
1774473195608792000,11.9207919921875,-0.1797930880486965,0.8826163629889487,-0.23759470415413378
1774473195618805000,11.930804931640624,-0.8400210107784718,0.9582359598577022,-0.5506602443560957
1774473195628818000,11.94081787109375,-0.942926089457795,1.077758995860815,-0.4317871966943145
1774473195638832000,11.95083203125,-0.8911913721758872,0.6941185749590396,0.30187253053635354
1774473195648844800,11.9608447265625,-0.32551790227890015,0.754622435760498,-0.28490122973024845
1774473195658857500,11.970857421875,-1.0220200844388454,0.3704395785450935,0.1432464414179325
1774473195668870700,11.98087060546875,-0.6309236484427004,0.48745209303200243,-0.5878080717504024
1774473195678883800,11.9908837890625,-1.0295733493626118,0.3058773822635412,-0.12488660886287689
1774473195688896800,12.000896728515626,-0.872184985345602,-0.24036592243313787,-0.10502163244187832
1774473195698909700,12.01090966796875,-0.05857150449939072,0.23493396051228044,-1.4009332576230167
1774473195708922600,12.020922607421875,-0.13622735643610356,1.0485726488649845,-1.0119155275970697
1774473195718935800,12.030935791015626,-0.6079775840759277,0.663951400232315,-0.2772279186233878
1774473195728949800,12.04094970703125,-0.16841142394319175,0.2406704583376646,0.021656536012887955
1774473195738962700,12.050962646484376,-0.13182144962735473,0.23956220483481883,0.07511632352173328
1774473195748975900,12.060975830078124,-0.1893279552437365,0.2750748322427273,-0.028955606979876754
1774473195758988500,12.070988525390625,0.18526421293616294,-0.07275777769684791,-0.17211480850577354
1774473195769001700,12.081001708984376,0.7676818238198757,-0.3727285662651062,-0.15132979463040827
1774473195779014700,12.0910146484375,0.8193312009058892,-0.4503308613836765,0.160719700396806
1774473195789027600,12.101027587890625,0.2489760759986937,-0.3219558258831501,0.2537070500433445
1774473195799040800,12.111040771484374,0.40009368918314575,-0.06771393831074238,0.024767799901217222
1774473195809053700,12.1210537109375,0.4705449435032904,0.19599369674324987,-0.054728638400882476
1774473195819067000,12.13106689453125,0.09148483612909912,0.6142419051676988,0.5725273543797433
1774473195829080600,12.14108056640625,0.02644362415894866,0.4118015165030956,0.38544030993059275
1774473195839093800,12.15109375,0.4065874351166188,0.4834177229493856,-0.15750789874345064
1774473195849106700,12.161106689453124,0.216938431224972,0.9038286623656749,-0.06387903632298111
1774473195859119600,12.17111962890625,0.09787234520912169,1.0692372512310742,0.6134343881770968
1774473195869132800,12.1811328125,-0.28304069655537606,0.5161953724354506,0.6057920567303896
1774473195879145700,12.191145751953124,-0.6672597941279411,-0.12828794173896313,0.7029062770485878
1774473195889158700,12.20115869140625,-0.7101639930918813,-0.7505617621928453,0.9136050832316279
1774473195899171600,12.211171630859376,-0.38645211732164025,-0.9725216748416423,1.0035399134397507
1774473195909184800,12.221184814453125,-0.28939810275807976,-0.7220242344945669,0.859630770329386
1774473195919198700,12.23119873046875,-0.4958465580202639,-0.19251696054339407,0.2740852366834879
1774473195929211600,12.241211669921874,-0.7698653053387999,0.1594943963855505,0.04269917791113257
1774473195939224800,12.251224853515625,-1.032159858724475,0.20346388649344443,-0.0676566551655531
1774473195949237500,12.261237548828126,-1.0882092243351043,0.04887538232803344,-0.17381883594468234
1774473195959250700,12.271250732421874,-0.8633630887255072,-0.06864566620290279,-0.45885947414562106
1774473195969263900,12.281263916015625,-0.6723360744789242,-0.08153729647994042,-0.5272960276424884
1774473195979276500,12.291276611328126,-0.749077661114931,0.033413024780154225,-0.5035509949177503
1774473195989289700,12.301289794921875,-0.5835115436002611,0.2500666477143764,-0.41589156229570506
1774473195999302700,12.311302734375,-0.3134288205564022,0.04365852446258068,-0.5012096924886107
1774473196009316600,12.321316650390624,0.17978256665468215,-0.1872831515431404,-0.5551676387779414
1774473196019329800,12.331329833984375,0.34832930741533635,-0.23283494240641592,-0.4542248000822961
1774473196029342700,12.3413427734375,0.3609633096694946,-0.10490706615149974,-0.4192078472368419
1774473196039355600,12.351355712890625,0.48960138002038,-0.1678945604622364,-0.4341501264333725
1774473196049368600,12.36136865234375,0.5674047506690025,-0.36292087347805496,-0.2163645768597722
1774473196059381800,12.3713818359375,0.6060170976579189,-0.6479863538593054,0.1517863062262535
1774473196069394700,12.381394775390625,0.09132306969612836,-0.7157552372276783,0.05073664615526795
1774473196079407600,12.39140771484375,0.0540732432320714,-0.5463806673407554,-0.2420214345552027
1774473196089420800,12.4014208984375,0.5698483444288373,-0.43158173725008964,-0.08455036069080234
1774473196099433700,12.411433837890625,0.6502578059226274,-0.19902736535072327,0.1566395914763212
