time,seconds_elapsed,z,y,x
1774472687676942800,0.07494287109375,0.09093750268220901,0.008501141332089901,0.05875534564256668
1774472687686970600,0.084970703125,0.09164617210626602,0.025356287136673927,0.03723274543881416
1774472687696999000,0.0949990234375,0.10141731798648834,0.0030760897789150476,-0.013750642538070679
1774472687707025700,0.105025634765625,0.12657301127910614,-0.030441388487815857,-0.06033598631620407
1774472687717053700,0.1150537109375,0.14941364526748657,-0.042668212205171585,-0.0948769748210907
1774472687727081700,0.125081787109375,0.17450861632823944,-0.03615864738821983,-0.1214076429605484
1774472687737109800,0.13510986328125,0.19712364673614502,-0.026951566338539124,-0.14726772904396057
1774472687747137800,0.1451376953125,0.2056414932012558,0.002468637889251113,-0.17608526349067688
1774472687757165600,0.15516552734375,0.1928795427083969,0.040539879351854324,-0.2082093358039856
1774472687767192800,0.16519287109375,0.16727857291698456,0.05663735419511795,-0.22301384806632996
1774472687777220600,0.175220703125,0.13674096763134003,0.029483795166015625,-0.213833749294281
1774472687787249000,0.185248779296875,0.11037567257881165,-0.011304914020001888,-0.19851525127887726
1774472687797276700,0.195276611328125,0.0891663208603859,-0.05566542595624924,-0.18221387267112732
1774472687807305000,0.205304931640625,0.08237845450639725,-0.08534768968820572,-0.17721325159072876
1774472687817331700,0.215331787109375,0.09504708647727966,-0.019106630235910416,-0.1599777340888977
1774472687827359700,0.22535986328125,0.12449871748685837,0.1119840070605278,-0.1343591958284378
1774472687837388000,0.235387939453125,0.16008463501930237,0.18743248283863068,-0.10058604925870895
1774472687847416000,0.245416015625,0.2092929184436798,0.1823865920305252,-0.06401179730892181
1774472687857444000,0.255444091796875,0.24814091622829437,0.12056072801351547,-0.032443128526210785
1774472687867471000,0.26547119140625,0.26299920678138733,0.0659579336643219,-0.0029169260524213314
1774472687877499100,0.2754990234375,0.26015716791152954,0.05049613490700722,0.020728152245283127
1774472687887527200,0.285527099609375,0.24777241051197052,0.11743707954883575,0.04908842220902443
1774472687897555200,0.29555517578125,0.2519848644733429,0.21647332608699799,0.0714341402053833
1774472687907583000,0.3055830078125,0.26743999123573303,0.2774285674095154,0.10001224279403687
1774472687917610200,0.3156103515625,0.2827247679233551,0.28529292345046997,0.1379600316286087
1774472687927638000,0.325637939453125,0.287924587726593,0.27130812406539917,0.18744848668575287
1774472687937666300,0.335666259765625,0.2639147937297821,0.22209866344928741,0.23607638478279114
1774472687947694000,0.345694091796875,0.2175222486257553,0.18230678141117096,0.28698351979255676
1774472687957722000,0.35572216796875,0.1890726238489151,0.17947717010974884,0.33738452196121216
1774472687967749000,0.3657490234375,0.18394523859024048,0.22378790378570557,0.377071738243103
1774472687977777000,0.37577685546875,0.2020082175731659,0.3060069680213928,0.3978085219860077
1774472687987805200,0.38580517578125,0.2277953326702118,0.40287119150161743,0.41125616431236267
1774472687997833000,0.3958330078125,0.22549331188201904,0.5143123269081116,0.4160985052585602
1774472688007861200,0.405861328125,0.15415708720684052,0.5514360070228577,0.4224533438682556
1774472688017888000,0.415887939453125,0.018667738884687424,0.6593834757804871,0.4661528766155243
1774472688027916300,0.425916259765625,-0.14849035441875458,0.6373966336250305,0.4622151255607605
1774472688037944000,0.435944091796875,-0.42341044545173645,0.8332760334014893,0.47361716628074646
1774472688047972000,0.44597216796875,-0.8724318742752075,1.259790301322937,0.492036372423172
1774472688058000100,0.456000244140625,-1.4096771478652954,1.6453688144683838,0.48178428411483765
1774472688068027100,0.466027099609375,-1.8927921056747437,1.8916773796081543,0.46219274401664734
1774472688078055200,0.47605517578125,-2.208489418029785,2.0611977577209473,0.4478777050971985
1774472688088083000,0.4860830078125,-2.0154318809509277,1.998258113861084,0.49513018131256104
1774472688098111200,0.496111328125,-1.7056097984313965,1.928450107574463,0.6371392011642456
1774472688108139000,0.506138916015625,-1.6580862998962402,1.96645188331604,0.6909955143928528
1774472688118166300,0.516166259765625,-1.9455392360687256,1.9981272220611572,0.7755853533744812
1774472688128194000,0.526194091796875,-2.439182758331299,1.7938716411590576,0.8877878189086914
1774472688138222300,0.536222412109375,-2.761359691619873,1.1348730325698853,0.9656500816345215
1774472688148250000,0.54625,-2.77890682220459,0.22980889678001404,0.9175171256065369
1774472688158278100,0.556278076171875,-2.713792562484741,-0.6440216898918152,0.7972724437713623
1774472688168306200,0.56630615234375,-2.793792963027954,-1.3568875789642334,0.6805194616317749
1774472688178333000,0.5763330078125,-3.057697296142578,-1.8536731004714966,0.5621097087860107
1774472688188361200,0.586361328125,-3.2999961376190186,-2.100400924682617,0.39168229699134827
1774472688198389000,0.596388916015625,-3.357731342315674,-2.166952133178711,0.12276522070169449
1774472688208417300,0.606417236328125,-3.0461418628692627,-2.07837176322937,-0.2538670003414154
1774472688218445000,0.616445068359375,-0.917499303817749,-1.999876618385315,-0.7262054085731506
1774472688228472300,0.626472412109375,0.658355712890625,-2.1980092525482178,-1.3283411264419556
1774472688238500000,0.6365,0.5936741828918457,-1.7620435953140259,-2.0611350536346436
1774472688248528100,0.646528076171875,0.5936797857284546,-1.6165438890457153,-2.0786783695220947
1774472688258556200,0.65655615234375,0.7172050476074219,-1.4686462879180908,-1.5345619916915894
1774472688268584000,0.666583984375,0.5800862908363342,-0.7623911499977112,-0.7452828288078308
1774472688278611200,0.676611083984375,0.28524893522262573,0.5935958623886108,0.07445591688156128
1774472688288639000,0.686638916015625,0.1885032206773758,2.020381212234497,0.7687092423439026
1774472688298667300,0.696667236328125,0.21409422159194946,2.5301620960235596,1.2129298448562622
1774472688308695000,0.706695068359375,0.2610388398170471,2.2936618328094482,1.4039394855499268
1774472688318723300,0.716723388671875,0.4867669343948364,1.9228309392929077,1.4446042776107788
1774472688328750000,0.72675,0.7324568629264832,1.9220548868179321,1.39589524269104
1774472688338778000,0.736778076171875,0.6964319944381714,2.0469391345977783,1.2209051847457886
1774472688348806100,0.74680615234375,0.5484558343887329,2.0698070526123047,0.9903408885002136
1774472688358834000,0.756833984375,0.61424720287323,1.898951768875122,0.7508634328842163
1774472688368862200,0.7668623046875,0.8925214409828186,1.2926397323608398,0.4950859844684601
1774472688378890000,0.776889892578125,0.9579721093177795,0.606051504611969,0.3312360346317291
1774472688388917200,0.786917236328125,0.8134562373161316,0.2923915982246399,0.3736817538738251
1774472688398945000,0.796945068359375,0.8129409551620483,0.6919168829917908,0.5187903642654419
1774472688408973300,0.806973388671875,0.9052512049674988,1.3530973196029663,0.664323627948761
1774472688419001000,0.8170009765625,0.9154583811759949,1.4142879247665405,0.6925976872444153
1774472688429029000,0.827029052734375,0.8533289432525635,0.8038811087608337,0.5214887857437134
1774472688439056100,0.83705615234375,0.813288688659668,0.2808701694011688,0.3003051280975342
1774472688449084200,0.847084228515625,0.654354453086853,-0.11652965843677521,0.004087585024535656
1774472688459112200,0.8571123046875,0.39474061131477356,-0.36708489060401917,-0.30695840716362
1774472688469140000,0.867139892578125,0.20885996520519257,-0.42869818210601807,-0.5894249677658081
1774472688479168300,0.877168212890625,0.10715929418802261,-0.5188187956809998,-0.7801164388656616
1774472688489195000,0.887195068359375,0.2026221752166748,-0.6667739152908325,-0.7495670318603516
1774472688499223300,0.897223388671875,0.3952818214893341,-0.9396084547042847,-0.48194798827171326
1774472688509251000,0.9072509765625,0.4564051032066345,-1.0352325439453125,-0.045596517622470856
1774472688519279000,0.917279052734375,0.46817633509635925,-0.40988701581954956,0.47258660197257996
1774472688529307100,0.92730712890625,0.4618092477321625,0.3191581070423126,1.0665208101272583
1774472688539334100,0.937334228515625,0.5364784002304077,0.5197217464447021,1.5151373147964478
1774472688549362200,0.947362060546875,0.6644476056098938,0.26284468173980713,1.9004594087600708
1774472688559390000,0.957389892578125,0.6816272735595703,-0.038800012320280075,2.0190370082855225
1774472688569418200,0.967418212890625,0.5690757036209106,-0.3148052394390106,1.7872079610824585
1774472688579446000,0.977446044921875,0.5932186841964722,0.01728210784494877,1.2413769960403442
1774472688589474300,0.987474365234375,0.6028838157653809,0.6536707878112793,0.6863545775413513
1774472688599501000,0.9975009765625,0.6063670516014099,0.7859978079795837,0.46818479895591736
1774472688609529000,1.007529052734375,0.5425118803977966,0.37377670407295227,0.5251240134239197
1774472688619557000,1.01755712890625,0.48302456736564636,-0.07445833086967468,0.5474777817726135
1774472688629585200,1.027585205078125,0.3863256275653839,-0.2845560908317566,0.45152515172958374
1774472688639613200,1.03761328125,0.22737537324428558,-0.39586904644966125,0.2446734607219696
1774472688649640200,1.04764013671875,0.0541391521692276,-0.5593189597129822,-0.048333920538425446
1774472688659668200,1.057668212890625,0.018951958045363426,-0.7562834024429321,-0.3523661196231842
1774472688669696000,1.067696044921875,0.07735640555620193,-0.889444887638092,-0.5645105838775635
1774472688679724300,1.077724365234375,0.10384953767061234,-1.0483614206314087,-0.6564947962760925
1774472688689752000,1.087751953125,0.11820796877145767,-1.221318244934082,-0.72722327709198
1774472688699780400,1.0977802734375,0.17784211039543152,-1.4579659700393677,-0.8764997124671936
1774472688709807000,1.10780712890625,0.2550080120563507,-1.772212028503418,-1.083814024925232
1774472688719835100,1.117835205078125,0.34987959265708923,-2.199645757675171,-1.3545174598693848
1774472688729863200,1.12786328125,0.4830254018306732,-2.692359447479248,-1.6924139261245728
1774472688739891000,1.137890869140625,0.6581429243087769,-2.953108549118042,-2.004115581512451
1774472688749919200,1.147919189453125,0.798819363117218,-2.8907992839813232,-2.1899938583374023
1774472688759946000,1.157946044921875,0.7898479700088501,-2.8329827785491943,-2.2931630611419678
1774472688769974300,1.167974365234375,0.6500359773635864,-2.789144992828369,-2.294041872024536
1774472688780002000,1.178001953125,0.6288949251174927,-2.341965436935425,-2.019982099533081
1774472688790030000,1.188030029296875,0.6297063827514648,-1.509993553161621,-1.4929815530776978
1774472688800058000,1.19805810546875,0.7160495519638062,-0.6766522526741028,-0.8919810652732849
1774472688810086000,1.2080859375,0.9427798986434937,-0.1395573914051056,-0.3635505437850952
1774472688820113200,1.218113037109375,1.2157576084136963,-0.15493027865886688,0.005336086265742779
1774472688830141200,1.22814111328125,1.4105414152145386,-0.47479191422462463,0.23521588742733002
1774472688840167700,1.238167724609375,1.4816828966140747,-0.6441848874092102,0.4189349412918091
1774472688850196000,1.248196044921875,1.4412065744400024,-0.4455162584781647,0.5777794122695923
1774472688860223700,1.2582236328125,1.3871644735336304,-0.02274261973798275,0.6721188426017761
1774472688870250800,1.268250732421875,1.2811753749847412,0.20483700931072235,0.6803786158561707
1774472688880278800,1.27827880859375,1.130946159362793,0.37859392166137695,0.5704212784767151
1774472688890306800,1.288306884765625,0.9479555487632751,0.6713853478431702,0.39020809531211853
1774472688900334800,1.2983349609375,0.8017438054084778,0.9809554219245911,0.17614048719406128
1774472688910362600,1.308362548828125,0.7574738264083862,1.1391868591308594,-0.03435762599110603
1774472688920391000,1.318390869140625,0.7474215030670166,1.171560525894165,-0.23357781767845154
1774472688930417700,1.328417724609375,0.75829017162323,1.1109546422958374,-0.3609355092048645
1774472688940446000,1.338446044921875,0.7880703806877136,0.9142017364501953,-0.4104693531990051
1774472688950473700,1.3484736328125,0.7714914083480835,0.6269891858100891,-0.43120524287223816
1774472688960501800,1.358501708984375,0.6385539174079895,0.2612720727920532,-0.43179449439048767
1774472688970529800,1.36852978515625,0.4532819986343384,-0.19389517605304718,-0.35377559065818787
1774472688980556800,1.378556884765625,0.2989142835140228,-0.44161519408226013,-0.11233586072921753
1774472688990584800,1.388584716796875,0.2199704647064209,-0.5049321055412292,0.25253477692604065
1774472689000612600,1.398612548828125,0.13614249229431152,-0.4135143756866455,0.5893601775169373
1774472689010641000,1.408640869140625,0.04148869216442108,-0.29243695735931396,0.7471799254417419
1774472689020668700,1.418668701171875,-0.03010435588657856,-0.22372253239154816,0.6496935486793518
1774472689030697000,1.428697021484375,-0.072564996778965,-0.41243013739585876,0.2400892972946167
1774472689040723700,1.4387236328125,-0.1197652593255043,-0.8505761027336121,-0.43114548921585083
1774472689050751700,1.448751708984375,-0.21027758717536926,-1.3333874940872192,-1.1909544467926025
1774472689060779800,1.45877978515625,-0.3173680305480957,-1.6578747034072876,-1.8409533500671387
1774472689070807800,1.468807861328125,-0.35221150517463684,-1.751196026802063,-2.2643940448760986
1774472689080835800,1.4788359375,-0.2706660032272339,-1.7700767517089844,-2.449446201324463
1774472689090862800,1.48886279296875,-0.06293145567178726,-1.798140287399292,-2.3992340564727783
1774472689100891000,1.498890869140625,0.2753000855445862,-1.8118720054626465,-2.1591012477874756
1774472689110918700,1.508918701171875,0.6850458383560181,-1.7911432981491089,-1.8213297128677368
1774472689120947000,1.518947021484375,1.0364357233047485,-1.8133050203323364,-1.474700689315796
1774472689130974700,1.528974609375,1.262633204460144,-1.6854168176651,-1.1964584589004517
1774472689141003000,1.5390029296875,1.3426083326339722,-1.4054315090179443,-1.041196584701538
1774472689151029800,1.54902978515625,1.302958607673645,-1.069248914718628,-1.0247286558151245
1774472689161057800,1.559057861328125,1.1944326162338257,-0.6357910633087158,-1.073360800743103
1774472689171085800,1.5690859375,1.043739676475525,-0.17461995780467987,-1.1200846433639526
1774472689181113600,1.579113525390625,0.848831295967102,0.3156021237373352,-1.0743458271026611
1774472689191142000,1.589141845703125,0.65082848072052,0.7966387867927551,-0.8593810796737671
1774472689201169000,1.5991689453125,0.5655443072319031,1.1992912292480469,-0.47759532928466797
1774472689211197000,1.609197021484375,0.640499472618103,1.3441342115402222,-0.08074275404214859
1774472689221224700,1.619224609375,0.7458406686782837,1.310970425605774,0.2305106520652771
1774472689231252700,1.629252685546875,0.8157020807266235,1.2131152153015137,0.4404146373271942
1774472689241280800,1.63928076171875,0.8209225535392761,1.1258524656295776,0.5648042559623718
1774472689251308800,1.649308837890625,0.7616952061653137,1.0227830410003662,0.5889623165130615
1774472689261335800,1.659335693359375,0.6767523288726807,0.8998587727546692,0.5179728865623474
1774472689271363800,1.66936376953125,0.6008927226066589,0.7629418969154358,0.35664284229278564
1774472689281391900,1.679391845703125,0.5550662875175476,0.6031131744384766,0.1494864821434021
1774472689291419600,1.689419677734375,0.538904070854187,0.37595775723457336,-0.06579334288835526
1774472689301448000,1.699447998046875,0.5215065479278564,0.1720133125782013,-0.2297973930835724
1774472689311474700,1.709474609375,0.48189571499824524,0.011684359051287174,-0.32369616627693176
1774472689321502700,1.719502685546875,0.43659767508506775,-0.11478004604578018,-0.3646835684776306
1774472689331530800,1.72953076171875,0.3624398410320282,-0.1640184223651886,-0.36701062321662903
1774472689341558800,1.739558837890625,0.2517736256122589,-0.2597652077674866,-0.375984251499176
1774472689351586800,1.7495869140625,0.12432510405778885,-0.3859950602054596,-0.39464420080184937
1774472689361614600,1.759614501953125,0.00552613427862525,-0.4248819947242737,-0.404127836227417
1774472689371641900,1.769641845703125,-0.09697546809911728,-0.4275853633880615,-0.401176780462265
1774472689381669600,1.779669677734375,-0.1785910278558731,-0.4723823666572571,-0.39762037992477417
1774472689391698000,1.789697998046875,-0.24381770193576813,-0.4896388649940491,-0.37057679891586304
1774472689401725700,1.7997255859375,-0.30480337142944336,-0.4751981794834137,-0.31097137928009033
1774472689411754000,1.80975390625,-0.34419021010398865,-0.4212273359298706,-0.23282866179943085
1774472689421781800,1.81978173828125,-0.35183852910995483,-0.32283684611320496,-0.16981001198291779
1774472689431808800,1.829808837890625,-0.3280029594898224,-0.21893256902694702,-0.12789957225322723
1774472689441836800,1.8398369140625,-0.28716155886650085,-0.12236683815717697,-0.1255349963903427
1774472689451864800,1.84986474609375,-0.24097861349582672,-0.03317171335220337,-0.16357426345348358
1774472689461892900,1.859892822265625,-0.17080003023147583,0.02328810654580593,-0.23881791532039642
1774472689471920600,1.869920654296875,-0.07152776420116425,0.04537742957472801,-0.3188784122467041
1774472689481949000,1.879948974609375,0.033716049045324326,0.07157303392887115,-0.40387624502182007
1774472689491975700,1.8899755859375,0.1302282214164734,0.05025229603052139,-0.469295471906662
1774472689502003700,1.900003662109375,0.2109629064798355,0.01928400620818138,-0.5064315795898438
1774472689512031700,1.91003173828125,0.2633824646472931,0.02535521239042282,-0.5121232867240906
1774472689522059800,1.920059814453125,0.3003980219364166,0.0070997863076627254,-0.4759373664855957
1774472689532087800,1.930087890625,0.32849356532096863,-0.010878415778279305,-0.42988041043281555
1774472689542114800,1.94011474609375,0.35696595907211304,0.007841484621167183,-0.36541569232940674
1774472689552142800,1.950142822265625,0.38330355286598206,0.012414398603141308,-0.28791186213493347
1774472689562170600,1.960170654296875,0.40110018849372864,-0.004131251014769077,-0.2010611742734909
1774472689572199000,1.970198974609375,0.3913247883319855,-0.0023277578875422478,-0.12454269826412201
1774472689582226700,1.980226806640625,0.3583499789237976,-0.004447955638170242,-0.04496809095144272
1774472689592255000,1.9902548828125,0.3212689161300659,-0.015375438146293163,0.02734472043812275
1774472689602281700,2.00028173828125,0.2854691445827484,-0.01514510903507471,0.09116658568382263
1774472689612309800,2.010309814453125,0.24541811645030975,-0.015416218899190426,0.11799208074808121
1774472689622337800,2.020337890625,0.20676006376743317,-0.0038710450753569603,0.10428266227245331
1774472689632365800,2.03036572265625,0.1828043907880783,-0.010439465753734112,0.04293008893728256
1774472689642393900,2.040393798828125,0.16511599719524384,-0.02316276542842388,-0.03884065896272659
1774472689652421600,2.050421630859375,0.14396704733371735,0.005819883197546005,-0.12256458401679993
1774472689662449000,2.060448974609375,0.11352156102657318,0.0543254092335701,-0.17883221805095673
1774472689672476700,2.0704765625,0.09549061954021454,0.07080904394388199,-0.1923629492521286
1774472689682505000,2.0805048828125,0.07540691643953323,0.08191279321908951,-0.17166399955749512
1774472689692532700,2.09053271484375,0.06010891869664192,0.09435002505779266,-0.139358252286911
1774472689702561000,2.10056103515625,0.07379067689180374,0.09408021718263626,-0.1114451214671135
1774472689712588800,2.1105888671875,0.10999502241611481,0.09511885046958923,-0.10387855023145676
1774472689722615800,2.12061572265625,0.1562451422214508,0.10952207446098328,-0.11081622540950775
1774472689732643800,2.130643798828125,0.19092749059200287,0.11668411642313004,-0.12410220503807068
1774472689742671600,2.140671630859375,0.2223810851573944,0.09443765133619308,-0.12784159183502197
1774472689752700000,2.150699951171875,0.2416442632675171,0.09295773506164551,-0.11211855709552765
1774472689762727700,2.160727783203125,0.2585636377334595,0.08580368757247925,-0.07741200923919678
1774472689772756000,2.170755859375,0.2749497890472412,0.085157610476017,-0.019534863531589508
1774472689782782700,2.18078271484375,0.2849940061569214,0.07800546288490295,0.04977717250585556
1774472689792810800,2.190810791015625,0.29138293862342834,0.05922165513038635,0.12026972323656082
1774472689802838800,2.2008388671875,0.2899668216705322,0.02828793227672577,0.1914290338754654
1774472689812866600,2.210866455078125,0.2802281677722931,-0.01058090291917324,0.2596656084060669
1774472689822894800,2.220894775390625,0.2603655457496643,-0.020220186561346054,0.3186367154121399
1774472689832922600,2.230922607421875,0.24152658879756927,-0.0018153470009565353,0.3533558249473572
1774472689842950400,2.240950439453125,0.23841936886310577,0.03129200637340546,0.36966967582702637
1774472689852978200,2.250978271484375,0.24645572900772095,0.07118137180805206,0.3555346727371216
1774472689863006500,2.26100634765625,0.26589688658714294,0.10342472791671753,0.3191547989845276
1774472689873034200,2.2710341796875,0.2874884605407715,0.10491636395454407,0.26241669058799744
1774472689883062000,2.28106201171875,0.32944557070732117,0.10259093344211578,0.20976215600967407
1774472689893090300,2.29109033203125,0.38101449608802795,0.09876877069473267,0.16250063478946686
1774472689903117000,2.301116943359375,0.42441514134407043,0.10693536698818207,0.1220555379986763
1774472689913145300,2.311145263671875,0.45899176597595215,0.12288477271795273,0.09650170058012009
1774472689923173000,2.321173095703125,0.4748474359512329,0.12032441049814224,0.09536240249872208
1774472689933201400,2.331201416015625,0.46265894174575806,0.09204376488924026,0.11593345552682877
1774472689943229200,2.341229248046875,0.42942795157432556,0.05169420316815376,0.14262931048870087
1774472689953257200,2.35125732421875,0.3767772614955902,0.027947328984737396,0.16947823762893677
1774472689963284200,2.3612841796875,0.3343432545661926,0.005847903899848461,0.18836696445941925
1774472689973312300,2.371312255859375,0.3079260289669037,-0.02440693788230419,0.18292559683322906
1774472689983340300,2.38134033203125,0.30187517404556274,-0.02321629412472248,0.16391777992248535
1774472689993368000,2.3913681640625,0.30483952164649963,0.0230657160282135,0.14001110196113586
1774472690003396400,2.401396240234375,0.3040226399898529,0.10244102030992508,0.10190904140472412
1774472690013424000,2.411424072265625,0.2886087894439697,0.18355078995227814,0.07014365494251251
1774472690023451400,2.421451416015625,0.306035578250885,0.38402822613716125,-0.05448121577501297
1774472690033479200,2.431479248046875,0.36984384059906006,0.8720521926879883,-0.3592672049999237
1774472690043507500,2.441507568359375,0.3641064167022705,0.9813629984855652,-0.5195518136024475
1774472690053535200,2.45153515625,0.3237459659576416,1.093147873878479,-0.5890371203422546
1774472690063563300,2.461563232421875,0.22015175223350525,0.8730553984642029,-0.49863991141319275
1774472690073591300,2.47159130859375,0.1131289005279541,0.669215977191925,-0.3513444662094116
1774472690083619300,2.481619384765625,0.03561393544077873,0.5106572508811951,-0.20644041895866394
1774472690093646300,2.491646240234375,0.007949819788336754,0.4227047860622406,-0.11763304471969604
1774472690103674000,2.501674072265625,0.029469367116689682,0.3667336404323578,-0.06573162227869034
1774472690113702400,2.511702392578125,0.10929308831691742,0.2498546987771988,-0.0017579658888280392
1774472690123730200,2.521730224609375,0.2120942771434784,0.09281530231237411,0.10463931411504745
1774472690133758200,2.53175830078125,0.31534236669540405,-0.08486254513263702,0.202658012509346
1774472690143786200,2.5417861328125,0.36769989132881165,-0.43016189336776733,0.3219793438911438
1774472690153813200,2.551813232421875,0.3255487084388733,-0.6027296185493469,0.36627197265625
1774472690163841300,2.56184130859375,0.2693479359149933,-0.6284254193305969,0.2866823971271515
1774472690173869000,2.571869140625,0.1847265213727951,-0.6681651473045349,0.14316891133785248
1774472690183897300,2.5818974609375,-0.28842949867248535,-0.774345338344574,0.33560144901275635
1774472690193925000,2.591925048828125,-0.42138487100601196,-0.655623733997345,0.6768205165863037
1774472690203953200,2.601953125,-0.1595456600189209,-0.47709107398986816,0.8182907104492188
1774472690213980200,2.611980224609375,0.056194085627794266,-0.40661290287971497,0.803785502910614
1774472690224008400,2.622008544921875,0.2057536542415619,-0.3666548430919647,0.7135904431343079
1774472690234036200,2.6320361328125,0.2959701120853424,-0.35112327337265015,0.563549816608429
1774472690244064300,2.642064208984375,0.321990042924881,-0.4812636971473694,0.4036730229854584
1774472690254092300,2.65209228515625,0.2987712621688843,-0.7555357217788696,0.2116420418024063
1774472690264120300,2.662120361328125,0.24034036695957184,-0.5995743274688721,-0.10461463034152985
1774472690274147300,2.672147216796875,0.16167165338993073,-0.24676570296287537,-0.4303802251815796
1774472690284175000,2.682175048828125,0.056147754192352295,0.03495918959379196,-0.6615036129951477
1774472690294203400,2.692203369140625,-0.08038851618766785,0.01718578301370144,-0.7842369675636292
1774472690304231200,2.702231201171875,-0.2295733094215393,0.10082156211137772,-0.8665759563446045
1774472690314259200,2.71225927734375,-0.24134953320026398,0.2505442202091217,-1.04250967502594
1774472690324287200,2.722287353515625,-0.07892215996980667,0.40176036953926086,-1.3448566198349
1774472690334314200,2.732314208984375,0.08226700127124786,0.4312695264816284,-1.5755398273468018
1774472690344342300,2.74234228515625,0.07346800714731216,0.30249983072280884,-1.6409728527069092
1774472690354370300,2.752370361328125,0.0021624069195240736,0.15648162364959717,-1.5488085746765137
1774472690364398300,2.7623984375,-0.023038845509290695,-0.19564500451087952,-1.1553655862808228
1774472690374426000,2.772426025390625,-0.0476166270673275,-0.12911498546600342,-0.8054264783859253
1774472690384454100,2.7824541015625,-0.1356206089258194,-0.12446241825819016,-0.6186032891273499
1774472690394482200,2.792482177734375,-0.14051896333694458,-0.021366935223340988,-0.6209825277328491
1774472690404509200,2.80250927734375,-0.10090555250644684,0.05377709120512009,-0.7860696911811829
1774472690414537200,2.812537109375,-0.020393405109643936,0.1373968869447708,-0.9873670935630798
1774472690424565200,2.822565185546875,0.08122562617063522,0.1972961574792862,-1.171463131904602
1774472690434593300,2.83259326171875,0.20335686206817627,0.22357170283794403,-1.28916335105896
1774472690444621300,2.842621337890625,0.33836957812309265,0.28094950318336487,-1.3425683975219727
1774472690454649000,2.852649169921875,0.5044426918029785,0.4000418186187744,-1.3384056091308594
1774472690464676000,2.862676025390625,0.7460417747497559,0.564069926738739,-1.1681973934173584
1774472690474704400,2.872704345703125,0.8511343598365784,0.7054017186164856,-0.9381101131439209
1774472690484732200,2.882732177734375,0.8352801203727722,0.7804471850395203,-0.8080435395240784
1774472690494760200,2.89276025390625,0.8686167597770691,0.8153333067893982,-0.7785785794258118
1774472690504788200,2.902788330078125,0.9514442682266235,0.8706737756729126,-0.7674902677536011
1774472690514816300,2.912816162109375,1.0002150535583496,0.9504642486572266,-0.7495357990264893
1774472690524843300,2.92284326171875,1.0125480890274048,0.8127793073654175,-0.6968351006507874
1774472690534871300,2.932871337890625,0.9857823252677917,0.44420957565307617,-0.657501757144928
1774472690544899300,2.9428994140625,0.9809133410453796,0.16092059016227722,-0.7451049089431763
1774472690554927400,2.95292724609375,1.0366594791412354,0.06796028465032578,-0.9322313666343689
1774472690564955100,2.962955078125,1.1541357040405273,0.20918318629264832,-1.2542608976364136
1774472690574983400,2.9729833984375,1.2631733417510986,0.4122459888458252,-1.6304340362548828
1774472690585011200,2.98301123046875,1.338757872581482,0.5340003967285156,-1.9308806657791138
1774472690595038200,2.9930380859375,1.4351691007614136,0.6217020153999329,-2.1581103801727295
1774472690605066200,3.003066162109375,1.5397320985794067,0.681000828742981,-2.3249053955078125
1774472690615094300,3.01309423828125,1.6676636934280396,0.7877339124679565,-2.4370250701904297
1774472690625122300,3.023122314453125,1.7951982021331787,0.8830884099006653,-2.475003480911255
1774472690635150000,3.033150146484375,1.8855271339416504,0.825283408164978,-2.4313838481903076
1774472690645178400,3.043178466796875,1.9266005754470825,0.6626273393630981,-2.3159520626068115
1774472690655205400,3.053205322265625,1.9449890851974487,0.598440945148468,-2.140695810317993
1774472690665233200,3.063233154296875,1.9228785037994385,0.6557444334030151,-1.9036543369293213
1774472690675261200,3.07326123046875,1.8327385187149048,0.6871159076690674,-1.6018058061599731
1774472690685289200,3.083289306640625,1.7294844388961792,0.5646650791168213,-1.2682507038116455
1774472690695317200,3.093317138671875,1.6633262634277344,0.3679019808769226,-0.9885969758033752
1774472690705345300,3.10334521484375,1.6033750772476196,0.11163505911827087,-0.7770544290542603
1774472690715373300,3.113373291015625,1.5867338180541992,-0.09480386972427368,-0.6131312847137451
1774472690725400300,3.123400390625,1.5992050170898438,-0.2855154871940613,-0.4547908902168274
1774472690735428400,3.133428466796875,1.5740203857421875,-0.25156283378601074,-0.3388105034828186
1774472690745456000,3.1434560546875,1.5519342422485352,0.061711426824331284,-0.2541336119174957
1774472690755484400,3.153484375,1.5257271528244019,0.40888670086860657,-0.1887732446193695
1774472690765512200,3.16351220703125,1.4580522775650024,0.6128491163253784,-0.14806529879570007
1774472690775540200,3.173540283203125,1.4021722078323364,0.6174244284629822,-0.1509215533733368
1774472690785567200,3.183567138671875,1.3500901460647583,-0.4626290202140808,-0.0059865135699510574
1774472690795595300,3.19359521484375,1.607603907585144,-1.0351747274398804,0.14108681678771973
1774472690805623300,3.203623291015625,1.7690271139144897,-0.8958760499954224,0.08171975612640381
1774472690815651000,3.213651123046875,1.8513129949569702,-0.6957085728645325,-0.031057391315698624
1774472690825679400,3.223679443359375,2.024515390396118,-0.9147709012031555,-0.09407080709934235
1774472690835707000,3.233706787109375,2.1368188858032227,-0.9953781366348267,-0.15220123529434204
1774472690845735000,3.24373486328125,2.2840576171875,-1.246097445487976,-0.14183184504508972
1774472690855761700,3.25376171875,2.3641159534454346,-1.537715196609497,-0.048866767436265945
1774472690865790000,3.2637900390625,2.323336124420166,-1.9648114442825317,0.04803387075662613
1774472690875817700,3.273817626953125,2.1801540851593018,-2.266071319580078,0.129927396774292
1774472690885846000,3.283845947265625,2.0173845291137695,-2.3939197063446045,0.20490671694278717
1774472690895873800,3.293873779296875,1.8256174325942993,-2.297109842300415,0.2693603038787842
1774472690905901800,3.30390185546875,1.6328996419906616,-1.9133849143981934,0.3267313241958618
1774472690915928800,3.3139287109375,1.454822063446045,-1.3541961908340454,0.4187107980251312
1774472690925956900,3.323956787109375,1.3095406293869019,-0.786955714225769,0.5480497479438782
1774472690935985000,3.33398486328125,1.226868987083435,-0.29842543601989746,0.670367419719696
1774472690946013000,3.344012939453125,1.2197909355163574,0.04621048644185066,0.7291787266731262
1774472690956041000,3.354041015625,1.2669538259506226,0.25868865847587585,0.7182232737541199
1774472690966069000,3.364069091796875,1.3423125743865967,0.34936854243278503,0.6478023529052734
1774472690976096800,3.3740966796875,1.4281177520751953,0.29186052083969116,0.5333902835845947
1774472690986123800,3.384123779296875,1.4954042434692383,0.0844564363360405,0.3900451958179474
1774472690996151800,3.39415185546875,1.5203546285629272,-0.18356569111347198,0.20409157872200012
1774472691006179800,3.404179931640625,1.535605788230896,-0.47545456886291504,0.008608095347881317
1774472691016208000,3.414207763671875,1.5271466970443726,-0.7572545409202576,-0.1999504417181015
1774472691026236000,3.42423583984375,1.508557677268982,-0.9927034974098206,-0.42759987711906433
1774472691036264000,3.434263916015625,1.528796911239624,-1.0979444980621338,-0.6716956496238708
1774472691046291700,3.444291748046875,1.6179041862487793,-1.2093183994293213,-0.9061477184295654
1774472691056318700,3.454318603515625,1.755025863647461,-1.4018806219100952,-1.1273202896118164
1774472691066347000,3.464346923828125,1.9219043254852295,-1.5470317602157593,-1.386019229888916
1774472691076374800,3.474374755859375,2.1548123359680176,-1.6210817098617554,-1.6715444326400757
1774472691086402800,3.48440283203125,2.4143524169921875,-1.7846674919128418,-1.9203698635101318
1774472691096430800,3.494430908203125,2.6553597450256348,-2.0768418312072754,-2.1378626823425293
1774472691106459000,3.504458984375,2.8911447525024414,-2.5389280319213867,-2.308837413787842
1774472691116486000,3.51448583984375,3.0835418701171875,-3.1029844284057617,-2.4448390007019043
1774472691126514000,3.524513916015625,3.2567551136016846,-3.7059545516967773,-2.5456409454345703
1774472691136542000,3.5345419921875,3.4005420207977295,-4.232032775878906,-2.5935049057006836
1774472691146570000,3.544570068359375,3.5127031803131104,-4.622162342071533,-2.5920965671539307
1774472691156597800,3.55459765625,3.5864264965057373,-4.926354885101318,-2.5218007564544678
1774472691166626000,3.5646259765625,3.5974507331848145,-5.198716640472412,-2.4038984775543213
1774472691176653800,3.57465380859375,3.5588536262512207,-5.476817607879639,-2.35089373588562
1774472691186680800,3.584680908203125,3.4753873348236084,-5.572175025939941,-2.334700107574463
1774472691196708900,3.594708984375,2.9380650520324707,-6.485081672668457,-2.4395194053649902
1774472691206737000,3.60473681640625,2.2831599712371826,-6.310810565948486,-1.517640471458435
1774472691216765000,3.614764892578125,2.3022401332855225,-5.457566261291504,0.22501017153263092
1774472691226792700,3.624792724609375,2.1635353565216064,-4.690364360809326,1.0175868272781372
1774472691236821000,3.634821044921875,2.0842154026031494,-3.542771816253662,1.9712225198745728
1774472691246848800,3.644848876953125,1.491592288017273,-2.8897664546966553,2.282423496246338
1774472691256875800,3.654875732421875,0.6739059090614319,-2.6343061923980713,1.9147509336471558
1774472691266903800,3.66490380859375,-0.009299800731241703,-2.3597192764282227,1.3533411026000977
1774472691276931800,3.674931884765625,-0.4464116096496582,-1.9471503496170044,0.7738953232765198
1774472691286959900,3.6849599609375,-0.8934119939804077,-1.4947943687438965,0.16926640272140503
1774472691296987600,3.694987548828125,-1.3499810695648193,-1.1936513185501099,-0.1978527307510376
1774472691307016000,3.705015869140625,-1.6115049123764038,-1.530604600906372,-0.1236085593700409
1774472691317043700,3.715043701171875,-1.5795701742172241,-2.5170297622680664,0.18794506788253784
1774472691327071000,3.725071044921875,-1.364501714706421,-3.895822525024414,0.45507362484931946
1774472691337098800,3.7350986328125,-1.0711675882339478,-5.17753791809082,0.6546067595481873
1774472691347127000,3.745126953125,-0.9533540606498718,-6.235861778259277,0.8340118527412415
1774472691357154800,3.75515478515625,-0.8871987462043762,-6.827831268310547,0.9577447175979614
1774472691367182800,3.765182861328125,-0.780174970626831,-6.763484954833984,1.014385461807251
1774472691377211000,3.7752109375,-0.7297980785369873,-6.239445686340332,1.0163182020187378
1774472691387239000,3.785239013671875,-0.9963534474372864,-3.9507076740264893,-0.06579659134149551
1774472691397266000,3.795265869140625,-1.4939587116241455,-2.998272180557251,-1.2320683002471924
1774472691407293700,3.805293701171875,-1.8017897605895996,-1.6805673837661743,-2.442984104156494
1774472691417322000,3.815322021484375,-1.9757802486419678,-0.7905765771865845,-3.2041237354278564
1774472691427349800,3.825349853515625,-2.2613117694854736,-0.5794747471809387,-3.4865219593048096
1774472691437378000,3.8353779296875,-2.4842844009399414,-0.7808552384376526,-3.385406970977783
1774472691447405800,3.84540576171875,-2.6125526428222656,-1.159249186515808,-3.032210111618042
1774472691457433900,3.855433837890625,-2.6099886894226074,-1.4706746339797974,-2.5078694820404053
1774472691467460900,3.8654609375,-2.605215311050415,-1.8432005643844604,-1.8887780904769897
1774472691477488600,3.875488525390625,-2.643963575363159,-2.1819751262664795,-1.248632788658142
1774472691487517000,3.885516845703125,-2.7057671546936035,-2.2962305545806885,-0.5905660390853882
1774472691497544700,3.895544677734375,-2.7051987648010254,-2.1539082527160645,0.07225346565246582
1774472691507573000,3.905572998046875,-2.652790069580078,-1.8709720373153687,0.7354292869567871
1774472691517600800,3.915600830078125,-2.711364269256592,-1.5542614459991455,1.3419581651687622
1774472691527628000,3.9256279296875,-3.0671839714050293,-1.1369352340698242,1.8732725381851196
1774472691537655800,3.93565576171875,-3.9060423374176025,-0.3967699110507965,2.2841031551361084
1774472691547683800,3.945683837890625,-5.170337677001953,0.4164000153541565,2.4685559272766113
1774472691557712000,3.9557119140625,-6.042392253875732,1.2529428005218506,2.428924322128296
1774472691567740000,3.965739990234375,-6.082525730133057,1.9178729057312012,2.149441719055176
1774472691577768000,3.975767822265625,-5.675264835357666,2.225290060043335,1.6171696186065674
1774472691587796000,3.9857958984375,-5.323788642883301,2.302891731262207,1.0761494636535645
1774472691597823700,3.99582373046875,-4.8578901290893555,1.668188214302063,1.4805529117584229
1774472691607850800,4.005850830078125,-4.022736549377441,-0.06783139705657959,2.199328899383545
1774472691617879000,4.015879150390625,-3.721925973892212,-0.5202800631523132,1.6871180534362793
1774472691627906800,4.02590673828125,-4.066251277923584,0.09960683435201645,0.4991645812988281
1774472691637934800,4.035934814453125,-4.329334735870361,0.36639460921287537,-0.6244726181030273
1774472691647963000,4.045962890625,-4.34808349609375,0.41938963532447815,-1.8057146072387695
1774472691657991000,4.055990966796875,-3.988616704940796,0.45800280570983887,-2.9937775135040283
1774472691668018000,4.066017822265625,-3.3748769760131836,-0.14815634489059448,-4.190865993499756
1774472691678045700,4.076045654296875,-2.665695905685425,-0.757357656955719,-5.3605427742004395
1774472691688074000,4.086073974609375,-2.0440871715545654,-1.5434108972549438,-6.388631820678711
1774472691698101800,4.096101806640625,-1.486354112625122,-2.245401620864868,-7.245566368103027
1774472691708129800,4.1061298828125,-0.6678496599197388,-0.8937075138092041,-5.086783409118652
1774472691718157800,4.11615771484375,0.5357169508934021,0.6832891702651978,-0.7345433831214905
1774472691728185900,4.126185791015625,0.9571600556373596,1.8629584312438965,3.464670419692993
1774472691738214000,4.1362138671875,0.650700032711029,1.1333996057510376,4.752752304077148
1774472691748241000,4.146240966796875,0.8180450201034546,0.575386643409729,4.447997570037842
1774472691758269000,4.15626904296875,1.5103598833084106,1.1005280017852783,4.749731063842773
1774472691768297000,4.166296875,1.8069484233856201,1.3967300653457642,5.6648054122924805
1774472691778324700,4.17632470703125,1.1228866577148438,0.9381284117698669,5.65261173248291
1774472691788353000,4.18635302734375,0.8451102375984192,0.8758975267410278,5.051571369171143
1774472691798380800,4.196380859375,0.5194045305252075,0.86146479845047,4.279539108276367
1774472691808407800,4.20640771484375,0.4406941533088684,1.0619075298309326,3.584871768951416
1774472691818435800,4.216435791015625,0.569324791431427,0.9569910168647766,2.903919219970703
1774472691828463900,4.2264638671875,0.7234097123146057,0.7465329170227051,2.1704084873199463
1774472691838491600,4.23649169921875,0.7970772981643677,0.5316120982170105,1.4710170030593872
1774472691848519700,4.246519775390625,0.7254268527030945,0.3864423632621765,0.8055105209350586
1774472691858547700,4.256547607421875,0.5504047274589539,0.3842918574810028,0.23130638897418976
1774472691868575700,4.26657568359375,0.28150808811187744,0.5411754846572876,-0.22526812553405762
1774472691878602800,4.276602783203125,-0.0749959647655487,0.7235332727432251,-0.5415344834327698
1774472691888630800,4.286630859375,-0.5041766166687012,0.9190098643302917,-0.6863607168197632
1774472691898658800,4.296658935546875,-1.0430821180343628,1.1307047605514526,-0.6507523655891418
1774472691908686800,4.306686767578125,-1.729827880859375,1.4818124771118164,-0.4137287139892578
1774472691918715000,4.31671484375,-2.215998888015747,2.08978271484375,-0.09446925669908524
1774472691928743000,4.326742919921875,-2.485522747039795,2.8421549797058105,0.25289613008499146
1774472691938770700,4.336770751953125,-2.6763665676116943,3.4178404808044434,0.5646920800209045
1774472691948797700,4.346797607421875,-2.7496225833892822,3.3256020545959473,0.5557979941368103
1774472691958825700,4.35682568359375,-2.790175199508667,2.4617793560028076,0.10733737796545029
1774472691968853800,4.366853759765625,-2.9004876613616943,1.0442993640899658,-0.8328971862792969
1774472691978881800,4.3768818359375,-3.079357147216797,-0.14821171760559082,-2.1737170219421387
1774472691988909800,4.386909912109375,-3.2129836082458496,-0.9971693754196167,-3.5078208446502686
1774472691998937900,4.396937744140625,-3.3892431259155273,-1.7250232696533203,-4.66240930557251
1774472692008965600,4.406965576171875,-3.5700325965881348,-2.2908849716186523,-5.6077070236206055
1774472692018993000,4.416992919921875,-3.7009074687957764,-2.6681628227233887,-6.36647891998291
1774472692029020700,4.427020751953125,-3.715731143951416,-2.97715425491333,-6.925187587738037
1774472692039048700,4.437048583984375,-3.570679187774658,-3.299388885498047,-7.264106750488281
1774472692049076700,4.44707666015625,-3.285752534866333,-3.659306764602661,-7.41356086730957
1774472692059104800,4.457104736328125,-2.8422462940216064,-3.978675365447998,-7.447445392608643
1774472692069132800,4.4671328125,-2.1952145099639893,-4.11985969543457,-7.382972240447998
1774472692079160600,4.47716064453125,-1.405866265296936,-4.082022190093994,-7.1589202880859375
1774472692089188900,4.48718896484375,-0.5842797756195068,-3.968806028366089,-6.655849933624268
1774472692099216000,4.4972158203125,0.1899184286594391,-3.8729045391082764,-5.819283962249756
1774472692109244000,4.507243896484375,0.9227776527404785,-3.7426888942718506,-4.638978004455566
1774472692119271700,4.517271728515625,1.5912166833877563,-3.508497476577759,-3.2449450492858887
1774472692129300000,4.527300048828125,2.1262259483337402,-3.2156524658203125,-1.788038969039917
1774472692139327700,4.53732763671875,2.481720209121704,-2.921318769454956,-0.40661633014678955
1774472692149355800,4.547355712890625,2.7136940956115723,-2.7605621814727783,0.766304612159729
1774472692159383800,4.5573837890625,2.867297410964966,-2.787626028060913,1.6434690952301025
1774472692169410800,4.567410888671875,2.966373920440674,-3.0120527744293213,2.1976966857910156
1774472692179438800,4.57743896484375,2.994050979614258,-3.341639518737793,2.432060480117798
1774472692189466600,4.587466552734375,2.881774663925171,-3.4575371742248535,2.3523733615875244
1774472692199495000,4.597494873046875,2.7181546688079834,-3.2347142696380615,2.0213212966918945
1774472692209522700,4.607522705078125,2.5874834060668945,-2.883662700653076,1.482758641242981
1774472692219551000,4.617551025390625,2.5310614109039307,-2.599210500717163,0.8425742387771606
1774472692229578800,4.627578857421875,2.52297306060791,-2.6906774044036865,0.2017054557800293
1774472692239605800,4.637605712890625,2.6289823055267334,-3.1051230430603027,-0.40486809611320496
1774472692249633800,4.6476337890625,2.9265875816345215,-3.5939090251922607,-0.9803270697593689
1774472692259661600,4.65766162109375,3.303318500518799,-4.115229606628418,-1.4763938188552856
1774472692269689900,4.66768994140625,3.651021718978882,-4.602226257324219,-1.8047279119491577
1774472692279717600,4.677717529296875,3.886420488357544,-4.719387054443359,-1.8706400394439697
1774472692289746000,4.687745849609375,3.918586254119873,-4.341638088226318,-1.7222778797149658
1774472692299773700,4.697773681640625,3.6357200145721436,-3.2768747806549072,-1.6085667610168457
1774472692309801700,4.7078017578125,3.268543243408203,-2.081357002258301,-1.3439151048660278
1774472692319828700,4.717828857421875,2.925140142440796,-1.1742353439331055,-0.9334779977798462
1774472692329856800,4.727856689453125,2.643418550491333,-0.9023240208625793,-0.46176066994667053
1774472692339884800,4.737884765625,2.528860092163086,-0.9886913895606995,-0.07799302786588669
1774472692349912800,4.747912841796875,2.4698925018310547,-1.1904265880584717,0.05607932060956955
1774472692359940900,4.75794091796875,2.3937013149261475,-1.4158682823181152,0.05011197179555893
1774472692369969000,4.767968994140625,2.4850196838378906,-1.6814258098602295,-0.017554018646478653
1774472692379996700,4.77799658203125,2.6667063236236572,-1.8084043264389038,0.011918384581804276
1774472692390023700,4.788023681640625,2.7781548500061035,-1.6668972969055176,0.20403191447257996
1774472692400051700,4.7980517578125,2.8153133392333984,-1.58029043674469,0.3567953407764435
1774472692410079700,4.808079833984375,2.6919925212860107,-1.6369457244873047,0.5270366072654724
1774472692420107800,4.818107666015625,2.42112135887146,-1.6874775886535645,0.5615589022636414
1774472692430135800,4.8281357421875,2.120978355407715,-1.7158570289611816,0.4862488806247711
1774472692440163800,4.838163818359375,1.9230283498764038,-1.7573879957199097,0.37221336364746094
1774472692450191600,4.848191650390625,1.7962325811386108,-1.553469181060791,0.35045382380485535
1774472692460218600,4.858218505859375,1.680327296257019,-1.074459433555603,0.4069165587425232
1774472692470247000,4.868246826171875,1.4648555517196655,-0.4802424907684326,0.5456611514091492
1774472692480274700,4.878274658203125,1.2450541257858276,-0.08693116903305054,0.7340286374092102
1774472692490302700,4.888302734375,1.114150881767273,0.01845141313970089,0.8846475481987
1774472692500330800,4.898330810546875,1.0278639793395996,-0.1886884570121765,0.9022291898727417
1774472692510358800,4.90835888671875,0.9514463543891907,-0.48933401703834534,0.6623974442481995
1774472692520386800,4.91838671875,0.5993479490280151,-0.524217426776886,0.48600298166275024
1774472692530414800,4.928414794921875,0.1663767248392105,-0.33772414922714233,0.5261384844779968
1774472692540441900,4.93844189453125,-0.0714358389377594,-0.054708436131477356,0.6942108273506165
1774472692550470000,4.948469970703125,0.04749620333313942,-0.0022796080447733402,0.7645086646080017
1774472692560497700,4.95849755859375,0.28566187620162964,-0.2639666199684143,0.6644979119300842
1774472692570526000,4.96852587890625,0.5904066562652588,-0.6674147248268127,0.3859610855579376
1774472692580553700,4.9785537109375,0.6858373284339905,-1.1255781650543213,-0.02547997236251831
1774472692590582000,4.98858203125,0.44535237550735474,-1.4797859191894531,-0.3946392238140106
1774472692600609800,4.99860986328125,0.1836850494146347,-1.6125389337539673,-0.704498291015625
1774472692610636800,5.00863671875,0.08668351918458939,-1.62259840965271,-0.9051286578178406
1774472692620664800,5.018664794921875,0.12662187218666077,-1.6879467964172363,-1.0059325695037842
1774472692630692600,5.028692626953125,0.2336273342370987,-1.788151741027832,-1.0542360544204712
1774472692640721000,5.038720947265625,0.35980018973350525,-1.9286757707595825,-1.1375786066055298
1774472692650748700,5.048748779296875,0.43668073415756226,-2.1059927940368652,-1.3180567026138306
1774472692660777000,5.05877685546875,0.40298375487327576,-2.1862127780914307,-1.5472168922424316
1774472692670804700,5.0688046875,0.21857333183288574,-2.1073343753814697,-1.7871421575546265
1774472692680832800,5.078832763671875,-0.07555896043777466,-1.9063432216644287,-2.046747922897339
1774472692690859800,5.08885986328125,-0.3667123317718506,-1.6778264045715332,-2.4027633666992188
1774472692700887800,5.0988876953125,-0.4113709032535553,-1.5204399824142456,-2.8294074535369873
1774472692710915800,5.108915771484375,-0.35564571619033813,-1.4322948455810547,-3.341707706451416
1774472692720943600,5.118943603515625,-0.3112731873989105,-1.38421630859375,-3.889650583267212
1774472692730972000,5.128971923828125,-0.4364953637123108,-1.1941312551498413,-4.298104286193848
1774472692740999700,5.138999755859375,-0.8553357720375061,-0.7846196293830872,-4.4027605056762695
1774472692751027700,5.14902783203125,-1.1012279987335205,-0.24256013333797455,-4.044105052947998
1774472692761054700,5.1590546875,-0.4976818859577179,-1.3130446672439575,1.313659429550171
1774472692771082800,5.169082763671875,0.7793537974357605,0.9809786081314087,3.1969919204711914
1774472692781110800,5.17911083984375,-0.15758249163627625,2.2596242427825928,1.637068748474121
1774472692791138800,5.189138916015625,-1.3486855030059814,2.121786117553711,0.18650414049625397
1774472692801166800,5.199166748046875,-1.5406807661056519,1.232330322265625,-0.29652589559555054
1774472692811195000,5.20919482421875,-0.8852956295013428,0.19509869813919067,0.4665140211582184
1774472692821222700,5.21922265625,-0.4135025441646576,0.20464693009853363,0.8917060494422913
1774472692831250700,5.229250732421875,-0.481280654668808,0.7195192575454712,0.5262734293937683
1774472692841279200,5.239279296875,-0.7246789932250977,1.1343554258346558,0.2545769214630127
1774472692851307300,5.249307373046875,-0.9737048149108887,1.311952829360962,0.27437543869018555
1774472692861335000,5.2593349609375,-1.272479772567749,1.430532693862915,0.37027186155319214
1774472692871363000,5.269363037109375,-1.5395692586898804,1.5910016298294067,0.4959051311016083
1774472692881391000,5.27939111328125,-1.7631014585494995,1.7062714099884033,0.5636931657791138
1774472692891419100,5.289419189453125,-1.7807780504226685,1.9515950679779053,0.4241771697998047
1774472692901447200,5.299447265625,-1.5726408958435059,2.1318485736846924,0.08763935416936874
1774472692911475200,5.30947509765625,-1.305783748626709,1.8533620834350586,-0.24713951349258423
1774472692921502200,5.319502197265625,-1.2913893461227417,1.2925376892089844,-0.41799086332321167
1774472692931530200,5.3295302734375,-1.2400462627410889,0.8620300889015198,-0.45263373851776123
1774472692941558000,5.33955810546875,-1.087790608406067,0.62784743309021,-0.4332030415534973
1774472692951586300,5.34958642578125,-0.9571837782859802,0.5223703384399414,-0.3625636696815491
1774472692961614000,5.359614013671875,-0.7276160717010498,0.39670270681381226,-0.3226175904273987
1774472692971642400,5.369642333984375,-0.5125171542167664,0.09325489401817322,-0.37401703000068665
1774472692981670100,5.379670166015625,-0.43833398818969727,-0.2760395109653473,-0.5265064239501953
1774472692991698200,5.3896982421875,-0.4126623868942261,-0.5405928492546082,-0.7678858637809753
1774472693001725200,5.39972509765625,-0.3746558725833893,-0.800775945186615,-1.0029125213623047
1774472693011753000,5.4097529296875,-0.40425366163253784,-0.9837583303451538,-1.2351263761520386
1774472693021781200,5.41978125,-0.34670060873031616,-0.866372287273407,-1.4898673295974731
1774472693031809000,5.42980908203125,-0.25604352355003357,-0.5743404626846313,-1.6434742212295532
1774472693041837300,5.43983740234375,-0.2594848573207855,-0.16091188788414001,-1.6170985698699951
1774472693051865000,5.449864990234375,-0.3347153663635254,0.22312001883983612,-1.4522136449813843
1774472693061893000,5.45989306640625,-0.5184493064880371,0.507896900177002,-1.1406745910644531
1774472693071920000,5.469920166015625,-0.7515080571174622,0.5640239715576172,-0.8101038336753845
1774472693081948200,5.4799482421875,-0.7744967341423035,0.4993964731693268,-0.5333992838859558
1774472693091976200,5.48997607421875,-0.5244454741477966,0.2724025845527649,-0.2722821533679962
1774472693102004000,5.50000390625,-0.14782869815826416,0.015961717814207077,-0.03560648113489151
1774472693112032300,5.5100322265625,0.09990180283784866,-0.19542166590690613,0.07072338461875916
1774472693122060000,5.52006005859375,0.16153453290462494,-0.3188842236995697,0.010606519877910614
1774472693132088000,5.530088134765625,0.16641125082969666,-0.4230595827102661,-0.1083776131272316
1774472693142116000,5.5401162109375,0.24971891939640045,-0.6068206429481506,-0.16493916511535645
1774472693152143400,5.550143310546875,0.30203983187675476,-0.6925879716873169,-0.211424320936203
1774472693162171100,5.560171142578125,0.1309620887041092,-0.5109361410140991,-0.21821776032447815
1774472693172199200,5.57019921875,-0.1524745523929596,-0.23520217835903168,-0.12080787867307663
1774472693182227200,5.580227294921875,-0.4065243899822235,0.09323909133672714,0.04396829009056091
1774472693192255200,5.590255126953125,-0.6575855016708374,0.589867353439331,0.18447646498680115
1774472693202283300,5.600283203125,-0.867728054523468,1.3072645664215088,0.32423752546310425
1774472693212311300,5.610311279296875,-0.9684366583824158,1.9619615077972412,0.47148436307907104
1774472693222339000,5.620339111328125,-0.9046457409858704,2.3522348403930664,0.530589759349823
1774472693232366000,5.630365966796875,-0.7923341393470764,2.539116382598877,0.5378738045692444
1774472693242394000,5.64039404296875,-0.7335067987442017,2.740938425064087,0.5782356262207031
1774472693252422100,5.650422119140625,-0.8138711452484131,3.113682508468628,0.603924572467804
1774472693262450200,5.6604501953125,-0.9797983765602112,3.4951376914978027,0.6178321242332458
1774472693272478200,5.670478271484375,-1.073299765586853,3.6720778942108154,0.5898720026016235
1774472693282506200,5.68050634765625,-1.0262699127197266,3.5835213661193848,0.5294416546821594
1774472693292534000,5.690533935546875,-0.8627040982246399,3.187622308731079,0.39900174736976624
1774472693302561000,5.70056103515625,-0.6011015176773071,2.5077733993530273,0.20844510197639465
1774472693312589000,5.710589111328125,-0.29843276739120483,1.776760458946228,0.04144345968961716
1774472693322617000,5.7206171875,0.061348844319581985,1.071799874305725,-0.04573458433151245
1774472693332645000,5.73064501953125,0.5155326128005981,0.5153488516807556,-0.09928403794765472
1774472693342673200,5.740673095703125,0.9539805054664612,0.05143525078892708,-0.15033948421478271
1774472693352701200,5.750701171875,1.2764724493026733,-0.4083792269229889,-0.2206721305847168
1774472693362729000,5.76072900390625,1.3735201358795166,-0.8111312389373779,-0.36737367510795593
1774472693372757200,5.77075732421875,1.2520568370819092,-1.221318244934082,-0.516319215297699
1774472693382784300,5.7807841796875,0.9994381666183472,-1.5746222734451294,-0.5782315731048584
1774472693392812300,5.790812255859375,0.7410698533058167,-1.7402961254119873,-0.6238072514533997
1774472693402840000,5.800840087890625,0.57889324426651,-1.607248306274414,-0.6861691474914551
1774472693412868400,5.810868408203125,0.46354860067367554,-1.0836659669876099,-0.7102494835853577
1774472693422896000,5.820896240234375,0.2560441493988037,-0.2370402216911316,-0.5304490923881531
1774472693432924200,5.830924072265625,-0.08644700050354004,0.8001939654350281,-0.14034125208854675
1774472693442952200,5.8409521484375,-0.512556791305542,1.716610312461853,0.43282797932624817
1774472693452980000,5.85097998046875,-0.9291450381278992,2.131819009780884,1.0609225034713745
1774472693463007200,5.86100732421875,-1.3010690212249756,2.4436702728271484,1.4573262929916382
1774472693473035000,5.871034912109375,-1.4943227767944336,2.6738100051879883,1.506407618522644
1774472693483063300,5.881063232421875,-1.5157489776611328,2.7226178646087646,1.4185222387313843
1774472693493091000,5.891091064453125,-1.3973915576934814,2.704756736755371,1.2962268590927124
1774472693503119000,5.901119140625,-1.3254523277282715,2.8425815105438232,1.2106592655181885
1774472693513147100,5.911147216796875,-1.3543567657470703,3.082765817642212,1.1690309047698975
1774472693523175200,5.921175048828125,-1.3758718967437744,3.033391237258911,1.1294176578521729
1774472693533203200,5.931203125,-1.2337900400161743,2.5725698471069336,0.9347638487815857
1774472693543230000,5.94122998046875,-0.9488033056259155,1.763485312461853,0.5849440693855286
1774472693553258200,5.95125830078125,-0.7264432907104492,0.9206108450889587,0.2158946990966797
1774472693563286000,5.9612861328125,-0.6031665802001953,0.2970178425312042,-0.04920834302902222
1774472693573314300,5.971314208984375,-0.5115616321563721,-0.1555001437664032,-0.21042297780513763
1774472693583342000,5.981342041015625,-0.4778856635093689,-0.5448257923126221,-0.43943697214126587
1774472693593370000,5.9913701171875,-0.43944382667541504,-0.866314709186554,-0.7719940543174744
1774472693603398100,6.001398193359375,-0.33894675970077515,-1.0980185270309448,-1.201022982597351
1774472693613426200,6.01142626953125,-0.19563886523246765,-1.3329925537109375,-1.7732806205749512
1774472693623453200,6.021453125,-0.5854273438453674,-1.8658688068389893,-2.335444211959839
1774472693633481200,6.031481201171875,-0.4645598232746124,-3.2888810634613037,-1.4132505655288696
1774472693643509200,6.04150927734375,0.48266878724098206,-2.5780038833618164,-0.06282789260149002
1774472693653537300,6.051537353515625,0.9112893342971802,-0.8002647161483765,0.3182237148284912
1774472693663565000,6.06156494140625,0.9646209478378296,0.1219216138124466,0.448265016078949
1774472693673593000,6.071593017578125,1.002966284751892,0.3510921597480774,0.5450400710105896
1774472693683621000,6.08162109375,0.9802218079566956,0.32783371210098267,0.7042595148086548
1774472693693648100,6.091648193359375,0.7507529854774475,0.38808730244636536,0.7828407883644104
1774472693703676200,6.10167626953125,0.4672938287258148,0.513974666595459,0.7544251680374146
1774472693713704200,6.1117041015625,0.24841368198394775,0.2972327470779419,0.8752593994140625
1774472693723732200,6.121732177734375,0.11692915856838226,0.03836763650178909,1.0425890684127808
1774472693733760000,6.131760009765625,0.006566676311194897,0.06945276260375977,1.0840505361557007
1774472693743788300,6.141788330078125,-0.1468479186296463,0.32490184903144836,1.185048222541809
1774472693753816000,6.151816162109375,-0.43750929832458496,0.7980683445930481,1.3973956108093262
1774472693763844400,6.16184423828125,-0.9476605653762817,1.1993277072906494,1.4095574617385864
1774472693773871000,6.17187109375,-1.3481755256652832,1.1479835510253906,0.9862985610961914
1774472693783899100,6.181899169921875,-1.3858379125595093,0.5908811092376709,0.3378832936286926
1774472693793927200,6.19192724609375,-1.2235695123672485,-0.06792779266834259,0.13187521696090698
1774472693803955200,6.201955078125,-1.1117650270462036,0.16777342557907104,0.2687276303768158
1774472693813983200,6.211983154296875,-0.9758642315864563,0.7305141687393188,0.5230982899665833
1774472693824011000,6.222010986328125,-0.8690469861030579,1.0545313358306885,0.5831491351127625
1774472693834039300,6.232039306640625,-0.7969545722007751,1.123106598854065,0.39486557245254517
1774472693844066600,6.242066650390625,-0.7136668562889099,0.9525960087776184,0.15105584263801575
1774472693854093600,6.252093505859375,-0.6022924184799194,0.783997654914856,-0.05483253300189972
1774472693864121600,6.26212158203125,-0.47186118364334106,0.7532629370689392,-0.17319220304489136
1774472693874149600,6.272149658203125,-0.36397379636764526,0.7508382201194763,-0.29316380620002747
1774472693884177700,6.282177734375,-0.2817593514919281,0.6413359642028809,-0.3429841101169586
1774472693894205700,6.292205810546875,-0.2833249270915985,0.4989466965198517,-0.3945188820362091
1774472693904233700,6.302233642578125,-0.2875979542732239,0.25544509291648865,-0.42851972579956055
1774472693914261500,6.312261474609375,-0.2758781909942627,0.011865891516208649,-0.462436318397522
1774472693924289800,6.322289794921875,-0.26650387048721313,-0.11909851431846619,-0.5018758773803711
1774472693934316500,6.332316650390625,-0.1371770054101944,0.24257242679595947,-0.6037477254867554
1774472693944344800,6.3423447265625,0.2328508496284485,0.5330175757408142,-0.6635703444480896
1774472693954372600,6.35237255859375,0.42867258191108704,0.7014803290367126,-0.5554366707801819
1774472693964401000,6.36240087890625,0.4551457464694977,1.0586999654769897,-0.30147337913513184
1774472693974428700,6.3724287109375,0.3757936656475067,1.4451218843460083,0.07466083019971848
1774472693984456400,6.38245654296875,0.297960102558136,1.7644128799438477,0.3818165063858032
1774472693994484700,6.392484619140625,0.2729344964027405,2.038757562637329,0.5791438817977905
1774472694004512500,6.402512451171875,0.297664076089859,1.8319509029388428,0.638081431388855
1774472694014539800,6.412539794921875,0.06691353023052216,1.3260353803634644,0.5433813333511353
1774472694024567600,6.422567626953125,-0.2958175241947174,1.0510350465774536,0.44436919689178467
1774472694034595800,6.432595947265625,-0.6087806224822998,0.8094552755355835,0.5093519687652588
1774472694044623600,6.44262353515625,-0.7439680099487305,0.5236368775367737,0.6131465435028076
1774472694054651600,6.452651611328125,-0.7129694223403931,0.24378784000873566,0.7031641602516174
1774472694064679700,6.4626796875,-0.6929659247398376,-0.19618341326713562,0.7822446227073669
1774472694074707700,6.472707763671875,-0.6341739296913147,-0.5215779542922974,0.4925430417060852
1774472694084734700,6.482734619140625,-0.5303421020507812,-0.3453606069087982,-0.08362947404384613
1774472694094762500,6.492762451171875,-0.3725048303604126,0.030090324580669403,-0.3114083707332611
1774472694104790800,6.502790771484375,-0.24675381183624268,0.6227357983589172,-0.09443024545907974
1774472694114818600,6.512818603515625,-0.1714959740638733,0.9328821897506714,0.0672970712184906
1774472694124846600,6.5228466796875,-0.043840013444423676,0.6250007748603821,0.1474430412054062
1774472694134874600,6.53287451171875,0.17871695756912231,-0.3268488943576813,0.21200568974018097
1774472694144902700,6.542902587890625,0.30554071068763733,-1.1657090187072754,0.26718664169311523
1774472694154930700,6.5529306640625,0.5616486668586731,-1.8636858463287354,0.4880356788635254
1774472694164957700,6.562957763671875,0.8432795405387878,-2.205348253250122,0.5092498660087585
1774472694174985700,6.57298583984375,1.1688064336776733,-2.6812477111816406,0.34632599353790283
1774472694185013800,6.583013671875,1.5702677965164185,-3.545975923538208,0.18805965781211853
1774472694195041500,6.59304150390625,1.9662326574325562,-4.370565891265869,-0.028104161843657494
1774472694205069600,6.603069580078125,1.9262738227844238,-3.973917007446289,-0.008486253209412098
1774472694215097600,6.61309765625,1.58635413646698,-2.2373673915863037,0.17770425975322723
1774472694225125600,6.623125732421875,1.2694669961929321,-1.0992721319198608,-0.029939481988549232
1774472694235153700,6.633153564453125,1.1091591119766235,-0.920789897441864,-0.5070478320121765
1774472694245180700,6.6431806640625,0.9470157027244568,-0.9286526441574097,-1.0006301403045654
1774472694255208700,6.653208740234375,0.8166393637657166,-0.6886621713638306,-1.3104290962219238
1774472694265236700,6.66323681640625,0.7210933566093445,-0.40884438157081604,-1.314670443534851
1774472694275264800,6.6732646484375,0.5592613220214844,-0.7095870971679688,-1.1390602588653564
1774472694285292500,6.68329248046875,0.3132219910621643,-1.3101729154586792,-0.9613956809043884
1774472694295320800,6.69332080078125,0.14620999991893768,-1.901771903038025,-1.0100345611572266
1774472694305348600,6.7033486328125,0.0700603649020195,-2.171029567718506,-1.1583521366119385
1774472694315375600,6.713375732421875,-0.0973953828215599,-1.5414456129074097,-1.2168141603469849
1774472694325403600,6.723403564453125,-0.4749991297721863,-0.739861011505127,-1.2026687860488892
1774472694335431700,6.733431640625,-0.8744163513183594,-0.624849796295166,-1.060655117034912
1774472694345459700,6.743459716796875,-1.0433882474899292,-0.9773271679878235,-0.6754120588302612
1774472694355487500,6.753487548828125,-0.985563337802887,-0.9014264941215515,-0.40793415904045105
1774472694365515800,6.763515869140625,-0.9167243242263794,-0.23295708000659943,-0.3181089460849762
1774472694375543600,6.77354345703125,-0.7927505970001221,0.5461059212684631,-0.12455879151821136
1774472694385571800,6.78357177734375,-0.5616318583488464,0.4913979470729828,-0.11928067356348038
1774472694395599600,6.793599609375,-0.3414345979690552,0.1790536642074585,-0.18371661007404327
1774472694405627000,6.803626953125,-0.0024842265993356705,-0.0809938833117485,-0.0824589803814888
1774472694415654700,6.813654541015625,0.3477257192134857,0.10267501324415207,0.1969396471977234
1774472694425682400,6.823682373046875,0.4787162244319916,0.2576936185359955,0.4437691271305084
1774472694435710700,6.833710693359375,0.44865885376930237,0.766914963722229,0.3556523025035858
1774472694445738500,6.843738525390625,0.2692406177520752,1.1710405349731445,0.16229772567749023
1774472694455766800,6.853766845703125,0.08517927676439285,1.4847880601882935,-0.03743395581841469
1774472694465794600,6.863794677734375,0.0038061230443418026,1.7818199396133423,-0.17336302995681763
1774472694475822600,6.873822509765625,-0.010593215934932232,1.5773298740386963,-0.03798102214932442
1774472694485849600,6.883849609375,-0.011367397382855415,0.8330780267715454,0.13563604652881622
1774472694495877600,6.893877685546875,0.1219557672739029,0.17983633279800415,0.11372514814138412
1774472694505905700,6.90390576171875,0.25275319814682007,0.1712801158428192,0.2914040684700012
1774472694515933700,6.91393359375,0.17580844461917877,0.6382080316543579,0.572145938873291
1774472694525961700,6.923961669921875,-0.11932571977376938,1.4001154899597168,0.6567878723144531
1774472694535989800,6.93398974609375,-0.5319005846977234,2.2390408515930176,0.5909036993980408
1774472694546017500,6.944017578125,-0.853356659412384,2.9869210720062256,0.48640310764312744
1774472694556044500,6.95404443359375,-1.0612472295761108,3.341026782989502,0.28501981496810913
1774472694566072600,6.964072509765625,-1.1575876474380493,3.453044891357422,0.08456530421972275
1774472694576100600,6.9741005859375,-1.2633641958236694,3.6754398345947266,0.017664512619376183
1774472694586128600,6.984128662109375,-1.3191747665405273,4.172796249389648,0.1240127831697464
1774472694596156700,6.99415673828125,-1.4027806520462036,5.035660266876221,0.2999800145626068
1774472694606184700,7.004184814453125,-1.3030521869659424,5.710626125335693,0.3847218155860901
1774472694616212500,7.01421240234375,-0.9007058143615723,5.827548980712891,0.4890284836292267
1774472694626240800,7.02424072265625,-0.45117172598838806,5.7943925857543945,0.593280553817749
1774472694636267800,7.034267822265625,-0.098631352186203,5.682319641113281,0.6266310214996338
1774472694646295600,7.044295654296875,0.07748162001371384,5.586822509765625,0.7041473984718323
1774472694656323600,7.054323486328125,0.2213478982448578,5.032527923583984,0.8160991072654724
1774472694666351600,7.0643515625,0.48850610852241516,4.102764129638672,0.8722033500671387
1774472694676379600,7.074379638671875,0.8460909724235535,3.0474228858947754,0.9311811327934265
1774472694686407700,7.08440771484375,1.2451457977294922,1.9779391288757324,0.9915406107902527
1774472694696435700,7.094435791015625,1.4161313772201538,1.025130271911621,0.908583402633667
1774472694706463500,7.10446337890625,1.3209489583969116,0.2785938084125519,0.6002426147460938
1774472694716490800,7.11449072265625,1.0968738794326782,-0.0498904250562191,0.3876078128814697
1774472694726518500,7.1245185546875,0.7966379523277283,-0.011488175950944424,0.3796585500240326
1774472694736546800,7.134546875,0.5326034426689148,-0.20404107868671417,0.4150744676589966
1774472694746574600,7.14457470703125,0.33936765789985657,-0.9075800180435181,0.3727909028530121
1774472694756603000,7.154602783203125,0.1522897332906723,-1.7617429494857788,0.27151018381118774
1774472694766630700,7.164630615234375,0.038024406880140305,-2.5722830295562744,0.16822507977485657
1774472694776658700,7.17465869140625,-0.030410097911953926,-3.298246145248413,0.05122823268175125
1774472694786685700,7.184685791015625,0.11490155756473541,-3.9495139122009277,-0.18953564763069153
1774472694796713500,7.19471337890625,-0.06161164119839668,-3.998667001724243,-0.5024512410163879
1774472694806741800,7.20474169921875,-0.16733193397521973,-4.178096294403076,-0.5201966762542725
1774472694816769500,7.21476953125,0.1294536292552948,-4.3559250831604,-0.4094589352607727
1774472694826797800,7.2247978515625,0.4198814630508423,-4.499873638153076,-0.29946693778038025
1774472694836825600,7.23482568359375,0.5887235403060913,-4.384296894073486,-0.1675472855567932
1774472694846852900,7.244852783203125,0.6751841306686401,-3.906722068786621,-0.14276070892810822
1774472694856880600,7.254880615234375,0.6644806861877441,-3.5503346920013428,-0.14124998450279236
1774472694866908000,7.264907958984375,0.6353917121887207,-3.2038638591766357,-0.1091354638338089
1774472694876935700,7.274935791015625,0.6660864353179932,-2.9421043395996094,-0.13114160299301147
1774472694886964000,7.2849638671875,0.704049289226532,-2.661830425262451,-0.1522551327943802
1774472694896991700,7.29499169921875,0.6483514308929443,-1.9483740329742432,-0.20833732187747955
1774472694907019800,7.305019775390625,0.4810042381286621,-1.4752188920974731,-0.2548331916332245
1774472694917047800,7.3150478515625,0.37478432059288025,-1.1246832609176636,-0.18465915322303772
1774472694927075600,7.32507568359375,0.326046347618103,-0.6603901982307434,0.2276485115289688
1774472694937104000,7.335103759765625,0.3675844073295593,-0.9220041036605835,0.2539854347705841
1774472694947131600,7.345131591796875,0.24183689057826996,-1.2642996311187744,0.13603216409683228
1774472694957159000,7.355158935546875,-0.09156842529773712,-1.0706353187561035,0.05649725720286369
1774472694967186700,7.365186767578125,-0.06299404054880142,-0.2915501594543457,-0.20440757274627686
1774472694977214700,7.375214599609375,0.05953262746334076,0.13404512405395508,-0.5756596326828003
1774472694987242800,7.38524267578125,0.0696832612156868,0.16981936991214752,-0.6899694204330444
1774472694997270800,7.395270751953125,0.09974721819162369,0.0026645802427083254,-0.6306889653205872
1774472695007298800,7.405298828125,0.13517126441001892,-0.08119916170835495,-0.5509528517723083
1774472695017326800,7.415326904296875,0.2368466854095459,-0.037600528448820114,-0.5223172903060913
1774472695027354600,7.425354736328125,0.2856768071651459,-0.05843709781765938,-0.46945029497146606
1774472695037381600,7.435381591796875,0.24497652053833008,-0.09645412862300873,-0.3736647367477417
1774472695047409700,7.44540966796875,0.18549588322639465,-0.11128314584493637,-0.2524176836013794
1774472695057437700,7.455437744140625,0.12176895886659622,-0.19043760001659393,-0.07999252527952194
1774472695067465700,7.4654658203125,0.11860485374927521,-0.5458167791366577,0.1999826729297638
1774472695077493800,7.47549365234375,0.143606036901474,-0.804757297039032,0.6450209617614746
1774472695087521800,7.485521728515625,0.225498229265213,-0.3887595534324646,0.810419499874115
1774472695097549600,7.495549560546875,0.308736115694046,0.23561973869800568,0.7426505088806152
1774472695107577900,7.505577880859375,0.5640890598297119,1.1573553085327148,0.6319325566291809
1774472695117604600,7.5156044921875,0.7396368980407715,2.154054880142212,0.8508224487304688
1774472695127633000,7.5256328125,0.6077638268470764,2.98746395111084,0.903481662273407
1774472695137660700,7.53566064453125,0.3145126700401306,3.631200075149536,0.7414435148239136
1774472695147688700,7.545688720703125,-0.03540298715233803,3.6892263889312744,0.2839078903198242
1774472695157716700,7.555716796875,-0.03777022287249565,3.605398654937744,0.12160997092723846
1774472695167744500,7.56574462890625,0.27906498312950134,3.0572471618652344,0.3404986262321472
1774472695177772800,7.575772705078125,0.5432705879211426,2.445033311843872,0.8232753872871399
1774472695187800600,7.585800537109375,0.6744701266288757,2.329122304916382,1.150905966758728
1774472695197827800,7.595827880859375,0.6928854584693909,2.6116185188293457,1.162877082824707
1774472695207855600,7.605855712890625,0.6573650240898132,3.0667898654937744,0.9310632348060608
1774472695217884000,7.6158837890625,0.486009806394577,3.2589895725250244,0.7716778516769409
1774472695227911700,7.62591162109375,0.16870585083961487,2.977165699005127,0.7009211182594299
1774472695237939700,7.635939697265625,-0.2080206274986267,2.4150726795196533,0.5527929067611694
1774472695247967700,7.6459677734375,-0.4650564193725586,1.6646250486373901,0.3570827841758728
1774472695257995800,7.655995849609375,-0.5832589864730835,0.5961021780967712,-0.03000274859368801
1774472695268023800,7.66602392578125,-0.5157158970832825,-0.7800732851028442,-0.48047778010368347
1774472695278050600,7.676050537109375,-0.2282624989748001,-2.214146375656128,-0.8307163119316101
1774472695288078800,7.686078857421875,0.20413818955421448,-3.385613441467285,-1.0523837804794312
1774472695298106600,7.696106689453125,0.5547120571136475,-4.148538589477539,-1.160984754562378
1774472695308135000,7.706135009765625,0.6407513618469238,-4.591253757476807,-1.1135777235031128
1774472695318162700,7.71616259765625,0.6350760459899902,-4.573807716369629,-0.921240508556366
1774472695328190700,7.726190673828125,0.4899052679538727,-4.7486772537231445,-0.5654919743537903
1774472695338218800,7.73621875,0.19023257493972778,-4.899697303771973,-0.06562691926956177
1774472695348246800,7.746246826171875,-0.2040545642375946,-4.437996864318848,0.37718459963798523
1774472695358273800,7.756273681640625,-0.7085107564926147,-2.8774573802948,0.697405219078064
1774472695368301600,7.766301513671875,-0.9524009227752686,-0.8310968279838562,0.7513036131858826
1774472695378329900,7.776329833984375,-0.6182377934455872,0.06681406497955322,0.5609974265098572
1774472695388357600,7.786357666015625,-0.4422619342803955,0.19222259521484375,-0.17081020772457123
1774472695398385700,7.7963857421875,-0.9439817667007446,-0.05251505598425865,-0.8775319457054138
1774472695408413700,7.80641357421875,-1.4310299158096313,0.2630058825016022,-0.9824122786521912
1774472695418441700,7.816441650390625,-1.7755094766616821,0.9766815304756165,-0.4878641664981842
1774472695428469800,7.8264697265625,-2.096315860748291,1.5597773790359497,0.19371835887432098
1774472695438496800,7.836496826171875,-2.4003758430480957,1.2645972967147827,0.9290911555290222
1774472695448524800,7.84652490234375,-2.4220035076141357,0.4010224938392639,1.3251090049743652
1774472695458552800,7.856552734375,-1.800743818283081,-0.06712609529495239,1.0549907684326172
1774472695468580600,7.86658056640625,-0.8292028903961182,-0.7052961587905884,0.4670740067958832
1774472695478609000,7.87660888671875,0.09483957290649414,-1.3059008121490479,-0.23180414736270905
1774472695488636700,7.88663671875,0.7179047465324402,-1.5512921810150146,-0.4938986003398895
1774472695498665000,7.8966650390625,1.1132280826568604,-1.4244955778121948,-0.20723117887973785
1774472695508692700,7.906692626953125,1.2445789575576782,-0.5298295617103577,0.2552485764026642
1774472695518719700,7.9167197265625,1.2225693464279175,0.7157052755355835,0.6026908159255981
1774472695528747800,7.926747802734375,1.0151938199996948,1.6505626440048218,0.6861559152603149
1774472695538775800,7.93677587890625,0.6571758389472961,1.837990164756775,0.4375796318054199
1774472695548803800,7.946803955078125,0.3596229553222656,1.4464759826660156,0.08281968533992767
1774472695558831600,7.95683154296875,0.26029759645462036,0.5806176066398621,-0.1845608353614807
1774472695568860000,7.96685986328125,0.3373122215270996,-0.5190473794937134,-0.3459174931049347
1774472695578887700,7.9768876953125,0.4667538106441498,-1.3729875087738037,-0.5120556950569153
1774472695588915700,7.986915771484375,0.4630892872810364,-1.300708293914795,-0.6371214985847473
1774472695598942700,7.996942626953125,0.5682054758071899,-0.3678867220878601,-0.5977029204368591
1774472695608970800,8.006970703125,0.40059545636177063,1.4659643173217773,0.019212206825613976
1774472695618998800,8.016998779296875,0.5651744604110718,1.720153570175171,0.22856226563453674
1774472695629026600,8.027026611328125,0.6882716417312622,1.0537081956863403,0.27321016788482666
1774472695639054800,8.037054931640625,0.7217888832092285,1.104421615600586,0.7159533500671387
1774472695649082600,8.04708251953125,1.113377332687378,1.719364047050476,1.1290115118026733
1774472695659111000,8.05711083984375,1.1361042261123657,1.2222357988357544,0.7327206134796143
1774472695669138700,8.067138671875,0.8142897486686707,0.8562373518943787,0.4912397861480713
1774472695679166000,8.077166015625,0.6953566670417786,0.5553054213523865,0.3299548625946045
1774472695689193700,8.08719384765625,0.6069331169128418,0.4340343773365021,-0.014709025621414185
1774472695699221800,8.0972216796875,0.4198860228061676,0.3198288679122925,-0.20270659029483795
1774472695709249800,8.107249755859375,0.38733527064323425,0.17872019112110138,-0.3723193407058716
1774472695719277800,8.11727783203125,0.43132030963897705,0.2138374149799347,-0.4408467411994934
1774472695729305900,8.127305908203125,0.3898540735244751,0.3683961033821106,-0.43274062871932983
1774472695739333600,8.137333740234375,0.258106529712677,0.7811761498451233,-0.3656505346298218
1774472695749361700,8.147361572265625,0.11887940019369125,0.8272687792778015,-0.1612422615289688
1774472695759388700,8.157388671875,0.0999395027756691,0.7290666699409485,0.0789698138833046
1774472695769416700,8.167416748046875,0.16845650970935822,0.9712220430374146,0.14846792817115784
1774472695779444700,8.17744482421875,0.19025762379169464,1.4474763870239258,-0.3653826117515564
1774472695789472800,8.18747265625,0.248621866106987,1.2637380361557007,-0.48579931259155273
1774472695799500800,8.197500732421876,0.2728596329689026,0.46525415778160095,-0.2847439646720886
1774472695809528800,8.20752880859375,0.28446221351623535,-0.3027666211128235,0.04252178221940994
1774472695819556600,8.217556640625,0.31698375940322876,-0.3557048738002777,0.0879802256822586
1774472695829585000,8.2275849609375,0.46555644273757935,0.053528159856796265,-0.09985119849443436
1774472695839611600,8.237611572265624,0.5962284207344055,0.5755138397216797,-0.3366248607635498
1774472695849641000,8.247640869140625,0.6761459112167358,0.7582493424415588,-0.42327478528022766
1774472695859669000,8.2576689453125,0.5308523774147034,0.48450911045074463,-0.27664220333099365
1774472695869696800,8.26769677734375,0.39122310280799866,0.2502651810646057,-0.20468679070472717
1774472695879725000,8.27772509765625,0.2800951600074768,0.034213799983263016,-0.13578243553638458
1774472695889752800,8.2877529296875,0.41605380177497864,0.16360187530517578,-0.19431792199611664
1774472695899780900,8.29778076171875,0.1956155002117157,0.20527710020542145,-0.22309258580207825
1774472695909809000,8.307808837890626,-0.2177789956331253,-0.1744457334280014,-0.021619118750095367
1774472695919836700,8.317836669921874,-0.23081472516059875,-0.34388768672943115,0.09144086390733719
1774472695929864000,8.327864013671874,-0.14005713164806366,0.4267248809337616,-0.2286101132631302
1774472695939891700,8.3378916015625,0.020285435020923615,0.9224362969398499,-0.09344563633203506
1774472695949920000,8.347919921875,0.22510355710983276,0.5092849731445312,0.07949844002723694
1774472695959947800,8.35794775390625,0.22446882724761963,0.06782178580760956,0.07848497480154037
1774472695969976000,8.36797607421875,0.14416787028312683,0.027657056227326393,-0.13352954387664795
1774472695980003800,8.37800390625,-0.05456681177020073,0.5467516183853149,-0.5019701719284058
1774472695990032000,8.388031982421875,-0.09931138157844543,0.7788823246955872,-0.7880226969718933
1774472696000060000,8.398059814453125,-0.07620621472597122,0.5526505708694458,-0.812287449836731
1774472696010086700,8.408086669921875,-0.1300119310617447,0.18293403089046478,-0.6015232801437378
1774472696020115000,8.418114990234375,-0.14244800806045532,0.02947007305920124,-0.35794705152511597
1774472696030142700,8.428142822265626,-0.15948691964149475,0.03607151657342911,-0.15289990603923798
1774472696040171000,8.4381708984375,-0.1028752252459526,-0.09885280579328537,-0.0030563203617930412
1774472696050198800,8.44819873046875,-0.10400334000587463,-0.20101113617420197,0.07681161165237427
1774472696060226800,8.458226806640624,-0.14939332008361816,-0.24022725224494934,0.14005355536937714
1774472696070254800,8.4682548828125,-0.12850934267044067,-0.12418587505817413,0.1303575187921524
1774472696080283000,8.478282958984375,-0.07811542600393295,0.15827034413814545,0.007975960150361061
1774472696090311000,8.488310791015625,-0.013761204667389393,0.35281291604042053,-0.13232947885990143
1774472696100338000,8.498337890625,-0.026002923026680946,0.3822038173675537,-0.19817136228084564
1774472696110366000,8.508365966796875,-0.05263639613986015,0.3070265054702759,-0.2188076674938202
1774472696120393700,8.518393798828125,-0.03742355853319168,0.15343955159187317,-0.17302581667900085
1774472696130421800,8.528421875,-0.12423861026763916,-0.45719850063323975,-0.01127712707966566
1774472696140449800,8.53844970703125,-0.1322547197341919,-0.6183319091796875,0.06883679330348969
1774472696150477800,8.548477783203126,-0.019194213673472404,-0.22537292540073395,-0.08896109461784363
1774472696160505900,8.558505859375,0.09566636383533478,0.09991848468780518,-0.29044511914253235
1774472696170534000,8.568533935546874,0.26319941878318787,0.09513038396835327,-0.31739869713783264
1774472696180561700,8.578561767578124,0.34960243105888367,0.08558915555477142,-0.26369231939315796
1774472696190589000,8.5885888671875,0.35149165987968445,0.042335692793130875,-0.2512418031692505
1774472696200617000,8.598616943359374,0.3367021083831787,-0.056648340076208115,-0.2238403558731079
1774472696210645000,8.60864501953125,0.3488975167274475,-0.1785002201795578,-0.1398671567440033
1774472696220672800,8.6186728515625,0.29271331429481506,-0.172766774892807,-0.10495567321777344
1774472696230701000,8.628701171875,0.26032233238220215,-0.05292904004454613,-0.08642300218343735
1774472696240728800,8.638728759765625,0.35623371601104736,0.11941501498222351,-0.05767844617366791
1774472696250756900,8.6487568359375,0.4967207908630371,0.14067156612873077,0.001718834973871708
1774472696260785000,8.658784912109375,0.6198179721832275,-0.22050395607948303,0.09983101487159729
1774472696270812000,8.66881201171875,0.5255998373031616,-0.8357303738594055,0.35887908935546875
1774472696280840000,8.67883984375,0.31783756613731384,-0.4633755385875702,0.35302454233169556
1774472696290867700,8.68886767578125,-0.1622219979763031,-0.12010446935892105,0.3532855212688446
1774472696300896000,8.69889599609375,-0.4200392961502075,-0.027980107814073563,0.13544252514839172
1774472696310923800,8.708923828125,0.034785717725753784,0.6002180576324463,-0.092953622341156
1774472696320952000,8.7189521484375,0.2256574034690857,0.855018675327301,-0.192405104637146
1774472696330979800,8.728979736328125,0.04592141509056091,1.0714383125305176,-0.14375528693199158
1774472696341008000,8.7390078125,-0.11928976327180862,1.2437744140625,-0.045009762048721313
1774472696351035000,8.749034912109375,0.032464612275362015,1.0401177406311035,0.06213480234146118
1774472696361062700,8.759062744140625,0.10182908922433853,0.49880123138427734,0.07229980081319809
1774472696371091000,8.769091064453125,0.02848057448863983,0.2886951267719269,0.1462579220533371
1774472696381118700,8.77911865234375,0.06636597216129303,0.023859171196818352,0.10981760174036026
1774472696391147000,8.78914697265625,0.07417808473110199,0.007596311159431934,0.12504234910011292
1774472696401174800,8.7991748046875,0.012108259834349155,0.04368726164102554,0.13233278691768646
1774472696411202800,8.809202880859376,-0.16384759545326233,-0.06933090835809708,0.15648658573627472
1774472696421230800,8.81923095703125,-0.05593108758330345,-0.0939534455537796,0.1523529589176178
1774472696431259000,8.8292587890625,-0.04346909373998642,-0.013781910762190819,0.10475214570760727
1774472696441286000,8.839285888671874,-0.09608052670955658,-0.01672028750181198,0.08904241025447845
1774472696451314000,8.84931396484375,-0.10163003206253052,-0.02718517929315567,0.08769804984331131
1774472696461342000,8.859342041015625,-0.08880619704723358,-0.10067395120859146,0.039424266666173935
1774472696471370000,8.869369873046875,-0.04661080613732338,-0.13066913187503815,-0.023980004712939262
1774472696481397800,8.879397705078125,-0.036548811942338943,-0.07324304431676865,-0.09680904448032379
1774472696491425800,8.88942578125,-0.031207306310534477,-0.11869228631258011,-0.13462886214256287
1774472696501453800,8.899453857421875,-0.018284300342202187,-0.2586294412612915,-0.13721320033073425
1774472696511481900,8.90948193359375,-0.0020914822816848755,-0.32997366786003113,-0.11388976871967316
1774472696521508900,8.9195087890625,-0.03125254437327385,-0.5257288217544556,-0.13489171862602234
1774472696531537000,8.929536865234375,-0.06750216335058212,-0.49931421875953674,-0.11943260580301285
1774472696541565000,8.93956494140625,-0.17549705505371094,-0.34040263295173645,-0.06253071129322052
1774472696551592700,8.9495927734375,-0.29630494117736816,-0.2042250633239746,0.013542747125029564
1774472696561621000,8.95962109375,-0.3373801112174988,-0.20864050090312958,0.08151654154062271
1774472696571648800,8.969648681640624,-0.46456843614578247,-0.37133729457855225,0.1301296055316925
1774472696581677000,8.979677001953124,-0.6274892091751099,-0.6676737070083618,0.2150723934173584
1774472696591704800,8.989704833984375,-0.7577164769172668,-0.9752086400985718,0.09117227792739868
1774472696601732900,8.99973291015625,-0.5436043739318848,-0.4005173444747925,0.09577596932649612
1774472696611759900,9.009759765625,-0.47885867953300476,-0.2554304599761963,-0.012347036972641945
1774472696621788000,9.019787841796875,-0.5023679137229919,-0.274208128452301,0.009346699342131615
1774472696631816000,9.02981591796875,-0.4403122663497925,-0.6732154488563538,0.04091021418571472
1774472696641843700,9.03984375,-0.23531989753246307,-0.4391883313655853,0.2851848900318146
1774472696651872000,9.0498720703125,-0.29394859075546265,-0.4306403696537018,0.2873719036579132
1774472696661899800,9.059899658203125,-0.2645398676395416,-0.31736546754837036,0.2838839590549469
1774472696671927800,9.069927734375,-0.23680518567562103,-0.24684946238994598,0.25047221779823303
1774472696681955800,9.079955810546876,-0.2383725494146347,-0.20002873241901398,0.23298734426498413
1774472696691983000,9.089983154296876,-0.16139920055866241,-0.11535752564668655,0.23017185926437378
1774472696702011000,9.100010986328124,-0.055398982018232346,-0.029133876785635948,0.2270369678735733
1774472696712038700,9.11003857421875,-0.06125473976135254,0.08731124550104141,0.2014322727918625
1774472696722067000,9.12006689453125,-0.1062919870018959,0.10020334273576736,0.1631069928407669
1774472696732094700,9.1300947265625,-0.10885794460773468,-0.04045257717370987,0.13074931502342224
1774472696742123000,9.140123046875,-0.1783464550971985,0.0022208380978554487,0.12283491343259811
1774472696752150800,9.15015087890625,-0.2569829523563385,0.31858280301094055,0.06873519718647003
1774472696762178800,9.1601787109375,-0.26407358050346375,0.7393749952316284,0.011646594852209091
1774472696772205800,9.170205810546875,-0.1512058824300766,0.8774644136428833,-0.10480544716119766
1774472696782233900,9.18023388671875,-0.10995808988809586,0.7611185908317566,-0.12163519859313965
1774472696792262000,9.190261962890625,-0.052144855260849,0.4360358417034149,-0.10557606816291809
1774472696802290000,9.2002900390625,-0.09651938825845718,0.3131437301635742,-0.03362184762954712
1774472696812318000,9.21031787109375,-0.23249559104442596,0.39310407638549805,0.144626185297966
1774472696822346000,9.220345947265624,-0.2782283127307892,0.5671401023864746,0.17441236972808838
1774472696832373800,9.230373779296874,-0.3768337070941925,0.6862614750862122,0.16773581504821777
1774472696842401000,9.240401123046874,-0.3886410593986511,0.6409476399421692,0.08281860500574112
1774472696852428300,9.25042822265625,-0.35824960470199585,0.5151646733283997,-0.01580623909831047
1774472696862456000,9.2604560546875,-0.24590833485126495,0.3630915880203247,-0.0781238004565239
1774472696872484000,9.270484130859375,-0.1905508041381836,0.12399804592132568,-0.20750868320465088
1774472696882512100,9.28051220703125,-0.3172178268432617,-0.003229043912142515,-0.13306395709514618
1774472696892540200,9.2905400390625,-0.25448334217071533,0.056936558336019516,-0.13631939888000488
1774472696902568200,9.300568115234375,-0.2953118085861206,0.09778489172458649,-0.1054103821516037
1774472696912596200,9.31059619140625,-0.21492081880569458,0.0022911285050213337,-0.14665502309799194
1774472696922624000,9.3206240234375,0.21066385507583618,-0.23531189560890198,-0.21986109018325806
1774472696932651000,9.330651123046875,0.2022714465856552,-0.29650577902793884,-0.1452888548374176
1774472696942679000,9.340678955078126,0.0045983497984707355,-0.42248740792274475,-0.13800963759422302
1774472696952707000,9.35070703125,0.044588107615709305,-0.47452932596206665,-0.12897832691669464
1774472696962735000,9.360735107421876,0.19583545625209808,-0.39148563146591187,-0.05912142992019653
1774472696972763100,9.37076318359375,0.19371531903743744,-0.14993293583393097,0.01370323821902275
1774472696982791200,9.380791259765624,0.07571520656347275,0.0035500775557011366,0.03174823522567749
1774472696992819000,9.39081884765625,-0.04168705269694328,0.2552041709423065,0.0336819589138031
1774472697002847200,9.40084716796875,-0.13966140151023865,0.6813483834266663,0.08096691966056824
1774472697012874200,9.410874267578125,-0.1127653419971466,0.8090858459472656,0.12517964839935303
1774472697022902000,9.420902099609375,-0.040883179754018784,0.5501254200935364,0.10187460482120514
1774472697032930000,9.430929931640625,0.0010437655728310347,0.14761365950107574,0.026315931230783463
1774472697042958000,9.4409580078125,0.06945575773715973,-0.1736423522233963,-0.04237601161003113
1774472697052986000,9.450986083984375,0.10049250721931458,-0.26269736886024475,-0.06795567274093628
1774472697063014100,9.46101416015625,0.10699258744716644,-0.14265307784080505,-0.005206046625971794
1774472697073042200,9.471042236328126,0.10822882503271103,0.03154082968831062,-0.022049741819500923
1774472697083070000,9.481070068359376,0.06707145273685455,0.07231626659631729,0.03764422982931137
1774472697093097200,9.49109716796875,0.1194947138428688,0.0863838791847229,0.018652694299817085
1774472697103125000,9.501125,0.23342302441596985,-0.2071411907672882,-0.040917545557022095
1774472697113153300,9.5111533203125,0.3574781119823456,-0.7658066153526306,-0.12246806919574738
1774472697123181000,9.52118115234375,0.6301922798156738,-1.559584617614746,-0.2573583424091339
1774472697133209300,9.531209228515625,0.8764023184776306,-1.830460786819458,-0.40581491589546204
1774472697143237000,9.541237060546875,0.9089419841766357,-1.0192545652389526,-0.35538250207901
1774472697153265000,9.551264892578125,0.9205992221832275,0.4518098533153534,-0.3717532157897949
1774472697163293200,9.561293212890625,0.7474642992019653,2.1604502201080322,-0.5394368767738342
1774472697173320000,9.57131982421875,0.6203356385231018,2.81536865234375,-0.19335512816905975
1774472697183348200,9.58134814453125,0.4984542429447174,1.5954773426055908,-0.016394656151533127
1774472697193376000,9.5913759765625,0.29198336601257324,0.34411364793777466,-0.10210423171520233
1774472697203404300,9.601404296875,0.2166016548871994,-0.7818045020103455,-0.2560591399669647
1774472697213432000,9.61143212890625,0.17653866112232208,-1.3852256536483765,-0.2209261655807495
1774472697223460000,9.621460205078124,0.13823936879634857,-1.4474297761917114,-0.039024338126182556
1774472697233488100,9.631488037109374,-0.026346657425165176,-1.1956989765167236,0.31051233410835266
1774472697243516200,9.64151611328125,-0.2676788866519928,-0.0019738366827368736,0.41345086693763733
1774472697253544200,9.651544189453125,-0.2673204243183136,0.009415704756975174,0.6595280766487122
1774472697263571000,9.661571044921875,-0.5722799897193909,0.16132761538028717,0.41486555337905884
1774472697273599200,9.67159912109375,-0.7181333303451538,0.6028349995613098,0.27802860736846924
1774472697283627000,9.681626953125,-0.5319437384605408,0.8872534036636353,0.11343646049499512
1774472697293655000,9.691655029296875,-0.3178927004337311,0.676575243473053,-0.03959250450134277
1774472697303683000,9.70168310546875,-0.17721673846244812,0.19915109872817993,-0.13984589278697968
1774472697313711000,9.711711181640625,0.005991700105369091,-0.042539555579423904,-0.11988735944032669
1774472697323739100,9.7217392578125,0.06418769061565399,-0.18057924509048462,-0.022809021174907684
1774472697333767200,9.73176708984375,0.11610521376132965,-0.2992270588874817,0.043436042964458466
1774472697343794200,9.741794189453126,0.10342178493738174,-0.3766542971134186,0.07126496732234955
1774472697353822200,9.751822265625,0.1346912980079651,-0.2270008623600006,0.044111378490924835
1774472697363850200,9.761850341796874,0.1494443416595459,0.015253011137247086,0.0418589748442173
1774472697373878000,9.7718779296875,0.06982140988111496,0.286083459854126,0.07706409692764282
1774472697383906000,9.781906005859375,-0.0072752004489302635,0.35915684700012207,0.15732988715171814
1774472697393934000,9.79193408203125,-0.021047204732894897,0.09557339549064636,0.23229174315929413
1774472697403962000,9.801962158203125,-0.10669463127851486,-0.19045871496200562,0.35212573409080505
1774472697413990100,9.811990234375,-0.061410777270793915,-0.14225177466869354,0.29609495401382446
1774472697424017200,9.82201708984375,-0.026506979018449783,0.00698112091049552,0.3069937825202942
1774472697434045200,9.832045166015625,-0.0031843469478189945,0.03789003565907478,0.30335989594459534
1774472697444073200,9.8420732421875,0.022237060591578484,-0.01891486719250679,0.2787848114967346
1774472697454101000,9.85210107421875,0.03670734539628029,-0.04874493181705475,0.24710702896118164
1774472697464129300,9.86212939453125,0.06561854481697083,-0.013847986236214638,0.21868003904819489
1774472697474157000,9.872156982421876,0.10251504182815552,0.014848904684185982,0.20016653835773468
1774472697484185300,9.882185302734374,0.13026393949985504,0.011707073077559471,0.19731669127941132
1774472697494213000,9.892213134765624,0.11282929033041,0.10188383609056473,0.21560409665107727
1774472697504240000,9.902240234375,0.04231701418757439,0.3698675036430359,0.32386332750320435
1774472697514268200,9.91226806640625,-0.012674335390329361,0.5792990326881409,0.40547671914100647
1774472697524296000,9.9222958984375,0.03968815878033638,0.38229429721832275,0.28100067377090454
1774472697534324200,9.93232421875,-0.06398870050907135,0.14954784512519836,0.07104530185461044
1774472697544352000,9.94235205078125,-0.14270789921283722,0.28044646978378296,-0.14805522561073303
1774472697554380300,9.95238037109375,-0.12930475175380707,0.11656195670366287,-0.16714902222156525
1774472697564408000,9.962407958984375,-0.10209721326828003,-0.04918723553419113,-0.09931879490613937
1774472697574436000,9.97243603515625,-0.16512571275234222,-0.16584913432598114,-0.002005025278776884
1774472697584463000,9.982463134765625,-0.2909868061542511,-0.1324230432510376,0.13021810352802277
1774472697594491000,9.992490966796876,-0.4057605266571045,0.2980383336544037,0.20616160333156586
1774472697604519200,10.002519287109376,-0.4402276575565338,0.7897729277610779,0.22529533505439758
1774472697614547000,10.012546875,-0.32816794514656067,0.727304995059967,0.06784287095069885
1774472697624575200,10.0225751953125,-0.1952519714832306,0.29417911171913147,-0.03116866759955883
1774472697634603000,10.03260302734375,-0.05875192582607269,-0.08396897464990616,-0.06768406927585602
1774472697644631000,10.042631103515625,0.003945138305425644,-0.3459795415401459,-0.006905003916472197
1774472697654659000,10.0526591796875,0.06288648396730423,-0.3615207076072693,0.052249662578105927
1774472697664687000,10.06268701171875,0.09921034425497055,-0.38170668482780457,0.07224692404270172
1774472697674714000,10.072714111328125,0.14286834001541138,-0.5357929468154907,0.06659356504678726
1774472697684742100,10.0827421875,0.18750444054603577,-0.7776848673820496,0.05049557611346245
1774472697694770200,10.092770263671875,0.24473683536052704,-0.9179447889328003,-0.013922031037509441
1774472697704798200,10.102798095703125,0.2747057378292084,-0.8707491159439087,-0.1039251759648323
1774472697714826000,10.112825927734375,0.05779712274670601,-0.5996736884117126,-0.05953960120677948
1774472697724854300,10.122854248046876,0.03454260528087616,0.32075995206832886,-0.027278129011392593
1774472697734882000,10.132882080078126,0.006199648603796959,0.8720263242721558,0.06660096347332001
1774472697744910000,10.14291015625,-0.021604569628834724,0.4989030659198761,0.03680259734392166
1774472697754937000,10.15293701171875,0.006558890454471111,-0.12548676133155823,-0.03059854730963707
1774472697764965000,10.162965087890624,-0.018464485183358192,-0.36477941274642944,-0.06073230132460594
1774472697774993200,10.1729931640625,-0.0251799114048481,-0.17015986144542694,-0.011564753949642181
1774472697785021200,10.183021240234375,-0.051201630383729935,0.061974283307790756,0.05341530963778496
1774472697795049200,10.19304931640625,-0.18795228004455566,0.08263961225748062,0.0232108011841774
1774472697805077000,10.203076904296875,-0.3299793004989624,-0.24292711913585663,0.04476157948374748
1774472697815105300,10.213105224609375,-0.4479948878288269,-0.5146856307983398,0.10983298718929291
1774472697825133000,10.223133056640625,-0.4606305658817291,-0.34714508056640625,0.10390524566173553
1774472697835160000,10.23316015625,-0.40869757533073425,0.06646569073200226,0.15706966817378998
1774472697845187600,10.2431875,-0.3222302198410034,0.12898336350917816,0.2705669105052948
1774472697855215900,10.2532158203125,-0.17542216181755066,0.08394131809473038,0.23463715612888336
1774472697865243600,10.26324365234375,-0.11506626009941101,0.09819731116294861,0.15934960544109344
1774472697875271700,10.273271728515626,-0.00284545193426311,0.28466734290122986,0.10586266964673996
1774472697885299700,10.2832998046875,0.08228404819965363,0.341897189617157,0.11131756007671356
1774472697895327700,10.29332763671875,0.15668344497680664,0.1684628278017044,-0.05501735955476761
1774472697905355800,10.303355712890625,0.03542989119887352,0.5026800632476807,-0.18903833627700806
1774472697915382500,10.313382568359375,0.04992175102233887,0.37763747572898865,-0.14920276403427124
1774472697925410800,10.323410888671875,-0.02035844512283802,0.20974119007587433,-0.17431437969207764
1774472697935438600,10.3334384765625,-0.052351534366607666,0.26026612520217896,-0.18966111540794373
1774472697945467000,10.343466796875,-0.08420703560113907,0.35707399249076843,-0.22888252139091492
1774472697955494700,10.35349462890625,-0.13557274639606476,0.46887242794036865,-0.20717400312423706
1774472697965522700,10.363522705078125,-0.1486760973930359,0.5443878769874573,-0.20436695218086243
1774472697975550700,10.37355078125,-0.15714654326438904,0.5255194306373596,-0.1427062451839447
1774472697985578800,10.383578857421876,-0.13673946261405945,0.41935598850250244,-0.1008252203464508
1774472697995605800,10.393605712890626,-0.13673120737075806,0.2854671776294708,-0.029139578342437744
1774472698005633800,10.4036337890625,-0.13921621441841125,0.140950545668602,-0.005149075761437416
1774472698015661800,10.413661865234374,-0.052190765738487244,0.37349751591682434,-0.1166609525680542
1774472698025689900,10.42368994140625,0.055744718760252,0.5521113276481628,-0.2665022313594818
1774472698035717600,10.433717529296874,0.11368311941623688,0.6058339476585388,-0.3631393015384674
1774472698045746000,10.443745849609375,0.12133295834064484,0.3692261576652527,-0.31725582480430603
1774472698055773700,10.453773681640625,0.15046048164367676,0.08076212555170059,-0.1884552389383316
1774472698065802000,10.463802001953125,0.18948709964752197,-0.08193185925483704,-0.11081898212432861
1774472698075828700,10.473828857421875,0.14619342982769012,-0.39945468306541443,-0.14265307784080505
1774472698085856800,10.483856689453125,-0.0987975224852562,-0.05389226973056793,-0.09471260756254196
1774472698095884800,10.493884765625,-0.11382893472909927,-0.0767858624458313,-0.11822459101676941
1774472698105912600,10.50391259765625,-0.18299004435539246,0.02451973408460617,-0.11894136667251587
1774472698115940900,10.51394091796875,-0.2115950584411621,0.06623762100934982,-0.12667572498321533
1774472698125968600,10.52396875,-0.26819247007369995,0.20196421444416046,-0.12279979884624481
1774472698135997000,10.533996826171874,-0.29708725214004517,0.27127325534820557,-0.11425450444221497
1774472698146024700,10.544024658203124,-0.2682763636112213,0.2683793604373932,-0.14445701241493225
1774472698156052700,10.554052734375,-0.2610871493816376,0.17352421581745148,-0.14248520135879517
1774472698166079700,10.564079833984374,-0.2310943305492401,0.08928407728672028,-0.13151481747627258
1774472698176107500,10.574107421875,-0.2680318355560303,0.0769195556640625,-0.10871709883213043
1774472698186135800,10.5841357421875,-0.344515860080719,0.11214856803417206,-0.07362678647041321
1774472698196163600,10.59416357421875,-0.3974078297615051,0.13740918040275574,-0.07509658485651016
1774472698206191900,10.60419189453125,-0.30796828866004944,0.12835615873336792,-0.10583458840847015
1774472698216219600,10.6142197265625,-0.10542981326580048,0.1533547192811966,-0.14717164635658264
1774472698226247700,10.62424755859375,-0.08581631630659103,0.1766304075717926,-0.15447968244552612
1774472698236275700,10.634275634765626,-0.15654906630516052,0.11399178951978683,-0.13437840342521667
1774472698246302700,10.644302734375,-0.25414320826530457,0.02752501890063286,-0.06434314697980881
1774472698256330800,10.654330810546876,-0.3277535140514374,-0.006843873765319586,-0.024709448218345642
1774472698266358800,10.66435888671875,-0.2964854836463928,-0.029386619105935097,-0.04669059067964554
1774472698276386800,10.67438671875,-0.260419636964798,-0.04515039920806885,-0.11068422347307205
1774472698286414600,10.68441455078125,-0.26602479815483093,-0.09930816292762756,-0.1627357006072998
1774472698296442600,10.694442626953125,-0.23655933141708374,-0.1809290051460266,-0.17539049685001373
1774472698306470700,10.704470703125,-0.20106114447116852,-0.20152196288108826,-0.15397527813911438
1774472698316498700,10.714498779296875,-0.1506112813949585,-0.1013903021812439,-0.1495743989944458
1774472698326525700,10.724525634765625,-0.05296899750828743,-0.03718176856637001,-0.1412111520767212
1774472698336553700,10.7345537109375,0.03674810752272606,-0.11767102032899857,-0.0917205661535263
1774472698346581800,10.744581787109375,0.06501290947198868,-0.29195842146873474,-0.003396695014089346
1774472698356609800,10.75460986328125,0.08819892257452011,-0.38653844594955444,0.08433341979980469
1774472698366637800,10.764637939453126,0.07289210706949234,-0.24423746764659882,0.10464935749769211
1774472698376665900,10.774665771484376,0.05205846577882767,-0.04147156700491905,0.0646878257393837
1774472698386693600,10.784693603515626,0.037781186401844025,0.10901998728513718,-0.0013055414892733097
1774472698396722000,10.794721923828124,0.03563068434596062,0.08555833250284195,-0.04023802652955055
1774472698406748700,10.804748779296874,0.04089666157960892,0.008770360611379147,-0.041276246309280396
1774472698416776700,10.814776611328124,0.0607617124915123,-0.07489576935768127,0.0025095846503973007
1774472698426804700,10.8248046875,-0.007350517436861992,-0.03164558485150337,0.044618770480155945
1774472698436832800,10.834832763671875,-0.02327755279839039,0.23333334922790527,0.018866537138819695
1774472698446860800,10.84486083984375,-0.06546574831008911,0.2080797553062439,0.01509835571050644
1774472698456888600,10.854888671875,-0.11028674989938736,0.09938016533851624,0.01011451706290245
1774472698466916900,10.864916748046875,-0.2597748041152954,-0.002627416979521513,0.025637827813625336
1774472698476944600,10.874944580078125,-0.43377670645713806,0.019802259281277657,0.0702361911535263
1774472698486973000,10.884972900390625,-0.5589446425437927,-0.01371837966144085,0.15868529677391052
1774472698496999700,10.894999755859375,-0.600983738899231,-0.11954041570425034,0.23458963632583618
1774472698507027700,10.90502783203125,-0.61602383852005,-0.22200225293636322,0.3203625977039337
1774472698517055700,10.9150556640625,-0.6772823929786682,-0.4115615487098694,0.472547322511673
1774472698527083500,10.92508349609375,-0.749070942401886,-0.5279188752174377,0.6789029240608215
1774472698537111800,10.93511181640625,-0.8007634282112122,-0.6091492772102356,0.8024139404296875
1774472698547139600,10.9451396484375,-0.7219155430793762,-0.2905687391757965,0.8389039039611816
1774472698557167900,10.95516796875,-0.5715771913528442,0.025639835745096207,0.8651293516159058
1774472698567195600,10.965195556640625,-0.40857428312301636,-0.13906708359718323,0.8126412630081177
1774472698577223000,10.975222900390625,-0.39019739627838135,-0.13744015991687775,0.7668870687484741
1774472698587250700,10.985250732421875,-0.385646253824234,-0.11265034973621368,0.6888406276702881
1774472698597278700,10.99527880859375,-0.3437563478946686,-0.15595895051956177,0.5932611227035522
1774472698607306800,11.005306640625,-0.16988202929496765,0.06638722866773605,0.4896632134914398
1774472698617334800,11.015334716796875,-0.061904169619083405,-0.3559115529060364,0.5251761674880981
1774472698627362800,11.02536279296875,0.10579380393028259,-0.6746973991394043,0.6530623435974121
1774472698637390800,11.035390869140626,0.28695136308670044,-0.40350237488746643,0.7352485656738281
1774472698647418600,11.045418701171876,0.286699116230011,0.09439834952354431,0.8180967569351196
1774472698657445600,11.055445556640626,0.023109544068574905,0.6132287383079529,0.8941859006881714
1774472698667474000,11.065473876953124,-0.18509729206562042,0.823823869228363,0.788698673248291
1774472698677501700,11.075501708984374,-0.29906484484672546,0.8366541862487793,0.33599138259887695
1774472698687529700,11.08552978515625,-0.33757057785987854,0.6592919230461121,-0.28245943784713745
1774472698697557800,11.095557861328125,-0.3715357482433319,-0.20889489352703094,-0.6321367621421814
1774472698707585800,11.105585693359375,-0.4059500992298126,-1.2593793869018555,-0.6210372447967529
1774472698717613800,11.11561376953125,-0.5052106380462646,-1.641520619392395,-0.569778323173523
1774472698727641900,11.125641845703125,-0.5378878712654114,-1.54619300365448,-0.5003169775009155
1774472698737668900,11.1356689453125,-0.5173705816268921,-0.8647441267967224,-0.23502859473228455
1774472698747696600,11.145696533203125,-0.37849897146224976,0.14389219880104065,0.25048312544822693
1774472698757724700,11.155724609375,-0.2381032258272171,0.3735363185405731,0.22231727838516235
1774472698767752700,11.165752685546876,-0.22362428903579712,0.41517511010169983,0.01931956596672535
1774472698777780700,11.17578076171875,-0.2551715672016144,0.15224386751651764,0.010156428441405296
1774472698787808800,11.185808837890624,-0.19405052065849304,-0.026488004252314568,0.03714069351553917
1774472698797836800,11.1958369140625,-0.0791231319308281,-0.14512038230895996,0.03791008144617081
1774472698807864600,11.205864501953124,0.008176909759640694,-0.19214403629302979,-0.011400001123547554
1774472698817892900,11.215892822265625,0.072335384786129,-0.1918708086013794,-0.16855420172214508
1774472698827919600,11.225919677734375,0.42119812965393066,-0.24797332286834717,-0.3885917663574219
1774472698837948000,11.235947998046875,0.7932673096656799,-0.035931650549173355,-0.5136346817016602
1774472698847976400,11.2459765625,0.885137140750885,0.5226755142211914,-0.25260189175605774
1774472698858004500,11.25600439453125,0.7433459162712097,0.41776242852211,-0.337393194437027
1774472698868032500,11.266032470703125,0.7109679579734802,0.4440739154815674,-0.30133256316185
1774472698878060500,11.276060546875,0.7460777163505554,0.3251805305480957,-0.23606063425540924
1774472698888088600,11.286088623046876,0.7071143388748169,0.2573554217815399,-0.1736726313829422
1774472698898116600,11.29611669921875,0.5880995988845825,0.24094845354557037,-0.13919563591480255
1774472698908143600,11.3061435546875,0.38193073868751526,0.3360482156276703,-0.1765700876712799
1774472698918171400,11.31617138671875,0.2663748562335968,0.20420202612876892,-0.07265487313270569
1774472698928199400,11.326199462890624,0.1427963376045227,-0.13323290646076202,0.1048102155327797
1774472698938227500,11.3362275390625,0.16855736076831818,-0.13205206394195557,0.10515110194683075
1774472698948255500,11.34625537109375,0.1802968829870224,-0.1790919452905655,0.14874562621116638
1774472698958283500,11.356283447265625,0.08811608701944351,-0.11287776380777359,0.05954357981681824
1774472698968311600,11.3663115234375,0.0841095894575119,-0.0780545249581337,0.028961995616555214
1774472698978339300,11.37633935546875,0.01411665603518486,-0.03884240612387657,0.041067130863666534
1774472698988366600,11.38636669921875,-0.03935178741812706,-0.022952981293201447,0.05357780307531357
1774472698998394400,11.396394287109375,-0.05883387476205826,-0.03625573590397835,0.059875644743442535
1774472699008422400,11.40642236328125,-0.07873038947582245,-0.1490887850522995,0.044351786375045776
1774472699018450400,11.416450439453126,-0.08387455344200134,-0.21588538587093353,0.016342787072062492
1774472699028478500,11.426478515625,-0.09180097281932831,-0.1720031201839447,-0.013886945322155952
1774472699038506500,11.436506591796874,-0.0677584856748581,-0.09938032925128937,-0.008952373638749123
1774472699048534300,11.4465341796875,-0.043855175375938416,-0.0626601129770279,-0.028629787266254425
1774472699058562600,11.4565625,0.007935050874948502,0.0569099597632885,-0.07776777446269989
1774472699068589600,11.466589599609375,0.07386957108974457,0.18863506615161896,-0.13632039725780487
1774472699078617600,11.47661767578125,0.12558549642562866,0.25782907009124756,-0.1804465800523758
1774472699088645400,11.486645263671875,0.11806998401880264,0.15464866161346436,-0.1195422038435936
1774472699098673700,11.496673583984375,0.05825166031718254,0.1331779807806015,-0.09394975751638412
1774472699108701400,11.506701416015625,0.09729859232902527,0.2846517860889435,-0.1298273652791977
1774472699118729500,11.5167294921875,0.21538367867469788,0.2907930612564087,-0.20511145889759064
1774472699128757500,11.526757568359375,0.12546059489250183,0.375882625579834,-0.16379983723163605
1774472699138785500,11.53678564453125,0.14703352749347687,0.5023550987243652,-0.16585366427898407
1774472699148813600,11.5468134765625,0.11483698338270187,0.32972651720046997,-0.12635228037834167
1774472699158840300,11.55684033203125,-0.023125944659113884,-0.05997837334871292,-0.007093536667525768
1774472699168868600,11.56686865234375,-0.14075826108455658,-0.42098069190979004,0.08906478434801102
1774472699178896400,11.576896484375,-0.14633919298648834,-0.7105805277824402,0.14995743334293365
1774472699188924700,11.586924560546874,-0.2980054020881653,-0.9678102731704712,0.13859547674655914
1774472699198952400,11.596952392578125,-0.4386669397354126,-1.053894281387329,0.006825467571616173
1774472699208980500,11.60698046875,-0.5760941505432129,-0.9251723289489746,-0.003375646658241749
1774472699219008500,11.617008544921875,-0.5747979879379272,-0.5475677847862244,0.00392487645149231
1774472699229036500,11.62703662109375,-0.5279174447059631,-0.06822675466537476,-0.033250592648983
1774472699239063600,11.6370634765625,-0.5268968939781189,0.127924382686615,-0.0529814176261425
1774472699249091300,11.64709130859375,-0.4609488546848297,0.04737739637494087,-0.07065944373607635
1774472699259119600,11.65711962890625,-0.41243380308151245,-0.11931703984737396,-0.07809765636920929
1774472699269147400,11.6671474609375,-0.40024006366729736,-0.21741169691085815,-0.0717959776520729
1774472699279175400,11.677175537109376,-0.36237043142318726,-0.19915173947811127,-0.07826293259859085
1774472699289203500,11.687203369140626,-0.33289864659309387,-0.14951328933238983,-0.08250796794891357
1774472699299231500,11.6972314453125,-0.35315144062042236,-0.10917358100414276,0.0016660327091813087
1774472699309259500,11.707259521484374,-0.40239909291267395,-0.07977597415447235,0.1188594251871109
1774472699319286500,11.71728662109375,-0.3798344135284424,-0.09041450172662735,0.1662655472755432
1774472699329314600,11.727314453125,-0.32117557525634766,-0.0831293836236,0.1401379406452179
1774472699339342600,11.737342529296875,-0.17786264419555664,-0.03759518265724182,0.035107411444187164
1774472699349370400,11.747370361328125,-0.012181204743683338,0.009024959057569504,-0.1004657968878746
1774472699359398700,11.757398681640625,0.05307023599743843,-0.015350954607129097,-0.1589631885290146
1774472699369426400,11.767426513671875,0.05019129067659378,-0.024463798850774765,-0.15981264412403107
1774472699379454500,11.777454345703125,0.016161682084202766,0.08795276284217834,-0.10961844772100449
1774472699389482500,11.787482421875,0.0009649390703998506,0.1834345906972885,-0.039797648787498474
1774472699399509500,11.797509521484375,0.00707636121660471,0.23378032445907593,-0.045768722891807556
1774472699409537500,11.80753759765625,0.05472535640001297,0.22744520008563995,-0.21245169639587402
1774472699419565300,11.8175654296875,0.018939927220344543,0.11097025126218796,-0.19943630695343018
1774472699429593600,11.827593505859374,0.05716622993350029,0.09094961732625961,-0.11782670766115189
1774472699439621400,11.837621337890624,0.030364710837602615,0.15132588148117065,-0.15448644757270813
1774472699449649700,11.847649658203125,0.11993521451950073,0.1584887057542801,-0.3518843352794647
1774472699459677400,11.857677490234375,0.3189026415348053,0.041775673627853394,-0.45173344016075134
1774472699469705500,11.86770556640625,0.42312511801719666,-0.01892492175102234,-0.43929538130760193
1774472699479733500,11.8777333984375,0.2657669186592102,-0.03084043599665165,-0.33543503284454346
1774472699489760500,11.887760498046875,0.025745756924152374,0.02686895988881588,-0.09751778841018677
1774472699499788500,11.89778857421875,0.04612000659108162,0.12843047082424164,0.07466250658035278
1774472699509816300,11.90781640625,0.09010964632034302,0.16028429567813873,0.16150301694869995
1774472699519844600,11.9178447265625,0.26156318187713623,0.1040753498673439,0.1890379786491394
1774472699529872400,11.927872314453126,0.22599786520004272,-0.22252067923545837,0.2778673470020294
1774472699539900400,11.937900390625,0.03195808082818985,-0.2997451722621918,0.25994962453842163
1774472699549928400,11.947928466796874,-0.04585906118154526,-0.21883569657802582,0.30671030282974243
1774472699559956500,11.95795654296875,-0.1310407966375351,-0.08602757006883621,0.340134859085083
1774472699569983500,11.9679833984375,-0.1852596253156662,-0.10578705370426178,0.3528168201446533
1774472699580011500,11.978011474609374,-0.16391731798648834,-0.146511048078537,0.3379949927330017
1774472699590039600,11.98803955078125,-0.15831367671489716,-0.16215315461158752,0.26407623291015625
1774472699600067300,11.9980673828125,-0.13423284888267517,-0.19704829156398773,0.13980567455291748
1774472699610095600,12.008095703125,-0.1508088856935501,-0.27097344398498535,0.03051893785595894
1774472699620123400,12.018123291015625,-0.26037827134132385,-0.33629733324050903,0.041689299046993256
1774472699630151400,12.0281513671875,-0.2534830570220947,-0.39577072858810425,0.1171320378780365
1774472699640179500,12.038179443359375,-0.3640995919704437,-0.2294672280550003,0.18802300095558167
1774472699650206500,12.04820654296875,-0.46522292494773865,-0.09742267429828644,0.2712398171424866
1774472699660234500,12.058234375,-0.5192438364028931,0.11274787038564682,0.29310837388038635
1774472699670262500,12.068262451171876,-0.5567799210548401,0.31613773107528687,0.199630469083786
1774472699680290600,12.07829052734375,-0.41811251640319824,0.09156347066164017,0.05336993932723999
1774472699690318600,12.088318603515624,-0.5085272192955017,-0.04764397069811821,-0.20829589664936066
1774472699700346400,12.098346435546874,-0.3240439295768738,-0.8204030394554138,-0.18944498896598816
1774472699710374700,12.108374755859375,-0.42094340920448303,-0.9850311875343323,-0.3221091628074646
1774472699720402400,12.11840234375,-0.6397926807403564,-0.1519230157136917,-0.12992773950099945
1774472699730429400,12.128429443359375,-0.5259843468666077,0.2976215183734894,0.2832755446434021
1774472699740457500,12.13845751953125,-0.6439871191978455,-0.005244896747171879,0.2514433264732361
1774472699750485500,12.148485595703125,-0.6886010766029358,-0.3833564519882202,0.18778112530708313
1774472699760513500,12.158513427734375,-0.5328431725502014,-0.5828434824943542,0.18984295427799225
1774472699770541300,12.168541259765625,-0.5340349674224854,-0.49590402841567993,0.26783034205436707
1774472699780569600,12.178569580078126,-0.43148937821388245,-0.6056004166603088,0.4095557630062103
1774472699790597400,12.188597412109376,-0.36329105496406555,-0.6949893832206726,0.4370746314525604
1774472699800625700,12.198625732421876,-0.27346768975257874,-0.6938223838806152,0.331792950630188
1774472699810652400,12.20865234375,-0.22579768300056458,-0.43769052624702454,0.14038525521755219
1774472699820680400,12.218680419921874,-0.28608524799346924,-0.13010340929031372,0.1733623892068863
1774472699830708500,12.22870849609375,-0.5009282827377319,0.0824679508805275,0.39169979095458984
1774472699840736500,12.238736572265625,-0.28402528166770935,-0.006791885010898113,0.5329282879829407
1774472699850764800,12.248764892578125,-0.3366098701953888,-0.08017905801534653,0.5764203071594238
1774472699860792600,12.25879248046875,-0.3011980950832367,-0.1192026287317276,0.6586992144584656
1774472699870820900,12.26882080078125,-0.22552236914634705,-0.011041432619094849,0.6145975589752197
1774472699880848600,12.2788486328125,-0.20246578752994537,0.16522280871868134,0.5706689953804016
1774472699890876000,12.2888759765625,-0.2211357206106186,0.31807756423950195,0.5790506601333618
1774472699900903700,12.298903564453125,-0.2563844919204712,0.4043205976486206,0.5782285332679749
1774472699910931700,12.308931640625,-0.2760506868362427,0.39571380615234375,0.525236964225769
1774472699920959700,12.318959716796876,-0.28241589665412903,0.3422902524471283,0.3865315318107605
1774472699930987800,12.32898779296875,-0.07750044018030167,0.0051798028871417046,0.14322350919246674
1774472699941015800,12.339015869140624,-0.2614292502403259,0.13306185603141785,-0.01471712626516819
1774472699951043800,12.3490439453125,-0.2343108057975769,0.16155527532100677,0.11573594808578491
1774472699961071600,12.359071533203124,-0.17282001674175262,0.14077037572860718,0.2735479474067688
1774472699971098600,12.3690986328125,-0.20485477149486542,0.14985743165016174,0.3752596974372864
1774472699981127000,12.379126953125,-0.19447669386863708,0.24221719801425934,0.3488193154335022
1774472699991154700,12.38915478515625,-0.16805876791477203,0.39365410804748535,0.26697465777397156
1774472700001182700,12.3991826171875,-0.21388617157936096,0.5411564707756042,0.3095143735408783
1774472700011210800,12.409210693359375,-0.25362372398376465,0.7327720522880554,0.4451248049736023
1774472700021238800,12.41923876953125,-0.2736664116382599,0.7200179100036621,0.6100032925605774
1774472700031266800,12.429266845703125,-0.2658978998661041,0.5015309453010559,0.7056443691253662
1774472700041294800,12.439294921875,0.38247182965278625,-0.3986795246601105,0.6482787728309631
1774472700051321900,12.44932177734375,0.969831109046936,-0.6361367702484131,-0.2499404102563858
1774472700061349600,12.459349609375,1.5776480436325073,-0.3358781337738037,-1.3247123956680298
1774472700071377700,12.469377685546876,2.197486400604248,-0.45830902457237244,-2.069159984588623
1774472700081405700,12.47940576171875,2.877063274383545,-0.5643355846405029,-2.3256278038024902
1774472700091433700,12.489433837890624,3.433161735534668,-1.289703607559204,-2.220810651779175
1774472700101461800,12.499461669921875,3.655536651611328,-3.0684149265289307,-1.725751280784607
1774472700111489800,12.50948974609375,3.1204028129577637,-5.3489909172058105,-0.7527877688407898
