time,seconds_elapsed,z,y,x
1774472305730239700,0.06623974609375,-0.9789581298828125,-0.2750091552734375,0.1873016357421875
1774472305740266800,0.076266845703125,-0.9680023193359375,-0.2836761474609375,0.200225830078125
1774472305750294800,0.086294677734375,-0.9228057861328125,-0.3125457763671875,0.2410125732421875
1774472305760322800,0.09632275390625,-0.876556396484375,-0.351409912109375,0.26434326171875
1774472305770350600,0.1063505859375,-0.8282928466796875,-0.365631103515625,0.2391357421875
1774472305780379000,0.11637890625,-0.7944793701171875,-0.358428955078125,0.240020751953125
1774472305790406700,0.12640673828125,-0.7771453857421875,-0.3471527099609375,0.2866363525390625
1774472305800435000,0.13643505859375,-0.7858428955078125,-0.3442535400390625,0.3393707275390625
1774472305810462700,0.146462646484375,-0.8260955810546875,-0.346832275390625,0.3171844482421875
1774472305820490800,0.15649072265625,-0.9033050537109375,-0.351959228515625,0.2763214111328125
1774472305830518800,0.166518798828125,-1.010345458984375,-0.38897705078125,0.3294830322265625
1774472305840546800,0.176546875,-1.0269317626953125,-0.374542236328125,0.3373260498046875
1774472305850573800,0.18657373046875,-0.958099365234375,-0.34600830078125,0.2935028076171875
1774472305860601900,0.196601806640625,-0.912872314453125,-0.3526611328125,0.2071685791015625
1774472305870630000,0.2066298828125,-0.883331298828125,-0.3740081787109375,0.126556396484375
1774472305880657700,0.21665771484375,-0.8525848388671875,-0.328338623046875,0.3500823974609375
1774472305890685700,0.226685791015625,-0.822174072265625,-0.3047637939453125,0.6537628173828125
1774472305900713700,0.236713623046875,-0.866729736328125,-0.3815155029296875,0.6962432861328125
1774472305910741800,0.24674169921875,-0.88116455078125,-0.4337310791015625,0.5292205810546875
1774472305920769800,0.256769775390625,-0.8818817138671875,-0.416717529296875,0.3688201904296875
1774472305930797800,0.2667978515625,-0.826934814453125,-0.33831787109375,0.3545379638671875
1774472305940825600,0.27682568359375,-0.8003692626953125,-0.2838287353515625,0.36260986328125
1774472305950854000,0.28685400390625,-0.90533447265625,-0.17431640625,0.3316802978515625
1774472305960880600,0.296880615234375,-1.110931396484375,-0.04217529296875,0.301849365234375
1774472305970909000,0.306908935546875,-1.16802978515625,-0.0935821533203125,0.2903594970703125
1774472305980936700,0.316936767578125,-1.0001678466796875,-0.27471923828125,0.412689208984375
1774472305990965000,0.326965087890625,-0.793975830078125,-0.388336181640625,0.407379150390625
1774472306000992800,0.33699267578125,-0.5391693115234375,-0.5054168701171875,0.2822113037109375
1774472306011020800,0.347020751953125,-0.34503173828125,-0.5728759765625,0.1166534423828125
1774472306021048800,0.357048828125,-0.3547210693359375,-0.4952545166015625,0.04632568359375
1774472306031076600,0.36707666015625,-0.5400848388671875,-0.3220672607421875,0.099151611328125
1774472306041105000,0.37710498046875,-0.743072509765625,-0.2358551025390625,0.1045684814453125
1774472306051132700,0.387132568359375,-0.88580322265625,-0.24993896484375,0.0693206787109375
1774472306061160700,0.39716064453125,-0.9301605224609375,-0.309112548828125,0.0839080810546875
1774472306071187700,0.407187744140625,-0.8583984375,-0.407806396484375,0.090087890625
1774472306081215700,0.4172158203125,-0.6060333251953125,-0.6961822509765625,-0.142669677734375
1774472306091243800,0.427243896484375,-1.6056976318359375,-0.394073486328125,0.4759674072265625
1774472306101271800,0.437271728515625,-1.4831085205078125,-0.3839569091796875,0.413665771484375
1774472306111299800,0.4472998046875,-0.739044189453125,-0.44573974609375,0.113494873046875
1774472306121327900,0.457327880859375,-0.803924560546875,-0.5882415771484375,-0.1751556396484375
1774472306131355600,0.467355712890625,-0.800079345703125,-0.621551513671875,-0.0518646240234375
1774472306141384000,0.477384033203125,-1.0426483154296875,-0.55078125,0.20562744140625
1774472306151411700,0.48741162109375,-1.0118560791015625,-0.5942840576171875,0.106292724609375
1774472306161440000,0.49743994140625,-0.9105682373046875,-0.63690185546875,0.0964508056640625
1774472306171467800,0.5074677734375,-0.8322296142578125,-0.626190185546875,0.1121673583984375
1774472306181494800,0.517494873046875,-0.8328704833984375,-0.5761260986328125,0.15008544921875
1774472306191522800,0.527522705078125,-0.8152923583984375,-0.5630340576171875,0.1591644287109375
1774472306201550800,0.53755078125,-0.808807373046875,-0.550811767578125,0.1224517822265625
1774472306211579000,0.547578857421875,-0.802337646484375,-0.5481719970703125,0.1251678466796875
1774472306221606700,0.557606689453125,-0.808258056640625,-0.5608062744140625,0.1285400390625
1774472306231635000,0.567635009765625,-0.809814453125,-0.575347900390625,0.1135101318359375
1774472306241662700,0.577662841796875,-0.8002471923828125,-0.587799072265625,0.10791015625
1774472306251690800,0.587690673828125,-0.7950286865234375,-0.591766357421875,0.132049560546875
1774472306261718800,0.59771875,-0.7738494873046875,-0.5833740234375,0.13543701171875
1774472306271746800,0.607746826171875,-0.7463226318359375,-0.5551300048828125,0.131866455078125
1774472306281774800,0.61777490234375,-0.7318267822265625,-0.527984619140625,0.1399688720703125
1774472306291803000,0.627802978515625,-0.7377471923828125,-0.4942169189453125,0.1552886962890625
1774472306301830000,0.637829833984375,-0.7502288818359375,-0.4673004150390625,0.1555023193359375
1774472306311857700,0.647857666015625,-0.7814483642578125,-0.445587158203125,0.1522216796875
1774472306321886000,0.657885986328125,-0.83197021484375,-0.4250030517578125,0.1677398681640625
1774472306331913700,0.667913818359375,-0.859893798828125,-0.4161224365234375,0.1579132080078125
1774472306341941800,0.677941650390625,-0.8678436279296875,-0.41204833984375,0.149932861328125
1774472306351969800,0.6879697265625,-0.899322509765625,-0.413543701171875,0.1759185791015625
1774472306361997800,0.697997802734375,-0.9527130126953125,-0.4025115966796875,0.177581787109375
1774472306372025900,0.70802587890625,-1.0088653564453125,-0.399322509765625,0.1722564697265625
1774472306382054000,0.718053955078125,-1.030731201171875,-0.3870849609375,0.1513214111328125
1774472306392081700,0.72808154296875,-1.04833984375,-0.36126708984375,0.1331024169921875
1774472306402110000,0.73810986328125,-1.0772705078125,-0.332000732421875,0.1492462158203125
1774472306412137700,0.7481376953125,-1.0861358642578125,-0.3138885498046875,0.1730499267578125
1774472306422164700,0.758164794921875,-1.0703887939453125,-0.2731781005859375,0.1726837158203125
1774472306432192800,0.76819287109375,-1.0643768310546875,-0.234771728515625,0.182342529296875
1774472306442220800,0.778220703125,-1.1001434326171875,-0.2280120849609375,0.196014404296875
1774472306452249000,0.7882490234375,-1.100982666015625,-0.223114013671875,0.183807373046875
1774472306462276900,0.79827685546875,-1.0749053955078125,-0.198944091796875,0.1478118896484375
1774472306472305200,0.80830517578125,-1.043060302734375,-0.17681884765625,0.133270263671875
1774472306482333000,0.8183330078125,-1.0315399169921875,-0.1693115234375,0.078216552734375
1774472306492361000,0.82836083984375,-1.0235137939453125,-0.1847686767578125,-0.04559326171875
1774472306502389000,0.838388916015625,-1.049041748046875,-0.1630096435546875,-0.0391693115234375
1774472306512417000,0.8484169921875,-1.0484619140625,-0.1284637451171875,0.1438446044921875
1774472306522445000,0.858445068359375,-0.9350433349609375,-0.1159820556640625,0.2052001953125
1774472306532473000,0.86847314453125,-0.9152374267578125,-0.21307373046875,0.284820556640625
1774472306542500000,0.8785,-0.9913330078125,-0.2038421630859375,0.3008880615234375
1774472306552528100,0.888528076171875,-0.9112396240234375,-0.1228179931640625,0.3147125244140625
1774472306562556000,0.898555908203125,-0.894195556640625,-0.110992431640625,0.3427581787109375
1774472306572584200,0.908584228515625,-0.8885955810546875,-0.1715545654296875,0.331207275390625
1774472306582612000,0.918612060546875,-0.78936767578125,-0.1779327392578125,0.2888641357421875
1774472306592640000,0.928639892578125,-0.75262451171875,-0.1433563232421875,0.246429443359375
1774472306602668000,0.93866796875,-0.716522216796875,-0.13043212890625,0.2144927978515625
1774472306612695800,0.94869580078125,-0.7059326171875,-0.13092041015625,0.20025634765625
1774472306622724000,0.95872412109375,-0.724609375,-0.13067626953125,0.2144622802734375
1774472306632751900,0.968751953125,-0.7562103271484375,-0.1051177978515625,0.2149200439453125
1774472306642780200,0.9787802734375,-0.8881683349609375,-0.0760650634765625,0.231414794921875
1774472306652808000,0.988807861328125,-0.8958587646484375,-0.0883331298828125,0.2636566162109375
1774472306662836000,0.9988359375,-0.8854217529296875,-0.1290283203125,0.26885986328125
1774472306672863000,1.008863037109375,-0.8863983154296875,-0.1514892578125,0.2152252197265625
1774472306682891000,1.01889111328125,-0.88043212890625,-0.176910400390625,0.17919921875
1774472306692919000,1.0289189453125,-0.891815185546875,-0.20452880859375,0.17706298828125
1774472306702947000,1.038947021484375,-0.9282379150390625,-0.223907470703125,0.163299560546875
1774472306712975000,1.04897509765625,-0.9936676025390625,-0.230621337890625,0.16326904296875
1774472306723003100,1.059003173828125,-1.0702362060546875,-0.2134246826171875,0.198699951171875
1774472306733031000,1.069031005859375,-1.0499114990234375,-0.23455810546875,0.21484375
1774472306743059000,1.079058837890625,-1.0066070556640625,-0.2741546630859375,0.2000885009765625
1774472306753087000,1.0890869140625,-1.0011444091796875,-0.2850189208984375,0.17425537109375
1774472306763115000,1.099114990234375,-1.01202392578125,-0.2824249267578125,0.168975830078125
1774472306773143000,1.10914306640625,-1.028167724609375,-0.2813568115234375,0.17755126953125
1774472306783170800,1.1191708984375,-1.0197906494140625,-0.27685546875,0.1774139404296875
1774472306793198000,1.129197998046875,-1.023406982421875,-0.256011962890625,0.2035064697265625
1774472306803226000,1.13922607421875,-1.036834716796875,-0.2506866455078125,0.22784423828125
1774472306813254100,1.149254150390625,-1.0276336669921875,-0.26702880859375,0.2344970703125
1774472306823282000,1.159281982421875,-1.0220489501953125,-0.280792236328125,0.2204742431640625
1774472306833310200,1.169310302734375,-1.0047149658203125,-0.2811431884765625,0.1956787109375
1774472306843338000,1.179337890625,-1.000518798828125,-0.27142333984375,0.1871185302734375
1774472306853366000,1.189365966796875,-1.0015716552734375,-0.275543212890625,0.19049072265625
1774472306863394000,1.19939404296875,-1.007049560546875,-0.2904052734375,0.2064208984375
1774472306873422000,1.209422119140625,-1.00909423828125,-0.3075103759765625,0.2190704345703125
1774472306883450000,1.2194501953125,-1.0078277587890625,-0.3189544677734375,0.208587646484375
1774472306893478000,1.229477783203125,-0.9981842041015625,-0.3321685791015625,0.196929931640625
1774472306903506000,1.239505859375,-0.980010986328125,-0.3467254638671875,0.174224853515625
1774472306913534000,1.249533935546875,-0.9700164794921875,-0.3434906005859375,0.1557464599609375
1774472306923562000,1.25956201171875,-0.9500274658203125,-0.343658447265625,0.13671875
1774472306933589000,1.269589111328125,-0.9367523193359375,-0.3421478271484375,0.120819091796875
1774472306943617000,1.279616943359375,-0.9509429931640625,-0.3316650390625,0.11236572265625
1774472306953645000,1.28964501953125,-0.985198974609375,-0.325225830078125,0.09869384765625
1774472306963673000,1.299673095703125,-0.9888763427734375,-0.338592529296875,0.114288330078125
1774472306973701000,1.309701171875,-0.9930267333984375,-0.349273681640625,0.1077728271484375
1774472306983729200,1.319729248046875,-0.9764404296875,-0.3402099609375,0.063201904296875
1774472306993757000,1.3297568359375,-0.955291748046875,-0.32318115234375,0.0445556640625
1774472307003785200,1.33978515625,-0.952484130859375,-0.3169097900390625,0.044952392578125
1774472307013813000,1.34981298828125,-0.9549102783203125,-0.30755615234375,0.0474395751953125
1774472307023841000,1.359841064453125,-0.9603118896484375,-0.300811767578125,0.0680389404296875
1774472307033869000,1.369869140625,-0.9691314697265625,-0.29278564453125,0.0728912353515625
1774472307043897000,1.37989697265625,-0.9539794921875,-0.2787628173828125,0.0692291259765625
1774472307053925000,1.389925048828125,-0.9307708740234375,-0.2636260986328125,0.08013916015625
1774472307063952000,1.399951904296875,-0.928192138671875,-0.2547760009765625,0.104034423828125
1774472307073980200,1.409980224609375,-0.9189300537109375,-0.254119873046875,0.1095733642578125
1774472307084008000,1.420008056640625,-0.9019012451171875,-0.239532470703125,0.10552978515625
1774472307094036200,1.4300361328125,-0.904022216796875,-0.2268524169921875,0.113983154296875
1774472307104064000,1.44006396484375,-0.90765380859375,-0.223236083984375,0.11322021484375
1774472307114092000,1.450092041015625,-0.8909759521484375,-0.2225494384765625,0.1038818359375
1774472307124120000,1.4601201171875,-0.889068603515625,-0.2149505615234375,0.0984649658203125
1774472307134148000,1.470148193359375,-0.908843994140625,-0.206146240234375,0.0860595703125
1774472307144176000,1.480176025390625,-0.9091033935546875,-0.205841064453125,0.06768798828125
1774472307154204200,1.4902041015625,-0.914398193359375,-0.202239990234375,0.070770263671875
1774472307164232000,1.50023193359375,-0.927215576171875,-0.195709228515625,0.0833892822265625
1774472307174260200,1.51026025390625,-0.92535400390625,-0.196990966796875,0.0898590087890625
1774472307184288000,1.5202880859375,-0.9215850830078125,-0.2006988525390625,0.100311279296875
1774472307194316000,1.53031591796875,-0.9302825927734375,-0.193695068359375,0.102508544921875
1774472307204343000,1.540343017578125,-0.9473114013671875,-0.1973876953125,0.0933074951171875
1774472307214371000,1.55037109375,-0.9575347900390625,-0.2073211669921875,0.1035614013671875
1774472307224399000,1.560399169921875,-0.9640960693359375,-0.199920654296875,0.113006591796875
1774472307234427000,1.570427001953125,-0.96136474609375,-0.1902008056640625,0.1070709228515625
1774472307244455200,1.580455078125,-0.9431304931640625,-0.178619384765625,0.0941314697265625
1774472307254483000,1.59048291015625,-0.944061279296875,-0.188262939453125,0.097808837890625
1774472307264511200,1.60051123046875,-0.9395751953125,-0.1972198486328125,0.113067626953125
1774472307274539000,1.6105390625,-0.9100341796875,-0.18670654296875,0.096435546875
1774472307284567000,1.620567138671875,-0.9024658203125,-0.2031402587890625,0.0656890869140625
1774472307294595000,1.630594970703125,-0.92327880859375,-0.224700927734375,0.054351806640625
1774472307304623000,1.640623046875,-0.94580078125,-0.235015869140625,0.049896240234375
1774472307314651100,1.650651123046875,-0.9453887939453125,-0.245269775390625,0.0381011962890625
1774472307324679200,1.66067919921875,-0.9443817138671875,-0.25726318359375,0.026702880859375
1774472307334707000,1.67070703125,-0.939849853515625,-0.254180908203125,0.0169525146484375
1774472307344734000,1.68073388671875,-0.9472503662109375,-0.247955322265625,0.021759033203125
1774472307354762000,1.690761962890625,-0.955322265625,-0.240386962890625,0.035308837890625
1774472307364790000,1.7007900390625,-0.9661712646484375,-0.2301177978515625,0.0555419921875
1774472307374818000,1.710818115234375,-0.967498779296875,-0.223052978515625,0.0793609619140625
1774472307384846000,1.72084619140625,-0.9715118408203125,-0.204803466796875,0.0975494384765625
1774472307394874000,1.7308740234375,-0.9744873046875,-0.1954193115234375,0.0949859619140625
1774472307404902000,1.74090185546875,-0.9820709228515625,-0.2076263427734375,0.09417724609375
1774472307414930200,1.75093017578125,-1.0054779052734375,-0.20977783203125,0.0903472900390625
1774472307424958000,1.7609580078125,-1.024444580078125,-0.211456298828125,0.0699005126953125
1774472307434986200,1.770986328125,-1.030426025390625,-0.219024658203125,0.0582427978515625
1774472307445014000,1.781013916015625,-1.0428619384765625,-0.224365234375,0.0611572265625
1774472307455042000,1.7910419921875,-1.052978515625,-0.2315216064453125,0.0604248046875
1774472307465070000,1.801070068359375,-1.0516510009765625,-0.2336578369140625,0.0586395263671875
1774472307475098000,1.81109814453125,-1.06427001953125,-0.2355804443359375,0.06622314453125
1774472307485126100,1.821126220703125,-1.06805419921875,-0.2340087890625,0.0783538818359375
1774472307495153000,1.83115283203125,-1.0549468994140625,-0.225616455078125,0.08831787109375
1774472307505181200,1.84118115234375,-1.0427093505859375,-0.219146728515625,0.0929107666015625
1774472307515209000,1.851208984375,-1.036407470703125,-0.227508544921875,0.0958404541015625
1774472307525237000,1.861237060546875,-1.03118896484375,-0.2294769287109375,0.0994873046875
1774472307535265000,1.87126513671875,-1.0247650146484375,-0.2297821044921875,0.1056060791015625
1774472307545293000,1.88129296875,-1.0136871337890625,-0.2393646240234375,0.1096038818359375
1774472307555321000,1.891321044921875,-0.998443603515625,-0.242034912109375,0.1095733642578125
1774472307565349000,1.90134912109375,-0.9822998046875,-0.2453155517578125,0.1079559326171875
1774472307575377000,1.911376953125,-0.97869873046875,-0.2454376220703125,0.0969696044921875
1774472307585405200,1.9214052734375,-0.9677734375,-0.2392730712890625,0.0868988037109375
1774472307595433000,1.931432861328125,-0.9490814208984375,-0.24053955078125,0.0865478515625
1774472307605461200,1.941461181640625,-0.9409027099609375,-0.2410736083984375,0.07513427734375
1774472307615489000,1.951489013671875,-0.944366455078125,-0.2392120361328125,0.0585174560546875
1774472307625517000,1.96151708984375,-0.9493560791015625,-0.2424163818359375,0.055633544921875
1774472307635545000,1.971545166015625,-0.9403533935546875,-0.241607666015625,0.057281494140625
1774472307645571800,1.98157177734375,-0.9400177001953125,-0.2344970703125,0.057281494140625
1774472307655600000,1.99160009765625,-0.9473724365234375,-0.237640380859375,0.060577392578125
1774472307665628000,2.0016279296875,-0.950714111328125,-0.2446746826171875,0.0719757080078125
1774472307675656200,2.01165625,-0.9557952880859375,-0.2454681396484375,0.07171630859375
1774472307685684000,2.02168408203125,-0.95501708984375,-0.250701904296875,0.0677032470703125
1774472307695712000,2.0317119140625,-0.94244384765625,-0.254791259765625,0.0634307861328125
1774472307705740000,2.041739990234375,-0.9352264404296875,-0.254364013671875,0.051666259765625
1774472307715768000,2.05176806640625,-0.9462738037109375,-0.248443603515625,0.0234222412109375
1774472307725796000,2.061796142578125,-0.9585723876953125,-0.248748779296875,-0.0197601318359375
1774472307735824100,2.07182421875,-0.9587249755859375,-0.2551422119140625,-0.02655029296875
1774472307745852000,2.081851806640625,-0.959747314453125,-0.2717742919921875,-0.00616455078125
1774472307755880200,2.091880126953125,-0.97137451171875,-0.2706451416015625,0.0047760009765625
1774472307765908000,2.101907958984375,-0.9747772216796875,-0.2750244140625,-0.0004425048828125
1774472307775936000,2.11193603515625,-0.96466064453125,-0.2804718017578125,-0.006805419921875
1774472307785964000,2.121964111328125,-0.9615936279296875,-0.283935546875,-0.0055084228515625
1774472307795992000,2.131991943359375,-0.967987060546875,-0.28936767578125,0.00445556640625
1774472307806019000,2.14201904296875,-0.97161865234375,-0.2867279052734375,0.0045318603515625
1774472307816046800,2.152046875,-0.968292236328125,-0.28155517578125,-0.0105743408203125
1774472307826075100,2.1620751953125,-0.9619293212890625,-0.2864227294921875,-0.02044677734375
1774472307836103000,2.17210302734375,-0.962860107421875,-0.289398193359375,-0.01812744140625
1774472307846131200,2.182131103515625,-0.9725341796875,-0.2891693115234375,-0.0069732666015625
1774472307856159000,2.192158935546875,-0.9727935791015625,-0.295074462890625,0.0101165771484375
1774472307866187000,2.20218701171875,-0.9701690673828125,-0.3004302978515625,0.0288543701171875
1774472307876215000,2.212215087890625,-0.964019775390625,-0.3059844970703125,0.042755126953125
1774472307886243000,2.2222431640625,-0.95751953125,-0.30743408203125,0.0615692138671875
1774472307896271000,2.23227099609375,-0.953948974609375,-0.3022918701171875,0.07464599609375
1774472307906299100,2.242299072265625,-0.9557647705078125,-0.284515380859375,0.0666961669921875
1774472307916327000,2.252326904296875,-0.93682861328125,-0.24786376953125,0.055419921875
1774472307926355200,2.262355224609375,-0.8417205810546875,-0.1934967041015625,0.1453857421875
1774472307936383000,2.272383056640625,-0.8921661376953125,-0.2821502685546875,0.0796661376953125
1774472307946411000,2.282410888671875,-0.952301025390625,-0.2892303466796875,0.0127716064453125
1774472307956439000,2.29243896484375,-0.945770263671875,-0.2418670654296875,-0.0126953125
1774472307966467000,2.302467041015625,-0.930755615234375,-0.236480712890625,-0.048126220703125
1774472307976494000,2.312494140625,-0.9403533935546875,-0.259613037109375,-0.0893707275390625
1774472307986521900,2.32252197265625,-0.9685211181640625,-0.274871826171875,-0.1222991943359375
1774472307996550100,2.332550048828125,-0.9873504638671875,-0.264556884765625,-0.1189422607421875
1774472308006578000,2.342577880859375,-0.9892730712890625,-0.2584686279296875,-0.0998382568359375
1774472308016606200,2.352606201171875,-0.9720001220703125,-0.260101318359375,-0.07763671875
1774472308026634000,2.362634033203125,-0.971038818359375,-0.2693328857421875,-0.062042236328125
1774472308036662000,2.372662109375,-0.963836669921875,-0.2674407958984375,-0.050872802734375
1774472308046690000,2.38268994140625,-0.9560699462890625,-0.26446533203125,-0.0581512451171875
1774472308056718000,2.392718017578125,-0.9559478759765625,-0.26080322265625,-0.06634521484375
1774472308066746000,2.40274609375,-0.95123291015625,-0.257415771484375,-0.0687255859375
1774472308076774100,2.412774169921875,-0.946502685546875,-0.24786376953125,-0.069000244140625
1774472308086802000,2.422802001953125,-0.9409637451171875,-0.2415008544921875,-0.0686798095703125
1774472308096830200,2.432830322265625,-0.9600372314453125,-0.2429046630859375,-0.073486328125
1774472308106858000,2.44285791015625,-0.9775238037109375,-0.2375946044921875,-0.08197021484375
1774472308116886000,2.452885986328125,-0.9750823974609375,-0.2426300048828125,-0.071044921875
1774472308126914000,2.4629140625,-0.994842529296875,-0.2616119384765625,-0.0670166015625
1774472308136942000,2.472942138671875,-1.0124359130859375,-0.26947021484375,-0.0579071044921875
1774472308146969000,2.482968994140625,-1.0012054443359375,-0.2808074951171875,-0.0469512939453125
1774472308156996900,2.492996826171875,-0.9967193603515625,-0.2929229736328125,-0.0560455322265625
1774472308167025200,2.503025146484375,-1.0065155029296875,-0.30914306640625,-0.0632476806640625
1774472308177053000,2.513052978515625,-1.0045928955078125,-0.3151092529296875,-0.0753021240234375
1774472308187081200,2.523081298828125,-0.987762451171875,-0.3065032958984375,-0.101318359375
1774472308197109000,2.53310888671875,-0.9722442626953125,-0.3211212158203125,-0.1083221435546875
1774472308207137000,2.543136962890625,-0.9738922119140625,-0.3192138671875,-0.092742919921875
1774472308217165000,2.5531650390625,-0.9727783203125,-0.3040008544921875,-0.0727996826171875
1774472308227193000,2.563193115234375,-0.95367431640625,-0.299713134765625,-0.073699951171875
1774472308237221000,2.57322119140625,-0.9393157958984375,-0.300628662109375,-0.0868682861328125
1774472308247249200,2.583249267578125,-0.9278411865234375,-0.300048828125,-0.0884246826171875
1774472308257277000,2.59327685546875,-0.918609619140625,-0.289337158203125,-0.0765380859375
1774472308267305200,2.60330517578125,-0.9270172119140625,-0.2985382080078125,-0.06365966796875
1774472308277333000,2.6133330078125,-0.9260406494140625,-0.303466796875,-0.058013916015625
1774472308287361000,2.623361083984375,-0.9266357421875,-0.3122406005859375,-0.0608978271484375
1774472308297389000,2.63338916015625,-0.925689697265625,-0.29693603515625,-0.0767974853515625
1774472308307416800,2.643416748046875,-0.9215850830078125,-0.297515869140625,-0.0960845947265625
1774472308317445000,2.653445068359375,-0.92108154296875,-0.3287200927734375,-0.0959014892578125
1774472308327473000,2.663472900390625,-0.938018798828125,-0.327789306640625,-0.055206298828125
1774472308337500200,2.673500244140625,-0.9488067626953125,-0.3253631591796875,-0.016571044921875
1774472308347528000,2.68352783203125,-0.9485931396484375,-0.322723388671875,-0.0381011962890625
1774472308357556200,2.69355615234375,-0.94952392578125,-0.32318115234375,-0.0687103271484375
1774472308367584000,2.703583984375,-0.950347900390625,-0.353363037109375,-0.0435028076171875
1774472308377612000,2.713612060546875,-0.94073486328125,-0.3574981689453125,-0.0202178955078125
1774472308387640000,2.72364013671875,-0.9188690185546875,-0.3751373291015625,-0.0264739990234375
1774472308397668000,2.733668212890625,-0.8782501220703125,-0.387725830078125,-0.0161285400390625
1774472308407696100,2.743696044921875,-0.8603057861328125,-0.395660400390625,-0.0557403564453125
1774472308417724200,2.75372412109375,-0.87042236328125,-0.3981170654296875,-0.109222412109375
1774472308427752000,2.763751953125,-0.8961639404296875,-0.3793792724609375,-0.1334228515625
1774472308437780200,2.7737802734375,-0.9256744384765625,-0.3756561279296875,-0.1328125
1774472308447808300,2.783808349609375,-0.8870849609375,-0.407501220703125,-0.1271820068359375
1774472308457836300,2.793836181640625,-0.8829803466796875,-0.373870849609375,-0.129730224609375
1774472308467864300,2.8038642578125,-0.8788299560546875,-0.2970428466796875,-0.179901123046875
1774472308477892400,2.813892333984375,-0.9159393310546875,-0.308929443359375,-0.308624267578125
1774472308487920400,2.82392041015625,-0.9600830078125,-0.35546875,-0.35321044921875
1774472308497948200,2.8339482421875,-0.935760498046875,-0.3020782470703125,-0.314544677734375
1774472308507976200,2.84397607421875,-0.9746246337890625,-0.358734130859375,-0.270263671875
1774472308518004200,2.854004150390625,-1.0164642333984375,-0.3924407958984375,-0.26116943359375
1774472308528032300,2.8640322265625,-0.968994140625,-0.4190673828125,-0.256317138671875
1774472308538059300,2.874059326171875,-0.9363250732421875,-0.404937744140625,-0.3022613525390625
1774472308548087300,2.88408740234375,-0.9289093017578125,-0.43505859375,-0.19842529296875
1774472308558115300,2.894115234375,-0.8739013671875,-0.4560394287109375,-0.1251220703125
1774472308568143400,2.904143310546875,-0.84228515625,-0.4654998779296875,-0.118316650390625
1774472308578171100,2.914171142578125,-0.81158447265625,-0.476837158203125,-0.091400146484375
1774472308588199400,2.924199462890625,-0.8118896484375,-0.43048095703125,-0.0819244384765625
1774472308598227200,2.934227294921875,-0.7747955322265625,-0.40728759765625,-0.0279541015625
1774472308608255500,2.94425537109375,-0.7695465087890625,-0.428192138671875,-0.013946533203125
1774472308618283300,2.954283203125,-0.7848968505859375,-0.405975341796875,-0.031951904296875
1774472308628311300,2.964311279296875,-0.8048553466796875,-0.3859405517578125,-0.090484619140625
1774472308638339300,2.97433935546875,-0.844268798828125,-0.391998291015625,-0.13214111328125
1774472308648367000,2.9843671875,-0.8779144287109375,-0.4154510498046875,-0.166595458984375
1774472308658395400,2.9943955078125,-0.8980712890625,-0.3813934326171875,-0.16522216796875
1774472308668423200,3.004423095703125,-0.959991455078125,-0.3952178955078125,-0.1652679443359375
1774472308678451200,3.014451171875,-0.9128875732421875,-0.4152069091796875,-0.1591796875
1774472308688479200,3.024479248046875,-0.863311767578125,-0.398284912109375,-0.16845703125
1774472308698507300,3.03450732421875,-0.863189697265625,-0.405029296875,-0.192962646484375
1774472308708535300,3.044535400390625,-0.6055145263671875,-0.38214111328125,-0.1716461181640625
1774472308718563300,3.054563232421875,-0.6640625,-0.337890625,-0.2107086181640625
1774472308728591000,3.064591064453125,-1.0594024658203125,-0.4349212646484375,-0.20989990234375
1774472308738618400,3.074618408203125,-0.6508941650390625,-0.38104248046875,-0.0796966552734375
1774472308748646100,3.084646240234375,-0.484771728515625,-0.418365478515625,-0.3310699462890625
1774472308758674400,3.09467431640625,-0.747650146484375,-0.4593353271484375,-0.691864013671875
1774472308768702200,3.1047021484375,-0.82611083984375,-0.467041015625,-0.850555419921875
1774472308778730500,3.11473046875,-0.7555084228515625,-0.52960205078125,-0.814300537109375
1774472308788758300,3.12475830078125,-0.8205718994140625,-0.51678466796875,-0.5923614501953125
1774472308798786300,3.134786376953125,-0.7656097412109375,-0.4045257568359375,-0.267974853515625
1774472308808814300,3.144814453125,-0.819091796875,-0.4709625244140625,-0.2310333251953125
1774472308818842000,3.154842041015625,-0.828033447265625,-0.477935791015625,-0.38720703125
1774472308828870400,3.164870361328125,-0.643280029296875,-0.464111328125,-0.4921112060546875
1774472308838898200,3.174898193359375,-0.6327972412109375,-0.4903106689453125,-0.5550384521484375
1774472308848926200,3.18492626953125,-0.6332244873046875,-0.483184814453125,-0.54010009765625
1774472308858954200,3.194954345703125,-0.61053466796875,-0.424346923828125,-0.4463043212890625
1774472308868982300,3.204982177734375,-0.5842132568359375,-0.376739501953125,-0.4694061279296875
1774472308879010300,3.21501025390625,-0.472625732421875,-0.402984619140625,-0.4842071533203125
1774472308889038300,3.225038330078125,-0.518157958984375,-0.5704498291015625,-0.476531982421875
1774472308899066000,3.235066162109375,-1.107513427734375,-0.819580078125,-0.5341796875
1774472308909094400,3.245094482421875,-0.8889617919921875,-0.7487945556640625,-0.37890625
1774472308919122200,3.2551220703125,-0.650909423828125,-0.6564483642578125,-0.3722686767578125
1774472308929150500,3.265150390625,-0.7450103759765625,-0.7021331787109375,-0.6308135986328125
1774472308939178200,3.27517822265625,-0.68206787109375,-0.721282958984375,-0.9002838134765625
1774472308949205500,3.28520556640625,-0.4938812255859375,-0.5801544189453125,-0.8670501708984375
1774472308959233300,3.2952333984375,-0.5420989990234375,-0.4580078125,-0.6910247802734375
1774472308969261000,3.305260986328125,-0.7475433349609375,-0.5324249267578125,-0.3548736572265625
1774472308979289300,3.315289306640625,-1.0875701904296875,-0.5639190673828125,-0.16741943359375
1774472308989317000,3.325317138671875,-1.1318817138671875,-0.38140869140625,-0.0454254150390625
1774472308999345400,3.335345458984375,-0.9183807373046875,-0.175140380859375,-0.0919647216796875
1774472309009373200,3.345373291015625,-1.052520751953125,0.0134429931640625,-0.27020263671875
1774472309019401200,3.355401123046875,-1.1271820068359375,0.1569671630859375,-0.1115570068359375
1774472309029429200,3.36542919921875,-1.1768951416015625,0.279022216796875,0.0060272216796875
1774472309039457300,3.375457275390625,-1.2117919921875,0.294464111328125,-0.1514129638671875
1774472309049485300,3.3854853515625,-1.1906890869140625,0.186279296875,-0.28338623046875
1774472309059513300,3.395513427734375,-1.0711517333984375,0.0996246337890625,-0.330902099609375
1774472309069541000,3.405541015625,-0.947662353515625,0.0150909423828125,-0.3705902099609375
1774472309079569400,3.4155693359375,-0.82073974609375,-0.0858306884765625,-0.4048004150390625
1774472309089597200,3.42559716796875,-0.7556915283203125,-0.190460205078125,-0.4361114501953125
1774472309099625500,3.43562548828125,-0.7328948974609375,-0.261993408203125,-0.5876617431640625
1774472309109653200,3.4456533203125,-0.62371826171875,-0.30242919921875,-0.71502685546875
1774472309119681300,3.455681396484375,-0.6982879638671875,-0.2893829345703125,-0.71746826171875
1774472309129709300,3.465709228515625,-0.84295654296875,-0.2296142578125,-0.6273193359375
1774472309139737300,3.4757373046875,-0.6774139404296875,-0.069122314453125,-0.3951416015625
1774472309149765400,3.485765380859375,-0.5576171875,0.0351409912109375,-0.353851318359375
1774472309159793400,3.49579345703125,-0.7238922119140625,-0.2916259765625,-0.38372802734375
1774472309169821200,3.5058212890625,-0.932037353515625,-0.4372100830078125,-0.2225799560546875
1774472309179849500,3.515849365234375,-1.0950927734375,-0.1569061279296875,-0.197235107421875
1774472309189876200,3.525876220703125,-1.30908203125,-0.1732330322265625,-0.28350830078125
1774472309199904300,3.535904296875,-1.11444091796875,-0.372283935546875,-0.44842529296875
1774472309209932300,3.545932373046875,-0.960174560546875,-0.4266204833984375,-0.6082916259765625
1774472309219960300,3.555960205078125,-0.8441619873046875,-0.474609375,-0.5922393798828125
1774472309229988400,3.56598828125,-0.8022613525390625,-0.4969635009765625,-0.3580322265625
1774472309240016100,3.57601611328125,-0.8941192626953125,-0.4248046875,-0.195159912109375
1774472309250044400,3.58604443359375,-0.9478912353515625,-0.2904052734375,-0.1564178466796875
1774472309260072200,3.596072265625,-1.003082275390625,-0.2161865234375,-0.095123291015625
1774472309270100500,3.6061005859375,-1.051513671875,-0.1749725341796875,-0.032135009765625
1774472309280128300,3.616128173828125,-1.0745697021484375,-0.0941314697265625,-0.054534912109375
1774472309290156300,3.62615625,-1.0489349365234375,-0.0403594970703125,-0.1774444580078125
1774472309300184300,3.636184326171875,-0.969635009765625,-0.1303558349609375,-0.2555389404296875
1774472309310212400,3.64621240234375,-0.9766387939453125,-0.138641357421875,-0.3008270263671875
1774472309320240400,3.656240478515625,-0.8785552978515625,-0.1083221435546875,-0.2990875244140625
1774472309330268400,3.666268310546875,-0.820556640625,-0.1105804443359375,-0.3751678466796875
1774472309340296200,3.676296142578125,-0.80322265625,-0.1564788818359375,-0.366912841796875
1774472309350324500,3.686324462890625,-0.8690643310546875,-0.1810760498046875,-0.3302459716796875
1774472309360352300,3.696352294921875,-0.8984527587890625,-0.19952392578125,-0.3525390625
1774472309370380300,3.70638037109375,-0.933013916015625,-0.1853790283203125,-0.3858184814453125
1774472309380408300,3.716408203125,-0.9681854248046875,-0.1587066650390625,-0.3712158203125
1774472309390436000,3.72643603515625,-1.0066680908203125,-0.1102447509765625,-0.3603515625
1774472309400464400,3.73646435546875,-1.043304443359375,-0.125885009765625,-0.3364715576171875
1774472309410492200,3.7464921875,-0.97808837890625,-0.0844573974609375,-0.3516845703125
1774472309420520200,3.756520263671875,-0.9857940673828125,-0.0589752197265625,-0.3539276123046875
1774472309430547200,3.766547119140625,-0.90966796875,-0.165069580078125,-0.3159942626953125
1774472309440575500,3.776575439453125,-0.961883544921875,-0.3408050537109375,-0.2126312255859375
1774472309450602800,3.786602783203125,-0.34954833984375,-0.1536102294921875,-0.586700439453125
1774472309460630800,3.796630859375,-0.599273681640625,-0.1605377197265625,-0.454833984375
1774472309470658800,3.806658935546875,-0.7628631591796875,-0.152435302734375,-0.334197998046875
1774472309480686800,3.816686767578125,-0.733489990234375,-0.1202392578125,-0.5464630126953125
1774472309490715000,3.82671484375,-0.8264617919921875,-0.0572357177734375,-0.531280517578125
1774472309500742700,3.83674267578125,-0.9581146240234375,0.02703857421875,-0.47845458984375
1774472309510770700,3.846770751953125,-1.0673370361328125,0.069427490234375,-0.4896087646484375
1774472309520798700,3.856798828125,-1.2847747802734375,-0.009368896484375,-0.39752197265625
1774472309530826800,3.86682666015625,-1.11688232421875,0.0203399658203125,-0.3674163818359375
1774472309540854800,3.876854736328125,-1.0409393310546875,-0.005157470703125,-0.3559417724609375
1774472309550882800,3.8868828125,-1.0393218994140625,-0.0872039794921875,-0.2936859130859375
1774472309560910600,3.89691064453125,-0.9747314453125,-0.0976104736328125,-0.3152923583984375
1774472309570939000,3.90693896484375,-0.8895263671875,-0.1355133056640625,-0.3154296875
1774472309580966700,3.916966552734375,-0.9129791259765625,-0.15972900390625,-0.30938720703125
1774472309590995000,3.926994873046875,-0.9004058837890625,-0.1250457763671875,-0.36248779296875
1774472309601022700,3.937022705078125,-0.9079742431640625,-0.130828857421875,-0.3460693359375
1774472309611050800,3.94705078125,-0.9139862060546875,-0.1029052734375,-0.3255615234375
1774472309621078800,3.957078857421875,-0.93450927734375,-0.1416015625,-0.355560302734375
1774472309631106800,3.96710693359375,-0.9742584228515625,-0.348114013671875,-0.4345855712890625
1774472309641134800,3.977134765625,-0.91912841796875,-0.31842041015625,-0.5106658935546875
1774472309651163000,3.987162841796875,-0.9437103271484375,-0.157470703125,-0.495513916015625
1774472309661190000,3.99718994140625,-0.946563720703125,-0.1251373291015625,-0.4496917724609375
1774472309671217700,4.0072177734375,-0.9476165771484375,-0.14105224609375,-0.41766357421875
1774472309681245700,4.01724560546875,-0.91790771484375,-0.055694580078125,-0.370941162109375
1774472309691273700,4.027273681640625,-0.9029083251953125,-0.020263671875,-0.364013671875
1774472309701301800,4.0373017578125,-0.8668212890625,-0.020843505859375,-0.38800048828125
1774472309711329800,4.047329833984375,-0.8230438232421875,-0.0190582275390625,-0.3947601318359375
1774472309721357800,4.05735791015625,-0.812408447265625,-0.0321197509765625,-0.366973876953125
1774472309731385600,4.067385498046875,-0.81085205078125,-0.010528564453125,-0.3299102783203125
1774472309741414000,4.077413818359375,-0.81024169921875,0.024261474609375,-0.3004608154296875
1774472309751441700,4.087441650390625,-0.85980224609375,0.023406982421875,-0.3259735107421875
1774472309761470000,4.097469970703125,-0.854461669921875,0.0479278564453125,-0.35308837890625
1774472309771497700,4.107497802734375,-0.93865966796875,-0.0389404296875,-0.2784576416015625
1774472309781525800,4.11752587890625,-0.9529876708984375,-0.21160888671875,-0.2952423095703125
1774472309791553800,4.1275537109375,-0.9443511962890625,-0.227783203125,-0.33416748046875
1774472309801581800,4.137581787109375,-0.952911376953125,-0.5137176513671875,-0.35546875
1774472309811609900,4.14760986328125,-0.827423095703125,-0.37445068359375,-0.497222900390625
1774472309821638000,4.157637939453125,-0.8989105224609375,-0.2696685791015625,-0.4313507080078125
1774472309831665700,4.167665771484375,-0.99456787109375,-0.2972412109375,-0.3624114990234375
1774472309841694000,4.17769384765625,-1.0032196044921875,-0.295440673828125,-0.341156005859375
1774472309851721700,4.1877216796875,-0.9354705810546875,-0.220489501953125,-0.36480712890625
1774472309861749800,4.197749755859375,-0.8889617919921875,-0.074615478515625,-0.417633056640625
1774472309871777800,4.20777783203125,-0.88677978515625,-0.0662841796875,-0.475494384765625
1774472309881805800,4.217805908203125,-0.945526123046875,-0.12249755859375,-0.4553070068359375
1774472309891833900,4.227833740234375,-0.933319091796875,-0.163818359375,-0.376434326171875
1774472309901861600,4.237861572265625,-0.869964599609375,-0.160430908203125,-0.334564208984375
1774472309911889000,4.247888916015625,-0.8053436279296875,-0.1584930419921875,-0.3162078857421875
1774472309921916700,4.257916748046875,-0.7231903076171875,-0.2113189697265625,-0.288330078125
1774472309931945000,4.267945068359375,-0.6878814697265625,-0.2652130126953125,-0.262298583984375
1774472309941972700,4.27797265625,-0.744659423828125,-0.3431243896484375,-0.260162353515625
1774472309952000800,4.288000732421875,-0.7815093994140625,-0.3642120361328125,-0.2809295654296875
1774472309962028800,4.29802880859375,-0.823394775390625,-0.3117218017578125,-0.3912506103515625
1774472309972056800,4.308056884765625,-0.9774627685546875,-0.274078369140625,-0.4656524658203125
1774472309982084900,4.3180849609375,-1.0520172119140625,-0.3363037109375,-0.5021820068359375
1774472309992113000,4.32811279296875,-1.0529022216796875,-0.384185791015625,-0.47467041015625
1774472310002140700,4.338140625,-0.9858551025390625,-0.39300537109375,-0.402862548828125
1774472310012169000,4.3481689453125,-0.9409027099609375,-0.4184417724609375,-0.337249755859375
1774472310022196700,4.35819677734375,-0.911865234375,-0.3370513916015625,-0.2716522216796875
1774472310032224800,4.368224853515625,-0.8703155517578125,-0.234344482421875,-0.2391204833984375
1774472310042252800,4.378252685546875,-0.8453216552734375,-0.1667633056640625,-0.23345947265625
1774472310052280800,4.38828076171875,-0.8428802490234375,-0.163726806640625,-0.2109222412109375
1774472310062308900,4.398308837890625,-0.8615570068359375,-0.20947265625,-0.220458984375
1774472310072336600,4.408336669921875,-0.8773193359375,-0.2587127685546875,-0.25653076171875
1774472310082364700,4.41836474609375,-0.9123382568359375,-0.248748779296875,-0.2919921875
1774472310092392700,4.428392822265625,-0.9257354736328125,-0.29083251953125,-0.3804168701171875
1774472310102420700,4.438420654296875,-0.912445068359375,-0.33306884765625,-0.4581756591796875
1774472310112448800,4.44844873046875,-0.8939056396484375,-0.3690643310546875,-0.450042724609375
1774472310122476800,4.458476806640625,-0.8779144287109375,-0.4004669189453125,-0.3814849853515625
1774472310132504600,4.468504638671875,-0.8879241943359375,-0.4235382080078125,-0.298248291015625
1774472310142532900,4.478532958984375,-0.871612548828125,-0.3809967041015625,-0.2772369384765625
1774472310152560600,4.488560546875,-0.8805999755859375,-0.3187408447265625,-0.2801055908203125
1774472310162589000,4.4985888671875,-0.87615966796875,-0.2921142578125,-0.24755859375
1774472310172616700,4.50861669921875,-0.8480682373046875,-0.24981689453125,-0.2348785400390625
1774472310182644000,4.51864404296875,-0.8799285888671875,-0.252777099609375,-0.24359130859375
1774472310192671700,4.528671630859375,-0.9427032470703125,-0.25341796875,-0.212005615234375
1774472310202699800,4.53869970703125,-1.003570556640625,-0.305694580078125,-0.1774444580078125
1774472310212727800,4.548727783203125,-1.0246124267578125,-0.347747802734375,-0.1803131103515625
1774472310222755600,4.558755615234375,-1.1059112548828125,-0.3914794921875,-0.183868408203125
1774472310232784000,4.568783935546875,-1.1479034423828125,-0.38201904296875,-0.1450653076171875
1774472310242811600,4.578811767578125,-1.1409454345703125,-0.3113555908203125,-0.127593994140625
1774472310252839700,4.588839599609375,-1.163177490234375,-0.240020751953125,-0.14703369140625
1774472310262867700,4.59886767578125,-1.1691436767578125,-0.2068634033203125,-0.2153472900390625
1774472310272895700,4.608895751953125,-1.0589141845703125,-0.1828155517578125,-0.3184814453125
1774472310282923800,4.618923828125,-1.0472259521484375,-0.1909942626953125,-0.325103759765625
1774472310292951800,4.628951904296875,-1.003814697265625,-0.231231689453125,-0.188873291015625
1774472310302979600,4.6389794921875,-0.9049072265625,-0.100189208984375,-0.1261138916015625
1774472310313007900,4.6490078125,-0.7372283935546875,0.0205841064453125,-0.12896728515625
1774472310323035600,4.65903564453125,-0.7811126708984375,-0.096588134765625,-0.0815277099609375
1774472310333064000,4.66906396484375,-0.8450164794921875,-0.065399169921875,-0.046722412109375
1774472310343091700,4.679091796875,-0.7972564697265625,-0.1014251708984375,0.03961181640625
1774472310353119700,4.68911962890625,-0.9215087890625,-0.1702423095703125,0.076812744140625
1774472310363147800,4.699147705078125,-1.0136260986328125,-0.2443695068359375,0.030670166015625
1774472310373175800,4.70917578125,-1.063934326171875,-0.3081207275390625,-0.0169219970703125
1774472310383203800,4.719203857421875,-1.1443939208984375,-0.36285400390625,-0.0380706787109375
1774472310393232000,4.72923193359375,-1.199554443359375,-0.403228759765625,-0.06622314453125
1774472310403259600,4.739259765625,-1.1677398681640625,-0.4056549072265625,-0.0820465087890625
1774472310413288000,4.749287841796875,-1.1249542236328125,-0.339569091796875,-0.074859619140625
1774472310423315700,4.759315673828125,-1.0626220703125,-0.2427520751953125,-0.069488525390625
1774472310433344000,4.769343994140625,-1.0019989013671875,-0.2333984375,-0.0614471435546875
1774472310443375600,4.779375732421875,-0.9394073486328125,-0.1954345703125,-0.0077972412109375
1774472310453403600,4.789403564453125,-0.8699951171875,-0.125213623046875,0.0297088623046875
1774472310463431700,4.799431640625,-0.8385772705078125,-0.068267822265625,0.029754638671875
1774472310473459700,4.809459716796875,-0.84417724609375,-0.0373077392578125,0.0330047607421875
1774472310483486700,4.81948681640625,-0.828887939453125,-0.0131683349609375,0.0218048095703125
1774472310493514800,4.8295146484375,-0.8361663818359375,0.000335693359375,0.0082550048828125
1774472310503542800,4.839542724609375,-0.8251800537109375,0.008148193359375,0.0097503662109375
1774472310513570800,4.84957080078125,-0.8156890869140625,0.014007568359375,-0.0023956298828125
1774472310523598600,4.8595986328125,-0.8728485107421875,-0.01983642578125,-0.03564453125
1774472310533627000,4.869626953125,-0.8905792236328125,-0.08148193359375,-0.069854736328125
1774472310543654700,4.879654541015625,-0.8831939697265625,-0.1324462890625,-0.0792388916015625
1774472310553682700,4.8896826171875,-0.8649444580078125,-0.1988525390625,-0.146240234375
1774472310563710700,4.899710693359375,-0.7161102294921875,-0.35345458984375,-0.161163330078125
1774472310573738800,4.90973876953125,-0.8552703857421875,-0.6234893798828125,-0.2447967529296875
1774472310583766800,4.919766845703125,-1.0005645751953125,-0.7174530029296875,-0.335296630859375
1774472310593794600,4.929794677734375,-1.1575927734375,-0.6671295166015625,-0.45111083984375
1774472310603822600,4.939822509765625,-1.0427093505859375,-0.5549163818359375,-0.3724212646484375
1774472310613850600,4.9498505859375,-0.6815338134765625,-0.150115966796875,-0.1611328125
1774472310623878700,4.959878662109375,-0.982147216796875,0.0665435791015625,-0.2372894287109375
1774472310633906700,4.96990673828125,-1.1247406005859375,0.0442352294921875,-0.36578369140625
1774472310643934700,4.979934814453125,-1.1163330078125,-0.030914306640625,-0.3582916259765625
1774472310653962500,4.98996240234375,-1.1611175537109375,-0.0950775146484375,-0.2556610107421875
1774472310663990800,4.99999072265625,-1.1636199951171875,-0.12744140625,-0.2310333251953125
1774472310674018600,5.0100185546875,-1.1855316162109375,-0.15960693359375,-0.2514495849609375
1774472310684046800,5.020046875,-1.1882171630859375,-0.0438079833984375,-0.1332244873046875
1774472310694074600,5.03007470703125,-1.1419677734375,0.091583251953125,-0.1565399169921875
1774472310704102700,5.0401025390625,-1.003082275390625,0.0389251708984375,-0.2919464111328125
1774472310714130700,5.050130615234375,-0.9888763427734375,-0.0525054931640625,-0.361724853515625
1774472310724158700,5.06015869140625,-0.986480712890625,-0.0210113525390625,-0.2929840087890625
1774472310734186800,5.070186767578125,-1.0471649169921875,0.0962371826171875,-0.142425537109375
1774472310744214800,5.08021484375,-1.161773681640625,0.0748748779296875,0.014434814453125
1774472310754242600,5.09024267578125,-0.7943115234375,-0.1180572509765625,-0.467987060546875
1774472310764270800,5.100270751953125,-0.8271331787109375,-0.0325164794921875,-0.535430908203125
1774472310774298600,5.110298583984375,-0.736358642578125,-0.19293212890625,-0.792572021484375
1774472310784327000,5.120326904296875,-0.648651123046875,-0.1535186767578125,-0.6499481201171875
1774472310794354700,5.130354736328125,-0.78192138671875,-0.1392059326171875,-0.5802764892578125
1774472310804381700,5.140381591796875,-0.919921875,-0.0654296875,-0.4180908203125
1774472310814409700,5.15040966796875,-1.0543365478515625,0.0192413330078125,-0.2771148681640625
1774472310824437500,5.1604375,-0.8386993408203125,-0.015228271484375,-0.4232177734375
1774472310834465800,5.1704658203125,-0.7349395751953125,-0.0689239501953125,-0.4778900146484375
1774472310844493600,5.18049365234375,-0.7420196533203125,-0.110321044921875,-0.485198974609375
1774472310854521900,5.19052197265625,-0.671783447265625,-0.1610565185546875,-0.4788818359375
1774472310864549600,5.200549560546875,-0.7150726318359375,-0.2035980224609375,-0.49041748046875
1774472310874577700,5.21057763671875,-0.7790985107421875,-0.187652587890625,-0.5002288818359375
1774472310884605700,5.220605712890625,-0.703826904296875,-0.1939697265625,-0.50616455078125
1774472310894633700,5.2306337890625,-0.514068603515625,-0.272918701171875,-0.48992919921875
1774472310904661800,5.240661865234375,-0.427520751953125,-0.3286895751953125,-0.4525146484375
1774472310914689800,5.250689697265625,-0.579437255859375,-0.3541107177734375,-0.4800872802734375
1774472310924717600,5.260717529296875,-1.2001190185546875,-0.3294219970703125,-0.583160400390625
1774472310934745900,5.270745849609375,-0.940948486328125,-0.227447509765625,-0.385528564453125
1774472310944773600,5.280773681640625,-0.5316314697265625,-0.12091064453125,-0.1394195556640625
1774472310954802000,5.290802001953125,-0.8485260009765625,0.137451171875,-0.1464996337890625
1774472310964829700,5.30082958984375,-1.1799163818359375,0.1811676025390625,-0.26177978515625
1774472310974857700,5.310857666015625,-1.20892333984375,0.07513427734375,-0.30682373046875
1774472310984885800,5.3208857421875,-1.269134521484375,0.0800933837890625,-0.31402587890625
1774472310994913800,5.330913818359375,-1.3417205810546875,0.1886749267578125,-0.3126373291015625
1774472311004941800,5.34094189453125,-1.3361968994140625,0.3819427490234375,-0.2946929931640625
1774472311014969600,5.350969482421875,-1.2861175537109375,0.4866790771484375,-0.3173980712890625
1774472311024997600,5.36099755859375,-1.1809844970703125,0.4340057373046875,-0.383209228515625
1774472311035025700,5.371025634765625,-1.0491485595703125,0.2508697509765625,-0.44842529296875
1774472311045053700,5.3810537109375,-0.9576416015625,-0.0263824462890625,-0.530181884765625
1774472311055081700,5.391081787109375,-0.9141845703125,-0.119537353515625,-0.5482940673828125
1774472311065109800,5.40110986328125,-0.882354736328125,-0.1519927978515625,-0.5454864501953125
1774472311075137500,5.411137451171875,-0.855194091796875,-0.2037506103515625,-0.531463623046875
1774472311085165800,5.421165771484375,-0.8397064208984375,-0.2473297119140625,-0.4439697265625
1774472311095193600,5.431193603515625,-0.8846588134765625,-0.2871246337890625,-0.3931121826171875
1774472311105221600,5.4412216796875,-0.8428192138671875,-0.299041748046875,-0.4606781005859375
1774472311115249700,5.451249755859375,-0.8410491943359375,-0.3076934814453125,-0.5202484130859375
1774472311125277700,5.461277587890625,-0.7841033935546875,-0.200653076171875,-0.4393157958984375
1774472311135305700,5.4713056640625,-0.6630401611328125,0.041168212890625,-0.3090057373046875
1774472311145333800,5.481333740234375,-0.6244659423828125,0.325653076171875,-0.2462310791015625
1774472311155361500,5.491361572265625,-0.59661865234375,0.277313232421875,-0.35491943359375
1774472311165389800,5.501389892578125,-0.6680145263671875,0.06890869140625,-0.438232421875
1774472311175417600,5.51141748046875,-0.8096923828125,-0.09808349609375,-0.4724273681640625
1774472311185446000,5.52144580078125,-0.9333953857421875,-0.1916351318359375,-0.491790771484375
1774472311195473700,5.5314736328125,-1.0167999267578125,-0.247222900390625,-0.49481201171875
1774472311205501700,5.541501708984375,-1.0227203369140625,-0.3088226318359375,-0.441162109375
1774472311215529700,5.55152978515625,-0.9560089111328125,-0.341522216796875,-0.3802032470703125
1774472311225557800,5.561557861328125,-0.890533447265625,-0.2308349609375,-0.407073974609375
1774472311235585800,5.571585693359375,-0.92425537109375,-0.1938323974609375,-0.4199066162109375
1774472311245613800,5.58161376953125,-0.9198760986328125,-0.148345947265625,-0.35400390625
1774472311255640800,5.591640869140625,-0.755401611328125,-0.183380126953125,-0.3311920166015625
1774472311265668600,5.601668701171875,-0.646270751953125,-0.176849365234375,-0.338897705078125
1774472311275696600,5.611696533203125,-0.6779632568359375,-0.0858154296875,-0.33074951171875
1774472311285724700,5.621724609375,-0.7065887451171875,-0.0633697509765625,-0.3030242919921875
1774472311295752700,5.631752685546875,-0.7674102783203125,-0.0189971923828125,-0.3007659912109375
1774472311305780700,5.64178076171875,-0.829345703125,0.01885986328125,-0.3105926513671875
1774472311315808800,5.651808837890625,-0.8621368408203125,0.0361785888671875,-0.3134918212890625
1774472311325836500,5.66183642578125,-0.895416259765625,0.0275726318359375,-0.3182525634765625
1774472311335864800,5.67186474609375,-0.9261474609375,-0.09246826171875,-0.343170166015625
1774472311345892600,5.681892578125,-0.96099853515625,-0.3261260986328125,-0.3777923583984375
1774472311355921000,5.6919208984375,-1.0020294189453125,-0.5050811767578125,-0.3786773681640625
1774472311365948700,5.70194873046875,-1.0291900634765625,-0.5385894775390625,-0.3564300537109375
1774472311375976700,5.711976806640625,-1.0127716064453125,-0.5744781494140625,-0.330780029296875
1774472311386004700,5.722004638671875,-1.0211639404296875,-0.4986419677734375,-0.286346435546875
1774472311396032800,5.73203271484375,-1.0262451171875,-0.421844482421875,-0.2796173095703125
1774472311406060800,5.742060791015625,-1.013702392578125,-0.3494110107421875,-0.2876129150390625
1774472311416088800,5.7520888671875,-0.9564361572265625,-0.240203857421875,-0.322052001953125
1774472311426116600,5.76211669921875,-0.835723876953125,-0.234039306640625,-0.365875244140625
1774472311436144600,5.77214453125,-0.6995697021484375,-0.3762054443359375,-0.3723297119140625
1774472311446169900,5.782169921875,-0.699249267578125,-0.2957000732421875,-0.33319091796875
1774472311456198000,5.792197998046875,-0.79852294921875,-0.126678466796875,-0.2514495849609375
1774472311466226000,5.802225830078125,-0.86614990234375,-0.1341400146484375,-0.2027435302734375
1774472311476254000,5.81225390625,-0.952911376953125,-0.222015380859375,-0.15887451171875
1774472311486282000,5.822281982421875,-0.9587249755859375,-0.288970947265625,-0.15643310546875
1774472311496310000,5.83231005859375,-0.9493408203125,-0.3527679443359375,-0.14703369140625
1774472311506337800,5.842337890625,-0.9130706787109375,-0.36883544921875,-0.1269073486328125
1774472311516366000,5.852365966796875,-1.048858642578125,-0.3023834228515625,-0.146575927734375
1774472311526393900,5.862393798828125,-1.1399993896484375,-0.258270263671875,-0.199493408203125
1774472311536422000,5.872421875,-1.1446380615234375,-0.2369384765625,-0.240570068359375
1774472311546450000,5.882449951171875,-0.9906463623046875,-0.13134765625,-0.297821044921875
1774472311556478000,5.89247802734375,-0.77679443359375,-0.0004119873046875,-0.429931640625
1774472311566506000,5.902506103515625,-1.10882568359375,0.0137481689453125,-0.4402618408203125
1774472311576533800,5.91253369140625,-0.779876708984375,0.07147216796875,-0.4501190185546875
1774472311586561800,5.922561767578125,-0.44091796875,0.0828857421875,-0.4542694091796875
1774472311596589800,5.93258984375,-0.9779510498046875,0.006317138671875,-0.4617919921875
1774472311606617900,5.942617919921875,-1.0673980712890625,-0.01025390625,-0.42535400390625
1774472311616646000,5.95264599609375,-1.068450927734375,0.0693206787109375,-0.479034423828125
1774472311626674000,5.962673828125,-1.00341796875,0.0566558837890625,-0.4611358642578125
1774472311636701700,5.97270166015625,-0.9688720703125,0.02703857421875,-0.4180450439453125
1774472311646730000,5.98272998046875,-0.9530029296875,0.0076141357421875,-0.360748291015625
1774472311656757800,5.9927578125,-0.9389190673828125,0.0122528076171875,-0.3128662109375
1774472311666786000,6.0027861328125,-0.8653564453125,-0.03216552734375,-0.285308837890625
1774472311676813800,6.012813720703125,-0.79815673828125,-0.109161376953125,-0.31427001953125
1774472311686841900,6.022841796875,-0.7745208740234375,-0.139617919921875,-0.2923736572265625
1774472311696870000,6.032869873046875,-0.834625244140625,-0.1279754638671875,-0.3142852783203125
1774472311706898000,6.04289794921875,-0.916748046875,-0.0698699951171875,-0.33038330078125
1774472311716926000,6.052926025390625,-1.0350494384765625,-0.0223388671875,-0.3230438232421875
1774472311726954000,6.0629541015625,-1.093170166015625,-0.0036773681640625,-0.234222412109375
1774472311736981800,6.072981689453125,-1.0864105224609375,-0.0879669189453125,-0.17474365234375
1774472311747010000,6.083010009765625,-1.0370330810546875,-0.093902587890625,-0.2113800048828125
1774472311757037800,6.093037841796875,-0.994476318359375,-0.0384368896484375,-0.2263336181640625
1774472311767066000,6.103066162109375,-0.966033935546875,-0.0102081298828125,-0.2395477294921875
1774472311777094000,6.113093994140625,-0.938934326171875,-0.020751953125,-0.2648468017578125
1774472311787122000,6.123121826171875,-0.9336090087890625,-0.0276947021484375,-0.2440032958984375
1774472311797150000,6.13314990234375,-0.95416259765625,0.0066375732421875,-0.233917236328125
1774472311807178000,6.143177978515625,-0.9730987548828125,0.020263671875,-0.2245025634765625
1774472311817206000,6.1532060546875,-1.0329742431640625,-0.01715087890625,-0.2061920166015625
1774472311827232800,6.163232666015625,-1.071014404296875,-0.0404052734375,-0.2101287841796875
1774472311837261800,6.17326171875,-1.1260833740234375,0.014984130859375,-0.2720489501953125
1774472311847288800,6.183288818359375,-1.1065673828125,-0.0670928955078125,-0.189422607421875
1774472311857316900,6.19331689453125,-0.9573211669921875,-0.067413330078125,-0.11358642578125
1774472311867345000,6.203344970703125,-0.9960174560546875,-0.1087493896484375,-0.145721435546875
1774472311877373000,6.213373046875,-0.9950103759765625,-0.118927001953125,-0.150909423828125
1774472311887401000,6.22340087890625,-0.862335205078125,-0.0970458984375,-0.149169921875
1774472311897429000,6.233428955078125,-0.8425445556640625,-0.07830810546875,-0.183807373046875
1774472311907456800,6.243456787109375,-0.8063201904296875,-0.0604095458984375,-0.2466888427734375
1774472311917485000,6.253485107421875,-0.8313751220703125,-0.03521728515625,-0.2735595703125
1774472311927512800,6.263512939453125,-0.885528564453125,-0.0240478515625,-0.2719573974609375
1774472311937541000,6.273541015625,-0.973602294921875,0.045135498046875,-0.2377777099609375
1774472311947569000,6.28356884765625,-1.12091064453125,0.1746978759765625,-0.2245025634765625
1774472311957597000,6.293596923828125,-1.2165069580078125,0.2618408203125,-0.2364349365234375
1774472311967625000,6.303625,-1.3245697021484375,0.292572021484375,-0.26666259765625
1774472311977653000,6.313653076171875,-1.385284423828125,0.180084228515625,-0.2985382080078125
1774472311987681000,6.323680908203125,-1.263519287109375,0.0351715087890625,-0.24078369140625
1774472311997708800,6.333708740234375,-1.1422576904296875,-0.05950927734375,-0.1725921630859375
1774472312007736800,6.34373681640625,-1.0120391845703125,-0.1239471435546875,-0.1350250244140625
1774472312017764900,6.353764892578125,-0.92547607421875,-0.20440673828125,-0.126678466796875
1774472312027793000,6.36379296875,-0.887237548828125,-0.3054046630859375,-0.08746337890625
1774472312037821000,6.373821044921875,-0.887969970703125,-0.3416595458984375,-0.1292724609375
1774472312047849000,6.383848876953125,-0.6495819091796875,-0.209014892578125,-0.1948089599609375
1774472312057876700,6.393876708984375,-0.5338287353515625,-0.168609619140625,-0.2724151611328125
1774472312067905000,6.403905029296875,-0.6968231201171875,-0.2679290771484375,-0.3699493408203125
1774472312077932800,6.413932861328125,-0.8303680419921875,-0.274871826171875,-0.42913818359375
1774472312087960800,6.4239609375,-0.8837890625,-0.272064208984375,-0.4285125732421875
1774472312097988900,6.43398876953125,-0.87518310546875,-0.2662506103515625,-0.4382476806640625
1774472312108017000,6.444016845703125,-0.8470611572265625,-0.223876953125,-0.452392578125
1774472312118045000,6.454044921875,-0.8709716796875,-0.2282562255859375,-0.44964599609375
1774472312128073000,6.464072998046875,-0.9998016357421875,-0.1954498291015625,-0.40264892578125
1774472312138100700,6.474100830078125,-1.097412109375,-0.0825653076171875,-0.3564605712890625
1774472312148129000,6.48412890625,-1.1236572265625,0.137786865234375,-0.3074493408203125
1774472312158156800,6.49415673828125,-0.9841461181640625,0.329345703125,-0.21124267578125
1774472312168185000,6.50418505859375,-0.7551116943359375,0.2741851806640625,-0.2056732177734375
1774472312178212900,6.514212890625,-0.64935302734375,0.1667633056640625,-0.251495361328125
1774472312188241000,6.524240966796875,-0.7131805419921875,0.0153350830078125,-0.3131256103515625
1774472312198269000,6.53426904296875,-0.88299560546875,0.0188140869140625,-0.4238128662109375
1774472312208297000,6.544296875,-1.0426025390625,0.0064849853515625,-0.5203857421875
1774472312218325000,6.554324951171875,-1.0684356689453125,-0.1688232421875,-0.5855712890625
1774472312228353000,6.56435302734375,-1.029998779296875,-0.2784881591796875,-0.5989837646484375
1774472312238380800,6.574380859375,-1.0739288330078125,-0.2251739501953125,-0.54034423828125
1774472312248408800,6.584408935546875,-1.139373779296875,-0.10552978515625,-0.4738311767578125
1774472312258436900,6.594436767578125,-1.10052490234375,0.0125885009765625,-0.3700408935546875
1774472312268465000,6.60446484375,-0.9970245361328125,0.1155548095703125,-0.2707672119140625
1774472312278493000,6.614492919921875,-0.8769683837890625,0.1457977294921875,-0.151611328125
1774472312288520700,6.624520751953125,-0.81817626953125,0.0611724853515625,-0.103240966796875
1774472312298549000,6.634549072265625,-0.793182373046875,-0.15179443359375,-0.121246337890625
1774472312308576800,6.64457666015625,-0.81793212890625,-0.2892303466796875,-0.2796783447265625
1774472312318605000,6.65460498046875,-0.8817291259765625,-0.1530303955078125,-0.3275299072265625
1774472312328632800,6.6646328125,-0.8108062744140625,-0.1199798583984375,-0.2967529296875
1774472312338660900,6.674660888671875,-0.7292022705078125,-0.1691436767578125,-0.2852783203125
1774472312348689000,6.68468896484375,-0.7169647216796875,-0.13006591796875,-0.2937164306640625
1774472312358717000,6.694717041015625,-0.75604248046875,-0.1164093017578125,-0.304290771484375
1774472312368745000,6.704744873046875,-0.84588623046875,-0.1235809326171875,-0.311187744140625
1774472312378773000,6.71477294921875,-0.940643310546875,-0.1593780517578125,-0.3268890380859375
1774472312388800800,6.72480078125,-0.9941864013671875,-0.18804931640625,-0.3531036376953125
1774472312398829000,6.7348291015625,-0.9979248046875,-0.1593475341796875,-0.3770294189453125
1774472312408856800,6.74485693359375,-0.9985809326171875,-0.1503448486328125,-0.3702239990234375
1774472312418885000,6.754885009765625,-1.0031280517578125,-0.1316680908203125,-0.2834930419921875
1774472312428913000,6.764912841796875,-0.99249267578125,-0.0858154296875,-0.146514892578125
1774472312438941000,6.77494091796875,-0.98883056640625,-0.05169677734375,0.0008544921875
1774472312448968200,6.78496826171875,-0.9539031982421875,0.064422607421875,0.1573638916015625
1774472312458996000,6.794995849609375,-0.9838714599609375,0.1642608642578125,0.2326202392578125
1774472312469024300,6.805024169921875,-1.0285491943359375,0.2957763671875,0.2462310791015625
1774472312479052000,6.815052001953125,-1.0830078125,0.3724517822265625,0.2427978515625
1774472312489080000,6.825080078125,-1.1346282958984375,0.3814239501953125,0.1444091796875
1774472312499108000,6.835108154296875,-1.16796875,0.316558837890625,-0.0659942626953125
1774472312509136000,6.845135986328125,-1.12249755859375,0.3641815185546875,-0.2256927490234375
1774472312519164200,6.8551640625,-1.079345703125,0.4824371337890625,-0.3316650390625
1774472312529192000,6.86519189453125,-1.00537109375,0.6951904296875,-0.3363494873046875
1774472312539220000,6.875219970703125,-0.5792388916015625,1.10382080078125,-0.2070770263671875
1774472312549248000,6.885248046875,-0.351165771484375,1.22003173828125,-0.237030029296875
1774472312559276000,6.895276123046875,-0.32391357421875,1.0933074951171875,-0.3903045654296875
1774472312569304000,6.905303955078125,-0.3727874755859375,0.8910980224609375,-0.657989501953125
1774472312579332000,6.91533203125,-0.5867462158203125,0.712646484375,-0.8620758056640625
1774472312589359900,6.92535986328125,-0.82183837890625,0.5696868896484375,-0.8263397216796875
1774472312599388200,6.93538818359375,-0.977294921875,0.423828125,-0.6240386962890625
1774472312609416000,6.945416015625,-1.0988311767578125,0.308380126953125,-0.3873748779296875
1774472312619444200,6.9554443359375,-1.2467498779296875,0.20635986328125,-0.22442626953125
1774472312629472000,6.965471923828125,-1.380615234375,0.08990478515625,-0.1341400146484375
1774472312639500000,6.9755,-1.4637908935546875,-0.04437255859375,-0.1081390380859375
1774472312649528000,6.985528076171875,-1.4702911376953125,-0.135406494140625,-0.128692626953125
1774472312659556000,6.99555615234375,-1.383880615234375,-0.1905364990234375,-0.197357177734375
1774472312669584100,7.005584228515625,-1.2410888671875,-0.2081756591796875,-0.3023223876953125
1774472312679612200,7.015612060546875,-0.9965362548828125,-0.201171875,-0.4103240966796875
1774472312689640000,7.025639892578125,-0.8089752197265625,-0.14361572265625,-0.4729156494140625
1774472312699668200,7.035668212890625,-0.7467193603515625,-0.0627593994140625,-0.480560302734375
1774472312709696000,7.045696044921875,-0.7340087890625,0.006134033203125,-0.434295654296875
1774472312719724300,7.055724365234375,-0.978179931640625,0.11956787109375,-0.2294158935546875
1774472312729752000,7.065751953125,-1.0526885986328125,0.2139892578125,-0.2515716552734375
1774472312739780000,7.075780029296875,-0.992156982421875,0.2939605712890625,-0.2935638427734375
1774472312749808000,7.08580810546875,-1.0419769287109375,0.3602294921875,-0.3085174560546875
1774472312759836000,7.0958359375,-1.1013641357421875,0.38458251953125,-0.3368377685546875
1774472312769864200,7.1058642578125,-1.072601318359375,0.3833770751953125,-0.3040771484375
1774472312779892000,7.11589208984375,-1.01861572265625,0.4017486572265625,-0.25811767578125
1774472312789920000,7.125919921875,-0.9979705810546875,0.420928955078125,-0.2297515869140625
1774472312799948000,7.135947998046875,-0.907623291015625,0.396697998046875,-0.2651824951171875
1774472312809976000,7.14597607421875,-0.914520263671875,0.4199981689453125,-0.2395782470703125
1774472312820004000,7.156004150390625,-0.9514312744140625,0.3873443603515625,-0.2264251708984375
1774472312830032100,7.1660322265625,-0.885894775390625,0.33905029296875,-0.2668609619140625
1774472312840060000,7.176059814453125,-0.867156982421875,0.3311614990234375,-0.3032379150390625
1774472312850088200,7.186088134765625,-0.848388671875,0.3364410400390625,-0.329345703125
1774472312860116000,7.196115966796875,-0.7613067626953125,0.3213958740234375,-0.3602752685546875
1774472312870144300,7.206144287109375,-0.7950897216796875,0.2979736328125,-0.373931884765625
1774472312880172000,7.216172119140625,-0.829345703125,0.2932281494140625,-0.3389434814453125
1774472312890200000,7.226199951171875,-0.88275146484375,0.2015228271484375,-0.336822509765625
1774472312900228000,7.23622802734375,-0.8524017333984375,0.1834716796875,-0.405975341796875
1774472312910256000,7.246256103515625,-0.78704833984375,0.134735107421875,-0.4723663330078125
1774472312920284200,7.2562841796875,-0.7982635498046875,0.10772705078125,-0.5381317138671875
1774472312930311000,7.266310791015625,-0.8180999755859375,0.09063720703125,-0.58367919921875
1774472312940340000,7.276340087890625,-0.80859375,0.06719970703125,-0.6072845458984375
1774472312950367000,7.286366943359375,-0.831512451171875,0.0557861328125,-0.621856689453125
1774472312960395000,7.29639501953125,-0.873870849609375,0.062103271484375,-0.626434326171875
1774472312970423000,7.306423095703125,-0.88201904296875,0.0331268310546875,-0.59564208984375
1774472312980451000,7.316451171875,-0.9154510498046875,-0.0186614990234375,-0.528564453125
1774472312990479000,7.32647900390625,-0.9951019287109375,-0.07061767578125,-0.4962615966796875
1774472313000507100,7.336507080078125,-0.9862823486328125,-0.0531005859375,-0.505645751953125
1774472313010535000,7.346534912109375,-0.92852783203125,-0.0870208740234375,-0.495574951171875
1774472313020563200,7.356563232421875,-0.9310150146484375,-0.116729736328125,-0.50775146484375
1774472313030591000,7.366591064453125,-0.9226226806640625,-0.1868133544921875,-0.4769744873046875
1774472313040619000,7.376618896484375,-0.8957672119140625,-0.193695068359375,-0.4715728759765625
1774472313050647000,7.38664697265625,-1.0125885009765625,-0.0985260009765625,-0.3488922119140625
1774472313060675000,7.396675048828125,-1.0701446533203125,-0.0723114013671875,-0.1166229248046875
1774472313070703000,7.406703125,-1.036407470703125,-0.14111328125,-0.2739105224609375
1774472313080731100,7.416731201171875,-0.854888916015625,-0.2167816162109375,-0.4629058837890625
1774472313090759000,7.426759033203125,-0.6676483154296875,-0.17779541015625,-0.5735626220703125
1774472313100787200,7.436787109375,-0.5753631591796875,-0.1747589111328125,-0.5984344482421875
1774472313110815000,7.44681494140625,-0.4613037109375,-0.1281890869140625,-0.640289306640625
1774472313120843300,7.45684326171875,-0.384613037109375,-0.043914794921875,-0.658233642578125
1774472313130871000,7.46687109375,-0.3372802734375,-0.027191162109375,-0.65582275390625
1774472313140899000,7.476899169921875,-0.3213653564453125,-0.000579833984375,-0.678375244140625
1774472313150927000,7.486927001953125,-0.41400146484375,0.0321044921875,-0.66546630859375
1774472313160955100,7.496955078125,-0.436859130859375,0.0754241943359375,-0.599273681640625
1774472313170983200,7.506983154296875,-0.3797454833984375,0.1387176513671875,-0.5433807373046875
1774472313181011000,7.517010986328125,-0.360504150390625,0.1440582275390625,-0.4756927490234375
1774472313191039000,7.5270390625,-0.354736328125,0.1682891845703125,-0.4474029541015625
1774472313201067000,7.53706689453125,-0.4019317626953125,0.158843994140625,-0.446380615234375
1774472313211095000,7.547094970703125,-0.4738616943359375,0.1211090087890625,-0.4523468017578125
1774472313221123000,7.557123046875,-0.55718994140625,0.06402587890625,-0.556793212890625
1774472313231151000,7.567151123046875,-0.7467041015625,-0.0679168701171875,-0.6275177001953125
1774472313241179000,7.577178955078125,-1.04827880859375,-0.1107635498046875,-0.387359619140625
1774472313251207200,7.587207275390625,-1.6991729736328125,-0.2397918701171875,-0.1590423583984375
1774472313261235000,7.59723486328125,-1.6320037841796875,-0.4090118408203125,-0.2062225341796875
1774472313271263200,7.60726318359375,-1.0986480712890625,-0.360626220703125,-0.5980377197265625
1774472313281291000,7.617291015625,-0.9627685546875,-0.2967071533203125,-0.6517333984375
1774472313291319000,7.627319091796875,-0.79937744140625,-0.16400146484375,-0.5036163330078125
1774472313301347000,7.63734716796875,-0.837188720703125,-0.04083251953125,-0.433502197265625
1774472313311375000,7.647375,-0.8940277099609375,-0.045745849609375,-0.4482879638671875
1774472313321403100,7.657403076171875,-0.8843994140625,-0.1049041748046875,-0.5263824462890625
1774472313331431200,7.66743115234375,-0.9166412353515625,-0.161651611328125,-0.6110382080078125
1774472313341459000,7.677458984375,-1.0195770263671875,-0.1481475830078125,-0.623779296875
1774472313351487200,7.6874873046875,-1.0015716552734375,-0.121551513671875,-0.5492095947265625
1774472313361515000,7.697514892578125,-0.9624176025390625,-0.147308349609375,-0.528961181640625
1774472313371543300,7.707543212890625,-0.962738037109375,-0.201446533203125,-0.542022705078125
1774472313381571000,7.717571044921875,-0.922943115234375,-0.188079833984375,-0.554718017578125
1774472313391599000,7.72759912109375,-0.8892669677734375,-0.214141845703125,-0.5304107666015625
1774472313401627100,7.737627197265625,-0.9730377197265625,-0.2513275146484375,-0.5359039306640625
1774472313411655200,7.7476552734375,-1.0427093505859375,-0.258880615234375,-0.537261962890625
1774472313421683200,7.75768310546875,-1.1145172119140625,-0.2677154541015625,-0.5526275634765625
1774472313431711000,7.7677109375,-1.1109619140625,-0.26678466796875,-0.571075439453125
1774472313441739000,7.777739013671875,-1.098907470703125,-0.2548065185546875,-0.571044921875
1774472313451767600,7.787767578125,-1.06512451171875,-0.258544921875,-0.5557403564453125
1774472313461795300,7.79779541015625,-1.0286407470703125,-0.3026580810546875,-0.528594970703125
1774472313471823000,7.807822998046875,-1.0184478759765625,-0.3236541748046875,-0.50543212890625
1774472313481851400,7.817851318359375,-0.97894287109375,-0.3035888671875,-0.4611968994140625
1774472313491879200,7.827879150390625,-0.9103240966796875,-0.283538818359375,-0.4201202392578125
1774472313501907500,7.837907470703125,-0.8628387451171875,-0.254547119140625,-0.3807830810546875
1774472313511935200,7.847935302734375,-0.8117828369140625,-0.2376556396484375,-0.3267364501953125
1774472313521963300,7.85796337890625,-0.747894287109375,-0.2139129638671875,-0.242034912109375
1774472313531991300,7.8679912109375,-0.68499755859375,-0.1923675537109375,-0.1531524658203125
1774472313542019300,7.878019287109375,-0.646820068359375,-0.171173095703125,-0.258087158203125
1774472313552047400,7.88804736328125,-0.6735076904296875,-0.092987060546875,-0.2269439697265625
1774472313562075400,7.898075439453125,-0.7628631591796875,-0.0576324462890625,-0.2193145751953125
1774472313572103200,7.908103271484375,-0.8551483154296875,-0.0250701904296875,-0.23876953125
1774472313582131500,7.91813134765625,-0.86407470703125,0.0128173828125,-0.2588653564453125
1774472313592159200,7.9281591796875,-0.90057373046875,0.0643463134765625,-0.288818359375
1774472313602187500,7.9381875,-0.8917083740234375,0.0993804931640625,-0.3484039306640625
1774472313612215300,7.94821533203125,-0.8961181640625,0.1291961669921875,-0.3779754638671875
1774472313622243300,7.958243408203125,-0.930938720703125,0.1719512939453125,-0.402069091796875
1774472313632271400,7.968271240234375,-0.939727783203125,0.209228515625,-0.4408111572265625
1774472313642299400,7.97829931640625,-0.9533233642578125,0.2061004638671875,-0.47552490234375
1774472313652327400,7.988327392578125,-0.9470367431640625,0.2199859619140625,-0.4833526611328125
1774472313662355500,7.99835546875,-0.9654998779296875,0.2648773193359375,-0.5038604736328125
1774472313672383200,8.00838330078125,-1.0055389404296875,0.296142578125,-0.5313873291015625
1774472313682411500,8.01841162109375,-1.0012969970703125,0.3011627197265625,-0.5488739013671875
1774472313692439300,8.028439208984375,-0.979522705078125,0.2949371337890625,-0.563812255859375
1774472313702467300,8.03846728515625,-0.938629150390625,0.30340576171875,-0.560699462890625
1774472313712495400,8.048495361328126,-0.91009521484375,0.312744140625,-0.5540924072265625
1774472313722523100,8.058523193359376,-0.8978271484375,0.3044586181640625,-0.544525146484375
1774472313732551400,8.068551513671874,-0.86956787109375,0.2947235107421875,-0.531707763671875
1774472313742579200,8.0785791015625,-0.84503173828125,0.2939605712890625,-0.5239105224609375
1774472313752607200,8.088607177734374,-0.8364715576171875,0.2899932861328125,-0.518951416015625
1774472313762635300,8.09863525390625,-0.8336029052734375,0.2746124267578125,-0.5122222900390625
1774472313772663300,8.108663330078125,-0.8318023681640625,0.254913330078125,-0.51885986328125
1774472313782691300,8.11869140625,-0.8295440673828125,0.2256317138671875,-0.5274658203125
1774472313792719400,8.12871923828125,-0.83270263671875,0.19281005859375,-0.5319061279296875
1774472313802747100,8.1387470703125,-0.8285369873046875,0.1765594482421875,-0.5391082763671875
1774472313812775400,8.148775390625,-0.813262939453125,0.1534881591796875,-0.544036865234375
1774472313822803200,8.15880322265625,-0.8084869384765625,0.1320343017578125,-0.5554962158203125
1774472313832831500,8.16883154296875,-0.80157470703125,0.1015167236328125,-0.572601318359375
1774472313842859300,8.178859375,-0.78607177734375,0.0731658935546875,-0.592987060546875
1774472313852887300,8.18888720703125,-0.76025390625,0.0612030029296875,-0.601409912109375
1774472313862915300,8.198915283203124,-0.741363525390625,0.050201416015625,-0.611480712890625
1774472313872943400,8.208943359375,-0.732391357421875,0.0454559326171875,-0.5997772216796875
1774472313882971400,8.218971435546875,-0.73321533203125,0.0331268310546875,-0.65643310546875
1774472313892999400,8.22899951171875,-0.73089599609375,0.0604248046875,-0.6344757080078125
1774472313903027200,8.239027099609375,-0.703521728515625,0.0489959716796875,-0.6239471435546875
1774472313913055500,8.249055419921875,-0.7122039794921875,0.0270843505859375,-0.6415252685546875
1774472313923083300,8.259083251953125,-0.7087249755859375,0.037933349609375,-0.647186279296875
1774472313933111600,8.269111572265626,-0.7001800537109375,0.0476226806640625,-0.6475830078125
1774472313943139300,8.279139404296876,-0.6918182373046875,0.050048828125,-0.650177001953125
1774472313953166300,8.289166259765626,-0.702301025390625,0.0631866455078125,-0.6640472412109375
1774472313963195400,8.2991953125,-0.712249755859375,0.0734100341796875,-0.6650543212890625
1774472313973222100,8.30922216796875,-0.721435546875,0.078094482421875,-0.6832427978515625
1774472313983250400,8.31925048828125,-0.7225189208984375,0.07391357421875,-0.6974639892578125
1774472313993278200,8.3292783203125,-0.71337890625,0.0888671875,-0.6968536376953125
1774472314003306500,8.339306396484375,-0.7074127197265625,0.097686767578125,-0.6934051513671875
1774472314013334300,8.349334228515625,-0.70599365234375,0.0977935791015625,-0.68896484375
1774472314023362300,8.3593623046875,-0.7108306884765625,0.088134765625,-0.705718994140625
1774472314033390300,8.369390380859375,-0.711883544921875,0.08209228515625,-0.7163238525390625
1774472314043418400,8.37941845703125,-0.6788177490234375,0.085906982421875,-0.716461181640625
1774472314053446400,8.3894462890625,-0.6779022216796875,0.0808563232421875,-0.7308349609375
1774472314063474400,8.399474365234376,-0.6882781982421875,0.0627899169921875,-0.7448883056640625
1774472314073502200,8.409502197265626,-0.68206787109375,0.0611724853515625,-0.7401885986328125
1774472314083530500,8.419530517578124,-0.6722564697265625,0.0677642822265625,-0.7318267822265625
1774472314093558300,8.429558349609374,-0.675933837890625,0.0733642578125,-0.727874755859375
1774472314103586600,8.439586669921875,-0.6714935302734375,0.0738372802734375,-0.7192230224609375
1774472314113614300,8.4496142578125,-0.67413330078125,0.07440185546875,-0.714813232421875
1774472314123642400,8.459642333984375,-0.673187255859375,0.0791015625,-0.713104248046875
1774472314133670400,8.46967041015625,-0.6733856201171875,0.0793914794921875,-0.7086944580078125
1774472314143698200,8.4796982421875,-0.6687774658203125,0.0724029541015625,-0.706939697265625
1774472314153726500,8.4897265625,-0.6766815185546875,0.0657806396484375,-0.6984710693359375
1774472314163754200,8.499754150390626,-0.690032958984375,0.0680084228515625,-0.6915283203125
1774472314173782300,8.5097822265625,-0.6942596435546875,0.0772247314453125,-0.6860809326171875
1774472314183810300,8.519810302734374,-0.700347900390625,0.0823974609375,-0.6807861328125
1774472314193838300,8.52983837890625,-0.6929473876953125,0.086090087890625,-0.677215576171875
1774472314203866400,8.539866455078124,-0.691009521484375,0.0936126708984375,-0.67242431640625
1774472314213894400,8.549894287109375,-0.7004852294921875,0.0962677001953125,-0.6705322265625
1774472314223922200,8.559922119140625,-0.708404541015625,0.096099853515625,-0.674652099609375
1774472314233950500,8.569950439453125,-0.7039337158203125,0.0899810791015625,-0.6820831298828125
1774472314243978200,8.579978271484375,-0.69696044921875,0.0904998779296875,-0.6820831298828125
1774472314254006300,8.59000634765625,-0.7008209228515625,0.083709716796875,-0.681488037109375
1774472314264034300,8.600034423828125,-0.689361572265625,0.0718994140625,-0.6975860595703125
1774472314274062300,8.610062255859376,-0.6628570556640625,0.05975341796875,-0.707366943359375
1774472314284090400,8.62009033203125,-0.653564453125,0.057037353515625,-0.7066497802734375
1774472314294118400,8.630118408203124,-0.6464385986328125,0.05267333984375,-0.6841278076171875
1774472314304146200,8.640146240234374,-0.6275177001953125,0.02081298828125,-0.743621826171875
1774472314314174500,8.650174560546875,-0.6029052734375,-0.02496337890625,-0.7192840576171875
1774472314324202200,8.6602021484375,-0.5669708251953125,-0.07769775390625,-0.7133331298828125
1774472314334230500,8.67023046875,-0.6360321044921875,0.04522705078125,-0.773681640625
1774472314344258300,8.68025830078125,-0.623443603515625,0.092681884765625,-0.740814208984375
1774472314354286300,8.690286376953125,-0.6178436279296875,0.122833251953125,-0.740478515625
1774472314364314400,8.700314453125,-0.6092987060546875,0.1406097412109375,-0.7303924560546875
1774472314374342400,8.71034228515625,-0.5924072265625,0.1092376708984375,-0.725799560546875
1774472314384370400,8.720370361328126,-0.61077880859375,0.07080078125,-0.7148590087890625
1774472314394398200,8.730398193359376,-0.622711181640625,0.0413360595703125,-0.7246246337890625
1774472314404426200,8.74042626953125,-0.6164398193359375,0.0316619873046875,-0.743072509765625
1774472314414454300,8.750454345703124,-0.6195831298828125,0.0422210693359375,-0.7474517822265625
1774472314424482300,8.760482421875,-0.6304473876953125,0.056365966796875,-0.7464752197265625
1774472314434510300,8.77051025390625,-0.6417999267578125,0.06097412109375,-0.751007080078125
1774472314444538400,8.780538330078125,-0.6440887451171875,0.064544677734375,-0.758087158203125
1774472314454567200,8.790567138671875,-0.6422576904296875,0.0653228759765625,-0.7648773193359375
1774472314464595200,8.80059521484375,-0.6295928955078125,0.0675506591796875,-0.7650146484375
1774472314474623200,8.810623291015625,-0.6298370361328125,0.067657470703125,-0.766571044921875
1774472314484651000,8.820651123046876,-0.6365966796875,0.064727783203125,-0.7639617919921875
1774472314494679300,8.83067919921875,-0.6344757080078125,0.0627593994140625,-0.7559356689453125
1774472314504707000,8.84070703125,-0.63751220703125,0.059234619140625,-0.748870849609375
1774472314514735000,8.850735107421874,-0.6501312255859375,0.050537109375,-0.746551513671875
1774472314524763100,8.86076318359375,-0.6578521728515625,0.045379638671875,-0.7374725341796875
1774472314534791200,8.870791259765625,-0.6642303466796875,0.0497894287109375,-0.7325897216796875
1774472314544819200,8.880819091796875,-0.671722412109375,0.0440673828125,-0.7393646240234375
1774472314554847200,8.89084716796875,-0.675872802734375,0.0377197265625,-0.7484893798828125
1774472314564875000,8.900875,-0.681243896484375,0.0416259765625,-0.75018310546875
1774472314574903300,8.9109033203125,-0.6930694580078125,0.0386810302734375,-0.751129150390625
1774472314584931000,8.92093115234375,-0.69488525390625,0.03192138671875,-0.750732421875
1774472314594959400,8.93095947265625,-0.71337890625,0.0359344482421875,-0.8029022216796875
1774472314604987100,8.940987060546876,-0.6898040771484375,-0.07464599609375,-0.8899383544921875
1774472314615015200,8.95101513671875,-0.6734161376953125,-0.129119873046875,-0.928985595703125
1774472314625043200,8.961043212890624,-0.7033843994140625,-0.050537109375,-0.9078216552734375
1774472314635071200,8.9710712890625,-0.664276123046875,0.0158538818359375,-0.856475830078125
1774472314645099300,8.981099365234375,-0.6374359130859375,0.0455780029296875,-0.8357696533203125
1774472314655127000,8.991126953125,-0.67071533203125,0.05804443359375,-0.827911376953125
1774472314665155000,9.001155029296875,-0.67205810546875,0.0370330810546875,-0.830810546875
1774472314675183000,9.01118310546875,-0.64013671875,0.0094146728515625,-0.84783935546875
1774472314685211100,9.021211181640625,-0.6021575927734375,0.023223876953125,-0.865081787109375
1774472314695238100,9.031238037109375,-0.5545196533203125,0.016876220703125,-0.8794097900390625
1774472314705266200,9.04126611328125,-0.5321807861328125,0.05084228515625,-0.92657470703125
1774472314715295000,9.051294921875,-0.565765380859375,0.0395660400390625,-0.9408721923828125
1774472314725322200,9.061322265625,-0.6846466064453125,0.0432281494140625,-0.8762969970703125
1774472314735350000,9.07135009765625,-0.7126007080078125,0.1068115234375,-0.8335723876953125
1774472314745378300,9.08137841796875,-0.7749786376953125,0.1311798095703125,-0.8038177490234375
1774472314755406000,9.091406005859374,-0.7154083251953125,0.073699951171875,-0.779052734375
1774472314765434400,9.101434326171875,-0.666778564453125,0.0550079345703125,-0.776275634765625
1774472314775462100,9.111462158203125,-0.6843414306640625,0.0483856201171875,-0.760589599609375
1774472314785490200,9.121490234375,-0.7386016845703125,0.03216552734375,-0.70550537109375
1774472314795518200,9.131518310546875,-0.7769317626953125,0.0506744384765625,-0.64678955078125
1774472314805546000,9.1415458984375,-0.7883453369140625,0.046142578125,-0.6241912841796875
1774472314815574300,9.15157421875,-0.797943115234375,-0.0163726806640625,-0.606597900390625
1774472314825602000,9.16160205078125,-0.774810791015625,-0.0523834228515625,-0.5991668701171875
1774472314835630000,9.171630126953126,-0.6848907470703125,-0.0429840087890625,-0.62786865234375
1774472314845658000,9.181658203125,-0.6696319580078125,-0.046600341796875,-0.623748779296875
1774472314855686100,9.19168603515625,-0.709930419921875,-0.0326995849609375,-0.632568359375
1774472314865714200,9.201714111328124,-0.7584991455078125,-0.050994873046875,-0.6363677978515625
1774472314875742200,9.2117421875,-0.795379638671875,-0.038177490234375,-0.5677032470703125
1774472314885770000,9.22177001953125,-0.7854461669921875,-0.0497589111328125,-0.619842529296875
1774472314895798300,9.23179833984375,-0.782440185546875,-0.080230712890625,-0.705718994140625
1774472314905826000,9.241825927734375,-0.7806549072265625,-0.094207763671875,-0.6771697998046875
1774472314915854300,9.251854248046875,-0.748046875,-0.114105224609375,-0.6229705810546875
1774472314925882000,9.261882080078125,-0.6650238037109375,-0.1900482177734375,-0.590606689453125
1774472314935910100,9.27191015625,-0.6898651123046875,-0.2198944091796875,-0.6712799072265625
1774472314945938200,9.281938232421876,-0.7067108154296875,-0.2104949951171875,-0.6776580810546875
1774472314955966200,9.29196630859375,-0.6827392578125,-0.17333984375,-0.642608642578125
1774472314965994200,9.301994140625,-0.7026519775390625,-0.1180419921875,-0.609527587890625
1774472314976022300,9.312022216796874,-0.7352447509765625,-0.0904083251953125,-0.5819549560546875
1774472314986050000,9.322050048828125,-0.729034423828125,-0.1112823486328125,-0.5460968017578125
1774472314996078300,9.332078369140625,-0.7593231201171875,-0.1162567138671875,-0.53729248046875
1774472315006106000,9.342106201171875,-0.752105712890625,-0.083251953125,-0.5468292236328125
1774472315016134100,9.352134033203125,-0.7208099365234375,-0.0587310791015625,-0.544158935546875
1774472315026162200,9.362162109375,-0.7120208740234375,-0.06689453125,-0.5433197021484375
1774472315036190200,9.372190185546875,-0.7397003173828125,-0.0632781982421875,-0.523590087890625
1774472315046218200,9.38221826171875,-0.77130126953125,-0.047119140625,-0.49139404296875
1774472315056246000,9.39224609375,-0.7842559814453125,-0.0450439453125,-0.473419189453125
1774472315066274000,9.402274169921874,-0.7739105224609375,-0.0465850830078125,-0.455291748046875
1774472315076302000,9.412302001953124,-0.7642822265625,-0.026580810546875,-0.4501495361328125
1774472315086330000,9.422330078125,-0.7954864501953125,-0.004730224609375,-0.454833984375
1774472315096358100,9.432358154296875,-0.8063812255859375,-0.0002593994140625,-0.4645538330078125
1774472315106386200,9.44238623046875,-0.8253021240234375,0.005523681640625,-0.4825897216796875
1774472315116414000,9.4524140625,-0.8222503662109375,0.0089263916015625,-0.5041351318359375
1774472315126442200,9.462442138671875,-0.8407135009765625,-0.011077880859375,-0.527740478515625
1774472315136470000,9.472469970703125,-0.8538360595703125,-0.0323486328125,-0.5593109130859375
1774472315146498300,9.482498291015625,-0.8319244384765625,-0.024169921875,-0.5537567138671875
1774472315156526000,9.492526123046876,-0.8842010498046875,-0.0811767578125,-0.5384979248046875
1774472315166554000,9.50255419921875,-0.8848114013671875,-0.084136962890625,-0.5529632568359375
1774472315176582100,9.51258203125,-0.92962646484375,-0.0161895751953125,-0.596282958984375
1774472315186610200,9.522610107421874,-0.9430999755859375,0.026611328125,-0.62408447265625
1774472315196638200,9.53263818359375,-0.86968994140625,0.0290679931640625,-0.57916259765625
1774472315206666200,9.542666259765625,-0.7154998779296875,0.0247650146484375,-0.5205230712890625
1774472315216694000,9.552694091796875,-0.6899566650390625,0.026885986328125,-0.4812469482421875
1774472315226722300,9.562722412109375,-0.7988433837890625,0.027740478515625,-0.4317779541015625
1774472315236750000,9.57275,-0.9982452392578125,0.02423095703125,-0.4336395263671875
1774472315246778400,9.5827783203125,-1.116180419921875,0.0106658935546875,-0.4368438720703125
1774472315256806100,9.59280615234375,-1.07550048828125,-0.0517120361328125,-0.4352569580078125
1774472315266834200,9.602834228515626,-0.9823455810546875,-0.0980072021484375,-0.4640045166015625
1774472315276862200,9.6128623046875,-0.8582305908203125,-0.16845703125,-0.44140625
1774472315286890200,9.62289013671875,-0.731719970703125,-0.237335205078125,-0.4630584716796875
1774472315296918300,9.632918212890624,-0.6565399169921875,-0.0859375,-0.514923095703125
1774472315306946300,9.6429462890625,-0.6144866943359375,-0.0539703369140625,-0.5122528076171875
1774472315316974000,9.65297412109375,-0.7749176025390625,-0.145233154296875,-0.5714569091796875
1774472315327002000,9.663002197265625,-0.9741668701171875,-0.2168731689453125,-0.588775634765625
1774472315337030100,9.673030029296875,-1.09393310546875,-0.1948089599609375,-0.597747802734375
1774472315347058200,9.68305810546875,-1.1166839599609375,-0.153656005859375,-0.6268768310546875
1774472315357086200,9.693086181640625,-1.0379486083984375,-0.1900787353515625,-0.598907470703125
1774472315367114000,9.703114013671875,-1.0303955078125,-0.2164764404296875,-0.552459716796875
1774472315377142300,9.713142333984376,-1.0260772705078125,-0.1600341796875,-0.560699462890625
1774472315387170000,9.723170166015626,-1.11248779296875,-0.14422607421875,-0.595184326171875
1774472315397198000,9.733197998046874,-1.23101806640625,-0.1611328125,-0.6235504150390625
1774472315407226000,9.74322607421875,-1.2569427490234375,-0.1923980712890625,-0.6367034912109375
1774472315417254100,9.753254150390624,-1.237640380859375,-0.2104644775390625,-0.60833740234375
1774472315427282200,9.7632822265625,-1.1841888427734375,-0.174774169921875,-0.5509185791015625
1774472315437310200,9.773310302734375,-1.110107421875,-0.1134033203125,-0.5020751953125
1774472315447336700,9.783336669921875,-1.0467376708984375,-0.090057373046875,-0.4462127685546875
1774472315457364500,9.793364501953125,-1.05377197265625,-0.10430908203125,-0.389068603515625
1774472315467392800,9.803392822265625,-1.04205322265625,-0.130950927734375,-0.3395843505859375
1774472315477420500,9.813420654296875,-0.9793853759765625,-0.1749267578125,-0.3029632568359375
1774472315487448600,9.823448486328125,-0.925018310546875,-0.206695556640625,-0.2848663330078125
1774472315497476600,9.8334765625,-0.851959228515625,-0.20098876953125,-0.2989349365234375
1774472315507504400,9.84350439453125,-0.801116943359375,-0.1923370361328125,-0.31097412109375
1774472315517532700,9.85353271484375,-0.801849365234375,-0.23431396484375,-0.28936767578125
1774472315527560400,9.863560546875,-0.801422119140625,-0.25750732421875,-0.2540740966796875
1774472315537588500,9.87358837890625,-0.6154022216796875,-0.1991729736328125,-0.254913330078125
1774472315547616500,9.883616455078124,-0.457733154296875,-0.16766357421875,-0.250518798828125
1774472315557644500,9.89364453125,-0.400909423828125,-0.1648101806640625,-0.2470550537109375
1774472315567672600,9.903672607421875,-0.3400115966796875,-0.1439666748046875,-0.2591094970703125
1774472315577700600,9.91370068359375,-0.267486572265625,-0.140777587890625,-0.2935638427734375
1774472315587728400,9.923728271484375,-0.238250732421875,-0.1800079345703125,-0.33587646484375
1774472315597756700,9.933756591796875,-0.287506103515625,-0.26519775390625,-0.39892578125
1774472315607784400,9.943784423828125,-0.3717498779296875,-0.31787109375,-0.4807586669921875
1774472315617812700,9.953812744140626,-0.46929931640625,-0.33135986328125,-0.533935546875
1774472315627840500,9.963840576171876,-0.514739990234375,-0.3464813232421875,-0.532745361328125
1774472315637868500,9.97386865234375,-0.488861083984375,-0.3360443115234375,-0.545501708984375
1774472315647896600,9.983896484375,-0.46063232421875,-0.3670501708984375,-0.5425872802734375
1774472315657924600,9.993924560546875,-0.46722412109375,-0.4231109619140625,-0.53033447265625
1774472315667952600,10.00395263671875,-0.49066162109375,-0.4639892578125,-0.5206146240234375
1774472315677980700,10.013980712890625,-0.5171051025390625,-0.464141845703125,-0.5113525390625
1774472315688008400,10.024008544921875,-0.59588623046875,-0.4105987548828125,-0.563323974609375
1774472315698036700,10.03403662109375,-0.712615966796875,-0.4273529052734375,-0.5894317626953125
1774472315708064500,10.044064453125,-0.78692626953125,-0.4510040283203125,-0.580047607421875
1774472315718092800,10.0540927734375,-0.7810516357421875,-0.4456329345703125,-0.6010589599609375
1774472315728120600,10.06412060546875,-0.795440673828125,-0.485137939453125,-0.593658447265625
1774472315738148600,10.074148681640626,-0.762237548828125,-0.4456939697265625,-0.60089111328125
1774472315748176600,10.0841767578125,-0.835540771484375,-0.521331787109375,-0.5890045166015625
1774472315758204400,10.094204345703124,-0.8500823974609375,-0.579803466796875,-0.61859130859375
1774472315768232700,10.104232666015625,-0.8763580322265625,-0.59912109375,-0.6592254638671875
1774472315778260500,10.114260498046875,-0.9020538330078125,-0.63885498046875,-0.694183349609375
1774472315788288500,10.12428857421875,-0.85003662109375,-0.648590087890625,-0.73370361328125
1774472315798316500,10.134316650390625,-0.8484954833984375,-0.5800628662109375,-0.7176666259765625
1774472315808344600,10.144344482421875,-0.7867279052734375,-0.536376953125,-0.6835174560546875
1774472315818372600,10.15437255859375,-0.74371337890625,-0.526611328125,-0.6198272705078125
1774472315828400600,10.164400634765625,-0.7816314697265625,-0.5386962890625,-0.59039306640625
1774472315838428400,10.174428466796876,-0.8401336669921875,-0.56182861328125,-0.5980377197265625
1774472315848456700,10.184456787109376,-0.9234466552734375,-0.573699951171875,-0.5869903564453125
1774472315858484500,10.194484375,-1.01483154296875,-0.5779266357421875,-0.5706787109375
1774472315868512500,10.204512451171874,-1.0603179931640625,-0.5716705322265625,-0.5547332763671875
1774472315878540500,10.21454052734375,-1.0724639892578125,-0.56768798828125,-0.542633056640625
1774472315888568600,10.224568603515625,-1.100830078125,-0.5563201904296875,-0.550537109375
1774472315898596600,10.2345966796875,-1.142822265625,-0.5297393798828125,-0.535247802734375
1774472315908624600,10.244624755859375,-1.174072265625,-0.5092010498046875,-0.493438720703125
1774472315918652400,10.25465234375,-1.1461944580078125,-0.52215576171875,-0.4528045654296875
1774472315928680700,10.2646806640625,-1.1062774658203125,-0.51434326171875,-0.4507293701171875
1774472315938708500,10.27470849609375,-1.080108642578125,-0.5373992919921875,-0.429229736328125
1774472315948736800,10.28473681640625,-1.0678863525390625,-0.5386199951171875,-0.4245452880859375
1774472315958764500,10.2947646484375,-1.049560546875,-0.517974853515625,-0.4429779052734375
1774472315968792600,10.30479248046875,-1.041778564453125,-0.509063720703125,-0.46917724609375
1774472315978820600,10.314820556640624,-1.0066070556640625,-0.508544921875,-0.45733642578125
1774472315988848600,10.3248486328125,-0.907379150390625,-0.484619140625,-0.406585693359375
1774472315998876700,10.334876708984375,-0.792877197265625,-0.3985137939453125,-0.3582000732421875
1774472316008904400,10.344904541015625,-0.700836181640625,-0.3168182373046875,-0.276702880859375
1774472316018932500,10.354932373046875,-0.7400360107421875,-0.3105621337890625,-0.3514862060546875
1774472316028960500,10.36496044921875,-0.78558349609375,-0.28997802734375,-0.434051513671875
1774472316038988500,10.374988525390625,-0.7761077880859375,-0.290618896484375,-0.43975830078125
1774472316049016600,10.3850166015625,-0.6980133056640625,-0.2690887451171875,-0.3957977294921875
1774472316059044600,10.395044677734376,-0.6324615478515625,-0.2861785888671875,-0.347930908203125
1774472316069072400,10.405072265625,-0.6193389892578125,-0.3070831298828125,-0.3291473388671875
1774472316079100700,10.4151005859375,-0.6490478515625,-0.31964111328125,-0.31640625
1774472316089128400,10.42512841796875,-0.674163818359375,-0.3157196044921875,-0.332672119140625
1774472316099156700,10.43515673828125,-0.6937103271484375,-0.301971435546875,-0.361297607421875
1774472316109184500,10.4451845703125,-0.70361328125,-0.3010101318359375,-0.3763885498046875
1774472316119212500,10.455212646484375,-0.67413330078125,-0.2910614013671875,-0.36126708984375
1774472316129240600,10.465240478515625,-0.6676177978515625,-0.283966064453125,-0.33917236328125
1774472316139268600,10.4752685546875,-0.702667236328125,-0.2987823486328125,-0.339080810546875
1774472316149296600,10.485296630859375,-0.73876953125,-0.329345703125,-0.33160400390625
1774472316159324700,10.49532470703125,-0.7540283203125,-0.344573974609375,-0.3349609375
1774472316169352400,10.5053525390625,-0.7432708740234375,-0.3389892578125,-0.3507843017578125
1774472316179380700,10.515380615234376,-0.7490081787109375,-0.3560791015625,-0.366363525390625
1774472316189408500,10.525408447265624,-0.7516937255859375,-0.3695068359375,-0.3873443603515625
1774472316199436500,10.5354365234375,-0.7735443115234375,-0.396026611328125,-0.4086151123046875
1774472316209464600,10.545464599609375,-0.7819061279296875,-0.4001007080078125,-0.4399871826171875
1774472316219492600,10.55549267578125,-0.7681427001953125,-0.4010009765625,-0.4562835693359375
1774472316229520600,10.565520751953125,-0.745025634765625,-0.39959716796875,-0.4544830322265625
1774472316239548700,10.575548583984375,-0.8487548828125,-0.4159088134765625,-0.4564361572265625
1774472316249576400,10.585576416015625,-1.031524658203125,-0.3466949462890625,-0.3721923828125
1774472316259603500,10.595603515625,-1.007293701171875,-0.346527099609375,-0.358184814453125
1774472316269631700,10.6056318359375,-1.0091705322265625,-0.368377685546875,-0.3736572265625
1774472316279659500,10.615659423828125,-0.9496612548828125,-0.5137786865234375,-0.511260986328125
1774472316289687600,10.6256875,-1.01434326171875,-0.5103607177734375,-0.5482330322265625
1774472316299715600,10.635715576171876,-0.961151123046875,-0.4203643798828125,-0.4808807373046875
1774472316309743600,10.64574365234375,-0.5954132080078125,-0.2862091064453125,-0.3466033935546875
1774472316319771600,10.655771728515624,-0.4141693115234375,-0.261077880859375,-0.2893218994140625
1774472316329799700,10.665799560546875,-0.317474365234375,-0.3704071044921875,-0.3463592529296875
1774472316339827500,10.675827392578125,-0.13177490234375,-0.46728515625,-0.5592041015625
1774472316349855700,10.685855712890625,0.086578369140625,-0.4972686767578125,-0.79302978515625
1774472316359883500,10.695883544921875,0.1435089111328125,-0.5878448486328125,-1.1321258544921875
1774472316369911600,10.70591162109375,0.066558837890625,-0.6253204345703125,-1.3864898681640625
1774472316379939600,10.715939697265625,-0.0970306396484375,-0.57305908203125,-1.415924072265625
1774472316389967600,10.725967529296875,-0.35491943359375,-0.6219024658203125,-1.1120452880859375
1774472316399995600,10.73599560546875,-0.4664306640625,-0.6371307373046875,-0.8924560546875
1774472316410023700,10.746023681640626,-0.3975830078125,-0.5952301025390625,-0.6651611328125
1774472316420051500,10.756051513671874,-0.3131256103515625,-0.36669921875,-0.609649658203125
1774472316430079500,10.76607958984375,-0.3703765869140625,-0.1143646240234375,-0.6967620849609375
1774472316440107500,10.776107421875,-0.484832763671875,-0.0861968994140625,-0.7318115234375
1774472316450136300,10.78613623046875,-0.5776214599609375,-0.10845947265625,-0.7465972900390625
1774472316460164600,10.79616455078125,-0.525054931640625,-0.0906982421875,-0.817169189453125
1774472316470192400,10.8061923828125,-0.444366455078125,-0.0878753662109375,-0.9224090576171875
1774472316480220700,10.816220703125,-1.464935302734375,-0.3252716064453125,-0.811126708984375
1774472316490248400,10.82624853515625,-2.90771484375,-0.78955078125,-0.4522857666015625
1774472316500276500,10.8362763671875,-1.7370758056640625,-0.4820556640625,-0.5251922607421875
1774472316510304500,10.846304443359376,-1.1709442138671875,-0.05322265625,-0.666534423828125
1774472316520332500,10.85633251953125,-1.2532501220703125,0.1120147705078125,-0.596160888671875
1774472316530360600,10.866360595703124,-1.1718902587890625,0.195648193359375,-0.453826904296875
1774472316540388600,10.876388671875,-0.9099884033203125,0.2137908935546875,-0.323577880859375
1774472316550416400,10.88641650390625,-0.5135498046875,0.150177001953125,-0.38330078125
1774472316560444700,10.896444580078125,-0.1979827880859375,-0.2056121826171875,-0.5286865234375
1774472316570472400,10.906472412109375,-0.17578125,-0.1157073974609375,-0.7059173583984375
1774472316580500500,10.91650048828125,-0.0793609619140625,0.166717529296875,-0.8406982421875
1774472316590528500,10.926528564453125,0.099029541015625,-0.2411956787109375,-0.8949432373046875
1774472316600556500,10.936556640625,-0.048126220703125,-0.5303955078125,-0.907501220703125
1774472316610584600,10.94658447265625,-0.1220245361328125,-0.3921966552734375,-0.8474884033203125
1774472316620612600,10.956612548828126,-0.121307373046875,-0.3190460205078125,-0.830413818359375
1774472316630640400,10.966640380859374,0.0363006591796875,-0.280975341796875,-0.896087646484375
1774472316640668700,10.976668701171874,0.0992584228515625,-0.33087158203125,-0.9716949462890625
1774472316650696400,10.986696533203125,0.012115478515625,-0.414398193359375,-0.958587646484375
1774472316660724700,10.996724853515625,-0.2276763916015625,-0.57733154296875,-0.8494415283203125
1774472316670752500,11.00675244140625,-0.5712890625,-0.6848297119140625,-0.9664306640625
1774472316680780500,11.016780517578125,-0.9698028564453125,-0.615570068359375,-1.227752685546875
1774472316690808600,11.02680859375,-1.2567138671875,-0.5291595458984375,-1.3801422119140625
1774472316700836400,11.03683642578125,-1.14495849609375,-0.3415374755859375,-1.3673095703125
1774472316710864600,11.04686474609375,-0.8556976318359375,-0.3350067138671875,-1.1937103271484375
1774472316720892400,11.056892333984376,-0.5828399658203125,-0.3522491455078125,-1.01751708984375
1774472316730920400,11.06692041015625,-0.4772491455078125,-0.2991790771484375,-0.8902435302734375
1774472316740948500,11.076948486328124,-0.237091064453125,-0.273712158203125,-0.8487548828125
1774472316750976500,11.0869765625,0.21405029296875,-0.1962738037109375,-0.946685791015625
1774472316761004500,11.097004638671875,0.560882568359375,-0.0711212158203125,-1.00347900390625
1774472316771032600,11.107032470703125,0.8177947998046875,0.0623321533203125,-1.0766143798828125
1774472316781060400,11.117060302734375,0.6478118896484375,0.0975494384765625,-1.0006866455078125
1774472316791088600,11.127088623046875,-0.22247314453125,-0.0679473876953125,-0.518280029296875
1774472316801116400,11.137116455078125,-1.0692596435546875,-0.1921539306640625,-0.1884307861328125
1774472316811144700,11.147144775390625,-1.32537841796875,-0.046661376953125,-0.3715362548828125
1774472316821172500,11.15717236328125,-0.9031219482421875,-0.1074676513671875,-0.78424072265625
1774472316831200500,11.167200439453126,-0.36505126953125,-0.25421142578125,-1.0659942626953125
1774472316841228500,11.177228515625,-0.1663970947265625,-0.3057403564453125,-1.0359039306640625
1774472316851256600,11.187256591796874,-0.50140380859375,-0.2756195068359375,-0.964202880859375
1774472316861284600,11.19728466796875,-0.6829833984375,-0.199188232421875,-1.03045654296875
1774472316871312600,11.207312744140625,-0.56890869140625,-0.1414642333984375,-0.98193359375
1774472316881340400,11.21734033203125,-0.3330230712890625,-0.105194091796875,-0.9572601318359375
1774472316891368700,11.22736865234375,-0.269378662109375,-0.0739593505859375,-0.9397735595703125
1774472316901396500,11.237396484375,-0.4162139892578125,-0.0668182373046875,-0.92730712890625
1774472316911424500,11.247424560546875,-0.532684326171875,-0.0984649658203125,-0.901519775390625
1774472316921451500,11.257451416015625,-0.5390625,-0.1364593505859375,-0.8813934326171875
1774472316931479600,11.2674794921875,-0.385162353515625,-0.0968170166015625,-0.935394287109375
1774472316941507600,11.277507568359376,-0.1766357421875,-0.0734710693359375,-0.9712066650390625
1774472316951535400,11.287535400390626,-0.044647216796875,-0.102020263671875,-0.9832305908203125
1774472316961563600,11.297563720703126,-0.03656005859375,-0.0709686279296875,-0.9477386474609375
1774472316971591400,11.30759130859375,-0.113250732421875,-0.0239715576171875,-0.8600006103515625
1774472316981619700,11.31761962890625,-0.22821044921875,-0.0167236328125,-0.7871246337890625
1774472316991647500,11.3276474609375,-0.4056243896484375,-0.0833740234375,-0.711181640625
1774472317001675500,11.337675537109375,-0.5263214111328125,-0.133819580078125,-0.664215087890625
1774472317011703600,11.34770361328125,-0.61474609375,-0.1713714599609375,-0.6827239990234375
1774472317021731600,11.357731689453125,-0.6186065673828125,-0.18096923828125,-0.7126922607421875
1774472317031759600,11.367759521484375,-0.6397247314453125,-0.1085205078125,-0.7262115478515625
1774472317041787600,11.37778759765625,-0.5667266845703125,-0.0238037109375,-0.79730224609375
1774472317051815400,11.3878154296875,-0.4267578125,0.0325164794921875,-0.8601531982421875
1774472317061843700,11.39784375,-0.2317962646484375,-0.08245849609375,-0.923065185546875
1774472317071871500,11.40787158203125,-0.1136016845703125,-0.123626708984375,-1.0420684814453125
1774472317081899500,11.4178994140625,-0.2576141357421875,-0.0323638916015625,-1.1287841796875
1774472317091927600,11.427927490234374,-0.45233154296875,0.0893402099609375,-1.0941314697265625
1774472317101955600,11.43795556640625,-0.6067047119140625,0.114654541015625,-1.058990478515625
1774472317111983600,11.447983642578125,-0.6752777099609375,0.095001220703125,-1.053314208984375
1774472317122011400,11.458011474609375,-0.6866455078125,0.06475830078125,-1.044342041015625
1774472317132039400,11.468039306640625,-0.580322265625,0.0259246826171875,-1.008636474609375
1774472317142067500,11.4780673828125,-0.4859619140625,0.020263671875,-0.936004638671875
1774472317152095500,11.488095458984375,-0.4571075439453125,-0.0241851806640625,-0.825286865234375
1774472317162123500,11.49812353515625,-0.457366943359375,-0.044158935546875,-0.7674102783203125
1774472317172151600,11.508151611328126,-0.4673614501953125,-0.0203704833984375,-0.7747955322265625
1774472317182179300,11.518179443359376,-0.48248291015625,-0.0146484375,-0.80084228515625
1774472317192207600,11.52820751953125,-0.490997314453125,0.009185791015625,-0.834808349609375
1774472317202235400,11.5382353515625,-0.4944610595703125,0.0423431396484375,-0.87347412109375
1774472317212263700,11.548263671875,-0.4707183837890625,0.0637664794921875,-0.9088592529296875
1774472317222291500,11.55829150390625,-0.4425048828125,0.06597900390625,-0.93017578125
1774472317232319500,11.568319580078125,-0.4102325439453125,0.071868896484375,-0.9309234619140625
1774472317242347500,11.578347412109375,-0.3925018310546875,0.0925750732421875,-0.8971710205078125
1774472317252375600,11.58837548828125,-0.433013916015625,0.1143035888671875,-0.84649658203125
1774472317262403600,11.598403564453125,-0.4991607666015625,0.10784912109375,-0.8242340087890625
1774472317272431600,11.608431640625,-0.5098114013671875,0.071502685546875,-0.8335418701171875
1774472317282459400,11.61845947265625,-0.4935150146484375,0.0384521484375,-0.8526153564453125
1774472317292487700,11.62848779296875,-0.4741058349609375,0.0158233642578125,-0.85015869140625
1774472317302515500,11.638515380859374,-0.4667510986328125,0.028839111328125,-0.828765869140625
1774472317312543700,11.648543701171874,-0.3873138427734375,0.00274658203125,-0.835601806640625
1774472317322571500,11.658571533203125,-0.3936309814453125,0.0136260986328125,-0.8267669677734375
1774472317332599600,11.668599609375,-0.3692626953125,0.01287841796875,-0.831817626953125
1774472317342627600,11.678627685546875,-0.36187744140625,-0.003082275390625,-0.8191375732421875
1774472317352655600,11.688655517578125,-0.4012451171875,0.02032470703125,-0.7895050048828125
1774472317362683600,11.69868359375,-0.488311767578125,0.102935791015625,-0.738983154296875
1774472317372711400,11.70871142578125,-0.5317535400390625,0.1857757568359375,-0.7117767333984375
1774472317382739500,11.718739501953126,-0.4380035400390625,0.1921539306640625,-0.779998779296875
1774472317392767500,11.728767578125,-0.3242340087890625,0.14459228515625,-0.895599365234375
1774472317402795500,11.73879541015625,-0.2961883544921875,0.0878753662109375,-0.9944305419921875
1774472317412823600,11.748823486328124,-0.3628997802734375,0.037017822265625,-1.0495758056640625
1774472317422851600,11.7588515625,-0.4697113037109375,0.0328521728515625,-1.059478759765625
1774472317432879400,11.76887939453125,-0.5247650146484375,0.1083984375,-0.99517822265625
1774472317442906600,11.77890673828125,-0.49884033203125,0.1793060302734375,-0.937591552734375
1774472317452935400,11.788935302734375,-0.448089599609375,0.241455078125,-0.8869476318359375
1774472317462962700,11.798962646484375,-0.4111480712890625,0.2333526611328125,-0.85614013671875
1774472317472990500,11.808990478515625,-0.423828125,0.1867218017578125,-0.8525543212890625
1774472317483018800,11.819018798828125,-0.4604034423828125,0.1533966064453125,-0.8518524169921875
1774472317493046500,11.829046630859375,-0.488555908203125,0.1572265625,-0.8459930419921875
1774472317503074600,11.839074462890625,-0.490264892578125,0.169036865234375,-0.839385986328125
1774472317513102600,11.8491025390625,-0.4035186767578125,0.1771240234375,-0.8730926513671875
1774472317523130400,11.85913037109375,-0.3212127685546875,0.16180419921875,-0.93017578125
1774472317533158700,11.86915869140625,-0.2848052978515625,0.1264495849609375,-0.9986114501953125
1774472317543186400,11.8791865234375,-0.390899658203125,0.1052093505859375,-1.0610504150390625
1774472317553214500,11.88921435546875,-0.52032470703125,0.1168060302734375,-1.0687713623046875
1774472317563242500,11.899242431640625,-0.5212860107421875,0.179443359375,-1.0001068115234375
1774472317573270500,11.9092705078125,-0.4322662353515625,0.2744293212890625,-0.901214599609375
1774472317583298600,11.919298583984375,-0.3170623779296875,0.356842041015625,-0.8619384765625
1774472317593326600,11.92932666015625,-0.2250823974609375,0.37725830078125,-0.8661956787109375
1774472317603354400,11.939354248046875,-0.2420654296875,0.361846923828125,-0.8869171142578125
1774472317613382700,11.949382568359376,-0.34051513671875,0.323974609375,-0.9105072021484375
1774472317623410400,11.959410400390626,-0.4470367431640625,0.2856597900390625,-0.9082794189453125
1774472317633438500,11.9694384765625,-0.49700927734375,0.24298095703125,-0.885894775390625
1774472317643466500,11.979466552734374,-0.477081298828125,0.2244873046875,-0.8414764404296875
1774472317653494500,11.98949462890625,-0.42327880859375,0.2132568359375,-0.811859130859375
1774472317663522600,11.9995224609375,-0.3694000244140625,0.220428466796875,-0.7996978759765625
1774472317673550600,12.009550537109375,-0.32696533203125,0.23504638671875,-0.817474365234375
1774472317683578400,12.019578369140625,-0.3234710693359375,0.255523681640625,-0.85833740234375
1774472317693606700,12.029606689453125,-0.3364715576171875,0.27972412109375,-0.897796630859375
1774472317703634400,12.039634521484375,-0.3519439697265625,0.2881317138671875,-0.93975830078125
1774472317713662700,12.049662841796875,-0.3850250244140625,0.286712646484375,-0.981109619140625
1774472317723690500,12.0596904296875,-0.4402923583984375,0.2736053466796875,-1.0006866455078125
1774472317733718500,12.069718505859376,-0.50775146484375,0.2580718994140625,-0.9919281005859375
1774472317743746600,12.07974658203125,-0.5240325927734375,0.2578582763671875,-0.9476470947265625
1774472317753774600,12.089774658203124,-0.4765472412109375,0.284759521484375,-0.87261962890625
1774472317763802600,12.099802734375,-0.4211578369140625,0.306365966796875,-0.8181610107421875
1774472317773830700,12.10983056640625,-0.374267578125,0.3002777099609375,-0.802398681640625
1774472317783858400,12.1198583984375,-0.360809326171875,0.277923583984375,-0.8131866455078125
1774472317793886500,12.129886474609375,-0.3810577392578125,0.255859375,-0.82861328125
1774472317803914500,12.13991455078125,-0.409088134765625,0.2369537353515625,-0.8498382568359375
1774472317813942500,12.149942626953125,-0.4315185546875,0.2237548828125,-0.865936279296875
1774472317823970600,12.159970458984375,-0.4405364990234375,0.216033935546875,-0.8867340087890625
1774472317833998300,12.169998291015625,-0.419097900390625,0.219879150390625,-0.88848876953125
1774472317844026600,12.180026611328126,-0.3980712890625,0.2080078125,-0.88995361328125
1774472317854054400,12.190054443359376,-0.3744964599609375,0.1783294677734375,-0.87249755859375
1774472317864082700,12.200082763671874,-0.354888916015625,0.134918212890625,-0.8503875732421875
1774472317874110500,12.2101103515625,-0.373870849609375,0.09857177734375,-0.84600830078125
1774472317884138500,12.220138427734375,-0.4183349609375,0.072235107421875,-0.85076904296875
1774472317894166500,12.23016650390625,-0.469512939453125,0.045745849609375,-0.8619232177734375
1774472317904194600,12.240194580078125,-0.474334716796875,0.0164337158203125,-0.8680267333984375
1774472317914222600,12.25022265625,-0.447052001953125,-0.0106964111328125,-0.8564605712890625
1774472317924250600,12.260250732421875,-0.4083404541015625,-0.03326416015625,-0.8663177490234375
1774472317934278400,12.2702783203125,-0.371551513671875,-0.0684051513671875,-0.8703765869140625
1774472317944305400,12.280305419921875,-0.4715423583984375,-0.018035888671875,-0.95513916015625
1774472317954333400,12.29033349609375,-0.4444427490234375,0.096435546875,-1.01348876953125
1774472317964361500,12.300361572265626,-0.3189239501953125,0.14495849609375,-0.9739990234375
1774472317974389500,12.310389404296876,-0.28515625,0.1664886474609375,-0.923614501953125
1774472317984417500,12.32041748046875,-0.44158935546875,0.1560211181640625,-0.9185638427734375
1774472317994445600,12.330445556640624,-0.4864044189453125,0.144317626953125,-0.8672943115234375
1774472318004473300,12.340473388671874,-0.5193634033203125,0.1228485107421875,-0.810882568359375
1774472318014501600,12.350501708984375,-0.4888458251953125,0.1670379638671875,-0.7696380615234375
1774472318024529400,12.360529296875,-0.4174346923828125,0.230224609375,-0.72161865234375
1774472318034557700,12.3705576171875,-0.393096923828125,0.3248138427734375,-0.691436767578125
1774472318044585500,12.38058544921875,-0.322265625,0.4061737060546875,-0.6893157958984375
1774472318054613500,12.390613525390625,-0.234344482421875,0.3596954345703125,-0.7108612060546875
1774472318064641500,12.4006416015625,-0.11798095703125,0.347412109375,-0.736541748046875
1774472318074669600,12.410669677734376,-0.141845703125,0.35223388671875,-0.8095703125
1774472318084697600,12.420697509765626,-0.215423583984375,0.158843994140625,-0.934661865234375
1774472318094725600,12.4307255859375,-0.391510009765625,0.0525665283203125,-0.960052490234375
1774472318104753400,12.44075341796875,-0.492340087890625,0.1603240966796875,-0.906585693359375
1774472318114781700,12.45078173828125,-0.5495758056640625,0.4190521240234375,-0.84698486328125
1774472318124809500,12.4608095703125,-0.671844482421875,0.6796875,-0.8118438720703125
1774472318134837500,12.47083740234375,-0.723907470703125,0.795440673828125,-0.8307647705078125
1774472318144865500,12.480865478515625,-0.74432373046875,0.7596588134765625,-0.9539947509765625
1774472318154893600,12.4908935546875,-0.6789703369140625,0.5846710205078125,-1.24041748046875
1774472318164921600,12.500921630859375,-0.3360137939453125,0.3604278564453125,-1.695220947265625
1774472318174949600,12.51094970703125,0.2799530029296875,0.746826171875,-1.3782806396484375
1774472318184977400,12.520977294921876,0.06787109375,0.56170654296875,-1.43414306640625
1774472318195005400,12.53100537109375,-0.01116943359375,0.424774169921875,-1.402587890625
1774472318205033500,12.541033447265624,0.0202789306640625,0.26214599609375,-1.31011962890625
1774472318215061500,12.5510615234375,-0.01171875,0.14569091796875,-1.219940185546875
1774472318225089500,12.561089599609375,-0.028411865234375,0.2882537841796875,-0.9700775146484375
1774472318235117300,12.571117431640625,0.03240966796875,0.2594451904296875,-1.0715789794921875
1774472318245145600,12.5811455078125,0.033355712890625,0.2344512939453125,-1.05194091796875
1774472318255173400,12.59117333984375,0.149688720703125,0.2275848388671875,-0.9310760498046875
1774472318265201700,12.60120166015625,0.3951263427734375,0.1323089599609375,-0.848480224609375
1774472318275229400,12.6112294921875,0.7541351318359375,-0.0561065673828125,-0.7594146728515625
1774472318285257500,12.621257568359376,1.0543670654296875,-0.2776641845703125,-0.658935546875
1774472318295285500,12.631285400390626,1.3929901123046875,-0.5148468017578125,-0.61761474609375
1774472318305313500,12.6413134765625,1.579864501953125,-0.7227325439453125,-0.6053466796875
1774472318315341600,12.651341552734374,1.6596527099609375,-0.913116455078125,-0.6001434326171875
1774472318325369600,12.66136962890625,1.648223876953125,-1.0163116455078125,-0.59796142578125
1774472318335397400,12.6713974609375,1.42987060546875,-1.0005340576171875,-0.59393310546875
1774472318345425700,12.68142578125,1.0986785888671875,-0.8955535888671875,-0.5659637451171875
1774472318355453400,12.691453369140625,0.841888427734375,-0.7787322998046875,-0.52545166015625
1774472318365481700,12.701481689453125,0.706268310546875,-0.714202880859375,-0.549530029296875
1774472318375508500,12.711508544921875,0.6395721435546875,-0.6775054931640625,-0.608795166015625
1774472318385536500,12.72153662109375,0.5596923828125,-0.6356048583984375,-0.67132568359375
1774472318395564500,12.731564453125,0.5960540771484375,-0.619293212890625,-0.7879638671875
1774472318405592300,12.74159228515625,0.6055755615234375,-0.5318603515625,-0.8802490234375
1774472318415620600,12.75162060546875,0.5451507568359375,-0.3836822509765625,-0.9257659912109375
1774472318425648400,12.7616484375,0.478240966796875,-0.2236175537109375,-0.99566650390625
1774472318435676700,12.7716767578125,0.3939666748046875,-0.0490570068359375,-0.964263916015625
1774472318445704400,12.781704345703124,0.3101348876953125,0.0897216796875,-0.87799072265625
1774472318455732500,12.791732421875,0.251220703125,0.201629638671875,-0.8216400146484375
1774472318465760500,12.801760498046875,0.2490234375,0.27593994140625,-0.7674407958984375
1774472318475788500,12.81178857421875,0.196319580078125,0.39678955078125,-0.7417144775390625
1774472318485816600,12.821816650390625,0.15576171875,0.5020294189453125,-0.6557464599609375
1774472318495844600,12.8318447265625,0.1580047607421875,0.5627593994140625,-0.6036834716796875
1774472318505872400,12.841872314453125,0.165679931640625,0.653717041015625,-0.535064697265625
1774472318515900700,12.851900634765625,0.2044830322265625,0.6916351318359375,-0.4887847900390625
1774472318525928400,12.861928466796876,0.2720184326171875,0.67620849609375,-0.5028533935546875
1774472318535956700,12.871956787109376,0.414703369140625,0.6273040771484375,-0.5903167724609375
1774472318545984500,12.881984619140624,0.5133819580078125,0.6109619140625,-0.6386260986328125
