time,seconds_elapsed,z,y,x
1774472077012030200,0.0670302734375,0.39840018313825126,0.017609306448698042,-0.04457856191694736
1774472077022058000,0.07705810546875,0.52673371758461,-0.06781506059765816,-0.07591068876981735
1774472077032087000,0.087087158203125,0.7025619936555624,-0.0809364079773426,-0.12342588866055011
1774472077042115300,0.097115234375,0.6671580873191356,-0.0926066797658801,-0.06885960121452808
1774472077052143000,0.10714306640625,0.5171814608633518,-0.1920823685184121,0.054175534562766546
1774472077062171100,0.117171142578125,0.4859399349033832,-0.26141309437602755,0.07712941690981388
1774472077072199200,0.12719921875,0.5310258618205785,-0.16859890933930874,0.08815671461969614
1774472077082228200,0.137228271484375,0.3938163624793291,0.009101590344309806,0.139196581505239
1774472077092256000,0.147256103515625,0.21153671831190585,0.03105009504109621,0.20275982987731694
1774472077102284300,0.1572841796875,0.11350772123634814,-0.07473550751060247,0.3241439835771918
1774472077112312000,0.16731201171875,0.16808336103260516,-0.0691594609439373,0.36393355765193697
1774472077122341000,0.177341064453125,0.2514239075422287,0.07453647780716419,0.29332389789968727
1774472077132369200,0.187369140625,0.1837970629930496,0.15418606084436176,0.23648323578089475
1774472077142397200,0.197397216796875,0.07383914319276809,0.0054673254951834675,0.20894933216720818
1774472077152425000,0.207425048828125,0.1446194833368063,-0.12587474311739205,0.26304274140447376
1774472077162453200,0.217453369140625,0.1640209338992834,-0.12781798613965512,0.26078385656177994
1774472077172482000,0.22748193359375,0.09872340908050536,-0.08383475976735354,0.2751470206961036
1774472077182510000,0.237510009765625,0.08128595206737518,-0.11591185976862907,0.3536486027419567
1774472077192538000,0.2475380859375,0.09274901084601879,-0.10212503421753644,0.3838116858154535
1774472077202566100,0.257566162109375,0.05888298160135746,-0.014487082774937153,0.3840472481369972
1774472077212593400,0.267593505859375,0.028229484662413595,0.05069032279551029,0.4612222577542066
1774472077222622500,0.27762255859375,0.08708908538818359,0.06089344464093446,0.4973445414930582
1774472077232650200,0.287650146484375,0.12404022116661072,0.08048866420984267,0.5263846118859946
1774472077242678500,0.297678466796875,0.01872574325799942,0.15096972914636134,0.5030361772634089
1774472077252706300,0.307706298828125,0.08017477595508098,0.18258038067966698,0.39512656829506154
1774472077262734300,0.317734375,0.19312544783055782,0.16693360647559166,0.36391923686563965
1774472077272763100,0.32776318359375,0.12676701578199862,0.12030980246663092,0.37039077096730466
1774472077282791400,0.33779150390625,0.10569850879013538,0.08641103999614715,0.41561216083243485
1774472077292819200,0.347819091796875,0.10879179863035678,-0.0001315174251794815,0.43872693282961844
1774472077302847500,0.357847412109375,0.05780804584622383,-0.0793701815739274,0.4275397683829069
1774472077312876500,0.36787646484375,0.0632774171680212,-0.06412789651751517,0.4627240406192839
1774472077322904300,0.377904296875,0.07489245163798332,-0.02865940051227808,0.54896907639876
1774472077332932400,0.387932373046875,0.07731178773939609,-0.040940205414593214,0.6331136327676474
1774472077342960400,0.39796044921875,0.03464110527038574,-0.03981733886450529,0.6211693663433194
1774472077352988200,0.40798828125,-0.034330724146962165,-0.014187223045527934,0.5236809058852493
1774472077363017200,0.418017333984375,-0.1048649805754423,-0.02328793660700321,0.40862902394682166
1774472077373045500,0.42804541015625,-0.32408348556160926,-0.09278583572506904,0.39319296988397834
1774472077383073300,0.4380732421875,-0.6016343525290488,-0.20168840125352144,0.5072410816073417
1774472077393101600,0.4481015625,-0.5803478188723326,-0.23497370800077913,0.4466609406992793
1774472077403130400,0.45813037109375,-0.5413163696885108,-0.1753387389883399,0.33753304198235273
1774472077413158400,0.468158447265625,-0.4852560442924499,-0.13377455645650624,0.31983444981500503
1774472077423186200,0.478186279296875,-0.47796471824049946,-0.13559329631626604,0.30277780881300564
1774472077433214500,0.48821435546875,-0.47738253443837164,-0.12685761667490006,0.3081049951851368
1774472077443242200,0.4982421875,-0.5107178178071975,-0.09736731829643248,0.340580885245651
1774472077453271300,0.508271240234375,-0.4786310731947422,-0.044321372285485265,0.310596227478981
1774472077463299300,0.51829931640625,-0.39973756922185416,0.010283201344311236,0.27552140696644783
1774472077473327400,0.528327392578125,-0.38187574931681156,0.1029895420923829,0.25571575951725245
1774472077483355400,0.53835546875,-0.3207961344540119,0.16274287678748367,0.22379151199012992
1774472077493383400,0.548383544921875,-0.21351415586471556,0.1781687017172575,0.18755539261326193
1774472077503412200,0.558412109375,-0.14326748420596122,0.16466244667321442,0.12608283291012048
1774472077513440300,0.568440185546875,-0.017037644040584565,0.12923778980970382,0.1245937633961439
1774472077523468300,0.57846826171875,0.06354688175916672,0.05377776741683483,0.16426175691783426
1774472077533496300,0.588496337890625,0.16945114225447178,-0.05916033723801374,0.16705314120203255
1774472077543525400,0.598525390625,0.30995325340032576,-0.1513987682133913,0.20924349280819296
1774472077553553400,0.608553466796875,0.3470113566845655,-0.21590660395920275,0.22079072273895142
1774472077563581400,0.61858154296875,0.3671639178752899,-0.24996669447124004,0.17587562234401702
1774472077573609500,0.628609375,0.4608201066941023,-0.2714429054811597,0.1719850446462631
1774472077583637200,0.63863720703125,0.4594359588593244,-0.25601532698571683,0.23347711276747285
1774472077593666300,0.648666259765625,0.3607271628260612,-0.2697162278190255,0.26927717881463464
1774472077603694300,0.6586943359375,0.4124544274538755,-0.23697160381972787,0.22146000030264257
1774472077613722400,0.668722412109375,0.43091362873017786,-0.18802052590698,0.0658009442962706
1774472077623750400,0.67875048828125,0.23262802165746688,-0.23139058881700036,0.12390578113198279
1774472077633779200,0.688779296875,0.10207856472730636,-0.26700404625087976,0.2360240207713097
1774472077643807500,0.698807373046875,0.21186288152635097,-0.2253992394477129,0.1087945751093328
1774472077653835300,0.708835205078125,0.15319968015551566,-0.1969309775933623,0.05656747120060026
1774472077663863300,0.71886328125,-0.07120002686083317,-0.2453010407477617,0.09690233113318682
1774472077673891300,0.728891357421875,-0.24514205079376697,-0.3582952595040202,0.15561930851787328
1774472077683920400,0.73892041015625,-0.37131519233584404,-0.39711657306849957,0.1514075360417366
1774472077693948200,0.7489482421875,-0.8529863638788461,-0.37172289635390043,0.05153641823083162
1774472077703976400,0.7589765625,-1.4086007235109805,-0.257889304164052,-0.17961553952470422
1774472077714004200,0.769004150390625,-1.4143261154204607,-0.04773176525086164,-0.46135932813733815
1774472077724032500,0.779032470703125,-1.1556506293147801,0.20304419977664948,-0.8434567573808133
1774472077734061300,0.789061279296875,-1.4054711933135986,0.5255933153778314,-1.4799712846331297
1774472077744089300,0.79908935546875,-1.7513702048420905,0.7854089114293455,-2.023035813163221
1774472077754117400,0.809117431640625,-1.521503464591503,0.4208955080628395,-2.0728397085130212
1774472077764145400,0.8191455078125,-1.2562135287821292,-0.1357110774770379,-1.8635723964378237
1774472077774174500,0.829174560546875,-0.8431348319500684,-0.3080538495197892,-1.7908762858003378
1774472077784202200,0.8392021484375,-0.19672727171480656,-0.17238602666258812,-1.5813412626996635
1774472077794230500,0.84923046875,0.0024888942062854767,-0.26435031687170263,-1.0977192493498324
1774472077804258300,0.85925830078125,0.5791220764696597,-0.4036956591978669,-0.5060565479978919
1774472077814287400,0.869287353515625,0.4388976132214069,-0.20171908865272997,-0.2603498490586877
1774472077824315400,0.8793154296875,-0.3864525557130575,0.48483635757565496,-0.18615677786171436
1774472077834343400,0.889343505859375,-0.6204717394679784,0.8188461938679218,-0.26121903310865163
1774472077844371200,0.89937109375,-1.174901857751608,1.2875099997997284,-0.49703445263057944
1774472077854399500,0.9093994140625,-2.639295195633173,2.4265473479658364,-1.5184557674586772
1774472077864428300,0.91942822265625,-1.320784492892027,2.044822989818454,-1.549376390901208
1774472077874456300,0.929456298828125,0.9109545687228441,1.1582950063437223,-0.7315048872843384
1774472077884484400,0.939484375,2.156567793035507,0.4282844492703676,-0.5161188000679016
1774472077894512400,0.949512451171875,2.043862035831809,-0.47788697682917114,-0.40752515435814857
1774472077904540400,0.95954052734375,1.407447461822629,-0.9741595051765441,0.22093349221050737
1774472077914569500,0.969569580078125,1.2095640058100223,-0.6910311303377151,0.4350932525023818
1774472077924597200,0.97959716796875,0.925000045210123,-0.041349078476428984,0.34628596501946446
1774472077934625300,0.989625244140625,-0.03969371248483657,0.4896873047381639,-0.21421967378556728
1774472077944653300,0.9996533203125,-0.09048574208915233,0.7746849805802106,0.4503872677460313
1774472077954682400,1.009682373046875,0.5005331084012985,1.20214583850801,0.5711512437209486
1774472077964710100,1.019710205078125,-0.18312486281991003,1.836982203415036,0.9435743972986936
1774472077974738400,1.029738525390625,-0.7673650129556655,2.266515775963664,0.8540966632083058
1774472077984766200,1.03976611328125,-0.9571160159170627,2.7432424768418073,1.028672016608715
1774472077994794500,1.04979443359375,-0.155528415364027,2.0528321087509394,1.7127198639303445
1774472078004823600,1.059823486328125,0.671073799458146,1.0242074384152888,2.1662571201398966
1774472078014851300,1.069851318359375,1.5448159511178732,0.31455110258460045,2.017777746504545
1774472078024879400,1.07987939453125,2.3570775058984754,0.08766191684007645,1.8329466642886398
1774472078034907400,1.089907470703125,2.384491582524776,0.08529752579629421,1.5389423829093574
1774472078044936400,1.0999365234375,2.772361019298434,-0.7903142191275954,1.2920944049805403
1774472078054964200,1.109964111328125,4.479665872442722,-1.366986272096634,1.0914020290270448
1774472078064992500,1.119992431640625,4.917678519523143,-0.815634246084094,0.49087622226178645
1774472078075020300,1.130020263671875,3.8257770165413616,0.5019005973622203,0.8535898827299475
1774472078085049300,1.14004931640625,2.3524060069561004,1.293892978835106,1.2156097157150507
1774472078095077400,1.150077392578125,1.5951491310387849,1.2038953125238419,1.250816638174653
1774472078105105400,1.16010546875,1.5136942521452903,0.6749032946184277,1.3588969275347889
1774472078115133200,1.17013330078125,1.2873966025531292,0.4008598512500524,1.6909091602690516
1774472078125161500,1.180161376953125,1.0491700302362441,0.19296236622333526,1.7045640300035476
1774472078135190300,1.190190185546875,1.0718500640779733,-0.22692191897034644,1.3238280983716249
1774472078145218300,1.20021826171875,0.897002615737915,-0.7232888476029038,0.9469937042228876
1774472078155246300,1.210246337890625,-0.11867138760983943,-1.0885317342877388,0.9638149290338158
1774472078165274400,1.2202744140625,-1.1152104823768139,-1.782701454912126,2.0796135865621266
1774472078175303400,1.230303466796875,0.00795242030918598,-1.5242536400824784,2.3257976937547324
1774472078185331500,1.24033154296875,0.9058002546995878,0.36177754866182804,0.794994193637371
1774472078195359500,1.250359375,1.0832061553508043,0.7464370834782719,0.7755940582491457
1774472078205388500,1.260388427734375,-0.018830957198143004,-0.21440730531215665,1.3722376167535781
1774472078215416600,1.27041650390625,-1.5247522372543811,-0.5167524217963219,1.5272854089938104
1774472078225445600,1.280445556640625,-0.6997673945009708,-0.044051323172450065,0.9178801302023232
1774472078235473700,1.2904736328125,0.5518728350162506,0.24299802450239658,0.4565294237628579
1774472078245501700,1.300501708984375,0.75316405364573,0.17786884198784828,-0.08110387349873781
1774472078255529700,1.31052978515625,0.5915776534169912,0.236881879709661,-0.2873074140891433
1774472078265558800,1.320558837890625,0.5944079084068536,0.23457038789689538,-0.483445926130563
1774472078275586600,1.330586669921875,0.6549672987878322,0.1657403050377965,-0.7791040391314774
1774472078285614800,1.34061474609375,0.9045704206436872,0.0544108046233654,-0.8959832095623016
1774472078295642600,1.350642578125,1.2605465895503758,-0.07454144624322652,-0.5652727070763707
1774472078305671700,1.360671630859375,1.6422341228187083,-0.24730916569977998,-0.7055046229787171
1774472078315699500,1.370699462890625,2.0391496203571555,-0.341855581356585,-0.6262669817432761
1774472078325727700,1.380727783203125,2.2658435757905244,-0.3676405954763293,-0.8503021662961691
1774472078335755500,1.390755615234375,2.1063217068761584,-0.12156623226851224,-1.0499547508731484
1774472078345783800,1.40078369140625,2.1495897707164286,0.0782198424950242,-1.0206601942624896
1774472078355812600,1.4108125,2.443857379207015,0.2584726570099592,-1.0500328576106577
1774472078365840600,1.420840576171875,2.8566788864076136,0.37908611859828234,-1.0878772159017622
1774472078375868700,1.43086865234375,3.049434331882,0.36168607098609207,-1.2247741421625018
1774472078385896700,1.440896728515625,3.109813689520955,0.3299678674250841,-1.2185487648416309
1774472078395925800,1.45092578125,3.273691415557265,0.40896570855528114,-1.0474198986332863
1774472078405953500,1.46095361328125,3.428765072891116,0.5751052420437336,-0.9305030265405774
1774472078415981600,1.470981689453125,3.6057027715086933,0.6501458699807524,-0.8777131011173128
1774472078426009600,1.481009521484375,3.556428745251894,0.5908657057553529,-1.0284857733216135
1774472078436037600,1.49103759765625,3.270155642646551,0.6405456824645399,-1.0581481403313577
1774472078446066700,1.501066650390625,2.90679871583879,0.6633072571098804,-1.0368116300530732
1774472078456094700,1.5110947265625,2.521961778628826,0.5748924760758877,-1.073931400396675
1774472078466122800,1.521122802734375,2.4231442615240812,0.45033349173218007,-1.0154073883008212
1774472078476150800,1.53115087890625,2.290370698803663,0.21080080525279044,-0.64231254600659
1774472078486179600,1.5411796875,1.7834744851112365,-0.0907832637310028,-0.16370529207885265
1774472078496207600,1.55120751953125,1.2648252897828816,-0.3307821064174175,-0.05079733596709556
1774472078506235600,1.561235595703125,0.6374234587907791,-0.26313977203816175,-0.5331386161908507
1774472078516263700,1.571263671875,0.3993091146767139,-0.03757832776606083,-0.9839045079909264
1774472078526292500,1.58129248046875,0.10288345136940479,0.11596329769492149,-0.8310637242756783
1774472078536320800,1.59132080078125,0.0830453629553318,0.15549042144119737,-0.6576851794444024
1774472078546348500,1.6013486328125,0.16077333028018473,0.2270472989156842,-0.5915118216391653
1774472078556376600,1.61137646484375,0.2981225303530693,0.1744146098807454,-0.6668778821382672
1774472078566405600,1.621405517578125,0.41412148388326164,0.4784960486382246,0.05343998682983219
1774472078576433700,1.63143359375,-0.3731494220256805,1.270072835047543,-0.6893451500121504
1774472078586461400,1.64146142578125,-0.27097265762090683,-0.9785606627449392,-0.8401872341908514
1774472078596489700,1.65148974609375,-0.19729776507914065,-0.8772061745084822,-0.02057692408263683
1774472078606517500,1.661517578125,-0.6490092671662568,1.1086959859162568,-0.5191050493370741
1774472078616546600,1.671546630859375,0.15901333487033842,0.46865796071290966,-0.8024555424939841
1774472078626574800,1.681574951171875,0.16820611062943935,0.5891797984950244,-0.5826830568868666
1774472078636602600,1.6916025390625,0.11851356669962405,0.735079969292134,-0.2389908346876502
1774472078646630400,1.70163037109375,0.24635084206163882,0.8068253550760448,-0.05523205787837505
1774472078656659700,1.71165966796875,0.3696960667014122,0.7689546202346682,-0.002115530849248171
1774472078666687700,1.721687744140625,-0.050612581384181975,0.6294450272575021,0.39682431212365626
1774472078676715500,1.731715576171875,-0.058037762948870655,0.6355842606648803,0.5763472049288452
1774472078686743800,1.741743896484375,0.27446985208690167,0.8834956300415098,0.35885391630008817
1774472078696772600,1.751772705078125,0.787420543512702,0.978821213377267,0.08267083055451512
1774472078706800600,1.761800537109375,1.0187544337064027,1.2014037879690527,0.07064341589137911
1774472078716829400,1.771829345703125,1.2555197012990713,1.4069766294404864,0.06967413246780634
1774472078726857700,1.781857666015625,1.6809066755622624,1.3121658637590705,0.0210870655618608
1774472078736885500,1.791885498046875,1.9803245064228772,1.2444058943495153,0.23634134309217333
1774472078746913800,1.801913818359375,2.076879923814535,0.9948832903839647,0.4110863539710641
1774472078756942800,1.81194287109375,1.8362474593997,0.7259456457220017,0.4698302193626761
1774472078766970600,1.821970703125,1.4025754718720913,0.6925033948473632,0.23221403402909635
1774472078776998700,1.83199853515625,1.086828437501192,0.4789864625036716,0.0418602428689599
1774472078787026700,1.842026611328125,0.8047527865856885,0.21217618525922297,0.17205781762152908
1774472078797054500,1.852054443359375,0.1284498543024063,0.15991788249462843,0.1873756521321833
1774472078807083500,1.86208349609375,-0.36291210564970966,0.17290756631866097,0.044605303793400525
1774472078817111800,1.87211181640625,-0.5707113909989595,0.2154423474483192,-0.06935644482076167
1774472078827139600,1.8821396484375,-0.9384341118007897,0.16097528259307145,-0.34417233386635776
1774472078837167600,1.892167724609375,-1.407568457853794,0.06356807067766786,-0.5102326646387577
1774472078847196700,1.90219677734375,-1.701700457265973,0.08614756675437092,-0.649307373329997
1774472078857224700,1.912224609375,-2.019156049120426,0.07316168232262134,-0.9507913429401814
1774472078867252500,1.92225244140625,-2.162837959346175,-0.000730067840218544,-0.9078516342714429
1774472078877280800,1.93228076171875,-2.291452648821473,-0.12323153513222931,-0.933832755485177
1774472078887309600,1.9423095703125,-2.313717087599635,-0.2570954503726214,-0.6130854286089539
1774472078897337600,1.952337646484375,-2.274499760454893,-0.051261766007915134,-0.8613168237201869
1774472078907365600,1.96236572265625,-2.1714263394713402,0.07605806135125458,-0.6363382939025759
1774472078917393700,1.9723935546875,-1.300403383642435,-0.41017647258453066,-0.2952190639965236
1774472078927422700,1.982422607421875,-0.9520113862544297,-0.2949813097178936,-0.10682926638573408
1774472078937450800,1.99245068359375,-0.38486967043578624,-0.3370432857040316,0.1646548478886485
1774472078947478500,2.002478515625,0.33252222808301446,-0.2632665402229875,-0.011762918508052824
1774472078957506600,2.012506591796875,0.5043073662430048,0.21904154098406434,0.45687546072155233
1774472078967535600,2.02253564453125,0.7988859403789043,0.24440548014752567,0.6156251762196421
1774472078977563600,2.032563720703125,1.2681547264665365,0.26880232784450053,0.7004036465778947
1774472078987591700,2.042591796875,1.6268611971199511,0.3211701553981751,0.9733996267199516
1774472078997619700,2.05261962890625,1.9795774874478578,0.2194296635188162,1.1465355949670075
1774472079007647700,2.062647705078125,2.2566923010855913,0.11122874345369636,1.2612867403931916
1774472079017676500,2.072676513671875,2.4841964038580655,0.16581724273152648,1.1960323240637778
1774472079027704800,2.082704833984375,2.7186130624979734,0.13590163161307572,1.030779802542925
1774472079037732600,2.092732666015625,2.8382968420207497,0.09253354146443307,0.784182876765728
1774472079047760600,2.1027607421875,2.554913031116128,0.2605115424264222,0.3915969328641891
1774472079057789400,2.11278955078125,2.4940713166624304,0.1638008614078164,0.4010689639560878
1774472079067817700,2.122817626953125,2.260758819872141,-0.08367357785627245,0.5296162872835993
1774472079077845500,2.132845458984375,1.9093805001497268,-0.200728250984475,0.5106764628835022
1774472079087873800,2.142873779296875,1.808052461528778,-0.3096044399626553,0.7220422085426748
1774472079097902600,2.152902587890625,1.3949223267704247,-0.4145117253098637,0.311524009848386
1774472079107930600,2.1629306640625,1.3132266248583793,-0.15512429154254495,-0.23667642026543617
1774472079117958700,2.172958740234375,0.3851829741686582,-0.0800689044278115,0.1666220563083887
1774472079127986700,2.182986572265625,0.23251462441086768,-0.30706447315625846,0.081618252761662
1774472079138015700,2.193015625,0.01968903533220291,-0.1703458991371095,0.07282265962660313
1774472079148043500,2.20304345703125,-0.28698855739831924,-0.18930084804110228,-0.006789952401071786
1774472079158071800,2.21307177734375,-0.6774936033725738,-0.20023016526922582,-0.19316227270960806
1774472079168099600,2.223099609375,-0.9753449155688285,-0.17833024895451963,-0.5127896556451916
1774472079178128600,2.233128662109375,-1.4808002828031777,-0.33503676818720995,-0.6029799219191074
1774472079188156700,2.24315673828125,-2.216193701958656,-0.46489422426521776,-0.6230778303131461
1774472079198184700,2.253184814453125,-2.6195962234288452,-0.5325252335328609,-0.8924889377057552
1774472079208211500,2.26321142578125,-3.044679830831289,-0.4777928688049316,-1.2316674088075756
1774472079218239500,2.273239501953125,-3.4610692596465347,-0.1600568525739014,-1.7603893775999544
1774472079228268300,2.283268310546875,-3.716156950393319,0.11845526064112782,-1.9303209968477486
1774472079238296600,2.293296630859375,-4.156358631950616,0.33048721512407064,-1.7860875902190803
1774472079248324400,2.303324462890625,-4.142618860411644,0.2749593891695142,-1.3638164098888634
1774472079258352600,2.3133525390625,-3.8016947146862745,0.29904081424176693,-1.2023685413479803
1774472079268381700,2.323381591796875,-3.2658523924946783,0.3767949389211833,-1.4179858069717883
1774472079278409500,2.333409423828125,-3.439460654428601,0.21073387749642133,-1.117994560137391
1774472079288437200,2.343437255859375,-3.682076401615143,0.04691811078041792,-0.9493044653832912
1774472079298465500,2.353465576171875,-3.1345623463302847,-0.2977738630458712,-0.8279287872508168
1774472079308494600,2.36349462890625,-2.5777169835984703,-0.5580427558228374,-0.7050500110790133
1774472079318522400,2.3735224609375,-1.9402263047903776,-0.639074148607254,-0.6502718344479799
1774472079328550700,2.383550537109375,-1.5498521917194128,-0.6718503367885947,-0.5309881601586938
1774472079338578400,2.393578369140625,-1.3367781808376311,-0.4311562053143978,-0.4090700457125902
1774472079348607500,2.403607421875,-1.1067746624648571,0.023027385974675414,-0.5727338367372751
1774472079358635500,2.413635498046875,-0.5665303059220314,0.256219178994745,-0.8013102449163794
1774472079368663600,2.42366357421875,-0.392277900865674,0.45562794487848873,-0.5130339857950806
1774472079378691300,2.43369140625,-0.7794388971090316,0.7656226993329822,-0.5409773469924927
1774472079388720600,2.443720703125,-1.7367524814248083,0.9831031284801661,-1.1099345878005027
1774472079398748400,2.45374853515625,-1.9262614923238752,0.8250465098127723,-0.8256126192629337
1774472079408776400,2.4637763671875,-1.8563795623242854,0.03404123968109488,-0.07261778470426797
1774472079418804500,2.473804443359375,-1.7980998073130845,-0.3168522191338241,-0.008853460802137851
1774472079428833500,2.48383349609375,-1.8853969824939965,-0.3544992282219231,-0.34344957254976033
1774472079438861300,2.493861328125,-2.7086405345380307,-0.5388171002186835,-0.6635071635961532
1774472079448889600,2.5038896484375,-2.520023504042625,-1.0405452636234462,-0.8817138611912727
1774472079458917400,2.51391748046875,-2.2507611574709414,-1.3291529466561973,-0.9865738733306526
1774472079468946400,2.523946533203125,-1.7078537191987038,-1.4885186020955443,-1.0332757110118866
1774472079478974500,2.533974365234375,-1.40960902377069,-1.552303238133341,-1.0627797456547616
1774472079489002500,2.54400244140625,-1.092123036777973,-1.5701171272434293,-0.8564902803465724
1774472079499030500,2.554030517578125,-0.9174316557824611,-1.6986504220455885,-0.6020536008544266
1774472079509059300,2.564059326171875,-0.8125479705065488,-1.6137809124030171,-0.4084947300426662
1774472079519087600,2.574087646484375,-0.808543411040306,-1.3567930871233342,-0.6650597998656332
1774472079529115400,2.584115478515625,-0.9563514612853526,-1.2622523705549538,-0.7913515993513166
1774472079539143700,2.594143798828125,-1.1346411590337753,-1.2654556966409087,-0.5894570080012083
1774472079549172500,2.60417236328125,-0.6480909832775592,-1.4320007421903311,-0.28572467494234444
1774472079559200500,2.614200439453125,-0.23893325928151607,-1.6381244955427943,0.15595102469027042
1774472079569228300,2.624228271484375,-0.14169862745404244,-1.3760105594210326,0.4363011669874191
1774472079579256600,2.634256591796875,-0.004426584270596504,-1.4433718849018216,0.6071686057806015
1774472079589285400,2.644285400390625,-0.13368600139021872,-1.3859613139405846,0.3447264606177807
1774472079599313400,2.6543134765625,-0.6130570792973041,-0.840852858492732,-0.2225552481934428
1774472079609341400,2.664341552734375,-1.0278127694308756,0.04379413354098797,-1.0300003426030278
1774472079619369500,2.674369384765625,-1.5490169099390505,0.07519026554077864,-1.4530232180833815
1774472079629398500,2.6843984375,-1.9674644403278827,-0.5457168696697801,-1.656985117226839
1774472079639426600,2.694426513671875,-1.0892542033433914,-1.023166404929757,-1.154753972736001
1774472079649454600,2.70445458984375,-0.8714537484616041,-0.46736244100965557,-0.21279636298418045
1774472079659482400,2.714482421875,-1.1065747559785841,-0.48635384946651755,0.1854752253383398
1774472079669511700,2.72451171875,-0.15492518877387046,-0.7656886041760445,0.2111725611746311
1774472079679539500,2.73453955078125,0.301010068488121,-0.7240656771942973,0.22215251261144875
1774472079689567500,2.7445673828125,-0.24171266086697576,-0.6517464370451868,0.3462964864134788
1774472079699595500,2.754595458984375,-0.867382553499937,-0.37657910421341656,0.5674713861644267
1774472079709624600,2.76462451171875,-1.182406534293294,0.06243146786317229,0.9170280434176326
1774472079719652400,2.77465234375,-1.1140607278198003,0.1442313608020544,0.8262377654239534
1774472079729680600,2.7846806640625,-0.611985066151619,-0.07989347479566931,0.6409025330781937
1774472079739708400,2.79470849609375,-0.019041385078430173,-0.3595303542569279,0.9176289319202303
1774472079749737500,2.804737548828125,1.8187404442816972,-1.2982896063588558,1.114443589657545
1774472079759765500,2.814765625,1.160886191880703,-1.8663621732868254,0.9861910114929079
1774472079769793500,2.82479345703125,0.03310556626617908,-1.6393205734595655,0.595474076333642
1774472079779821300,2.8348212890625,1.216502280640602,-0.7283926004827022,0.7834270899623632
1774472079789849600,2.844849609375,2.3616356075942515,-0.50805561286062,0.0573474425971508
1774472079799878400,2.85487841796875,1.4659996040344236,-0.10191095307543874,-1.038107368952036
1774472079809906400,2.864906494140625,0.540987868386507,0.6228716402165592,-1.5256018398210405
1774472079819934500,2.8749345703125,0.5919570081233978,1.343576462675631,-1.0098121255770325
1774472079829963500,2.884963623046875,0.573729862037301,1.8992565810203552,-0.07569324662685394
1774472079839991600,2.894991455078125,0.0812719235420227,2.377976647672802,0.5837175875663757
1774472079850019300,2.905019287109375,-0.35138942563831804,2.578150991101563,0.9591817162752151
1774472079860047600,2.915047607421875,-0.6220873579710722,2.2080106877639887,1.3934829416170715
1774472079870075400,2.925075439453125,-0.32434593589007854,2.284049094566703,2.4227055778458713
1774472079880104400,2.9351044921875,-0.1604080040991306,2.4545447774380444,2.4113515323996544
1774472079890132500,2.945132568359375,0.5656909324884415,2.0017656461194155,1.1003189104542135
1774472079900160500,2.955160400390625,0.44963586485683915,1.3120324466377495,-0.3558811840996146
1774472079910189300,2.965189208984375,-0.3633206864506006,0.6167056649327278,-1.5263663944527506
1774472079920217600,2.975217529296875,-0.5306301405012607,0.003461538630723953,-2.0063667101740834
1774472079930245400,2.985245361328125,-0.5733809024691582,-0.18277590325176715,-1.238697745835781
1774472079940273400,2.9952734375,-0.934284006384015,0.32484277949631213,0.00932107831388712
1774472079950302500,3.005302490234375,-1.467929695314169,1.1989140169799326,0.7327087101161479
1774472079960330500,3.01533056640625,-1.526276085820794,1.735939995998144,1.2957760161027312
1774472079970358300,3.025358154296875,-0.8391758651912212,1.6196674862235783,1.5956939054399728
1774472079980386600,3.035386474609375,-0.9028712155103683,1.1856056225955485,1.6915619250893592
1774472079990415600,3.04541552734375,-1.124233162266016,1.1194044269353152,1.6466291429072617
1774472080000443400,3.055443359375,-0.5357844545245171,1.4311200138330458,1.492521407996118
1774472080010471700,3.0654716796875,-0.012785831815004348,1.471301217573881,1.4063596665859222
1774472080020499500,3.07549951171875,0.09456161322593688,1.2511907321840523,1.2321490548446774
1774472080030528500,3.085528564453125,-0.4730108952254057,1.0234434683054685,1.0187366057887672
1774472080040556500,3.095556640625,-2.2436136238038538,0.9396312126308679,0.3238888397723436
1774472080050584600,3.10558447265625,-1.894629505741596,1.1532868227928876,-0.1844903059542179
1774472080060612400,3.1156123046875,-3.037690118074417,0.35831659455299375,-0.4627560431927442
1774472080070641400,3.125641357421875,-2.687307823652029,-0.11525719525218009,-0.3836071031540632
1774472080080669400,3.13566943359375,-2.1330045466184613,-0.09201017517745494,-0.06410802277326584
1774472080090697500,3.145697509765625,-0.9166922355920076,-0.14047230052947998,0.6538229510582984
1774472080100725500,3.1557255859375,-0.564063623547554,0.6601894173502921,0.5202051925987005
1774472080110754600,3.165754638671875,-1.051682305318117,1.6894775200307368,-0.2889130957201123
1774472080120782300,3.1757822265625,-1.4205179557979106,1.0205711277395486,-0.4410584445171058
1774472080130810600,3.185810546875,-1.3836135817706585,-0.012408230674266815,-0.1550166664496064
1774472080140838400,3.19583837890625,-0.807348063775897,-0.5101987623691558,-0.3030567718848586
1774472080150867500,3.205867431640625,-1.3125474104225634,-0.37499651119709015,-1.2454849217578767
1774472080160895500,3.2158955078125,-1.6609493446826933,0.017860650861263275,-1.7256060873799024
1774472080170923500,3.225923583984375,-0.7595628147721291,0.35670915935635567,-1.6719754733487964
1774472080180951600,3.23595166015625,0.25064181725382806,0.5039578221529722,-1.7997974050112067
1774472080190980400,3.24598046875,0.37589725942909713,0.5144453138977289,-1.9076459314420817
1774472080201008600,3.256008544921875,0.11018997499048709,0.5745791723430156,-1.7856291789270937
1774472080211040500,3.26604052734375,0.26893326074779034,0.7788479454785585,-1.5300626186221837
1774472080221068500,3.276068603515625,0.47766135137975213,1.1851333289086818,-1.1649475961007176
1774472080231097300,3.286097412109375,0.41320670712590213,1.4259727140724658,-1.0900569710936396
1774472080241125600,3.296125732421875,0.40184009445905683,1.2444237222671508,-1.2544184620589016
1774472080251153400,3.3061533203125,-0.10079729274511337,0.9809668471038341,-1.5645841891661285
1774472080261181700,3.316181640625,-0.4581090941697359,0.8877139783889054,-1.3142737958237527
1774472080271210500,3.32621044921875,-0.8316618362993001,0.8372592179149388,-0.8203792486540973
1774472080281238500,3.336238525390625,-1.1394909371525048,0.6516659191548824,-0.6431047192975878
1774472080291266600,3.3462666015625,-1.4744555899515748,0.3554261338084936,-0.5617870934503153
1774472080301294600,3.356294677734375,-0.918591931733489,-0.10287526806294918,-0.19789426966756582
1774472080311323400,3.366323486328125,-0.8849781236842275,-0.6937275298148393,0.06092796796504408
1774472080321351400,3.376351318359375,-0.8131129109129309,-1.096584107840061,-0.19256814274135975
1774472080331379500,3.38637939453125,-0.39054537798464295,-1.6629548392862081,-0.28186873016655445
1774472080341407500,3.396407470703125,0.3861325299784541,-1.98727564073503,-0.608603241693601
1774472080351436500,3.4064365234375,0.4596349885627627,-1.3327198453575373,-0.9972648517582565
1774472080361464600,3.416464599609375,-0.2596878780186176,-0.37618016802370546,-0.33088845286872237
1774472080371492600,3.42649267578125,-0.23813772498965263,-0.3157850282937288,-0.2539858121857978
1774472080381520400,3.436520263671875,0.10177987404167652,-0.39287177510559557,-0.5268504027668386
1774472080391549700,3.4465498046875,0.1332666069343686,-0.5818634841322898,-0.8331124004337936
1774472080401577500,3.456577392578125,-0.016511574339866636,-0.26728198640942574,-0.6918564021807163
1774472080411605500,3.46660546875,0.024618308427929878,0.06275251651108264,-0.5110691519955173
1774472080421633500,3.476633544921875,0.055042672786116596,0.32026188144683837,-0.25448987098410725
1774472080431662600,3.48666259765625,-0.23014935658425092,0.4626216031581163,-0.129374056475237
1774472080441690400,3.4966904296875,-0.4225684097111225,0.5624708013981581,-0.3883968216486275
1774472080451718700,3.50671875,-0.5892702532574534,0.771284232226014,-0.18659610086074097
1774472080461746400,3.516746337890625,-1.295464758196473,0.8160434114068746,-0.17673733547357842
1774472080471775500,3.526775390625,-1.296561321261525,0.2264139694482088,-0.3299582958791405
1774472080481803500,3.536803466796875,-0.9577940613090992,-0.03658230246603489,-0.1384506219761446
1774472080491831600,3.54683154296875,-0.7136001050204038,-0.5288035095959901,-0.06691124362573027
1774472080501859300,3.556859375,-0.6116916361629963,-0.7948007168918848,-0.2672939691081643
1774472080511888400,3.566888427734375,-0.9601713118344545,-0.3883692029893398,0.2748574996976182
1774472080521916700,3.576916748046875,-0.8569248723715543,-0.11562485952079296,0.40510684117004275
1774472080531944400,3.5869443359375,-0.5771832173615694,0.23393150547146796,-0.05040544143952429
1774472080541972700,3.59697265625,-0.014814707294106482,0.22245909434258937,0.11635280846916138
1774472080552001500,3.60700146484375,0.5642459943771362,0.20502631350457667,0.5532860628150403
1774472080562029600,3.617029541015625,0.6391138960957526,0.4865729721099138,0.759847330801934
1774472080572057600,3.6270576171875,1.3822557374209166,0.807308900809288,0.7833695876214652
1774472080582085600,3.637085693359375,1.8606629387319087,1.0482681129604576,0.742554104565084
1774472080592114400,3.647114501953125,1.9672686254948377,1.0731085397064686,0.16540245138555765
1774472080602142500,3.657142578125,1.147060495623946,0.9770955586284399,-0.060289706594124436
1774472080612170500,3.66717041015625,-0.4889245036721229,0.9240238936543465,0.169809234977141
1774472080622198500,3.677198486328125,-1.1828630458891392,0.42143326820135113,0.2218544795129448
1774472080632227300,3.687227294921875,-1.4055185395866632,-0.34410920550227164,0.449752257778123
1774472080642255600,3.697255615234375,-1.5835259132623671,-1.0425240163505076,0.24011472415104507
1774472080652283400,3.707283447265625,-1.2720809599995613,-1.096908517488837,0.5026278887234628
1774472080662312400,3.7173125,-0.4296791184991598,-0.7171165887087583,0.6631822424907237
1774472080672340700,3.7273408203125,0.2156605202436447,-0.36511283056437965,0.6100706838976592
1774472080682368500,3.737368408203125,0.18367255983054637,-0.1312514677196741,0.6494491929534822
1774472080692396300,3.747396240234375,-0.022929040166735647,-0.2077227129817009,0.5160800754927098
1774472080702425600,3.757425537109375,0.42639235191345215,-0.37199966746866703,0.519696950815618
1774472080712453600,3.76745361328125,0.5802379287570715,-0.38270752396583557,0.4366111097194254
1774472080722481400,3.7774814453125,0.39721185013651844,-0.32109131800830365,0.23677220879010855
1774472080732509700,3.787509765625,0.20982465369701384,-0.5883727198958396,-0.14054229702576995
1774472080742538500,3.79753857421875,0.28510522786974907,-0.8193424529522657,-0.6064501553129404
1774472080752566500,3.80756640625,-0.1711398259937763,-0.8452151453554629,-0.96391203273274
1774472080762594600,3.817594482421875,-1.0676146184653044,-0.7748100682646035,-1.0624184380616992
1774472080772622600,3.82762255859375,-1.489167713654041,-0.9655044895559549,-1.754740850318968
1774472080782651400,3.8376513671875,-1.5701999832212925,-1.1431477060943842,-1.721153930276632
1774472080792679400,3.847679443359375,-1.6370657802700996,-1.129999470707774,-1.068710012486577
1774472080802707500,3.85770751953125,-0.8933037612199782,-1.5386083286494017,-0.6521992953792214
1774472080812735500,3.867735595703125,-0.08902151475548743,-2.1128063927203415,-0.923242241757363
1774472080822764500,3.8777646484375,-0.5634060364216565,-2.2794354632914064,-0.851107564394921
1774472080832792600,3.88779248046875,-1.8146388541817664,-2.2324819889366627,-0.5644698662608861
1774472080842820400,3.8978203125,-2.352429387831688,-2.2104396684765812,-0.9258445332102477
1774472080852848600,3.9078486328125,-2.4831945333391428,-1.81851131170094,-0.8620555132582783
1774472080862877700,3.917877685546875,-2.8082331276684998,-1.82910460190773,-0.6230076876863837
1774472080872905500,3.927905517578125,-2.2487428033858534,-3.5087773517608642,-0.3681143504679203
1774472080882933500,3.93793359375,-2.6342010873645543,-4.90136568262577,-0.29407106300517916
1774472080892961500,3.94796142578125,-1.2071744803249835,-3.488340712931752,-1.3543857337206602
1774472080902990600,3.957990478515625,-0.37880408678650856,-2.312208436602354,-2.362842499165982
1774472080913018400,3.968018310546875,-0.782785869449377,-1.7141016736775636,-1.5230353503338991
1774472080923046700,3.978046630859375,-0.4844125792056322,-1.4109955096930265,-0.7006788833227008
1774472080933074400,3.988074462890625,-0.5544973383009434,-1.3442676598101853,-0.8543254304628819
1774472080943103500,3.998103515625,-1.283323654025793,-1.3317255736231803,-1.1036592338580637
1774472080953131500,4.008131591796875,-1.5052587244942783,-1.3891507576316595,-0.9911863355621695
1774472080963159600,4.01815966796875,-1.5879869843244552,-1.081132856208086,-0.8322779223710298
1774472080973188400,4.028188232421875,-1.4058809431582688,-0.48565059656798837,-0.6364572441071271
1774472080983216600,4.038216552734375,-0.9884721081674098,0.09909750308990478,-0.2659323253661394
1774472080993244400,4.048244384765625,-0.719028852070868,0.608741554185748,-0.023337182576209304
1774472081003272400,4.0582724609375,-0.5053814252153038,0.8403291268795728,-0.2559038294352591
1774472081013301500,4.068301513671875,-0.6180491884961724,0.9734645086497068,-0.10839680796340108
1774472081023329500,4.07832958984375,-0.8540537008494138,0.9016261838853359,-0.38089638289064165
1774472081033357600,4.088357666015625,-0.6628972150042652,0.3229325619608164,-0.2102434636309743
1774472081043385600,4.098385498046875,-0.7475472366772592,-0.57033729698956,-0.2796960623025894
1774472081053414700,4.10841455078125,-1.8681079940408467,-0.9356003496795893,-0.15408786116689444
1774472081063442400,4.1184423828125,-1.7355096417568623,-2.4303999317407605,0.35055443611890075
1774472081073470700,4.128470703125,0.7797779198050498,-3.7588159424245355,-0.7456660991057753
1774472081083498500,4.13849853515625,-0.5563110366594046,-2.6456384271800517,-0.04400222333371639
1774472081093527600,4.148527587890625,-0.7485311331480741,-2.306689965441823,-1.5006515229597688
1774472081103555300,4.158555419921875,0.6231704770326614,-2.569894327148795,-2.4932260980099437
1774472081113583600,4.16858349609375,0.43002866258919237,-2.998343611592054,-2.880735469299555
1774472081123611400,4.178611328125,0.10041852256059645,-3.0996523609906435,-1.5933867975413798
1774472081133640400,4.188640380859375,-0.31144436874091624,-2.8331711695700883,-1.159990996606648
1774472081143668500,4.19866845703125,-0.12568042612168936,-1.9112620761126278,-1.0391343739122152
1774472081153696500,4.208696533203125,0.3042413237606175,-0.9977338575094937,-0.9354717548638581
1774472081163725600,4.2187255859375,0.2564648243188858,-0.4274953447192907,-1.2362217111110687
1774472081173753600,4.228753662109375,-0.8211562243759631,0.05507540601193905,-1.3217761342778802
1774472081183781600,4.23878173828125,-1.3108745087742806,0.1588841555327177,-1.4818088753238319
1774472081193809400,4.248809326171875,-1.8271522987961768,0.5535848996311425,-0.9133762429118156
1774472081203838500,4.25883837890625,-2.35421568672657,1.3484902459412813,-0.2813391533344984
1774472081213866000,4.268865966796875,-2.3896632860742506,0.6485667840957641,-0.06943214040547609
1774472081223894000,4.27889404296875,-1.976896431670338,-0.7118266656070947,-0.090637425519526
1774472081233922000,4.288922119140625,-1.911075613629818,-1.4672434666156768,-0.015085633189976215
1774472081243951000,4.298951171875,-2.657828046667576,-1.0877157417297363,0.8406810090571641
1774472081253979000,4.308978759765625,-3.0637635937467214,-1.121114737984538,1.0457353796124458
1774472081264007200,4.319007080078125,-2.2932909701645374,-2.3359680823743343,0.09962474183440208
1774472081274035000,4.329034912109375,-1.6528256594598292,-2.978637040603161,-0.9489119589343666
1774472081284064000,4.33906396484375,-2.6231167987704276,-1.5456880577772856,0.22334669083207845
1774472081294092000,4.349092041015625,-3.2179344570219515,-0.767865948215127,1.0769280979946254
1774472081304120000,4.3591201171875,-2.559347506432235,-0.5589215844839811,0.48520139149576424
1774472081314147800,4.36914794921875,-2.073843624858558,-0.18901567442417144,-0.02901274399459362
1774472081324177200,4.37917724609375,-1.8927225030764936,-0.6333949339270591,0.12239508430808782
1774472081334205000,4.389204833984375,-1.509200155596435,-1.310043318647146,0.28895138190388675
1774472081344233000,4.39923291015625,-1.0856149700582027,-1.4333002804815769,-0.39520401744544503
1774472081354262000,4.409261962890625,-0.4677884844020009,-0.8931704902291298,-1.0084843841046094
1774472081364290000,4.4192900390625,-0.20672990255206822,-0.40495851874053473,-1.1492243956595658
1774472081374318000,4.429318115234375,-0.21533552607297896,-0.3414455392509699,-1.1870528987944124
1774472081384346000,4.43934619140625,-0.033705870246887204,-0.20545067639648912,-0.9796095872759818
1774472081394375200,4.449375244140625,-0.2147957201078534,0.3373024480968714,-0.7713119970157742
1774472081404403000,4.45940283203125,0.07068623211979866,0.12043372110724448,-0.5657490924164652
1774472081414431000,4.469430908203125,0.35822073296308515,0.2941664862036705,-0.7065484329432249
1774472081424459000,4.479458984375,0.011717910322546958,0.5887473984271288,-0.8072598009705543
1774472081434488000,4.489488037109375,-0.4911000941455364,0.7254939564317464,-0.6133659991160034
1774472081444515800,4.499515869140625,-0.9533446806848048,0.9026602031081914,-0.40311756704896684
1774472081454544100,4.509544189453125,-1.2268173384279013,0.8210574401766061,-0.17088497444987297
1774472081464572000,4.519572021484375,-1.807118103288114,-0.6321142464667558,0.5034504571527242
1774472081474601000,4.52960107421875,-0.38299510873556136,-2.245918978136778,-0.004232815264165401
1774472081484629000,4.53962890625,-0.032008418679237365,-2.1003040540218354,-0.6143716690272093
1774472081494657000,4.549656982421875,0.005279693968594074,-3.556784719082713,-1.2590104660242796
1774472081504686000,4.55968603515625,0.7859972327113152,-4.261085665360093,-0.5144944137364625
1774472081514714000,4.569714111328125,0.3359171312183141,-3.7849768041193483,0.5441361032843589
1774472081524742100,4.5797421875,-1.2002385435819625,-2.5791063921302557,0.8233060958862304
1774472081534770000,4.58977001953125,-1.7186118445783853,-1.478386791920662,1.0955635326206683
1774472081544799000,4.599799072265625,-1.222723931634426,-1.4335229833215475,0.5366279196113347
1774472081554827000,4.609826904296875,-0.7342939334809779,-0.6592313859730958,0.44130175175368785
1774472081564855000,4.61985498046875,-0.7534598217219114,0.5788333226561546,0.9518903902232646
1774472081574883000,4.629883056640625,-0.6361679057717323,1.1539561003565788,1.417014916113019
1774472081584912100,4.639912109375,-0.833838595816493,1.1959417231708764,1.3305956928104161
1774472081594940000,4.64993994140625,-0.9425941540896892,0.9812503402203321,1.3447890533357858
1774472081604968200,4.65996826171875,-0.5956780744731426,0.9135252959936857,1.244464638799429
1774472081614996000,4.669995849609375,0.41286826895177364,0.7758370732247829,1.169575109770894
1774472081625025000,4.68002490234375,1.2562526917487382,0.8604366798847913,0.42863516240417954
1774472081635052800,4.690052734375,1.2515952213317154,0.9651140289336443,-0.8432277709305286
1774472081645081000,4.7000810546875,1.9664707531154155,-0.27897008611559865,-1.2331167308330535
1774472081655110100,4.710110107421875,1.8390613477766513,-1.5149942288279532,-1.3556085535138844
1774472081665138000,4.720137939453125,0.9962725527852773,-2.721526319596171,-0.9579518822193145
1774472081675166200,4.730166259765625,0.2243652202248573,-2.519173609215021,-0.23010931683480737
1774472081685194000,4.740194091796875,0.1342097330033779,-2.9075562562078234,0.0024596681118011473
1774472081695223000,4.75022314453125,0.13747487227916716,-2.780139836606383,-0.15996844363808632
1774472081705251000,4.7602509765625,0.2829898431509733,-1.0827157414853572,0.09031389265358447
1774472081715279000,4.770279052734375,0.3312888868957758,-0.535674564409256,0.12505027499198912
1774472081725307000,4.780306884765625,0.32007834157347675,-0.3118295686662197,0.059442953571677205
1774472081735336200,4.790336181640625,0.05103051453530788,-0.012371990317106247,0.13872107294797897
1774472081745364000,4.800364013671875,-0.22474223684370517,0.30030630413293835,0.011032850667834281
1774472081755392000,4.81039208984375,-0.9442775771319866,0.6794283708274365,0.39216625718474385
1774472081765420000,4.820419921875,-1.558201502391696,1.5781126560419796,0.8787655327796936
1774472081775449000,4.830448974609375,-1.9505355173587797,1.8252409122169018,1.580018197402358
1774472081785476900,4.840476806640625,-2.365207620862126,1.5659779816120862,2.237813413092494
1774472081795505200,4.850505126953125,-2.5555700337201355,1.3986720346927641,2.753544675147533
1774472081805534200,4.8605341796875,-2.168369874510169,0.06144669460952282,3.0852842284202575
1774472081815562000,4.87056201171875,-1.2538333556473253,-1.1085229674369097,3.119346072497964
1774472081825590000,4.880590087890625,-1.5466075107097625,-0.977591233190894,2.725547245675325
1774472081835618000,4.8906181640625,-2.456408817744255,0.18661036684811114,2.3717215328007937
1774472081845647000,4.900647216796875,-2.843693732628226,0.9729887078315019,2.4215280584990975
1774472081855675000,4.9106748046875,-2.806062213370204,1.2242314135879278,2.4973814641237255
1774472081865703200,4.920703125,-3.178056620141864,1.271525664204359,2.662148832476139
1774472081875731000,4.93073095703125,-3.3914392585813995,1.1828320662289857,2.800021179640293
1774472081885760000,4.940760009765625,-3.0790681303843854,1.1002128197312355,2.677835061907768
1774472081895788000,4.9507880859375,-2.096045227533579,1.3743833966106176,2.3026433203995227
1774472081905816000,4.960816162109375,-0.9945935136571525,0.6726578537791967,1.8942834687829015
1774472081915843800,4.97084375,-0.033878011943399906,0.19891455262601374,1.7104320452541113
1774472081925873200,4.980873046875,0.9727604520335793,0.49047933189868925,1.6757546996265649
1774472081935901000,4.99090087890625,1.3194950376033783,1.2562784107118845,1.3341606918156146
1774472081945929000,5.000928955078125,-0.19646146038547158,1.8351999961733816,0.5556213738948106
1774472081955958000,5.0109580078125,-1.3175440496660769,1.6101012009769677,-0.46678924423158163
1774472081965986000,5.020986083984375,-1.5515036121882497,1.052333462703228,-1.2448217816740275
1774472081976014000,5.03101416015625,-2.260940167788416,0.8286749294430017,-0.9563999766021967
1774472081986042000,5.0410419921875,-2.8761726914286614,0.5406921003103256,-0.1871779376029968
1774472081996071200,5.0510712890625,-2.6546412333250045,0.39325522146522995,1.0102040475040674
1774472082006099000,5.061098876953125,-2.6207763731241225,0.27285832523703574,2.1030875472605226
1774472082016127200,5.071127197265625,-2.911014872229099,-0.15668167705237865,2.955372484871745
1774472082026155000,5.081155029296875,-2.9060008434593674,-0.3642284489452839,3.3202491685926914
1774472082036184000,5.09118408203125,-2.486452073830366,0.4090045792609453,3.5848984684109686
1774472082046211800,5.1012119140625,-2.1167139215528965,0.6304755393490195,3.9018116239517924
1774472082056240000,5.111240234375,-1.2402128265738486,0.40484307566732164,3.131107821962237
1774472082066268000,5.121267822265625,-0.3484195064494386,0.7039212993100286,2.329987838920951
1774472082076297000,5.131296875,-0.1922516058717854,1.330612643945217,2.1895248907417058
1774472082086325000,5.141324951171875,-0.7235223640978335,1.488770823290944,1.9500597165405749
1774472082096353000,5.15135302734375,-1.1230606113553045,0.9608391280934214,1.6370663647919892
1774472082106382000,5.161382080078125,-0.7952478030722587,0.15835662452727556,1.0743985795170068
1774472082116410000,5.17141015625,-0.32122049734592434,0.4107680818021297,0.4465764772862196
1774472082126438000,5.18143798828125,0.32065131915584205,2.001731159327924,0.059247723260521884
1774472082136466000,5.1914658203125,1.140603428439051,4.634757357694208,0.38906069238483904
1774472082146495000,5.201494873046875,2.9853514435499906,5.344162056851387,0.21327450188994407
1774472082156523000,5.21152294921875,3.3349303126350045,2.969561753743887,0.06600596534907817
1774472082166551000,5.221551025390625,3.652927756281197,2.2783833238899707,0.09004150545299053
1774472082176579000,5.2315791015625,4.917898884275555,1.5776333480924367,0.4904448451071977
1774472082186608000,5.241608154296875,5.719642552173137,0.8225400799497962,0.8297451890230179
1774472082196636000,5.251635986328125,5.985508826565742,0.14225859942436217,1.325816057318449
1774472082206664200,5.261664306640625,6.3712558643579476,0.1064858597755432,1.5590701019197701
1774472082216688000,5.271688232421875,4.181798485894501,0.1815104133605957,1.4932055908679962
1774472082226717000,5.281717041015625,2.854089746697247,-0.22362112385928629,1.8562743483841417
1774472082236745200,5.2917451171875,1.832347529351711,-0.4971452195286751,1.8080489543974398
1774472082246773000,5.30177294921875,0.2833209748014808,-1.2013467970848082,1.2496587003111839
1774472082256802000,5.311802001953125,-1.938300597424805,-1.5682412503689527,0.6989923184752463
1774472082266830000,5.321830078125,-4.483730637663602,-0.551043982976675,2.19761058204174
1774472082276858000,5.331858154296875,-5.027649298804998,1.1514444097965955,3.8461803376227617
1774472082286886100,5.34188623046875,-5.501382078564166,2.7245366073280572,4.630844860425591
1774472082296915000,5.3519150390625,-5.614881616494059,3.0925445748120546,3.6353093897432087
1774472082306943200,5.361943115234375,-5.091542802044749,1.3916875826328992,1.9683084899365901
1774472082316971000,5.371970947265625,-4.537855026561021,0.910639511424303,0.31467735931277274
1774472082327000000,5.382,-3.4160704264909025,2.991579524284601,0.3501373797506094
1774472082337028000,5.392028076171875,-1.2126619718253613,5.18507156509161,0.5506009153842926
1774472082347056000,5.40205615234375,1.4042927971839905,3.602334756380319,-0.3976718688637018
1774472082357084200,5.412084228515625,2.8768489832550284,2.065516233757138,-1.9386089327216147
1774472082367113200,5.42211328125,4.063091734710335,2.3838480239242315,-2.7414924183040856
1774472082377141000,5.43214111328125,3.9811055254191157,1.5573875556603074,-3.67669178596735
1774472082387169000,5.4421689453125,4.270147508215904,0.8367004149883985,-3.7904040898650884
1774472082397198000,5.452197998046875,5.228457117831707,0.13927841456979512,-2.8680834929972887
1774472082407226000,5.46222607421875,4.977031456723809,-0.9426303944468498,-2.066737884506583
1774472082417254100,5.472254150390625,4.6921010008990764,-2.190114381067455,-1.3945131614476443
1774472082427282200,5.4822822265625,4.5462516835063695,-2.6733468105778098,-0.8722162572667003
1774472082437311200,5.492311279296875,4.5477913141638036,-2.7281001450285314,-0.7129764201641082
1774472082447339000,5.502339111328125,4.585274364861846,-2.3610364726573225,0.0030780922710895537
1774472082457367300,5.5123671875,3.559981469297409,-1.3089520162791013,1.2020628363996744
1774472082467395000,5.52239501953125,1.527876506754756,-0.37737376172244547,2.849627798852324
1774472082477424000,5.532424072265625,0.9056810122340917,0.3195733146607876,3.913002587790787
1774472082487452000,5.542451904296875,0.2361070959448814,0.2130661198362708,3.798560508313775
1774472082497480200,5.552480224609375,-0.3566834403932094,-0.3683846918419003,3.0740991098001595
1774472082507509000,5.562509033203125,-0.5719032311320305,-0.879786692520976,2.8013907144278285
1774472082517537000,5.572537109375,-0.8321762155622243,-1.4713076473146676,1.669290179787576
1774472082527565000,5.58256494140625,-1.6349983263462782,-2.5375781576946377,-1.1394146570459007
1774472082537593000,5.592593017578125,-2.399872691529989,-2.4960724273517725,-2.9882685000404714
1774472082547622100,5.6026220703125,-1.8775357475996017,-1.938882781226933,-2.3929762100145218
1774472082557650200,5.612650146484375,-1.65032507481575,-1.8600193801313638,-1.0878329383686185
1774472082567678200,5.62267822265625,-1.8064491179853677,-2.141914413782954,-1.2305518487811087
1774472082577707000,5.63270703125,-0.8018009510427713,-2.4107360308498142,-1.1126599211111665
1774472082587735300,5.6427353515625,0.11839257066845893,-2.895938299128413,-0.7142256895728409
1774472082597763000,5.65276318359375,0.300745280072093,-1.9893360803961753,-2.494488373030722
1774472082607791000,5.662791015625,0.3452455160558224,-1.577571096511185,-5.3138405683457846
1774472082617820000,5.67281982421875,-0.5842869118869304,-1.3686451452195643,-6.169830205693841
1774472082627848200,5.68284814453125,-1.6617682598501442,-0.37008594280183316,-4.638155183438957
1774472082637876000,5.6928759765625,-2.685638429135084,0.3550137536153197,-3.338744610226154
1774472082647904300,5.702904296875,-4.421299023669958,3.8894349574595686,-2.163843336996436
1774472082657933000,5.71293310546875,-3.696910398131609,1.9300123692899942,-0.8536030344724654
1774472082667961000,5.722961181640625,-5.705957725691795,-1.1496686322957277,0.034304557659244166
1774472082677989000,5.732989013671875,-5.225663103199005,-2.298558681434393,0.6632813189510256
1774472082688018200,5.74301806640625,-3.874163738569617,-1.3633020306259394,0.8885419536456465
1774472082698046200,5.753046142578125,-3.087086309406161,-0.21313217080980537,0.57326922225561
1774472082708074000,5.763073974609375,-3.509145016029477,0.2171031202673912,-0.10682252611769362
1774472082718102300,5.773102294921875,-3.1632080105781553,0.6986258232504129,-0.4507438626313582
1774472082728131000,5.783131103515625,-2.1473148115217686,2.377601238489151,-0.2387095517945476
1774472082738159000,5.7931591796875,-1.469596751743555,3.26339710829705,-0.3176449038814753
1774472082748187100,5.803187255859375,-1.586122359496355,2.585677587214112,-0.06889732114272192
1774472082758216200,5.81321630859375,-0.3086860099434852,1.5371949547201393,0.0801742644984275
1774472082768244000,5.823243896484375,0.4561129519164562,1.3043378004819155,0.28241825380809604
1774472082778272300,5.833272216796875,1.002545057183504,1.27530021430701,-0.2959684575917199
1774472082788300000,5.843300048828125,1.3417922096073627,1.724755754160881,-1.2389037898018955
1774472082798329000,5.8533291015625,1.2878800021558998,1.268118193848431,-1.4492796476408838
1774472082808357000,5.863357177734375,1.557581909188628,0.46648412380516524,-0.9238969793390482
1774472082818385200,5.87338525390625,1.8586849166572093,0.14943594370782373,-0.48895643318034704
1774472082828413000,5.883412841796875,1.5056050537139176,-0.3763625388532877,-0.49008317218795416
1774472082838441200,5.893441162109375,0.5486562110573053,-0.9013166795447468,-0.43754765991717576
1774472082848470300,5.90347021484375,0.1738631134778261,-1.1126023457050322,-0.3654249652534723
1774472082858498000,5.913498046875,-0.19166823475956915,-0.9207596311613917,-0.4446907366048544
1774472082868526300,5.9235263671875,-1.1756015304535627,-0.897409150712192,-0.10873780342079699
1774472082878554000,5.93355419921875,-1.057012560430169,-0.7872814273029566,0.18481252364590764
1774472082888583200,5.943583251953125,-0.11855272966623305,-1.3239417878791688,0.43299028887376184
1774472082898611000,5.95361083984375,-0.1990039844751358,-1.190547170650959,0.6999998880825936
1774472082908639200,5.96363916015625,2.04492352758348,0.06319470732063055,0.7344519005216658
1774472082918668000,5.97366796875,-0.03472819903194904,-1.1320517270624637,1.079666875308752
1774472082928696000,5.983696044921875,-1.0720943942278622,-0.8912126341596245,1.624847519209981
1774472082938724000,5.99372412109375,-1.8774533300131557,-0.08804799354821444,1.854241819643229
1774472082948752100,6.003752197265625,-1.1254589046686887,0.3100596363842487,1.7269778141245244
1774472082958781000,6.013781005859375,0.7831213850140571,0.6662684450030326,1.2906104500330984
1774472082968809200,6.023809326171875,2.3299697187423707,0.14415888008773325,0.7151715921208261
1774472082978837000,6.0338369140625,3.8810587587803598,-0.3370934815213084,0.4212324849322438
1774472082988866000,6.043865966796875,4.9560564732342955,-0.5568301651626825,0.2806913569502532
1774472082998894300,6.053894287109375,5.632219704785943,-0.4027195076420903,0.22655454696267843
1774472083008922000,6.063922119140625,5.484095428198576,-0.4052735760390758,0.2725589038990438
1774472083018950000,6.073949951171875,4.476342865499854,-0.5824138114914298,-0.4597320191964507
1774472083028979000,6.08397900390625,0.7063350824534893,-0.6225932616665959,-2.014596193858981
1774472083039007200,6.09400732421875,-1.5586884091258049,-1.014527463661134,-2.7343440078541636
1774472083049035000,6.104034912109375,-0.8604588917165994,-0.4611909858331084,-1.6256749099448322
1774472083059064000,6.11406396484375,-1.8153858731567858,0.1097600591406226,-1.2471446716636418
1774472083069092000,6.124092041015625,-2.0387123979836703,-0.06407733537405728,-1.0037661234110593
1774472083079120100,6.1341201171875,-4.569336791017651,0.4815004911512136,-0.7510095059603452
1774472083089148200,6.144148193359375,-5.074468333125115,1.806207710444927,0.7775646276697517
1774472083099177200,6.15417724609375,-3.4320798965275285,2.2929712366908785,2.533388889311254
1774472083109205000,6.164205078125,-2.655252058699727,1.9992101164177059,2.890514520514011
1774472083119233000,6.17423291015625,-3.6378678420543666,0.32780922808647156,2.153658335329592
1774472083129262300,6.184262451171875,-2.185401088809967,0.9335504314124584,1.457069570864737
1774472083139290000,6.1942900390625,-0.682351564797759,1.9489169762462377,0.9042121087253093
1774472083149318100,6.204318115234375,-0.477922632664442,2.0346733517259357,0.7127282906219363
1774472083159346200,6.21434619140625,-0.046102410483360286,1.623358741956949,0.7620891183793544
1774472083169375200,6.224375244140625,1.097343401774764,1.0490940423905848,0.7211430677458643
1774472083179403000,6.234403076171875,1.927093851494789,0.43608489388823507,0.19913783998787402
1774472083189431300,6.244431396484375,1.7779864090889692,0.1300537823677063,-0.028026363305747506
1774472083199460000,6.254460205078125,0.9912959334164857,0.04090016566514969,0.3972890070259571
1774472083209488100,6.264488037109375,0.9661948099076747,-0.2447527592152357,0.7736819410175084
1774472083219520000,6.27452001953125,1.2119383337259293,-0.9417448437839746,1.0233765405490993
1774472083229548300,6.28454833984375,0.2832522934794426,-1.311962888532877,1.0342582923084498
1774472083239577000,6.2945771484375,-1.0152408726274966,-1.2281395269423723,0.34013241082578893
1774472083249605000,6.304605224609375,-1.0291823042184114,-0.5764017115950584,-0.09530892446190119
1774472083259633200,6.314633056640625,-0.1506412278443575,0.11382920827567576,-0.1520131007194519
1774472083269662200,6.324662109375,0.16280395932495592,0.4002420116126537,-0.5089876330137253
1774472083279690000,6.33468994140625,0.2803454661220312,1.1833861929804086,-0.07187135025113821
1774472083289718300,6.34471826171875,1.2031161448448895,1.431063899731636,0.516552515310049
1774472083299746000,6.35474609375,1.4281962353408335,1.4462410105973482,1.0162059182673693
1774472083309775000,6.364775146484375,0.3481874147266149,1.466194834345579,1.6768834113955498
1774472083319803000,6.374802978515625,-0.6370826825290918,1.2035010525092482,2.085403129749
1774472083329831200,6.3848310546875,-0.4382411951392889,0.4247720572352409,1.6734499298155308
1774472083339860200,6.394860107421875,-1.2031348495453595,-1.3585776324525474,0.9766928230464458
1774472083349888000,6.404887939453125,-2.9547148977458475,-4.515521614199876,0.3828098152965307
1774472083359916300,6.414916259765625,-3.3502877485036846,-4.013870315423608,-0.2721066300868988
1774472083369944000,6.424944091796875,-2.8219904348641633,-0.928618235707283,-0.45050329534113404
1774472083379973000,6.43497314453125,-3.6725872732579705,0.1250137423738837,-0.7637678652465343
1774472083390001200,6.445001220703125,-2.807917485848069,0.7974617527946829,-1.1429998220562934
1774472083400029200,6.455029296875,-0.8951327302128076,1.0691814293906092,-0.9227718477666378
1774472083410058000,6.46505810546875,1.040761098331213,0.9667004213422536,-0.8168611575305461
1774472083420086300,6.475086181640625,4.465266175690293,1.392777131435275,-0.6914473099231719
1774472083430114000,6.485114013671875,8.048913767257332,2.7524492811262604,-0.3046758975192904
1774472083440142000,6.49514208984375,9.726694419753551,3.3408681782513856,0.6373094770222902
1774472083450171000,6.5051708984375,6.607396862572431,1.9541712435126304,0.9005506636083126
1774472083460199200,6.51519921875,5.330924389615655,0.10488543884158134,0.6703206430032849
1774472083470227000,6.52522705078125,4.994644854825735,-0.3133709528893232,1.1756091292381285
1774472083480256000,6.535256103515625,4.477887172332406,-0.5876040736109018,1.1409727001428605
1774472083490284300,6.5452841796875,3.079727763336897,-0.762380794802308,1.1020602011635898
1774472083500312000,6.55531201171875,-1.092313590914011,-1.4575783971697092,0.620271248459816
1774472083510340000,6.565340087890625,-8.0573092551589,-3.0371114414036273,-0.3012374475032091
1774472083520369200,6.575369140625,-7.126293310660124,-3.9084868639320134,-0.24207652574330568
1774472083530397200,6.585397216796875,-5.943257246291637,-2.244685636949539,0.8967401654094457
1774472083540425000,6.595425048828125,-6.1649342503458255,0.2677273920893669,1.7602160668596625
1774472083550454000,6.6054541015625,-5.520408266073465,1.5689087743669747,1.9049816806688904
1774472083560482000,6.61548193359375,-4.282630557692051,1.5136282011717557,1.7377403234183788
1774472083570510000,6.625510009765625,-2.8432980113089084,0.959021557277441,1.496762406566739
1774472083580538000,6.6355380859375,-1.5171896930456161,0.6546048952162266,1.6048092320486902
1774472083590567200,6.645567138671875,-1.2337614584773777,-0.08217910151481628,0.4209232728525996
1774472083600595000,6.655594970703125,-1.7213626045912502,-1.348162329161167,-1.3237734455749393
1774472083610623200,6.665623291015625,-1.6310703392475843,-2.3923884732544423,-2.519130062334239
1774472083620652300,6.67565234375,-1.5410288337945937,-2.5566367861688137,-2.7404186515927313
1774472083630680000,6.68568017578125,-1.7616805864542722,-2.16739839912951,-1.838405221955478
1774472083640708000,6.6957080078125,-1.5922715297758578,-1.946167385277152,-0.3809899063929915
1774472083650736000,6.705736083984375,-0.7405319510877132,-1.5204413883179426,0.8703720907047391
1774472083660765200,6.71576513671875,-0.5705325273007155,-0.41940205463469027,1.8488152645498512
1774472083670793000,6.72579296875,-1.4737281524598598,0.8503945938199758,2.723896848119795
1774472083680821200,6.7358212890625,-1.7641197962999342,1.2752063985437154,2.995126987633109
1774472083690850000,6.74585009765625,-0.287343362185359,1.2207733820885418,2.4988854389458894
1774472083700878000,6.755878173828125,1.0898170979231596,1.2500994298160075,1.4357587795495985
1774472083710906000,6.765906005859375,1.3553759138017891,1.680974480101466,0.5002174665808677
1774472083720935200,6.77593505859375,2.5758780777335164,2.109391031318903,-0.05122486806362867
1774472083730963000,6.785962890625,3.415719713357091,2.6026690540254114,0.06592763941586018
1774472083740991200,6.7959912109375,2.426440380460024,2.692734524875879,0.31284868258088827
1774472083751019000,6.80601904296875,1.1697346842467784,1.6643793191313743,0.7961810653343796
1774472083761048000,6.816048095703125,0.38675066187679763,-0.7976379861444234,1.4935913753151893
1774472083771076000,6.826076171875,-0.7256500237762927,-1.6255208884269,0.5473074267968535
1774472083781104000,6.836104248046875,-0.9777543147981166,-0.7058715565949678,-0.8948784631907939
1774472083791133200,6.84613330078125,-0.994755133959651,-0.35465164230465884,-1.0908426415786145
1774472083801161000,6.856160888671875,-1.2070306879401207,-1.0025175846546888,-0.9544181551352142
1774472083811189200,6.866189208984375,-1.9184908583223819,-0.967257470703125,-0.7303542559444904
1774472083821217000,6.876217041015625,-1.4324807807922362,-0.4382020321726799,-0.33183424581885335
1774472083831246000,6.88624609375,-0.3633212709724903,0.133547469702363,-0.12446283049285412
1774472083841274000,6.896274169921875,0.11533727475106716,0.7161310848027467,0.23373861324787137
1774472083851302100,6.90630224609375,-0.30664427498281,0.3216267400592565,0.07159662496298551
1774472083861331000,6.9163310546875,-0.5156868383914232,0.19070552720725537,-0.048805239701271055
1774472083871359200,6.926359130859375,-0.5336982959002257,0.030974399456381797,-0.028068741142749785
1774472083881387000,6.936386962890625,0.03960311159193516,-0.028795886373519895,0.3150149207040667
1774472083891415000,6.9464150390625,0.8586848677814006,0.20675182212293147,0.6682920597851276
1774472083901444000,6.956444091796875,1.5859686302393674,0.35190789655447,0.7585059991955757
1774472083911472000,6.96647216796875,1.0842968731969593,0.6453238566517829,0.43597792638242244
1774472083921500200,6.976500244140625,0.692407679387927,0.9898772987902164,-0.028453064285218713
1774472083931529000,6.986529052734375,0.9679834468901157,1.5156979931831358,-0.2118935689255595
1774472083941557200,6.99655712890625,1.1825988419950009,1.7228209867060182,-0.08968991553634405
1774472083951585000,7.0065849609375,0.9431751688480376,1.4415718497425316,-0.16089929474741219
1774472083961613000,7.016613037109375,0.5788695630133152,0.7707289364308119,-0.1564303326398134
1774472083971642000,7.02664208984375,0.4000257385134697,-0.3938029184758663,0.16608108129948376
1774472083981670100,7.036670166015625,0.2889069582402706,-1.0250795450747012,0.23683307213187216
1774472083991698000,7.046697998046875,-0.2750760012865066,-0.9350631740629672,0.1916524526685476
1774472084001727200,7.056727294921875,-0.823916921260953,-0.6804425163060426,0.13611790471225976
1774472084011755000,7.066755126953125,-1.1844050146341323,-0.3516875318020582,0.16368103442043064
1774472084021783000,7.076782958984375,-1.3586708636939524,-0.05583703803420066,0.03782061208933592
1774472084031811000,7.08681103515625,-1.3124106323003768,0.07857260145545006,-0.04452712399065494
1774472084041840000,7.096840087890625,-1.1267997978836297,0.12512860092520714,-0.14496288994699716
1774472084051868200,7.1068681640625,-0.915451295620203,0.14564707281887532,-0.1349360014513135
1774472084061896200,7.116896240234375,-0.7122656415462494,0.10993220083713531,-0.056146250113844866
1774472084071925200,7.12692529296875,-0.6333136853843927,0.05513561176657676,0.08665566240698098
1774472084081953000,7.136953125,-0.537789364606142,0.04677051900327205,0.3549515020340681
1774472084091981000,7.14698095703125,-0.42731765006482597,0.28113047901988025,0.6540986992597579
1774472084102009000,7.157009033203125,-0.247588859423995,0.457153985401988,0.7338911978989839
1774472084112038100,7.1670380859375,0.1053092172116041,0.5239484707802534,0.9216910667926073
1774472084122066000,7.17706591796875,0.7246294485569,0.6330921515882015,1.1786813762903212
1774472084132094200,7.18709423828125,1.0222826078325509,0.7023129873305559,1.2227230548515915
1774472084142123000,7.197123046875,0.7715466825544833,0.6242752234041691,0.8543380707487463
1774472084152151000,7.207151123046875,0.33649288527965543,0.41348610858917234,0.2692687763124704
1774472084162179000,7.217178955078125,0.26442308984696866,0.4302221393346786,-0.08452946403324603
1774472084172208000,7.2272080078125,0.05427168841361999,0.5883639520674944,-0.1658990027308464
1774472084182236200,7.237236083984375,-0.06870645647943019,0.5510381377577781,-0.42162762172967194
1774472084192264200,7.24726416015625,-0.15470307045578954,0.4057926314771175,-0.12844897751957177
1774472084202292200,7.257292236328125,-0.22068331684172152,0.6329658948600292,0.4317588473826647
1774472084212318000,7.26731787109375,-0.17693360696434973,0.7674754875928163,0.168822196701169
1774472084222345700,7.277345703125,-0.011497545570135116,0.23941432079672811,-0.5731204979673028
1774472084232374000,7.2873740234375,0.3176636816471815,-0.45606619016528127,-1.2043933251738548
1774472084242402800,7.29740283203125,0.708527039539814,-0.5487380441218614,-1.0968243463367222
1774472084252430800,7.307430908203125,1.1072153919696808,-0.06503448996841907,-0.6413625518053769
1774472084262459000,7.317458984375,0.6149696349203586,0.15492986494898794,-0.5275996867641807
1774472084272487000,7.32748681640625,-0.0040606735676527025,-0.14052958367466925,-0.6883285933807491
1774472084282516000,7.337515869140625,0.027933132064342496,-0.05470189652442932,-0.6301105054289102
1774472084292544000,7.3475439453125,0.03059036857485771,0.03703589145243168,-0.25401275499165055
1774472084302572000,7.357572021484375,-0.8914274459540843,-0.40390521029531956,-0.31900603616684675
1774472084312600800,7.367600830078125,-1.6830892802983521,-1.009195747244358,-0.44000849707275624
1774472084322628900,7.37762890625,-2.263677337667346,-0.9511445402920246,-0.35615181773453947
1774472084332657000,7.387656982421875,-2.258826390504837,-0.35491467715501784,-0.11268369150236249
1774472084342685000,7.397684814453125,-2.0015327141463755,-0.1290256083637476,0.15742022045999765
1774472084352713700,7.407713623046875,-1.503060629928112,-0.3255062118411064,0.20340514204353094
1774472084362742000,7.417741943359375,-0.804179370611906,-0.5143810164898633,0.17224048071205614
1774472084372769800,7.427769775390625,-0.13862579587996005,-0.5183212785482406,0.13218933309167621
1774472084382798800,7.437798828125,0.08697335005402565,-0.14436287822723387,0.3018032646924257
1774472084392827000,7.447826904296875,-0.14338731119334697,0.525374119669199,0.7523366629108786
1774472084402855000,7.45785498046875,-0.5261363362133503,1.1991267829477785,1.352904847513139
1774472084412882700,7.467882568359375,-0.7170429389506578,1.1401461861908435,1.5764719030976295
1774472084422912000,7.477912109375,-0.693776629653573,0.8365554535597562,1.5948144922569394
1774472084432940000,7.48793994140625,-0.7004682362467051,0.5581225430607796,1.4057470876455307
1774472084442967800,7.4979677734375,-0.6435925028145313,0.25595687479674817,1.1080272928744554
1774472084452996900,7.507996826171875,-0.6759598179340363,0.06348784504830837,0.897500628387928
1774472084463025000,7.51802490234375,-0.3826467336893081,-0.07978548437654971,0.40230449710041283
1774472084473053000,7.528052978515625,-0.09629296706318854,-0.20976327889859675,0.043777182406187054
1774472084483081000,7.5380810546875,-0.15231120688319205,0.2144102279216051,0.20739421167969702
1774472084493110000,7.548110107421875,0.0005821838021278381,0.39435704522728915,0.18017594988644123
1774472084503137800,7.5581376953125,-0.03656593585312366,0.42823827204108234,0.34911446644365784
1774472084513165800,7.568165771484375,-0.19929332281053064,0.4203624240994453,0.7445382641196251
1774472084523195000,7.57819482421875,-0.43817865129709244,0.35543022546172137,0.8851213315472006
1774472084533223000,7.588222900390625,-0.49199441263675686,0.3102075204223394,0.756138685542345
1774472084543250700,7.598250732421875,-0.22710370527803897,0.1965723734140396,0.5902344221144914
1774472084553279000,7.608279052734375,-0.1691226409524679,0.1542570802539587,0.5733166050612926
1774472084563308000,7.61830810546875,0.06670037735402584,-0.01923427730202675,0.71920216281116
1774472084573335800,7.628335693359375,-0.017865911558270452,0.11581775174438953,0.552578937458992
1774472084583364000,7.638364013671875,0.07687281180024147,0.19528584073483943,0.47450376413166523
1774472084593393000,7.648392822265625,0.317023045656085,-0.6930296106785535,0.4342901194259524
1774472084603421000,7.6584208984375,0.191379480946064,-0.4558832348138094,0.1821072102099657
1774472084613449000,7.668448974609375,0.12128010880351066,0.04862696052491665,0.25910540195554493
1774472084623477000,7.67847705078125,-0.44821138501167296,0.9986071332126856,0.5858367716774344
1774472084633505800,7.688505859375,-0.8000041307538748,1.0146066663771867,0.8427768122926353
1774472084643533800,7.698533935546875,-0.6704407622516155,0.29991818159818645,0.7307964467540383
1774472084653561900,7.708561767578125,-0.19152385785281656,-0.08425883039832115,0.4480971109822392
1774472084663591000,7.7185908203125,0.19470482597649097,-0.09621113399863243,0.2529039169669151
1774472084673618700,7.72861865234375,0.35771395248472687,-0.20293781679272652,0.15440788690149784
1774472084683647000,7.73864697265625,0.18129764739274978,-0.06347790817618369,0.03766512926667928
1774472084693674800,7.7486748046875,0.052632396773993964,0.20076164179742334,0.12015490416586398
1774472084703703800,7.758703857421875,0.4637415470987558,0.3894470613539219,0.38417438164800405
1774472084713732000,7.768732177734375,0.7861910017177463,0.3894944076269865,0.36229748088270425
1774472084723759900,7.778759765625,0.4570560779854655,0.12667407680153847,0.3452762034550309
1774472084733789000,7.788788818359375,-0.3808832311481237,0.512277906730771,1.0298623954370618
1774472084743817000,7.79881689453125,-1.204866495643556,0.42468262538611884,1.2014485038936138
1774472084753845000,7.808844970703125,-1.5337085739091039,0.021474749705195424,0.7612266563311219
1774472084763872800,7.818872802734375,-1.4497072254031895,0.07681143700182437,-0.1314931675210595
1774472084773901800,7.82890185546875,-0.8104471988350153,-0.31657588641047474,-0.5663064340382814
1774472084783929900,7.838929931640625,-0.08805354650616645,-0.6256733997642994,-0.8473083182424307
1774472084793958000,7.8489580078125,0.42163638955801724,-0.9369774832516908,-0.9685258832037449
1774472084803986700,7.858986572265625,0.9954510072693228,-0.7771849807024002,-0.8471271164566277
1774472084814015000,7.869014892578125,0.9965525387704371,-0.17357435966432094,-0.44944823333024975
1774472084824042800,7.879042724609375,0.6832756939053535,0.3258411428838968,0.1344844582915306
1774472084834071000,7.889071044921875,-0.25796529200971124,0.8836030359387397,0.9307143312036991
1774472084844100000,7.89910009765625,-0.6165180334061384,1.105848195269704,1.3997048848718403
1774472084854127900,7.9091279296875,-0.31789398327171803,0.24862287864685056,1.3728916967481375
1774472084864156000,7.919156005859375,-0.977908336316049,0.14185060314536094,1.1475555856645108
1774472084874185000,7.92918505859375,-0.5423465895190834,0.13892156395614147,0.8024772428691387
1774472084884213000,7.939212890625,-1.065505663487315,0.08046294524669646,0.5710948373585939
1774472084894240800,7.94924072265625,-2.4867495954722165,0.6366162340611219,0.3600602233499288
1774472084904269000,7.95926904296875,-1.4754925317838787,1.261935998082161,0.5394178425908088
1774472084914297900,7.9692978515625,-1.6716265137806534,1.0029027845799923,0.3940069166153669
1774472084924326000,7.979325927734375,-1.4881500610440968,0.24252339272797105,-0.2140139220803976
1774472084934354000,7.98935400390625,-1.0080874937415123,0.17542203335762022,-0.3728934014379978
1774472084944383000,7.999383056640625,-0.07257365330159664,-0.043162849900126456,-0.311172566062212
1774472084954410800,8.00941064453125,0.5233268317505717,-0.19119009585380553,-0.4045470153301954
1774472084964439000,8.01943896484375,0.5324494648829102,0.06180559104979038,-0.04352174634039402
1774472084974466800,8.029466796875,0.048777182650566096,0.4500602277487516,0.4651607662469148
1774472084984495900,8.039495849609375,-0.07409194891005753,1.01570089135468,0.780544228002429
1774472084994524000,8.04952392578125,0.1472895793288946,0.9550456393837928,0.6932593277812004
1774472085004552000,8.059552001953126,0.1882654405787587,0.5235486578077078,0.35666181308329103
1774472085014581000,8.0695810546875,0.2714417364373803,0.9138900376528502,0.2539905431598425
1774472085024608800,8.07960888671875,0.5794491164669394,0.7879302466005086,0.15727262868285177
1774472085034637000,8.089636962890625,0.9992629667729138,0.37062604102790353,-0.018310148194432257
1774472085044665900,8.099665771484375,0.8999889380723237,0.23981238020360468,-0.04789397007524967
1774472085054694000,8.10969384765625,0.664798080189526,0.24050796125233173,0.02035831289589405
1774472085064722000,8.119721923828125,0.3559738308191299,0.6581506049990654,0.21718378428816795
1774472085074750000,8.12975,0.36875878585129973,1.2003934418827296,0.44005145943164825
1774472085084778800,8.13977880859375,0.6656348232746124,1.4877636920750141,0.5454729048460721
1774472085094806800,8.149806884765624,1.2516720859602093,2.642053554430604,0.5863067272767424
1774472085104834800,8.159834716796874,0.8919672519192099,1.694736463472247,0.17034487622380257
1774472085114863900,8.16986376953125,1.536828167234361,1.0521779798805713,0.07505757907181977
1774472085124892000,8.179891845703125,1.1317372542858124,1.4546622174620627,0.5269435609430074
1774472085134920000,8.189919921875,0.049993864963948725,1.4333756838053464,0.6284647840484976
1774472085144948000,8.199947998046875,-0.4122694262757897,0.7862263652920722,0.7420552151322365
1774472085154976800,8.209976806640626,-0.3801014331206679,1.4411357964128255,0.8706447701662778
1774472085165005000,8.220005126953126,0.2594730662241578,1.11853758097291,0.5668675750523805
1774472085175032800,8.23003271484375,0.3017220161497593,-0.3660433894127607,0.48309126747399567
1774472085185060900,8.240060791015624,-0.8261822358444333,-1.144990703612566,0.4764107667967677
1774472085195090000,8.25008984375,-1.3423328923553228,-2.182853742414713,0.29577099879086016
1774472085205118000,8.260117919921875,-1.2451812626361847,-3.519970945948362,0.07494505860805512
1774472085215146500,8.270146484375,-1.9221707158789036,-4.575137586250901,-0.20142156701087952
1774472085225175600,8.280175537109375,-1.8898676981672644,-5.024100666412711,0.01984714850336313
1774472085235203800,8.290203857421876,-1.329456459647417,-3.621213059851527,0.1947165164142847
1774472085245231600,8.300231689453126,-1.581584716066718,-2.144262438213825,-0.001914309188723564
1774472085255260700,8.3102607421875,-1.508520941160619,-0.8054764246851205,0.008934417083859444
1774472085265288700,8.320288818359375,-0.8090253493383527,0.5654226369410753,0.3059270666241646
1774472085275316700,8.330316650390625,-1.1990168928325176,0.8682686886847019,0.4409270732223987
1774472085285344500,8.340344482421875,-1.749241376119852,0.8444815703839064,0.4357233670994639
1774472085295373600,8.35037353515625,-1.818341800352931,0.5852829371869563,0.31399609905034304
1774472085305401600,8.360401611328125,-1.8370482543885707,0.27753274678885936,0.22859715870618819
1774472085315429600,8.3704296875,-1.6789450201004743,-0.010196984365582466,0.12682254536151885
1774472085325458400,8.38045849609375,-1.2719132022172213,-0.6334165612369775,-0.00177723880559206
1774472085335486700,8.39048681640625,-0.3607379764810204,-0.8237959252297877,-0.10193184973299503
1774472085345514500,8.400514404296874,-0.693582568386197,0.8211381041973829,0.1192544481948018
1774472085355542800,8.410542724609375,-1.4383853286609052,1.9235329441428184,0.5286991724386811
1774472085365571800,8.42057177734375,-0.9675175829440354,1.7918594516187905,0.5557523067981004
1774472085375599600,8.430599609375,0.10566577556431293,1.022996893581748,0.652627165402472
1774472085385627600,8.440627685546875,0.1591232249855995,0.22515140216648577,0.6739701054215431
1774472085395656700,8.45065673828125,-0.4251350453287363,0.31625030771791934,0.7057894312694668
1774472085405684700,8.460684814453124,-0.3664683368265629,-0.5819669445067643,0.2365370117947459
1774472085415712500,8.47071240234375,-0.19645400773137806,-0.8553150990873575,-0.2482935005620122
1774472085425740800,8.48074072265625,-0.06155424663722515,-1.0388187320917843,-0.8381395078808068
1774472085435769600,8.49076953125,0.16765344518274067,-0.7138362518638371,-1.1804431252658367
1774472085445797600,8.500797607421875,0.5664490573793649,-0.7036293306261301,-1.2844921132832765
1774472085455825700,8.51082568359375,0.8164516999468207,-0.9229214853703975,-1.343910516935587
1774472085465854700,8.520854736328126,0.8951493890866636,-0.6316209099918604,-1.1795064289376138
1774472085475882500,8.530882568359376,1.0097449055597185,-0.5307604888826608,-0.9526710192069411
1774472085485910500,8.54091064453125,1.0718965335682034,-0.024745149677991865,-0.6320458574056625
1774472085495938600,8.5509384765625,0.8515557465538383,0.414210331210494,-0.41143677484393115
1774472085505967600,8.560967529296875,0.4659583463653922,0.4946522336691618,-0.3242404296889901
1774472085515995600,8.57099560546875,-0.04322100982815027,0.32343349722027775,-0.3641664896249771
1774472085526023700,8.581023681640625,-1.0956813137814403,0.22541443701684474,-0.5553042707696557
1774472085536052700,8.591052734375,-1.83174342597872,-0.06624269671440124,-0.7871139617815613
1774472085546080500,8.60108056640625,-2.2367039905458688,-0.9174386700451373,-1.0983809281289576
1774472085556108800,8.61110888671875,-2.699782982082665,-1.4708768546819686,-1.2723232443228363
1774472085566136600,8.621136474609376,-3.08830094589293,-1.3544909476608038,-1.248037821111083
1774472085576165600,8.63116552734375,-2.7301027170225978,-1.3045686866283417,-1.3178183365628122
1774472085586193700,8.641193603515624,-2.5172403030648827,-1.4146306513249873,-1.5235636119917033
1774472085596221700,8.6512216796875,-2.398895370930433,-1.1886141567617654,-1.5322019687384365
1774472085606250800,8.661250732421875,-2.132175110056996,-0.6162415545523167,-1.0816378831207751
1774472085616278500,8.671278564453125,-2.6070029915764925,-1.2298621129512786,-0.4097168191835284
1774472085626306600,8.681306640625,-3.252767577733099,-1.3033826917141675,0.41059973949789996
1774472085636334600,8.69133447265625,-3.366436334750056,-1.5797119079321622,1.1039385622560978
1774472085646363600,8.70136376953125,-3.6503450463116165,-1.6838924133747815,1.9695815786123274
1774472085656391700,8.7113916015625,-3.557274840687215,-1.2048334701567887,3.101303050807118
1774472085666419700,8.721419677734374,-3.098281072637439,-0.7350964820355177,4.154903172445297
1774472085676448500,8.731448486328125,-3.010569179175794,-1.211558394497633,4.918618430721759
1774472085686476800,8.741476806640625,-3.157619104529917,-1.4464976157069205,5.275880547785759
1774472085696504600,8.751504638671875,-2.2359784527502953,0.895396934106946,5.462407912525534
1774472085706532600,8.76153271484375,-0.10639482049122452,2.774966233360767,4.511064634791016
1774472085716561700,8.771561767578126,5.657851574170589,7.1097647851854555,6.213345522293448
1774472085726589700,8.781589599609376,14.146305344206095,4.4215567978233095,3.9810786374121903
1774472085736617500,8.791617431640624,8.866087059476971,-1.7906547520041465,-0.45325230178833004
1774472085746646500,8.801646484375,1.3389467570483684,-1.0718138237208128,-0.5893067858755588
1774472085756674600,8.811674560546875,-3.905263225710392,0.42845103800892825,0.8673708630621433
1774472085766702600,8.82170263671875,-6.365889953410625,-0.5250818587243556,1.0092477696925402
1774472085776730600,8.831730712890625,-6.565732726797461,-0.686958181810379,1.3838643416613339
1774472085786759700,8.841759765625,-4.604410442486405,-0.2839525507032871,1.7216513584047555
1774472085796787700,8.85178759765625,-2.0528765324145555,-0.28335750741958615,0.9182961636573076
1774472085806815700,8.861815673828126,-0.02285115262493491,-0.4160200109809637,-0.7171832242041826
1774472085816844800,8.8718447265625,2.0361697277635336,-0.01946516344845295,-2.1876959217488765
1774472085826872600,8.88187255859375,2.856991605618596,0.5309744238942862,-2.7483336625009773
1774472085836900600,8.891900634765625,2.030957546073198,0.45015901194810864,-2.7422575574576853
1774472085846928600,8.9019287109375,0.8661077112585306,0.19200784197747706,-2.381580663514137
1774472085856957700,8.911957763671875,-0.12210779179930686,-0.2937579054027796,-1.8082155431360005
1774472085866985500,8.9219853515625,-0.60933002159819,-0.7951081754058599,-1.3189613691180944
1774472085877013800,8.932013671875,-0.8785048360168933,-0.5698141498982906,-0.633313100862503
1774472085887042800,8.942042724609376,-0.7309577747955918,-0.2413894202619791,0.06717793173789978
1774472085897070600,8.952070556640624,-0.4577963749587536,-0.14836276151835917,0.8601596165090799
1774472085907098600,8.9620986328125,-0.0015963292807340621,-0.7354226452499628,1.4316478370994328
1774472085917126700,8.972126708984375,0.2415731062658131,-1.699009318485856,1.5344547161012887
1774472085927155700,8.98215576171875,0.15006854252293705,-2.406599953958392,1.5233289264529943
1774472085937183700,8.992183837890625,-0.032304479016363616,-2.349597963798046,1.5512106205910443
1774472085947211800,9.002211669921875,-0.3173246589511633,-1.5486515837579964,1.5949994934350251
1774472085957240600,9.012240478515626,0.010768354512751101,-0.9356634780436753,2.0883318766772745
1774472085967268600,9.0222685546875,-0.06191665020883083,-0.30328444316089154,2.2343320007175205
1774472085977296600,9.032296630859374,-1.15545510674268,0.095758714056015,1.629860378935933
1774472085987324700,9.04232470703125,-1.1543097360998391,0.23901158521473406,1.0433429315179585
1774472085997353500,9.052353515625,-1.1785381684273482,0.4184083674222231,0.44247430266439913
1774472086007381800,9.0623818359375,-1.3528794208109378,0.6354232248842716,-0.016132219633460045
1774472086017409500,9.072409423828125,-1.3474924670755863,0.7027250752627849,-0.31237872698158026
1774472086027438600,9.0824384765625,-1.1022457868635653,0.4008990142166614,-0.5989844225421548
1774472086037466600,9.092466552734376,-1.0194814328067003,0.8173252679109573,-0.6105468500420451
1774472086047494700,9.10249462890625,-0.960792220211774,0.6782552353948355,-0.3372054174631834
1774472086057522400,9.1125224609375,-1.182234684857726,0.24090894326865672,-0.44796910068839785
1774472086067551500,9.122551513671874,-1.2203260767124593,0.23506197080612182,-1.2693424749463795
1774472086077579800,9.132579833984375,-1.1167781700849533,-0.05518354256153107,-1.8878589886933563
1774472086087607600,9.142607666015625,-1.0522142202377318,-0.15107961926162242,-2.055204975362122
1774472086097636600,9.15263671875,-0.6045756666779518,-0.04979308169484138,-2.1638070966392755
1774472086107664600,9.16266455078125,-0.0649583559922874,0.3553174127370119,-1.9524162165388463
1774472086117692700,9.172692626953125,-0.07152370585724711,0.7345920396447181,-1.9689117165267467
1774472086127720700,9.182720703125,-0.0733422995865345,1.3141530920535325,-2.00380007455647
1774472086137749800,9.192749755859374,0.07295899935737252,1.4901350973814724,-1.9733993833348153
1774472086147777500,9.202777587890624,0.4373028913758695,1.6736872457027434,-1.7587386877834796
1774472086157805600,9.2128056640625,0.5726449894100427,1.5635288348942995,-1.5258146057888864
1774472086167835000,9.2228349609375,0.5546440532952547,1.5444184762328863,-1.2122060447514056
1774472086177862700,9.232862548828125,0.6090729780972004,0.943831002408266,-1.1528753193825483
1774472086187890400,9.242890380859375,0.5327081158190965,0.6098965694397688,-1.0327154467806219
1774472086197918700,9.252918701171875,0.12401508672535419,0.4412935684472322,-0.8539028942018747
1774472086207947800,9.26294775390625,0.16481573753878473,0.558595421269536,-0.4771306055039167
1774472086217974500,9.272974609375,0.35322701632902026,1.2105758132010698,0.1956698716163635
1774472086228002300,9.283002197265626,0.4271545684576034,1.333079910841584,0.2709744111865759
1774472086238031400,9.29303125,0.6073147362530231,1.4127180957019327,0.09860036722272635
1774472086248059400,9.303059326171875,0.747663264272362,1.302749654507637,-0.2705357275083661
1774472086258087400,9.31308740234375,0.8407973289132118,1.0194897622436285,-0.7560679583936929
1774472086268115200,9.323115234375,0.9513953001827001,0.7553425667285919,-1.1002364928677677
1774472086278144300,9.333144287109375,1.2416659479916095,0.395741193062067,-1.2541966360017656
1774472086288172500,9.343172607421875,1.553611836513877,0.2188280443638563,-1.16307347279191
1774472086298200300,9.353200439453126,1.9733622661948202,0.131531453704834,-0.9057920713931321
1774472086308228600,9.363228515625,2.509755208006501,0.20579905144274233,-0.5533142659962177
1774472086318257400,9.37325732421875,2.969721328219771,0.692629797706008,0.1224023908317089
1774472086328285400,9.383285400390625,3.3828397725403305,1.361053374916315,0.9923942500472068
1774472086338313200,9.393313232421875,3.1366724703520537,1.100493390238285,0.7287041506499051
1774472086348342500,9.403342529296875,1.9062442479506134,0.8270248241484165,-0.15148469293117522
1774472086358370300,9.413370361328125,1.5513520748883485,0.7328571786761283,-0.4299234486490488
1774472086368398300,9.4233984375,1.9453034619241951,0.5338052634060383,-0.3547276301503181
1774472086378426400,9.43342626953125,1.619328755788505,0.33507074352204796,-0.6554167961210012
1774472086388455400,9.443455322265624,1.336168232245743,0.5812392147541046,-0.5945476091384887
1774472086398483200,9.453483154296874,1.2958628176033495,0.8817845883399248,-0.2926408840715885
1774472086408511500,9.463511474609374,1.981027978517115,0.9589514146506786,-0.1551321095228195
1774472086418540500,9.47354052734375,2.5230685708269474,1.2097393623769284,0.039837504869699475
1774472086428568300,9.483568359375,2.309455046240985,0.8599211315780878,0.4710018934905529
1774472086438596600,9.4935966796875,-0.34119156448990107,-2.2699328909307717,0.6728297032147645
1774472086448624400,9.503624267578125,-3.644923605784774,-3.6038317169398066,-0.7664531588077544
1774472086458653400,9.5136533203125,-2.4712357999980448,-1.8984610467284917,-1.800357230851054
1774472086468681200,9.52368115234375,0.20061375775933266,-0.0869277573466301,-1.784769493357837
1774472086478709500,9.53370947265625,1.75010296138525,0.9652847093254328,-1.1255378151237965
1774472086488738300,9.54373828125,2.5265783325135707,1.5509733047038317,-0.2411336919352412
1774472086498766300,9.553766357421875,2.6541952431231737,0.6719663643836975,-0.4982762693852186
1774472086508794400,9.56379443359375,2.348174652996659,-0.2830050407201051,-1.219240181171894
1774472086518822400,9.573822509765625,2.526133511355519,-0.4913900170028209,-1.819859803700447
1774472086528851500,9.5838515625,2.733997678634524,-0.48190907195210453,-1.9807956310659647
1774472086538879500,9.59387939453125,2.0499895788013935,-0.2732242359399795,-1.6482953225538133
1774472086548907300,9.6039072265625,1.6666186224907635,-0.002402384966611862,-1.0623860701620578
1774472086558936300,9.613936279296874,1.6574860524863004,-0.020959201398491858,-0.37028044246062636
1774472086568964600,9.623964599609375,2.1812410465210674,-0.32949440469443797,0.31409035320505496
1774472086578992400,9.633992431640625,4.072226058280468,-0.6096960784316062,0.2214670145653188
1774472086589020400,9.6440205078125,8.30461228337884,0.549087588211894,-1.4257875667639075
1774472086599049200,9.65404931640625,9.802709153419732,2.3723002094715833,-1.6499176630586385
1774472086609077500,9.664077392578125,5.291397850391268,1.1376549538969993,-1.2017503363844007
1774472086619105300,9.674105224609375,-1.4222376191973685,-0.363957815310359,-0.2680547974128276
1774472086629134300,9.68413427734375,-21.579019057965276,0.8561416130393743,3.2742017031669617
1774472086639162400,9.694162353515624,-16.192977176761627,0.47968204355239863,4.210375468820334
1774472086649190400,9.7041904296875,-4.265383070293069,0.8164446856841444,4.01485289672017
1774472086659218400,9.714218505859375,-0.7758633767098188,1.6182485593363642,4.916120184165239
1774472086669247500,9.72424755859375,-1.1619669728547335,1.155330311319232,4.035497040820122
1774472086679275500,9.734275634765625,-3.0544664808303117,0.11147037018984556,1.9028883616514503
1774472086689303300,9.74430322265625,-3.713685007321834,-0.49276072083413597,0.9614339521814137
1774472086699331300,9.754331298828125,-1.7699883960723877,0.28932255330383777,0.801670164269954
1774472086709360400,9.7643603515625,0.6352595587551594,1.0515735842466354,1.2111340316057204
1774472086719388400,9.774388427734374,1.5539800853043795,0.8950444674074649,1.846926674324274
1774472086729416400,9.78441650390625,1.2556740150779484,1.223755320508778,2.3200242249198255
1774472086739445500,9.794445556640625,0.633527620396018,1.1695322935424743,3.0892578082263467
1774472086749473300,9.804473388671875,1.6996791805714369,0.07929740859866141,2.459794953051209
1774472086759501600,9.81450146484375,2.7972943850249052,-1.7073714886397122,1.5620222297236321
1774472086769529300,9.824529296875,3.6073844409853217,-2.907422985216975,-0.09794877144619822
1774472086779558400,9.834558349609376,2.9694202994465826,-3.470455512151122,-2.033763105013221
1774472086789586400,9.84458642578125,1.7264035213679074,-3.7718838060513136,-3.5369925156369804
1774472086799614500,9.854614501953124,1.2890461233258246,-3.469615846456587,-4.162513062927126
1774472086809643500,9.8646435546875,0.5108709625422955,-2.292904893456399,-3.723243401522934
1774472086819671300,9.87467138671875,-0.08626490952372551,-1.395179224140942,-2.670010359631479
1774472086829699300,9.88469921875,0.7783125234276056,-0.5140873673055321,-1.3822070759736
1774472086839727400,9.894727294921875,1.7703794412165879,-0.07325769004300237,-0.6866698663882911
1774472086849756400,9.90475634765625,0.9758142866462468,-0.13947861331701278,-0.4829154725156724
1774472086859784400,9.914784423828126,-0.5360334608495235,0.10051347083505242,-0.16254516225829718
1774472086869812500,9.9248125,-2.0336551145941018,0.12552976560462265,-0.35474209706708787
1774472086879840300,9.93484033203125,-2.4690058489888904,-0.32414588327333327,-0.6237853940606117
1774472086889869600,9.94486962890625,-1.2113725165367126,-0.543680395406112,0.43844738523587584
1774472086899897300,9.9548974609375,-0.10205576837360858,-0.4000197836967185,0.8996958003446459
1774472086909925400,9.96492529296875,0.7945254070818424,-0.15647422658046706,0.7066082003064453
1774472086919954200,9.9749541015625,1.3632698819220066,0.2519652296110056,0.7668966647915542
1774472086929982500,9.984982421875,0.4697375726431608,0.8941685613557696,1.2854022138655186
1774472086940010200,9.99501025390625,0.09749357502460479,1.6480952699370681,1.4345245615795255
1774472086950038500,10.00503857421875,-0.1874532474130392,1.2961825510770082,1.1285432805500923
1774472086960067600,10.015067626953124,0.018359832555055616,1.1410310792665928,0.837727127687633
1774472086970095400,10.025095458984374,-0.013521744874119758,1.2118329736553133,0.797337688023597
1774472086980123400,10.035123291015625,-0.5600643247783184,0.6995574050121008,0.6277411459490656
1774472086990152400,10.04515234375,-0.3773334297120571,0.3556265152188018,0.269407600261271
1774472087000180500,10.055180419921875,-0.30415012007951736,0.012618512424081563,-0.13997341109663247
1774472087010208300,10.065208251953125,0.25758184565007686,-0.5195962669201195,-0.4341989340111613
1774472087020236500,10.075236572265625,0.6797773303955793,-0.7028313851814717,-0.8185989411085843
1774472087030265300,10.085265380859376,0.6295575477212667,0.09822627321332693,-0.5577250681757927
1774472087040293400,10.09529345703125,-0.24042028296887874,0.5566548085957765,0.31182138535976406
1774472087050321400,10.1053212890625,-1.070742979618907,0.4388824887175113,0.5997682663962245
1774472087060350500,10.1153505859375,-0.6025345162391662,-0.07893829296268522,0.47469256470203397
1774472087070378200,10.125378173828125,-0.14298340656757355,-0.4205903145711869,-0.2820394105583429
1774472087080406500,10.135406494140625,-0.4299801472723484,-0.6650637453883886,-0.6188584590524435
1774472087090434300,10.145434326171875,-0.1459481015920639,-0.9722900580428541,-0.7050210772454738
1774472087100463400,10.15546337890625,0.6556915214091539,-0.46849845930226147,-0.9144102621346711
1774472087110491400,10.165491455078126,1.89053785251379,-0.15416377594731748,-0.8554010238051414
1774472087120519400,10.17551953125,1.1772025359094143,0.09263393309898674,-0.9969757326185703
1774472087130547200,10.185547119140624,0.17744973979294298,-0.022514248820766806,-0.21731705527901649
1774472087140576300,10.195576171875,1.3359475752323866,-0.4808014029711485,0.7000406584843992
1774472087150604500,10.2056044921875,1.3451403509914874,-1.0382998958494514,0.36833091582804917
1774472087160632300,10.21563232421875,0.8111036169171333,-1.1104142610762269,0.8697823081180452
1774472087170661400,10.225661376953125,1.3304589146882295,-0.9474814877398312,1.3464365282818673
1774472087180689400,10.235689453125,1.291207100751996,-1.165435379617661,1.2534104540601372
1774472087190717400,10.245717529296876,0.2309457676589489,-0.747875737979263,1.587776556444168
1774472087200745500,10.255745361328126,-1.0100579170316457,-0.48769043183252214,2.2256249626487494
1774472087210774500,10.2657744140625,-2.079334331229329,-0.2944130083106458,2.355814354094863
1774472087220802800,10.275802734375,-2.4921985085278746,0.18229177299663424,2.304097026339173
1774472087230830600,10.28583056640625,-2.028500216048956,0.08020268687531351,2.10421216737628
1774472087240859000,10.29585888671875,-1.4999188247710467,0.15644129242524504,1.6026909247204661
1774472087250888000,10.305887939453125,-1.1845868009418248,0.8467056761741638,1.2941095441952346
1774472087260915700,10.315915771484375,-1.395568807980418,1.3791712154090403,1.4882079287111758
1774472087270944000,10.325944091796876,-2.480819036379456,0.8725337987832724,1.798714139819145
1774472087280972800,10.335972900390624,-3.3172534939080474,0.7386435069926083,2.302304882225394
1774472087291000800,10.346000732421874,-4.096185610538721,1.0809335342437028,2.991447422337532
1774472087301028600,10.356028564453124,-4.54981317538023,1.2406792750418185,3.0604718587249518
1774472087311057000,10.366056884765625,-4.378486302381754,1.2760481100648642,2.6807477344840764
1774472087321085700,10.376085693359375,-3.98840854190886,0.8790291521519422,2.1908178531616924
1774472087331113700,10.38611376953125,-3.2491432497560977,0.583124005587399,2.038850929671526
1774472087341141800,10.396141845703125,-2.4061609780192375,0.9770490891382098,2.2463667219042778
1774472087351170800,10.4061708984375,-2.2284943806052206,0.6604860622093081,2.1688684716820714
1774472087361198600,10.416198486328126,-2.9098522581905124,0.9740290106646716,1.0954045426666736
1774472087371227000,10.426226806640624,-1.9177438393473625,0.5846588139392436,0.23623101458549497
1774472087381254700,10.436254638671874,-2.5193267539501187,-0.08339987548142672,0.5015799871057272
1774472087391283700,10.44628369140625,-2.350183654731512,0.11893895250484347,0.15565408757030963
1774472087401312000,10.45631201171875,-1.7198589220300315,-0.056626434846222394,0.6643833619087934
1774472087411339800,10.46633984375,-1.503787775158882,0.0692081223912537,0.8454618135929107
1774472087421367800,10.476367919921875,-1.8452455893695354,-0.20325199730843305,1.2461919009834528
1774472087431396600,10.486396728515626,-1.6801371524944901,-0.48597179134637114,0.7883949415028095
1774472087441425000,10.4964248046875,-1.7249769956961274,-0.7343122728552669,1.1841712058782576
1774472087451452700,10.50645263671875,-2.5349597918897864,-1.6478563466146587,2.292575515371561
1774472087461481700,10.516481689453125,-2.896961796957254,-1.3433843011043964,1.854550593331456
1774472087471509800,10.526509765625,-0.6788600694201886,-0.6772012693624944,1.627861314073205
1774472087481537800,10.536537841796875,3.3664579620599744,-0.6461008323736488,1.018912254616618
1774472087491565800,10.54656591796875,5.432568070057034,-0.9100457833148539,-0.443116107699275
1774472087501595000,10.556594970703125,6.198221018397808,-1.7092381592944264,-1.4329472292602061
1774472087511622700,10.56662255859375,4.623827090618014,-3.928605522853136,-1.3655273054599761
1774472087521650700,10.576650634765626,1.8113561792492865,-4.614214335881173,-1.4418325465053319
1774472087531678700,10.5866787109375,-0.028815760117769238,-2.024186590633541,-0.7950064685970545
1774472087541707800,10.596707763671875,-1.314402098378539,0.07866563176745549,0.3116168026983738
1774472087551735800,10.60673583984375,-2.6442940268337725,-0.0359054968997254,-0.12445289362072944
1774472087561763800,10.616763916015625,-0.9753449155688285,-0.08755483060325496,-0.9472370114594697
1774472087571793000,10.62679296875,0.8319628650724887,0.14532206951505502,-0.8018477127939462
1774472087581820700,10.636820556640625,1.1758172190308571,0.497274471931532,-0.2135942353636026
1774472087591849700,10.646849609375,0.01112107694055885,0.8741608885284513,-0.1106599305897951
1774472087601877800,10.656877685546876,-0.6703741998214274,1.083521724105999,-0.09292904358804226
1774472087611905800,10.66690576171875,-0.17206695077605544,0.7411381733525544,0.22193770081698894
1774472087621934600,10.6769345703125,0.6397393345177174,0.687629505200684,0.14100363092720508
1774472087631963000,10.686962890625,0.6286275733947754,0.9217137170158326,0.17587679138779638
1774472087641990700,10.69699072265625,0.30521161183118817,1.0538420406352729,0.3057090399593115
1774472087652018700,10.707018798828125,0.5865395131193101,0.6334928413435816,0.6005144085884094
1774472087662047700,10.7170478515625,2.031746504493803,0.2728391456125304,0.34013971734941006
1774472087672075800,10.72707568359375,2.19022573248744,-0.33619934569317844,0.41135552630126476
1774472087682103800,10.737103759765626,1.3437901054263115,-0.5172944197185337,0.13253916944265365
1774472087692131800,10.7471318359375,1.2206476368170232,-0.14839606099976227,0.3081768913775682
1774472087702161000,10.757160888671875,1.9539619846761225,0.17051802256731316,0.43974575448334213
1774472087712188700,10.767188720703125,1.9622201099336145,1.1074835413865745,0.5334896215856075
1774472087722217000,10.777217041015625,1.2124210026763378,1.8621588763780892,0.475886158400774
1774472087732245800,10.787245849609375,0.9478548510968685,2.1752263162761927,0.6309247444212436
1774472087742273800,10.797273681640625,0.7278862583957612,2.3772430727012455,0.9457073176741599
1774472087752301600,10.807301513671876,0.22970760416612027,2.253789419250935,0.549186372411251
1774472087762329900,10.817329833984376,0.6223882406137883,1.082367366439104,-0.10251286449134349
1774472087772358700,10.827358642578124,1.3589841674268246,-0.06794667848753742,-0.05314122307896614
1774472087782386700,10.83738671875,1.5407130458436906,-0.039332551022246476,0.11548457426726817
1774472087792414700,10.847414794921875,0.9926721902057528,0.383863160274364,-0.0991442648410797
1774472087802443800,10.85744384765625,1.7482371675133703,-0.04808346476536244,0.9097668202430009
1774472087812471800,10.867471923828125,0.9262895004987716,0.5420809973854571,1.03008012984097
1774472087822499800,10.877499755859375,0.4248563745178282,0.9512051844380796,0.6572153699755668
1774472087832528000,10.88752783203125,-0.15067337654829024,0.9331303793694823,0.4321095605164766
1774472087842556700,10.897556640625,0.18905425286889074,0.2806785705339163,0.5855471410810947
1774472087852585000,10.9075849609375,-0.17496844437122344,0.6015463089194149,0.5460895754396915
1774472087862612700,10.91761279296875,-0.190619456358999,1.046099682880193,0.359291577064991
1774472087872640800,10.927640869140625,-0.21321721874475477,0.765642719207704,-0.014874328526854514
1774472087882669600,10.937669677734375,-1.0375136408425867,0.43627099104486405,0.03832242413163185
1774472087892697900,10.94769775390625,-2.066118875825405,0.2764665057968348,0.027112463331222532
1774472087902725600,10.9577255859375,-5.539919606751203,1.0225063335858284,0.19669629205465317
1774472087912754700,10.967754638671876,-2.918713025516271,-2.003236303193867,-0.276876913228631
1774472087922782700,10.97778271484375,-1.6947103061176836,-2.8500132910385725,-0.5591279207110404
1774472087932810800,10.987810791015624,-2.3877169743120668,-0.7713862312957644,-0.007853051587939261
1774472087942838800,10.9978388671875,-1.9223747140184044,0.5493352062974125,0.4926414783686399
1774472087952867800,11.007867919921875,-1.6461844678796826,1.1557504364274442,0.6596288608580827
1774472087962896000,11.017895751953125,-1.450150000734627,1.80438370988816,0.8038841870576143
1774472087972923600,11.027923583984375,-1.1266472376704215,1.8084196874059735,0.6552145515471697
1774472087982953000,11.037952880859375,-1.1486195616342127,1.5008683805808425,0.1612713429301977
1774472087992980700,11.047980712890626,-1.4356604337416587,1.4539537769317625,-0.10679214924573897
1774472088003008800,11.0580087890625,-1.6710710718549786,0.7333792297888547,-0.10377250916361808
1774472088013036800,11.068036865234374,-2.183308500444889,-0.2804757414381951,-0.07159808626770973
1774472088023065900,11.07806591796875,-3.122948188643157,-1.0297881611570716,0.10572890392839908
1774472088033093600,11.08809375,-4.194309884682298,-1.472413708860427,0.04115735529661178
1774472088043122000,11.098121826171875,-3.5456323336884377,-1.3363430042907596,-0.3177367468833923
1774472088053149700,11.108149658203125,-3.3255943290129304,-1.295376349260658,-0.46264615307748314
1774472088063178800,11.1181787109375,-3.1555954897478222,-1.2322139367744327,-0.3288689662724733
1774472088073206800,11.128206787109375,-2.199974388563633,-0.47070685606673357,-0.5872872627466916
1774472088083234800,11.13823486328125,-1.1381044512301683,-0.468410269562155,-0.8396937515854835
1774472088093264000,11.148263916015624,-1.3254688513159751,-0.7383413091756403,-0.49643619447648524
1774472088103291600,11.158291748046874,-0.3778527774110436,-1.1840443646281957,-0.25704642359912394
1774472088113320000,11.16831982421875,0.9616121582925319,-1.5576289632007478,0.04878068978190422
1774472088123347700,11.17834765625,0.6716852093547582,-1.267995151990652,0.38823651652038094
1774472088133376800,11.188376708984375,0.6437479856371879,-0.3938140974570066,0.7687415620058774
1774472088143404800,11.19840478515625,0.45019057613015173,-0.11210194609165192,0.7876736414909362
1774472088153432800,11.208432861328125,0.06103694476485252,-0.26281035742070524,0.6319289530277252
1774472088163460600,11.218460693359376,-0.11714461643397807,-0.27760241449158635,0.5612368756890297
1774472088173490000,11.228489990234374,-0.2795060926884413,-0.33065942988581953,0.3681348087340593
1774472088183517700,11.238517578125,-0.5626894125849008,-0.5188911143254489,0.21850714184641837
1774472088193545700,11.248545654296874,-0.5054495220154523,0.020987112318724393,-0.04127601324021816
1774472088203574800,11.25857470703125,-0.41406946143507956,0.36436530013270674,-0.27359774542748927
1774472088213603000,11.26860302734375,0.030341946771740912,0.6773937962599098,-0.3089052056521177
1774472088223631000,11.278631103515625,-0.21222849996834992,0.10440905350148677,0.773108525043726
1774472088233659100,11.2886591796875,-1.1102464302286505,0.2461974050655961,3.435001921454072
1774472088243688200,11.298688232421876,-1.0345669198662042,0.5270999205484986,3.5178736814081666
1774472088253716000,11.308716064453124,-0.49671091976463794,0.4315956196449697,1.0425725316673518
1774472088263744000,11.318743896484374,1.1635562878727912,1.177488367113471,-0.8019616945624352
1774472088273773300,11.328773193359375,3.187884186673164,1.4678426015526056,-1.598977749416232
1774472088283801000,11.338801025390625,4.73111871381849,1.2162588272735475,-1.382495391395688
1774472088293829000,11.3488291015625,6.105362117436528,1.4551768889859318,-1.7788059087783097
1774472088303857200,11.358857177734375,6.275474353948235,1.533004809553921,-1.8675953683435915
1774472088313886200,11.36888623046875,5.565974085462093,1.080506248742342,-0.767593561014533
1774472088323914000,11.3789140625,4.073796376337111,0.2831543860629201,0.19546178182363508
1774472088333942300,11.3889423828125,1.639308883021772,-0.023798808738589285,2.9276094486773014
1774472088343970000,11.398969970703124,0.11977379589378834,-0.08174187914133071,0.8210270450383425
1774472088353999000,11.4089990234375,-1.1702961175218223,0.06850128929615021,0.21441256600916384
1774472088364027100,11.419027099609375,-1.1656561827614902,-0.42581192167699333,0.7603869906365871
1774472088374055200,11.42905517578125,-0.504430115839839,-0.6815209591925144,-0.0829015705704689
1774472088384084000,11.439083984375,0.32744434029683467,-0.7977075442492961,0.24042905079722404
1774472088394112000,11.449112060546875,0.1840156741797924,-0.8935779019862413,1.8644348584860562
1774472088404140000,11.45914013671875,-0.02041618056297302,-0.725690648047626,3.4441239700645205
1774472088414168000,11.46916796875,0.47384646926671264,-0.8881284044086932,2.995787497368455
1774472088424197000,11.479197021484374,-0.9080524175405502,-0.11603840875774621,2.7184032191395757
1774472088434225200,11.48922509765625,-2.2792867024704813,0.47047377796322104,2.371769463595748
1774472088444253200,11.499253173828125,-1.8998302892550825,0.07951952691674231,1.6617179909676312
1774472088454281200,11.50928125,-1.779435731114447,0.027632687813043594,0.8744780647188425
1774472088464310300,11.519310302734375,-1.443995569758117,-0.028899346747994423,-0.417692328107357
1774472088474338000,11.529338134765625,-0.07421557528972625,-0.226615044978261,-3.074454791370034
1774472088484366000,11.539365966796876,1.2058777185127139,-0.11886369531154632,-5.648024592161178
1774472088494395100,11.54939501953125,1.8277683848679065,-0.24150106394290924,-6.16882424352169
1774472088504423200,11.559423095703124,1.4815949403122066,-0.6707341922402381,-5.940903961163759
1774472088514451000,11.569450927734374,0.5098167773142457,-0.8462088325679302,-5.166810516735911
1774472088524479200,11.579479248046875,-0.2831654919788241,-0.5576335905000567,-3.2634932621479034
1774472088534508000,11.589508056640625,0.7784696136854589,1.184511689879,3.3248645534336565
1774472088544536000,11.5995361328125,1.4039233793497086,1.5829253170207143,7.150740938696265
1774472088554564000,11.609564208984375,-0.10446779795140028,1.8209607506796717,3.871958922001719
1774472088564593200,11.61959326171875,0.6175429925397038,1.9496879606187343,0.461242131498456
1774472088574621200,11.62962109375,1.4941115997970102,1.6716063477754592,-1.06044253487885
1774472088584649000,11.63964892578125,1.6322051884964108,1.052234678503871,-1.2154554019361734
1774472088594677200,11.64967724609375,1.5742857912302017,0.5788976200640201,-0.7640940284609794
1774472088604706000,11.6597060546875,1.590898487856984,0.3066691171631217,-0.5346884759813547
1774472088614734000,11.669734130859375,1.0786953999280928,0.18944032957702875,-0.744558722385764
1774472088624762000,11.67976220703125,0.05816372741609811,0.052906245279312134,-1.066374847537279
1774472088634791200,11.689791259765625,-0.7787342559710144,0.022486849357187748,-0.8044102567583322
1774472088644819000,11.69981884765625,-1.0133964138045906,-0.09851765737533569,0.0911053352922201
1774472088654847200,11.70984716796875,-1.1146782751962543,-0.14907500144094227,0.7517220381438732
1774472088664875000,11.719875,-1.2731693397581576,-0.059492053410410875,0.8936702564448118
1774472088674904000,11.729904052734375,-1.3795067309737206,0.04076426432579756,1.2846750686347483
1774472088684932000,11.73993212890625,-2.0663436244919895,-0.31833442051559685,1.4334545942604542
1774472088694960000,11.749960205078125,-3.2833158607318995,-0.8435019116967916,0.4818991350799799
1774472088704988000,11.75998779296875,-5.223659362161159,-0.9841028070420026,-1.445142693966627
1774472088715017000,11.770016845703125,-4.625855966097117,-0.42687458247244353,-0.6111667355060577
1774472088725045200,11.780045166015626,-1.0353662535503505,-0.22221710228025912,0.7803753011763095
1774472088735073000,11.790072998046876,1.175017008563876,-0.0861143951371312,0.8123392961919307
1774472088745102000,11.80010205078125,4.82141419403255,-0.8201964394330978,0.4024953434973955
1774472088755130000,11.810130126953124,7.018025243642926,-1.3341399412885306,0.20029051715433596
1774472088765158100,11.820158203125,1.5628011051416397,-0.45667233936488627,-1.0781424422204493
1774472088775186200,11.830186279296875,-3.033797786810994,0.2638672095298767,-1.4516454999893902
1774472088785215200,11.84021533203125,-2.890811457633972,0.46263650846630333,-0.6793886233389377
1774472088795243000,11.850242919921875,0.8310404895305633,0.26167028400748965,0.6944353858232498
1774472088805271000,11.86027099609375,2.7509166647315024,0.7520569691866635,0.7082622511237859
1774472088815299000,11.870299072265626,0.07659691746830939,1.3217141749575734,1.2864414937853812
1774472088825328000,11.880328125,-1.3944786746561526,0.689431293925643,1.0393769504964352
1774472088835356000,11.89035595703125,-0.7609007853776216,0.5223614938497543,0.061870472979545586
1774472088845384200,11.90038427734375,-0.9713941321164369,0.518184500426054,-0.39378830542862414
1774472088855413200,11.910413330078125,-2.0361884324640034,-0.021487024664878843,-0.501819056558609
1774472088865441000,11.92044091796875,0.869473388299346,-0.3827034323126077,-0.9744143567204475
1774472088875469300,11.93046923828125,0.7609674208730459,-0.22023586533516645,-1.117023084756732
1774472088885497000,11.9404970703125,0.24160277075171468,-0.31444267377406354,-1.3827479048520326
1774472088895526100,11.950526123046876,0.5665899271547794,-0.473387035061419,-1.3687661412507295
1774472088905554200,11.96055419921875,0.12867489522993564,-0.6065308923989534,-1.2698410721182822
1774472088915582200,11.970582275390624,-0.04914250883162021,-0.8230135426804422,-1.3938538207560778
1774472088925611000,11.980611083984375,0.10861468849778175,-0.6675467943757772,-1.0650427221506833
1774472088935639000,11.99063916015625,0.13757424100041388,0.043270109666883945,-0.12699673288464544
1774472088945667000,12.0006669921875,0.14084113384187222,0.4544023486062884,-0.3154068426311016
1774472088955695000,12.010695068359375,0.5050847803562879,0.2541109546691179,-1.1400859804362058
1774472088965724000,12.020723876953125,0.033661446583271026,-0.14046557852774857,-1.4874451276451348
1774472088975752200,12.030752197265626,-0.9723018946111202,-0.8391770342350006,-1.4933347702056168
1774472088985780000,12.040780029296876,-1.9600158778876065,-0.7610738038569689,-0.751442636680603
1774472088995808000,12.05080810546875,-1.9668582911282777,0.20544921509176492,0.043623453149199486
1774472089005837300,12.06083740234375,-1.7969085517019032,1.0093155742317437,0.46408875310122966
1774472089015865000,12.070864990234375,-1.7145973482400179,0.9454971820548176,0.9153460816800594
1774472089025893000,12.08089306640625,-1.3893553402930496,0.8036258283823728,0.930830066537857
1774472089035922200,12.090922119140625,-1.4879004701972007,0.17687310894876718,0.977811597943306
1774472089045950200,12.1009501953125,-1.6789152094841002,-0.19087094690203665,0.9361632442593574
1774472089055978000,12.11097802734375,-0.9942442618280649,-0.2968498800687492,0.7384346865475178
1774472089066006300,12.12100634765625,-0.43257834707200526,-0.17562617762759328,0.7069412316530943
1774472089076035000,12.13103515625,-0.250729495537281,-0.11386369506716727,0.4355827895849943
1774472089086063000,12.14106298828125,-0.23160218574106692,0.3570945054121315,0.5252624759882688
1774472089096091100,12.151091064453125,-0.4308762193292379,0.6298004165664315,0.880148511570692
1774472089106120200,12.1611201171875,-0.07355681912004947,0.5284118799299001,0.531733717828989
1774472089116148000,12.17114794921875,0.8752367741316557,0.8696189342498779,-0.35735447152256966
1774472089126176000,12.181176025390625,1.45060154389441,0.6386354649290442,0.0008323591709136962
1774472089136204000,12.1912041015625,1.6223434274345636,-0.1218953180924058,0.48773032545149325
1774472089146233000,12.201233154296874,2.0111136124402282,-0.35580329655781384,0.12982581883072852
1774472089156261000,12.21126123046875,1.7579402308821677,0.043504795205593104,-0.058149406629800796
1774472089166289200,12.2212890625,0.9518500582128763,0.4885271749176085,0.19987609113454818
1774472089176317200,12.231317138671875,0.7498860548883676,0.7620043627053499,0.41359015348553657
1774472089186346000,12.241345947265625,1.0811422085583209,0.8999456834524869,0.7389139944970607
1774472089196374300,12.251374267578125,1.5711352182447909,0.8600361362598836,0.9553057516247033
1774472089206402000,12.261402099609375,1.6144523819237946,0.719228466296196,1.0004249962896108
1774472089216430000,12.27143017578125,1.3383961374282836,0.6715016694813967,1.1552262664228676
1774472089226458400,12.281458251953126,0.6316857919216156,0.578621725732088,1.1165993063867092
1774472089236486100,12.291486083984376,0.04992985981702804,0.42465427607446904,0.8994739742875099
1774472089246514400,12.301514404296874,0.006196516552567481,0.030580285572260616,0.49049628303349013
1774472089256543200,12.311543212890625,-0.09034896396696566,-0.3224582224473357,0.05919394724667072
1774472089266571300,12.3215712890625,-0.30494886924177406,-0.8788833139404654,-0.10959200909733771
1774472089276599300,12.331599365234375,-0.4159656504452228,-0.6613651831313967,-0.15708265906870364
1774472089286627300,12.34162744140625,-0.7249787003859877,0.2160074339851737,0.2747849093854427
1774472089296656400,12.351656494140625,-0.515856934261322,0.7452091491185128,0.7089309441655873
1774472089306684200,12.36168408203125,-1.3218763797819613,0.6269220846511423,0.30706045456826686
1774472089316712400,12.37171240234375,-1.9414798119828103,0.5813812535732984,-0.6509604012340307
1774472089326741200,12.3817412109375,-1.7898264844864606,0.48118148832991714,-2.1629157007575035
1774472089336769300,12.391769287109375,-1.7997440673887728,0.25277707571685315,-3.149655870565772
1774472089346797300,12.40179736328125,-1.9008125782907008,0.09934884750247001,-2.8033868566811084
1774472089356825300,12.411825439453125,-1.9219769468724726,-0.21085954970270393,-1.935934160554409
1774472089366854100,12.421854248046875,-1.9632386393263934,-0.7582979094028472,-0.9728589439719915
1774472089376882400,12.43188232421875,-1.6600199548780916,-0.43379093773216004,-0.14480769938528537
1774472089386910200,12.44191015625,-2.12899823358655,-1.0228566083282231,0.5400380203157663
1774472089396939300,12.451939208984374,-2.8174928311839698,-0.0678343498200178,0.7075777759909629
1774472089406967000,12.461967041015624,-2.4729335438266395,1.13308399271965,0.523662055054307
1774472089416995300,12.471995361328124,-2.2196599167644977,0.6203492821320891,0.31532559408843513
1774472089427023000,12.482023193359375,-1.063120521916449,0.5430924394503236,0.37350598037838934
1774472089437052200,12.49205224609375,1.0928908062800764,0.44535453427582977,0.5686199716776609
1774472089447080400,12.50208056640625,1.986507578971982,-0.01949088241159916,0.668861968627572
1774472089457108200,12.512108154296875,2.2832956458508966,-0.23733663773983715,0.8300631689310073
1774472089467136300,12.52213623046875,3.6564386870115992,-0.38482466225028034,1.363770817181468
1774472089477165300,12.532165283203126,2.752024918234348,0.6100125970348715,1.79327808624506
1774472089487193300,12.542193359375,-0.31971506121903653,1.4083371041387318,2.3165970269501206
1774472089497221000,12.55222119140625,-2.5225468850404025,0.7286386841982603,2.3552514595150944
1774472089507250400,12.56225048828125,-3.6077208333328366,-0.46266719586551186,1.7629589358270168
1774472089517278200,12.5722783203125,-3.6891821419671174,-0.2163949719980359,1.2586620909780264
1774472089527306200,12.58230615234375,-3.36307182675302,0.2027873024061322,0.7547983768492936
1774472089537334300,12.592334228515625,-2.8510744905292986,-0.08470452833920716,0.3812514799386263
