time,seconds_elapsed,z,y,x
1774472077012030200,0.0670302734375,0.20209862291812897,0.14733058214187622,-0.3994331359863281
1774472077022058000,0.07705810546875,0.16436339914798737,0.18818716704845428,-0.3452019989490509
1774472077032087000,0.087087158203125,0.13211731612682343,0.08185726404190063,-0.27855798602104187
1774472077042115300,0.097115234375,0.11578592658042908,-0.11453375965356827,-0.224466472864151
1774472077052143000,0.10714306640625,0.12871184945106506,-0.27947744727134705,-0.18859395384788513
1774472077062171100,0.117171142578125,0.15560489892959595,-0.40546947717666626,-0.16889072954654694
1774472077072199200,0.12719921875,0.18878203630447388,-0.49132952094078064,-0.1893853396177292
1774472077082228200,0.137228271484375,0.22900588810443878,-0.5253462195396423,-0.24792060256004333
1774472077092256000,0.147256103515625,0.26444509625434875,-0.44345852732658386,-0.3185007572174072
1774472077102284300,0.1572841796875,0.27838459610939026,-0.26700150966644287,-0.38693350553512573
1774472077112312000,0.16731201171875,0.27769455313682556,-0.05430576577782631,-0.43850216269493103
1774472077122341000,0.177341064453125,0.2778114676475525,0.08798842132091522,-0.4696636199951172
1774472077132369200,0.187369140625,0.290543794631958,0.13148024678230286,-0.47042474150657654
1774472077142397200,0.197397216796875,0.3013768494129181,0.10394932329654694,-0.43488895893096924
1774472077152425000,0.207425048828125,0.3187912404537201,0.003686369163915515,-0.37988588213920593
1774472077162453200,0.217453369140625,0.3316366970539093,-0.1525379717350006,-0.3121834993362427
1774472077172482000,0.22748193359375,0.3438398241996765,-0.3386351466178894,-0.22587896883487701
1774472077182510000,0.237510009765625,0.3539625406265259,-0.47707894444465637,-0.15035681426525116
1774472077192538000,0.2475380859375,0.3687657415866852,-0.5420187711715698,-0.11677729338407516
1774472077202566100,0.257566162109375,0.3751857578754425,-0.5596349239349365,-0.10114822536706924
1774472077212593400,0.267593505859375,0.3845699429512024,-0.5123323798179626,-0.11032068729400635
1774472077222622500,0.27762255859375,0.3941061794757843,-0.4247607886791229,-0.14194916188716888
1774472077232650200,0.287650146484375,0.407013475894928,-0.31756773591041565,-0.19032415747642517
1774472077242678500,0.297678466796875,0.4345994293689728,-0.1871914118528366,-0.2327577918767929
1774472077252706300,0.307706298828125,0.4646713137626648,-0.07315193116664886,-0.2596306800842285
1774472077262734300,0.317734375,0.48975732922554016,-0.03359416872262955,-0.2790084481239319
1774472077272763100,0.32776318359375,0.4988331198692322,-0.043753862380981445,-0.278219074010849
1774472077282791400,0.33779150390625,0.5114834904670715,-0.12464635819196701,-0.2559807002544403
1774472077292819200,0.347819091796875,0.51907879114151,-0.2471991777420044,-0.21614913642406464
1774472077302847500,0.357847412109375,0.5203755497932434,-0.38526663184165955,-0.1538727581501007
1774472077312876500,0.36787646484375,0.5154545307159424,-0.4913184940814972,-0.07839903235435486
1774472077322904300,0.377904296875,0.5138078331947327,-0.5128142833709717,-0.03376646712422371
1774472077332932400,0.387932373046875,0.5140155553817749,-0.44018828868865967,-0.028206851333379745
1774472077342960400,0.39796044921875,0.5251678824424744,-0.31264010071754456,-0.06736449897289276
1774472077352988200,0.40798828125,0.5327445864677429,-0.20263317227363586,-0.1282922923564911
1774472077363017200,0.418017333984375,0.5178391933441162,-0.16354095935821533,-0.21519024670124054
1774472077373045500,0.42804541015625,0.4760667085647583,-0.15003900229930878,-0.31843432784080505
1774472077383073300,0.4380732421875,0.4428147077560425,-0.10025977343320847,-0.39746537804603577
1774472077393101600,0.4481015625,0.4241291880607605,-0.03471458703279495,-0.4435727000236511
1774472077403130400,0.45813037109375,0.4170660674571991,-0.013765085488557816,-0.43127521872520447
1774472077413158400,0.468158447265625,0.41693344712257385,-0.07054580748081207,-0.35350319743156433
1774472077423186200,0.478186279296875,0.41629844903945923,-0.18890275061130524,-0.23984499275684357
1774472077433214500,0.48821435546875,0.4230136275291443,-0.3349617123603821,-0.11014771461486816
1774472077443242200,0.4982421875,0.4448474943637848,-0.450369268655777,0.009025901556015015
1774472077453271300,0.508271240234375,0.4724908173084259,-0.4938589632511139,0.11280742287635803
1774472077463299300,0.51829931640625,0.4970751106739044,-0.4644630551338196,0.18051175773143768
1774472077473327400,0.528327392578125,0.5169665217399597,-0.36609041690826416,0.21255330741405487
1774472077483355400,0.53835546875,0.5353924632072449,-0.218928262591362,0.2115623950958252
1774472077493383400,0.548383544921875,0.550855278968811,-0.06382522732019424,0.17989209294319153
1774472077503412200,0.558412109375,0.5552886724472046,0.07364383339881897,0.12810766696929932
1774472077513440300,0.568440185546875,0.5558434128761292,0.15099215507507324,0.07047285884618759
1774472077523468300,0.57846826171875,0.5492971539497375,0.16197027266025543,0.019013388082385063
1774472077533496300,0.588496337890625,0.5328614115715027,0.10641354322433472,-0.0054384260438382626
1774472077543525400,0.598525390625,0.5154297351837158,-0.0013729357160627842,-0.017815260216593742
1774472077553553400,0.608553466796875,0.5068128108978271,-0.1156904548406601,-0.03157554566860199
1774472077563581400,0.61858154296875,0.5004777908325195,-0.18816876411437988,-0.03519269824028015
1774472077573609500,0.628609375,0.49075883626937866,-0.2274080365896225,-0.033225953578948975
1774472077583637200,0.63863720703125,0.46700727939605713,-0.22800564765930176,-0.02879384346306324
1774472077593666300,0.648666259765625,0.4485110938549042,-0.15449413657188416,-0.019031494855880737
1774472077603694300,0.6586943359375,0.4369847774505615,-0.04479310289025307,-0.020836172625422478
1774472077613722400,0.668722412109375,0.4004177153110504,0.0713028758764267,-0.05047103017568588
1774472077623750400,0.67875048828125,0.3419818580150604,0.18622079491615295,-0.07593186944723129
1774472077633779200,0.688779296875,0.3023279011249542,0.3074350953102112,-0.07817451655864716
1774472077643807500,0.698807373046875,0.28154364228248596,0.3856104016304016,-0.06074263155460358
1774472077653835300,0.708835205078125,0.27288493514060974,0.39828330278396606,-0.015342657454311848
1774472077663863300,0.71886328125,0.2661767303943634,0.41537508368492126,0.05828888714313507
1774472077673891300,0.728891357421875,0.2590535581111908,0.5052679777145386,0.14072464406490326
1774472077683920400,0.73892041015625,0.24350546300411224,0.6444907188415527,0.20180799067020416
1774472077693948200,0.7489482421875,0.22752515971660614,0.8966886401176453,0.25518813729286194
1774472077703976400,0.7589765625,0.21069152653217316,1.436544418334961,0.2935704290866852
1774472077714004200,0.769004150390625,0.1978446990251541,2.1882832050323486,0.3239365816116333
1774472077724032500,0.779032470703125,0.19225822389125824,2.8688032627105713,0.330489844083786
1774472077734061300,0.789061279296875,0.17899595201015472,3.4151504039764404,0.33265578746795654
1774472077744089300,0.79908935546875,0.1330430805683136,3.836726188659668,0.39392396807670593
1774472077754117400,0.809117431640625,0.06083812564611435,4.027440547943115,0.5353857278823853
1774472077764145400,0.8191455078125,-0.004223408177495003,3.958531141281128,0.814923882484436
1774472077774174500,0.829174560546875,-0.08038023114204407,3.5957067012786865,1.2208565473556519
1774472077784202200,0.8392021484375,-0.19234393537044525,2.972801685333252,1.7013074159622192
1774472077794230500,0.84923046875,-0.3325263261795044,2.1827051639556885,2.251701593399048
1774472077804258300,0.85925830078125,-0.47842949628829956,1.2189825773239136,2.7711880207061768
1774472077814287400,0.869287353515625,-0.6202689409255981,0.3033532500267029,3.170682430267334
1774472077824315400,0.8793154296875,-0.7104342579841614,-0.27849987149238586,3.4522955417633057
1774472077834343400,0.889343505859375,-0.8071496486663818,-0.6606941223144531,3.526200294494629
1774472077844371200,0.89937109375,-0.8905595541000366,-1.2057476043701172,3.318530797958374
1774472077854399500,0.9093994140625,-0.9987155199050903,-1.2144473791122437,2.936870574951172
1774472077864428300,0.91942822265625,-1.0930497646331787,-0.6987833380699158,2.4613027572631836
1774472077874456300,0.929456298828125,-1.1363909244537354,0.11007431894540787,1.8987089395523071
1774472077884484400,0.939484375,-1.051552176475525,0.8855442404747009,1.2559587955474854
1774472077894512400,0.949512451171875,-0.9490050673484802,1.4836493730545044,0.5706034302711487
1774472077904540400,0.95954052734375,-0.8425881266593933,1.7499366998672485,-0.0010377205908298492
1774472077914569500,0.969569580078125,-0.7909507751464844,1.5043213367462158,-0.3910382091999054
1774472077924597200,0.97959716796875,-0.7146376967430115,0.6821061968803406,-0.549078106880188
1774472077934625300,0.989625244140625,-0.7662763595581055,-0.15690647065639496,-0.4956439435482025
1774472077944653300,0.9996533203125,-0.8350399136543274,-1.0900015830993652,-0.2311219722032547
1774472077954682400,1.009682373046875,-0.9575980305671692,-2.077223300933838,0.022288717329502106
1774472077964710100,1.019710205078125,-1.0610618591308594,-3.2110581398010254,0.15492497384548187
1774472077974738400,1.029738525390625,-1.1670693159103394,-4.29472541809082,0.14108426868915558
1774472077984766200,1.03976611328125,-1.2774523496627808,-5.027252197265625,-0.02132158726453781
1774472077994794500,1.04979443359375,-1.3122636079788208,-5.453827857971191,-0.2682879567146301
1774472078004823600,1.059823486328125,-1.269242286682129,-5.463058948516846,-0.6258108615875244
1774472078014851300,1.069851318359375,-1.1813610792160034,-5.004317283630371,-1.0855802297592163
1774472078024879400,1.07987939453125,-1.0674965381622314,-4.279898166656494,-1.5368518829345703
1774472078034907400,1.089907470703125,-0.8893042206764221,-3.2298994064331055,-1.8131316900253296
1774472078044936400,1.0999365234375,-0.6669214367866516,-1.8483490943908691,-1.8456934690475464
1774472078054964200,1.109964111328125,-0.4571314752101898,-0.8177712559700012,-1.736663579940796
1774472078064992500,1.119992431640625,-0.41350218653678894,-0.16513599455356598,-1.6437422037124634
1774472078075020300,1.130020263671875,-0.47827771306037903,0.0023595162201672792,-1.5167945623397827
1774472078085049300,1.14004931640625,-0.5931733250617981,-0.1488656997680664,-1.2732234001159668
1774472078095077400,1.150077392578125,-0.7141631245613098,-0.49599117040634155,-0.8864367604255676
1774472078105105400,1.16010546875,-0.8266657590866089,-0.8961759805679321,-0.4452826976776123
1774472078115133200,1.17013330078125,-0.8689810037612915,-1.1640342473983765,-0.008450760506093502
1774472078125161500,1.180161376953125,-0.765756368637085,-1.259133219718933,0.379664808511734
1774472078135190300,1.190190185546875,-0.5181886553764343,-1.1244257688522339,0.5973334908485413
1774472078145218300,1.20021826171875,-0.13021968305110931,-1.2144280672073364,0.6392104029655457
1774472078155246300,1.210246337890625,0.43568339943885803,-1.3204964399337769,0.5000937581062317
1774472078165274400,1.2202744140625,0.8729692697525024,-0.9047907590866089,0.1425597220659256
1774472078175303400,1.230303466796875,1.019763469696045,-0.23209017515182495,-0.2921491265296936
1774472078185331500,1.24033154296875,0.9412369132041931,0.36530107259750366,-0.68868488073349
1774472078195359500,1.250359375,0.8304571509361267,0.41614532470703125,-1.0129570960998535
1774472078205388500,1.260388427734375,0.7532089948654175,-0.2537810802459717,-1.2050483226776123
1774472078215416600,1.27041650390625,0.7124311923980713,-0.769173800945282,-1.2104109525680542
1774472078225445600,1.280445556640625,0.7588595747947693,-0.8600637912750244,-1.0680423974990845
1774472078235473700,1.2904736328125,0.876789927482605,-0.7904974818229675,-0.8493666052818298
1774472078245501700,1.300501708984375,0.9847729206085205,-0.6688669323921204,-0.6133391857147217
1774472078255529700,1.31052978515625,1.0509114265441895,-0.5510332584381104,-0.40093401074409485
1774472078265558800,1.320558837890625,1.1050224304199219,-0.39243194460868835,-0.22001245617866516
1774472078275586600,1.330586669921875,1.1210166215896606,-0.2905082404613495,-0.062096867710351944
1774472078285614800,1.34061474609375,1.0878123044967651,-0.28155437111854553,0.073635995388031
1774472078295642600,1.350642578125,1.0626131296157837,-0.3446630537509918,0.17492079734802246
1774472078305671700,1.360671630859375,1.0018815994262695,-0.37808507680892944,0.23231801390647888
1774472078315699500,1.370699462890625,0.9350040555000305,-0.3960350751876831,0.19492857158184052
1774472078325727700,1.380727783203125,0.8840756416320801,-0.3521590828895569,0.035135895013809204
1774472078335755500,1.390755615234375,0.8862277269363403,-0.24814344942569733,-0.1917574405670166
1774472078345783800,1.40078369140625,0.925335705280304,-0.0468374639749527,-0.41691404581069946
1774472078355812600,1.4108125,0.946779191493988,0.19093595445156097,-0.5715137720108032
1774472078365840600,1.420840576171875,0.9600979089736938,0.3743084669113159,-0.6626814603805542
1774472078375868700,1.43086865234375,0.9858887195587158,0.4289991557598114,-0.6846797466278076
1774472078385896700,1.440896728515625,1.0285531282424927,0.33977124094963074,-0.6353945136070251
1774472078395925800,1.45092578125,1.0678189992904663,0.1198551207780838,-0.5089161992073059
1774472078405953500,1.46095361328125,1.1347202062606812,-0.10058030486106873,-0.33773526549339294
1774472078415981600,1.470981689453125,1.2358473539352417,-0.23017264902591705,-0.17660628259181976
1774472078426009600,1.481009521484375,1.3193423748016357,-0.2791622281074524,-0.08560290932655334
1774472078436037600,1.49103759765625,1.391709804534912,-0.26640889048576355,-0.0889987051486969
1774472078446066700,1.501066650390625,1.4650582075119019,-0.2255888432264328,-0.1942320466041565
1774472078456094700,1.5110947265625,1.4628664255142212,-0.21155664324760437,-0.32446807622909546
1774472078466122800,1.521122802734375,1.4095810651779175,-0.33549246191978455,-0.49046701192855835
1774472078476150800,1.53115087890625,1.3588041067123413,-0.5795450210571289,-0.6876703500747681
1774472078486179600,1.5411796875,1.3982243537902832,-0.8230862021446228,-0.861052930355072
1774472078496207600,1.55120751953125,1.5450778007507324,-0.9544119834899902,-0.9624711275100708
1774472078506235600,1.561235595703125,1.6866871118545532,-0.8923745155334473,-0.9506325721740723
1774472078516263700,1.571263671875,1.74775230884552,-0.8198590874671936,-0.821179211139679
1774472078526292500,1.58129248046875,1.6973153352737427,-0.7623447179794312,-0.6245136260986328
1774472078536320800,1.59132080078125,1.5722205638885498,-0.6272585391998291,-0.426111102104187
1774472078546348500,1.6013486328125,1.4645366668701172,-0.5447568893432617,-0.27463626861572266
1774472078556376600,1.61137646484375,1.108094573020935,-0.5077559947967529,-0.24731995165348053
1774472078566405600,1.621405517578125,0.7714784145355225,-0.6327590346336365,-0.29324987530708313
1774472078576433700,1.63143359375,0.9095641374588013,-0.4680092930793762,-0.3016151487827301
1774472078586461400,1.64146142578125,1.0388574600219727,-0.41546300053596497,-0.38317763805389404
1774472078596489700,1.65148974609375,1.0504651069641113,-0.4211917221546173,-0.4183068573474884
1774472078606517500,1.661517578125,1.1036182641983032,-0.24711056053638458,-0.3589411973953247
1774472078616546600,1.671546630859375,1.1529717445373535,-0.1516237109899521,-0.28070390224456787
1774472078626574800,1.681574951171875,1.1488701105117798,-0.13017021119594574,-0.20700803399085999
1774472078636602600,1.6916025390625,1.0822266340255737,-0.10720338672399521,-0.1290338784456253
1774472078646630400,1.70163037109375,0.9818868637084961,-0.09747496992349625,-0.10422089695930481
1774472078656659700,1.71165966796875,0.8492110967636108,-0.18855854868888855,-0.19355371594429016
1774472078666687700,1.721687744140625,0.7460460662841797,-0.3297102451324463,-0.3029552400112152
1774472078676715500,1.731715576171875,0.6986774802207947,-0.2708863317966461,-0.3815770745277405
1774472078686743800,1.741743896484375,0.6966939568519592,-0.1241757869720459,-0.3524015545845032
1774472078696772600,1.751772705078125,0.6818071603775024,-0.043300118297338486,-0.25320255756378174
1774472078706800600,1.761800537109375,0.6858539581298828,0.02486334554851055,-0.13752615451812744
1774472078716829400,1.771829345703125,0.7161271572113037,0.08769423514604568,-0.03436648100614548
1774472078726857700,1.781857666015625,0.7212125658988953,0.18040776252746582,-0.002898705657571554
1774472078736885500,1.791885498046875,0.7429588437080383,0.2869272828102112,-0.06318015605211258
1774472078746913800,1.801913818359375,0.7792602777481079,0.3758961856365204,-0.2270950824022293
1774472078756942800,1.81194287109375,0.8051368594169617,0.4255217909812927,-0.4351968765258789
1774472078766970600,1.821970703125,0.8192041516304016,0.41175979375839233,-0.5953345894813538
1774472078776998700,1.83199853515625,0.7813166379928589,0.30658408999443054,-0.6830175518989563
1774472078787026700,1.842026611328125,0.7101500630378723,0.030802220106124878,-0.7381561994552612
1774472078797054500,1.852054443359375,0.6712074875831604,-0.2864721417427063,-0.7624708414077759
1774472078807083500,1.86208349609375,0.6736201643943787,-0.5167464017868042,-0.7611300945281982
1774472078817111800,1.87211181640625,0.6850571036338806,-0.720826268196106,-0.7196587920188904
1774472078827139600,1.8821396484375,0.6333307027816772,-0.8377888202667236,-0.6360516548156738
1774472078837167600,1.892167724609375,0.5411064624786377,-0.8196292519569397,-0.5419275164604187
1774472078847196700,1.90219677734375,0.4577733874320984,-0.7019040584564209,-0.49335557222366333
1774472078857224700,1.912224609375,0.38189834356307983,-0.4813399910926819,-0.4925598204135895
1774472078867252500,1.92225244140625,0.3312694728374481,-0.26503491401672363,-0.5612190365791321
1774472078877280800,1.93228076171875,0.2771018147468567,-0.13393254578113556,-0.6493396162986755
1774472078887309600,1.9423095703125,0.21852797269821167,-0.1658693253993988,-0.7676365971565247
1774472078897337600,1.952337646484375,0.18724915385246277,-0.214573472738266,-0.8560684323310852
1774472078907365600,1.96236572265625,0.2298751175403595,-0.1979096680879593,-0.829036295413971
1774472078917393700,1.9723935546875,0.32493293285369873,-0.20019519329071045,-0.7434558868408203
1774472078927422700,1.982422607421875,0.47220781445503235,0.040757838636636734,-0.5542196035385132
1774472078937450800,1.99245068359375,0.5959981679916382,0.3716154098510742,-0.30024483799934387
1774472078947478500,2.002478515625,0.6137148141860962,0.5966413617134094,-0.00043966248631477356
1774472078957506600,2.012506591796875,0.6457904577255249,0.7537814378738403,0.27200037240982056
1774472078967535600,2.02253564453125,0.6694547533988953,0.8179957270622253,0.510371744632721
1774472078977563600,2.032563720703125,0.6451118588447571,0.7049932479858398,0.7104310393333435
1774472078987591700,2.042591796875,0.6063184142112732,0.5043482184410095,0.8377622961997986
1774472078997619700,2.05261962890625,0.5908374786376953,0.2676278352737427,0.8764801621437073
1774472079007647700,2.062647705078125,0.611876904964447,0.06968753784894943,0.8063195943832397
1774472079017676500,2.072676513671875,0.6411503553390503,-0.03393153101205826,0.668823778629303
1774472079027704800,2.082704833984375,0.6816778182983398,-0.10525472462177277,0.4832228422164917
1774472079037732600,2.092732666015625,0.7176080942153931,-0.17960326373577118,0.2595556676387787
1774472079047760600,2.1027607421875,0.7312919497489929,-0.2006242424249649,0.07075107842683792
1774472079057789400,2.11278955078125,0.6749016642570496,-0.30907243490219116,-0.053425464779138565
1774472079067817700,2.122817626953125,0.5731234550476074,-0.5203070640563965,-0.09467516094446182
1774472079077845500,2.132845458984375,0.48248788714408875,-0.6409860849380493,-0.08105842024087906
1774472079087873800,2.142873779296875,0.49446436762809753,-0.7215970754623413,-0.006489377468824387
1774472079097902600,2.152902587890625,0.4897766709327698,-0.6872146129608154,0.09026885777711868
1774472079107930600,2.1629306640625,0.47654110193252563,-0.7623180747032166,0.190102681517601
1774472079117958700,2.172958740234375,0.47861623764038086,-0.8204487562179565,0.2965569496154785
1774472079127986700,2.182986572265625,0.47854694724082947,-0.8866499662399292,0.37433871626853943
1774472079138015700,2.193015625,0.4665033221244812,-0.9669714570045471,0.4113715887069702
1774472079148043500,2.20304345703125,0.42469093203544617,-1.0144582986831665,0.40914830565452576
1774472079158071800,2.21307177734375,0.379241406917572,-0.9381023645401001,0.36234909296035767
1774472079168099600,2.223099609375,0.30502933263778687,-0.947459876537323,0.30943435430526733
1774472079178128600,2.233128662109375,0.19489401578903198,-1.030639410018921,0.240883007645607
1774472079188156700,2.24315673828125,0.0648014098405838,-1.0249767303466797,0.20188358426094055
1774472079198184700,2.253184814453125,-0.06198130175471306,-0.9092516899108887,0.19278621673583984
1774472079208211500,2.26321142578125,-0.14774301648139954,-0.6205207705497742,0.20932191610336304
1774472079218239500,2.273239501953125,-0.19165533781051636,-0.27481478452682495,0.25880318880081177
1774472079228268300,2.283268310546875,-0.18819929659366608,-0.025185514241456985,0.35006949305534363
1774472079238296600,2.293296630859375,-0.18423065543174744,-0.002405900973826647,0.5542207956314087
1774472079248324400,2.303324462890625,-0.1221240982413292,-0.04066208750009537,0.8289439082145691
1774472079258352600,2.3133525390625,0.005513224750757217,0.026311885565519333,1.112673044204712
1774472079268381700,2.323381591796875,0.09235814958810806,0.01750950887799263,1.3337287902832031
1774472079278409500,2.333409423828125,0.09715130180120468,0.04725222289562225,1.4317575693130493
1774472079288437200,2.343437255859375,-0.013346236199140549,0.1914135366678238,1.3460510969161987
1774472079298465500,2.353465576171875,-0.1512335240840912,0.35368019342422485,0.9940563440322876
1774472079308494600,2.36349462890625,-0.2797633111476898,0.5476993918418884,0.4399005174636841
1774472079318522400,2.3735224609375,-0.3759241998195648,0.5979743003845215,-0.14354905486106873
1774472079328550700,2.383550537109375,-0.4193039834499359,0.5488264560699463,-0.5724268555641174
1774472079338578400,2.393578369140625,-0.3124374747276306,0.5631742477416992,-0.8098090291023254
1774472079348607500,2.403607421875,-0.0620560422539711,0.6366919875144958,-0.8057514429092407
1774472079358635500,2.413635498046875,0.20524649322032928,0.6002306938171387,-0.6333136558532715
1774472079368663600,2.42366357421875,0.49724146723747253,0.7033500671386719,-0.4131244719028473
1774472079378691300,2.43369140625,0.6630703806877136,0.901190459728241,-0.12344525754451752
1774472079388720600,2.443720703125,0.663040041923523,0.7523689866065979,0.32449620962142944
1774472079398748400,2.45374853515625,0.6005638837814331,0.05211957171559334,0.8100322484970093
1774472079408776400,2.4637763671875,0.5987826585769653,-0.4691460132598877,1.0635547637939453
1774472079418804500,2.473804443359375,0.6207151412963867,-0.5855488181114197,1.0408127307891846
1774472079428833500,2.48383349609375,0.5788979530334473,-0.37651440501213074,0.8062854409217834
1774472079438861300,2.493861328125,0.4381149709224701,-0.0680532306432724,0.5569297075271606
1774472079448889600,2.5038896484375,0.22029563784599304,0.1824643462896347,0.27563977241516113
1774472079458917400,2.51391748046875,0.07047126442193985,0.4647887349128723,-0.04774147644639015
1774472079468946400,2.523946533203125,-0.05008312314748764,0.6941749453544617,-0.3112098276615143
1774472079478974500,2.533974365234375,-0.18407447636127472,0.7370651364326477,-0.4312571585178375
1774472079489002500,2.54400244140625,-0.2921563982963562,0.5241410732269287,-0.45622777938842773
1774472079499030500,2.554030517578125,-0.35046523809432983,0.19358950853347778,-0.45951491594314575
1774472079509059300,2.564059326171875,-0.2951403558254242,0.07087056338787079,-0.4021203815937042
1774472079519087600,2.574087646484375,-0.1844625622034073,0.02912311814725399,-0.3155418336391449
1774472079529115400,2.584115478515625,-0.02393750101327896,-0.033475033938884735,-0.2678467333316803
1774472079539143700,2.594143798828125,0.1277039498090744,-0.1738864779472351,-0.25518497824668884
1774472079549172500,2.60417236328125,0.20877204835414886,-0.4997255504131317,-0.3002627491950989
1774472079559200500,2.614200439453125,0.1123773381114006,-0.9350817799568176,-0.3743939697742462
1774472079569228300,2.624228271484375,-0.023475272580981255,-1.1476874351501465,-0.5088496208190918
1774472079579256600,2.634256591796875,-0.07021801173686981,-1.169424057006836,-0.7333524823188782
1774472079589285400,2.644285400390625,-0.04076084494590759,-1.0422461032867432,-0.9657387733459473
1774472079599313400,2.6543134765625,0.03330698981881142,-0.5770941376686096,-1.1046266555786133
1774472079609341400,2.664341552734375,0.15018628537654877,-0.29036441445350647,-1.1215510368347168
1774472079619369500,2.674369384765625,0.46401530504226685,-0.30415159463882446,-1.0285917520523071
1774472079629398500,2.6843984375,0.8340292572975159,-0.376700758934021,-0.7520574331283569
1774472079639426600,2.694426513671875,1.0573382377624512,-0.7929000854492188,-0.2924131155014038
1774472079649454600,2.70445458984375,1.0439889430999756,-1.2691072225570679,0.32026657462120056
1774472079659482400,2.714482421875,0.8301326036453247,-1.3041150569915771,0.9694956541061401
1774472079669511700,2.72451171875,0.5529181957244873,-1.0690096616744995,1.4669121503829956
1774472079679539500,2.73453955078125,0.3178074061870575,-0.8877959251403809,1.6880253553390503
1774472079689567500,2.7445673828125,0.1240873634815216,-0.7059844732284546,1.647226095199585
1774472079699595500,2.754595458984375,0.06146739795804024,-0.4188240170478821,1.3039900064468384
1774472079709624600,2.76462451171875,0.20090237259864807,-0.15916168689727783,0.8839078545570374
1774472079719652400,2.77465234375,0.44932761788368225,-0.16908356547355652,0.5564677119255066
1774472079729680600,2.7846806640625,0.720857560634613,-0.4295051395893097,0.3312983512878418
1774472079739708400,2.79470849609375,0.911309540271759,-0.4640982449054718,0.07024011760950089
1774472079749737500,2.804737548828125,0.9670006036758423,-1.0670480728149414,-0.15724483132362366
1774472079759765500,2.814765625,0.858303964138031,-1.5964847803115845,-0.247064471244812
1774472079769793500,2.82479345703125,0.5913986563682556,-1.3576337099075317,-0.1859874576330185
1774472079779821300,2.8348212890625,0.24098096787929535,-0.6728639602661133,0.05238570272922516
1774472079789849600,2.844849609375,-0.10532598942518234,-0.13901719450950623,0.4019821882247925
1774472079799878400,2.85487841796875,-0.4802740514278412,0.17966917157173157,0.8047381639480591
1774472079809906400,2.864906494140625,-0.8948636054992676,0.4120577275753021,1.251207947731018
1774472079819934500,2.8749345703125,-1.3403369188308716,0.5590649843215942,1.6800371408462524
1774472079829963500,2.884963623046875,-1.682856798171997,0.5397632122039795,2.0496773719787598
1774472079839991600,2.894991455078125,-1.8379478454589844,0.5030651092529297,2.262716770172119
1774472079850019300,2.905019287109375,-1.8037359714508057,0.7194831371307373,2.3192574977874756
1774472079860047600,2.915047607421875,-1.6846261024475098,0.9595708250999451,2.411217212677002
1774472079870075400,2.925075439453125,-1.4469910860061646,1.2408894300460815,2.5564627647399902
1774472079880104400,2.9351044921875,-1.0869836807250977,1.7255314588546753,2.7598838806152344
1774472079890132500,2.945132568359375,-0.6026478409767151,2.1028053760528564,2.9554264545440674
1774472079900160500,2.955160400390625,0.02449946291744709,2.2241933345794678,3.0904533863067627
1774472079910189300,2.965189208984375,0.7414022088050842,2.312234878540039,3.1789751052856445
1774472079920217600,2.975217529296875,1.4557247161865234,2.3133533000946045,3.206602096557617
1774472079930245400,2.985245361328125,2.0628042221069336,2.1337833404541016,3.1699018478393555
1774472079940273400,2.9952734375,2.5062999725341797,1.6722205877304077,3.090165615081787
1774472079950302500,3.005302490234375,2.7388229370117188,1.3693490028381348,3.037518262863159
1774472079960330500,3.01533056640625,2.7594828605651855,1.4244731664657593,3.0605549812316895
1774472079970358300,3.025358154296875,2.5941545963287354,1.4793723821640015,3.097745895385742
1774472079980386600,3.035386474609375,2.276350736618042,1.3349658250808716,3.107043981552124
1774472079990415600,3.04541552734375,1.843133568763733,1.0612890720367432,3.1105539798736572
1774472080000443400,3.055443359375,1.392634630203247,0.6368674039840698,3.0929105281829834
1774472080010471700,3.0654716796875,0.980097770690918,0.11847180873155594,3.0240285396575928
1774472080020499500,3.07549951171875,0.6199931502342224,-0.13716155290603638,2.791553497314453
1774472080030528500,3.085528564453125,0.33417806029319763,-0.15023250877857208,2.320495843887329
1774472080040556500,3.095556640625,0.12370260804891586,0.41119542717933655,1.6141974925994873
1774472080050584600,3.10558447265625,0.06381982564926147,0.9672535061836243,0.7204577326774597
1774472080060612400,3.1156123046875,0.10251155495643616,1.6255102157592773,-0.15497790277004242
1774472080070641400,3.125641357421875,0.18242794275283813,2.144606113433838,-0.9006488919258118
1774472080080669400,3.13566943359375,0.23227459192276,2.7736241817474365,-1.4718588590621948
1774472080090697500,3.145697509765625,0.15340863168239594,2.992238759994507,-1.8090044260025024
1774472080100725500,3.1557255859375,-0.09305122494697571,2.726099729537964,-1.8012416362762451
1774472080110754600,3.165754638671875,-0.40131327509880066,2.2461345195770264,-1.5248507261276245
1774472080120782300,3.1757822265625,-0.6926860213279724,1.893412470817566,-1.0994023084640503
1774472080130810600,3.185810546875,-0.9163627624511719,1.810350775718689,-0.6388669610023499
1774472080140838400,3.19583837890625,-1.040480375289917,1.6112674474716187,-0.17581863701343536
1774472080150867500,3.205867431640625,-1.1004893779754639,1.3404520750045776,0.3109978139400482
1774472080160895500,3.2158955078125,-1.0929020643234253,1.2834091186523438,0.835869312286377
1774472080170923500,3.225923583984375,-1.0042598247528076,1.4238135814666748,1.3767344951629639
1774472080180951600,3.23595166015625,-0.8534221053123474,1.599855899810791,1.8928375244140625
1774472080190980400,3.24598046875,-0.6656865477561951,1.6665077209472656,2.3756704330444336
1774472080201008600,3.256008544921875,-0.5002927780151367,1.7720410823822021,2.8481264114379883
1774472080211040500,3.26604052734375,-0.3877668082714081,1.9549351930618286,3.2439639568328857
1774472080221068500,3.276068603515625,-0.2978161573410034,2.094080924987793,3.5652077198028564
1774472080231097300,3.286097412109375,-0.1969107985496521,2.1645405292510986,3.7550926208496094
1774472080241125600,3.296125732421875,-0.006234596483409405,2.1339542865753174,3.729989767074585
1774472080251153400,3.3061533203125,0.18945102393627167,1.9548325538635254,3.532008409500122
1774472080261181700,3.316181640625,0.35725998878479004,1.6757625341415405,3.1922523975372314
1774472080271210500,3.32621044921875,0.5122969150543213,1.3300514221191406,2.718090534210205
1774472080281238500,3.336238525390625,0.6380439400672913,0.8536896109580994,2.1293413639068604
1774472080291266600,3.3462666015625,0.6525155901908875,0.5260447263717651,1.5385727882385254
1774472080301294600,3.356294677734375,0.5856659412384033,0.24857686460018158,0.9512582421302795
1774472080311323400,3.366323486328125,0.5072211623191833,0.011607823893427849,0.5033204555511475
1774472080321351400,3.376351318359375,0.4175996780395508,-0.2013220191001892,0.30861061811447144
1774472080331379500,3.38637939453125,0.38765791058540344,-0.14879456162452698,0.29045870900154114
1774472080341407500,3.396407470703125,0.4516321122646332,0.10787398368120193,0.2247401475906372
1774472080351436500,3.4064365234375,0.27748793363571167,0.1320764422416687,0.10454844683408737
1774472080361464600,3.416464599609375,0.21456356346607208,-0.01841266080737114,0.024244286119937897
1774472080371492600,3.42649267578125,0.2275673896074295,-0.00009689154103398323,-0.08318722248077393
1774472080381520400,3.436520263671875,0.34948956966400146,0.01858624815940857,-0.10724276304244995
1774472080391549700,3.4465498046875,0.46724942326545715,-0.07044615596532822,-0.04759342968463898
1774472080401577500,3.456577392578125,0.5422301888465881,-0.1136452928185463,0.08274806290864944
1774472080411605500,3.46660546875,0.5408576726913452,-0.09224630147218704,0.1978578120470047
1774472080421633500,3.476633544921875,0.5337451696395874,-0.09004572778940201,0.21349190175533295
1774472080431662600,3.48666259765625,0.6048997640609741,-0.05709154158830643,0.10559658706188202
1774472080441690400,3.4966904296875,0.6748120188713074,-0.05258600413799286,-0.08350595831871033
1774472080451718700,3.50671875,0.7460216879844666,-0.13238748908042908,-0.442294180393219
1774472080461746400,3.516746337890625,0.8179931044578552,-0.1591666340827942,-0.9375465512275696
1774472080471775500,3.526775390625,0.8566356301307678,-0.08277617394924164,-1.5196682214736938
1774472080481803500,3.536803466796875,0.8628320097923279,-0.2412739396095276,-1.9111264944076538
1774472080491831600,3.54683154296875,0.8981476426124573,-0.28591984510421753,-2.2797954082489014
1774472080501859300,3.556859375,0.8199652433395386,-0.25816091895103455,-2.596027135848999
1774472080511888400,3.566888427734375,0.7008795738220215,-0.4032527506351471,-2.6286213397979736
1774472080521916700,3.576916748046875,0.6099512577056885,-0.5329673290252686,-2.528280019760132
1774472080531944400,3.5869443359375,0.487105131149292,-0.4435390532016754,-2.3902804851531982
1774472080541972700,3.59697265625,0.30222928524017334,-0.35383421182632446,-2.1772894859313965
1774472080552001500,3.60700146484375,0.07142722606658936,-0.46586939692497253,-1.8205444812774658
1774472080562029600,3.617029541015625,-0.14754639565944672,-0.48872411251068115,-1.3536752462387085
1774472080572057600,3.6270576171875,-0.3199639320373535,-0.49492043256759644,-0.7570355534553528
1774472080582085600,3.637085693359375,-0.3187521696090698,-0.3964247703552246,-0.14556124806404114
1774472080592114400,3.647114501953125,-0.24528178572654724,-0.37912827730178833,0.3049095571041107
1774472080602142500,3.657142578125,-0.11857709288597107,-0.31394049525260925,0.3091021776199341
1774472080612170500,3.66717041015625,0.045802824199199677,-0.2703995704650879,0.08546026051044464
1774472080622198500,3.677198486328125,0.18285760283470154,-0.08458071202039719,-0.3541754186153412
1774472080632227300,3.687227294921875,0.3588216304779053,0.0356932133436203,-0.8051472902297974
1774472080642255600,3.697255615234375,0.4650159776210785,-0.08695521205663681,-1.038733720779419
1774472080652283400,3.707283447265625,0.46840614080429077,-0.24495765566825867,-0.9960480332374573
1774472080662312400,3.7173125,0.43136903643608093,-0.30920109152793884,-0.7958438396453857
1774472080672340700,3.7273408203125,0.345425009727478,-0.2943093180656433,-0.616317868232727
1774472080682368500,3.737368408203125,0.24932217597961426,-0.3498290479183197,-0.35318660736083984
1774472080692396300,3.747396240234375,0.10026011615991592,-0.3295167088508606,-0.005767544731497765
1774472080702425600,3.757425537109375,-0.12357590347528458,-0.2590441405773163,0.3400295376777649
1774472080712453600,3.76745361328125,-0.3529953360557556,-0.2258657068014145,0.5801724791526794
1774472080722481400,3.7774814453125,-0.5076419115066528,-0.13962936401367188,0.6734504699707031
1774472080732509700,3.787509765625,-0.5298335552215576,-0.020284378901124,0.6654068827629089
1774472080742538500,3.79753857421875,-0.4677552878856659,-0.043357208371162415,0.5621212720870972
1774472080752566500,3.80756640625,-0.3547503650188446,-0.26138269901275635,0.3613434433937073
1774472080762594600,3.817594482421875,-0.04930443316698074,-0.259915828704834,0.01642388105392456
1774472080772622600,3.82762255859375,0.24035196006298065,-0.09085562825202942,-0.33578333258628845
1774472080782651400,3.8376513671875,0.34413427114486694,-0.1357075273990631,-0.42475688457489014
1774472080792679400,3.847679443359375,0.31537532806396484,-0.3177565634250641,-0.14207687973976135
1774472080802707500,3.85770751953125,0.3291374742984772,-0.3076266944408417,0.3200412094593048
1774472080812735500,3.867735595703125,0.31394538283348083,-0.19681692123413086,0.7125162482261658
1774472080822764500,3.8777646484375,0.3100864589214325,-0.22871573269367218,0.976920485496521
1774472080832792600,3.88779248046875,0.3956305980682373,-0.18443766236305237,1.074533224105835
1774472080842820400,3.8978203125,0.3728477954864502,-0.054902300238609314,1.049128532409668
1774472080852848600,3.9078486328125,0.1344584971666336,0.066843681037426,0.964624285697937
1774472080862877700,3.917877685546875,-0.5010228157043457,0.7999040484428406,1.1395004987716675
1774472080872905500,3.927905517578125,-0.9602726697921753,0.08257685601711273,1.526085615158081
1774472080882933500,3.93793359375,-0.8229305148124695,-0.21134717762470245,1.67831289768219
1774472080892961500,3.94796142578125,-0.5799283981323242,-0.2783176004886627,1.7691868543624878
1774472080902990600,3.957990478515625,-0.4824809432029724,-0.6003813743591309,1.944891333580017
1774472080913018400,3.968018310546875,-0.5159780979156494,-0.890387773513794,2.190234422683716
1774472080923046700,3.978046630859375,-0.5166242122650146,-0.8109390139579773,2.362797737121582
1774472080933074400,3.988074462890625,-0.393675297498703,-0.7616623640060425,2.5223066806793213
1774472080943103500,3.998103515625,-0.14397092163562775,-0.7319716215133667,2.7130420207977295
1774472080953131500,4.008131591796875,0.16157826781272888,-0.6968265175819397,2.8819985389709473
1774472080963159600,4.01815966796875,0.4842492640018463,-0.6706244349479675,3.055044174194336
1774472080973188400,4.028188232421875,0.7842790484428406,-0.6828027367591858,3.1902613639831543
1774472080983216600,4.038216552734375,1.0973150730133057,-0.7833839654922485,3.305401086807251
1774472080993244400,4.048244384765625,1.429716944694519,-0.8299360871315002,3.3445982933044434
1774472081003272400,4.0582724609375,1.7410775423049927,-0.9005497694015503,3.3344502449035645
1774472081013301500,4.068301513671875,2.0715816020965576,-1.025993824005127,3.3174681663513184
1774472081023329500,4.07832958984375,2.276261568069458,-0.995445191860199,3.317626476287842
1774472081033357600,4.088357666015625,2.3340108394622803,-1.0447025299072266,3.306178331375122
1774472081043385600,4.098385498046875,2.2694551944732666,-0.9465617537498474,2.9855682849884033
1774472081053414700,4.10841455078125,1.9281033277511597,-1.5676151514053345,2.8016974925994873
1774472081063442400,4.1184423828125,1.5150725841522217,-1.5768675804138184,2.618546962738037
1774472081073470700,4.128470703125,0.7171869277954102,-1.6497621536254883,2.040410280227661
1774472081083498500,4.13849853515625,0.2771674692630768,-1.6313745975494385,1.3961440324783325
1774472081093527600,4.148527587890625,0.16441859304904938,-1.0997321605682373,0.6040036678314209
1774472081103555300,4.158555419921875,0.21620109677314758,-0.8811055421829224,-0.10256040096282959
1774472081113583600,4.16858349609375,0.2199121117591858,-1.4022036790847778,-0.4809563457965851
1774472081123611400,4.178611328125,0.2094421684741974,-2.4594194889068604,-0.4408283829689026
1774472081133640400,4.188640380859375,0.15449967980384827,-3.126858949661255,-0.11658596992492676
1774472081143668500,4.19866845703125,0.05690734460949898,-3.0828216075897217,0.3709205985069275
1774472081153696500,4.208696533203125,0.05262105166912079,-2.7222397327423096,0.9817758202552795
1774472081163725600,4.2187255859375,0.208369642496109,-2.361382484436035,1.4859797954559326
1774472081173753600,4.228753662109375,0.5720507502555847,-1.919763445854187,1.8160847425460815
1774472081183781600,4.23878173828125,1.019808292388916,-1.6380794048309326,1.9516454935073853
1774472081193809400,4.248809326171875,1.4652161598205566,-1.6778299808502197,2.0063493251800537
1774472081203838500,4.25883837890625,1.8622602224349976,-1.7887123823165894,2.0431299209594727
1774472081213866000,4.268865966796875,2.166311740875244,-1.9433228969573975,2.0049331188201904
1774472081223894000,4.27889404296875,2.2912511825561523,-2.0722200870513916,1.7962632179260254
1774472081233922000,4.288922119140625,2.094658136367798,-2.3490891456604004,1.3786234855651855
1774472081243951000,4.298951171875,1.7167829275131226,-2.637958288192749,0.9357850551605225
1774472081253979000,4.308978759765625,1.3391480445861816,-2.6509644985198975,0.6634247303009033
1774472081264007200,4.319007080078125,1.000946044921875,-2.242048501968384,0.5930514931678772
1774472081274035000,4.329034912109375,0.5117129683494568,-2.322312355041504,0.4943927526473999
1774472081284064000,4.33906396484375,0.15759852528572083,-2.461322546005249,0.2037707269191742
1774472081294092000,4.349092041015625,-0.05371524393558502,-2.272460699081421,-0.2893002927303314
1774472081304120000,4.3591201171875,-0.12174276262521744,-2.0008022785186768,-0.745903491973877
1774472081314147800,4.36914794921875,-0.09519952535629272,-1.9120410680770874,-0.8479981422424316
1774472081324177200,4.37917724609375,-0.044169891625642776,-1.951006531715393,-0.5743069648742676
1774472081334205000,4.389204833984375,0.18263813853263855,-1.9938048124313354,-0.1994422823190689
1774472081344233000,4.39923291015625,0.41295096278190613,-2.015866279602051,0.06418962776660919
1774472081354262000,4.409261962890625,0.5246244668960571,-1.9086796045303345,0.10796169936656952
1774472081364290000,4.4192900390625,0.6705396175384521,-1.7258964776992798,0.042705729603767395
1774472081374318000,4.429318115234375,0.8322892785072327,-1.5903161764144897,0.08693904429674149
1774472081384346000,4.43934619140625,0.9946081638336182,-1.5234787464141846,0.2483511120080948
1774472081394375200,4.449375244140625,1.080018162727356,-1.5387800931930542,0.5582897067070007
1774472081404403000,4.45940283203125,1.2350682020187378,-1.6287987232208252,0.8951169848442078
1774472081414431000,4.469430908203125,1.4855164289474487,-1.6421679258346558,1.1180037260055542
1774472081424459000,4.479458984375,1.7439368963241577,-1.586322546005249,1.233084797859192
1774472081434488000,4.489488037109375,1.976083755493164,-1.5194404125213623,1.2364550828933716
1774472081444515800,4.499515869140625,2.1302969455718994,-1.343646764755249,0.9703397750854492
1774472081454544100,4.509544189453125,2.0394608974456787,-1.2936197519302368,0.6527731418609619
1774472081464572000,4.519572021484375,2.0606329441070557,-1.242490530014038,0.9352067112922668
1774472081474601000,4.52960107421875,2.182013750076294,-1.3230732679367065,1.1439813375473022
1774472081484629000,4.53962890625,2.3733463287353516,-1.3857007026672363,1.154005765914917
1774472081494657000,4.549656982421875,2.0272057056427,-1.4656729698181152,1.2003495693206787
1774472081504686000,4.55968603515625,1.5415095090866089,-1.4639523029327393,1.131726622581482
1774472081514714000,4.569714111328125,1.1919256448745728,-1.4698206186294556,0.7912875413894653
1774472081524742100,4.5797421875,1.0326781272888184,-1.3681970834732056,0.47013476490974426
1774472081534770000,4.58977001953125,1.2000175714492798,-1.0972295999526978,0.28013718128204346
1774472081544799000,4.599799072265625,1.4546751976013184,-0.896148145198822,0.2260718047618866
1774472081554827000,4.609826904296875,1.6022320985794067,-0.7604969143867493,0.189113050699234
1774472081564855000,4.61985498046875,1.5849391222000122,-0.6099827885627747,0.08728761225938797
1774472081574883000,4.629883056640625,1.5220400094985962,-0.3957858383655548,-0.2027871012687683
1774472081584912100,4.639912109375,1.4091118574142456,-0.05524984002113342,-0.626007080078125
1774472081594940000,4.64993994140625,1.1111218929290771,0.28089168667793274,-0.929503321647644
1774472081604968200,4.65996826171875,0.7604764699935913,0.42414018511772156,-0.8572789430618286
1774472081614996000,4.669995849609375,0.6211946606636047,0.36666548252105713,-0.7426990270614624
1774472081625025000,4.68002490234375,0.7346796989440918,0.03913740813732147,-0.707978367805481
1774472081635052800,4.690052734375,0.9970934391021729,-0.4296131730079651,-0.5087456107139587
1774472081645081000,4.7000810546875,1.2997875213623047,-0.756122350692749,-0.265193372964859
1774472081655110100,4.710110107421875,1.5131492614746094,-0.8420032858848572,-0.16751912236213684
1774472081665138000,4.720137939453125,1.460642695426941,-0.7567384243011475,-0.08303672820329666
1774472081675166200,4.730166259765625,1.3762370347976685,-0.5830164551734924,-0.03814780339598656
1774472081685194000,4.740194091796875,1.1821602582931519,-0.4695031940937042,-0.05343381687998772
1774472081695223000,4.75022314453125,0.8013467788696289,-0.47245529294013977,-0.16121873259544373
1774472081705251000,4.7602509765625,0.39982518553733826,-0.5376867651939392,-0.3068489134311676
1774472081715279000,4.770279052734375,0.13035714626312256,-0.49167928099632263,-0.3477257192134857
1774472081725307000,4.780306884765625,0.07594529539346695,-0.5254910588264465,-0.3464074730873108
1774472081735336200,4.790336181640625,0.25839942693710327,-0.4906561076641083,-0.3401734232902527
1774472081745364000,4.800364013671875,0.5468727946281433,-0.35934603214263916,-0.4375114142894745
1774472081755392000,4.81039208984375,0.7848449349403381,-0.15470470488071442,-0.6051313877105713
1774472081765420000,4.820419921875,0.9914620518684387,0.0674188956618309,-0.6850928068161011
1774472081775449000,4.830448974609375,1.080532193183899,0.30877619981765747,-0.7572872638702393
1774472081785476900,4.840476806640625,0.9259292483329773,0.5310582518577576,-0.9724746346473694
1774472081795505200,4.850505126953125,0.6394990682601929,0.752820611000061,-1.05026113986969
1774472081805534200,4.8605341796875,0.3148312270641327,0.9385643601417542,-0.8505299091339111
1774472081815562000,4.87056201171875,0.17359815537929535,1.0273555517196655,-0.7152045369148254
1774472081825590000,4.880590087890625,0.2204468846321106,1.1430014371871948,-0.835385262966156
1774472081835618000,4.8906181640625,0.3443339765071869,1.3926161527633667,-0.9856951236724854
1774472081845647000,4.900647216796875,0.4446864128112793,1.7575515508651733,-1.1851807832717896
1774472081855675000,4.9106748046875,0.47801706194877625,1.9889761209487915,-1.5060633420944214
1774472081865703200,4.920703125,0.4759451448917389,2.242356061935425,-1.8228615522384644
1774472081875731000,4.93073095703125,0.44379034638404846,2.4587602615356445,-2.0752480030059814
1774472081885760000,4.940760009765625,0.37818843126296997,2.5646634101867676,-2.206141710281372
1774472081895788000,4.9507880859375,0.3329191505908966,2.4990651607513428,-2.1627235412597656
1774472081905816000,4.960816162109375,0.3283925950527191,2.553149461746216,-2.110163688659668
1774472081915843800,4.97084375,-0.09193744510412216,2.3938655853271484,-1.7245382070541382
1774472081925873200,4.980873046875,-0.37544211745262146,2.1448628902435303,-1.3220988512039185
1774472081935901000,4.99090087890625,-0.36860546469688416,1.6941707134246826,-1.0874875783920288
1774472081945929000,5.000928955078125,-0.030862316489219666,1.2630680799484253,-0.9175071120262146
1774472081955958000,5.0109580078125,0.5363995432853699,1.0227344036102295,-0.8271888494491577
1774472081965986000,5.020986083984375,1.1511503458023071,0.7358542084693909,-0.8209205865859985
1774472081976014000,5.03101416015625,1.6932605504989624,0.4795566201210022,-0.8641977906227112
1774472081986042000,5.0410419921875,2.0825188159942627,0.3392333388328552,-0.9259439706802368
1774472081996071200,5.0510712890625,2.346884250640869,0.20703905820846558,-1.0442698001861572
1774472082006099000,5.061098876953125,2.6008386611938477,0.14918401837348938,-1.3127142190933228
1774472082016127200,5.071127197265625,2.658536672592163,0.2246338278055191,-1.6121684312820435
1774472082026155000,5.081155029296875,2.3227202892303467,0.39912495017051697,-1.8513195514678955
1774472082036184000,5.09118408203125,1.8287866115570068,0.5970425009727478,-2.019498825073242
1774472082046211800,5.1012119140625,1.390691876411438,1.019897699356079,-1.9993807077407837
1774472082056240000,5.111240234375,1.0429881811141968,1.5033570528030396,-1.786081314086914
1774472082066268000,5.121267822265625,0.6672140955924988,1.7959563732147217,-1.6278817653656006
1774472082076297000,5.131296875,0.14661742746829987,1.8425805568695068,-1.8027443885803223
1774472082086325000,5.141324951171875,-0.29249387979507446,1.947153091430664,-2.1082022190093994
1774472082096353000,5.15135302734375,-0.5522335171699524,2.2206568717956543,-2.27886700630188
1774472082106382000,5.161382080078125,-0.6026013493537903,2.6336910724639893,-2.2226767539978027
1774472082116410000,5.17141015625,-0.4833628833293915,3.0562305450439453,-1.9435395002365112
1774472082126438000,5.18143798828125,-0.033598124980926514,3.3835365772247314,-1.118279218673706
1774472082136466000,5.1914658203125,0.15321408212184906,3.906409978866577,-0.691771924495697
1774472082146495000,5.201494873046875,0.3118143677711487,4.026442527770996,-0.3533914089202881
1774472082156523000,5.21152294921875,0.25480934977531433,3.8445515632629395,-0.1552431285381317
1774472082166551000,5.221551025390625,0.152229443192482,3.649434804916382,0.3242792785167694
1774472082176579000,5.2315791015625,-0.021679621189832687,3.292390823364258,0.658561646938324
1774472082186608000,5.241608154296875,-0.14602234959602356,2.823261022567749,1.1991928815841675
1774472082196636000,5.251635986328125,-0.2829914689064026,2.561161756515503,1.6652474403381348
1774472082206664200,5.261664306640625,-0.45868605375289917,1.9477208852767944,1.7873547077178955
1774472082216688000,5.271688232421875,-0.6781023740768433,1.5214881896972656,1.8894625902175903
1774472082226717000,5.281717041015625,-0.823137640953064,1.4325889348983765,1.9404826164245605
1774472082236745200,5.2917451171875,-0.7375652194023132,1.4689713716506958,1.7998696565628052
1774472082246773000,5.30177294921875,-0.3929860293865204,1.3698064088821411,1.439077615737915
1774472082256802000,5.311802001953125,-0.19211477041244507,1.22663152217865,1.1534520387649536
1774472082266830000,5.321830078125,-0.26253512501716614,1.345655918121338,0.7936239838600159
1774472082276858000,5.331858154296875,-0.4469923973083496,1.7190461158752441,-0.0449049137532711
1774472082286886100,5.34188623046875,-0.4276852607727051,2.098193883895874,-0.9032686352729797
1774472082296915000,5.3519150390625,-0.16834348440170288,2.4307427406311035,-1.6402374505996704
1774472082306943200,5.361943115234375,0.18811291456222534,2.7861361503601074,-2.5794107913970947
1774472082316971000,5.371970947265625,0.5520505309104919,3.082104206085205,-3.0696094036102295
1774472082327000000,5.382,0.8544389009475708,3.1578590869903564,-2.800501585006714
1774472082337028000,5.392028076171875,1.1124191284179688,3.296684980392456,-2.7273433208465576
1774472082347056000,5.40205615234375,1.3535963296890259,3.374994993209839,-2.605767250061035
1774472082357084200,5.412084228515625,1.688600778579712,3.5521533489227295,-2.3100638389587402
1774472082367113200,5.42211328125,2.1699750423431396,3.680683135986328,-2.0816943645477295
1774472082377141000,5.43214111328125,2.578458786010742,3.827800750732422,-1.779737949371338
1774472082387169000,5.4421689453125,2.755863666534424,4.141324996948242,-1.3992847204208374
1774472082397198000,5.452197998046875,2.729436159133911,4.340598106384277,-1.1220859289169312
1774472082407226000,5.46222607421875,2.5819437503814697,4.335218906402588,-0.9502260684967041
1774472082417254100,5.472254150390625,2.2967581748962402,4.207557678222656,-0.7467369437217712
1774472082427282200,5.4822822265625,2.001354217529297,3.9561285972595215,-0.4701240062713623
1774472082437311200,5.492311279296875,1.6961116790771484,3.600884199142456,-0.21978096663951874
1774472082447339000,5.502339111328125,1.3033041954040527,2.9524002075195312,-0.05656008794903755
1774472082457367300,5.5123671875,0.7986690402030945,2.1545827388763428,-0.001950269564986229
1774472082467395000,5.52239501953125,0.282668799161911,1.561058521270752,0.10806065797805786
1774472082477424000,5.532424072265625,-0.1256386935710907,1.0268985033035278,0.30482423305511475
1774472082487452000,5.542451904296875,-0.44543132185935974,0.5356954336166382,0.48973947763442993
1774472082497480200,5.552480224609375,-0.7465258836746216,0.31533777713775635,0.6622105836868286
1774472082507509000,5.562509033203125,-1.1132179498672485,0.4987901747226715,0.6371920704841614
1774472082517537000,5.572537109375,-1.1072392463684082,0.9140961170196533,0.45970356464385986
1774472082527565000,5.58256494140625,-1.1707285642623901,1.0686891078948975,0.327701598405838
1774472082537593000,5.592593017578125,-1.3884680271148682,1.5457334518432617,0.14592944085597992
1774472082547622100,5.6026220703125,-1.5853264331817627,2.047212600708008,-0.06369807571172714
1774472082557650200,5.612650146484375,-1.6713804006576538,2.2521870136260986,-0.2535310387611389
1774472082567678200,5.62267822265625,-1.8635573387145996,2.3705551624298096,-0.26723143458366394
1774472082577707000,5.63270703125,-1.970767855644226,2.411780834197998,-0.2381865680217743
1774472082587735300,5.6427353515625,-1.787203311920166,2.342036247253418,-0.1883777379989624
1774472082597763000,5.65276318359375,-1.1363316774368286,2.3548951148986816,-0.23571829497814178
1774472082607791000,5.662791015625,-0.4665655791759491,2.490543842315674,-0.13315676152706146
1774472082617820000,5.67281982421875,-0.33700883388519287,2.451685667037964,0.4355565309524536
1774472082627848200,5.68284814453125,-0.5571057796478271,2.5199732780456543,0.8553136587142944
1774472082637876000,5.6928759765625,-1.0424845218658447,2.8285348415374756,0.9413961172103882
1774472082647904300,5.702904296875,-1.0692405700683594,2.9660863876342773,0.6679821610450745
1774472082657933000,5.71293310546875,-0.5492598414421082,2.234680652618408,0.362975537776947
1774472082667961000,5.722961181640625,0.11638554185628891,1.3551732301712036,0.158185675740242
1774472082677989000,5.732989013671875,0.5601828098297119,0.42610299587249756,0.14174072444438934
1774472082688018200,5.74301806640625,0.659919798374176,-0.13286949694156647,-0.09122274816036224
1774472082698046200,5.753046142578125,0.8019102811813354,-0.2754918038845062,-0.4361910820007324
1774472082708074000,5.763073974609375,0.9054800868034363,-0.345786452293396,-0.5229238271713257
1774472082718102300,5.773102294921875,0.9558296799659729,-0.02430335059762001,-0.44341951608657837
1774472082728131000,5.783131103515625,1.1921000480651855,0.35266444087028503,-0.2958258092403412
1774472082738159000,5.7931591796875,1.5919148921966553,0.7286333441734314,-0.15369224548339844
1774472082748187100,5.803187255859375,1.961627721786499,1.0736790895462036,0.07746586948633194
1774472082758216200,5.81321630859375,2.1037516593933105,1.1774415969848633,0.43028998374938965
1774472082768244000,5.823243896484375,2.0636208057403564,1.261440634727478,0.8608378767967224
1774472082778272300,5.833272216796875,1.8184199333190918,1.4618042707443237,1.0477612018585205
1774472082788300000,5.843300048828125,1.517952799797058,1.6821568012237549,0.9185243844985962
1774472082798329000,5.8533291015625,1.3026103973388672,1.7533915042877197,0.6413201689720154
1774472082808357000,5.863357177734375,1.2284668684005737,1.4111491441726685,0.2058081030845642
1774472082818385200,5.87338525390625,1.314988613128662,0.6278051137924194,-0.37384214997291565
1774472082828413000,5.883412841796875,1.4954053163528442,-0.4489721655845642,-0.8124157786369324
1774472082838441200,5.893441162109375,1.5946590900421143,-1.3024861812591553,-0.948337197303772
1774472082848470300,5.90347021484375,1.568661093711853,-1.8654193878173828,-0.9692563414573669
1774472082858498000,5.913498046875,1.4645211696624756,-2.3783912658691406,-0.963259220123291
1774472082868526300,5.9235263671875,1.2665164470672607,-2.579357624053955,-0.9682265520095825
1774472082878554000,5.93355419921875,1.2731378078460693,-2.4615423679351807,-1.0162849426269531
1774472082888583200,5.943583251953125,1.171329140663147,-2.2815725803375244,-0.9125240445137024
1774472082898611000,5.95361083984375,0.8542141318321228,-1.726717472076416,-0.33444488048553467
1774472082908639200,5.96363916015625,0.6761794090270996,-1.5671977996826172,-0.061778999865055084
1774472082918668000,5.97366796875,0.5140207409858704,-1.445543885231018,0.002681104466319084
1774472082928696000,5.983696044921875,0.34513771533966064,-1.4496328830718994,-0.03832704946398735
1774472082938724000,5.99372412109375,0.26057395339012146,-1.3266029357910156,-0.08414039760828018
1774472082948752100,6.003752197265625,0.19468602538108826,-1.0443025827407837,-0.07292556017637253
1774472082958781000,6.013781005859375,0.12402378767728806,-0.7044026255607605,-0.06621178984642029
1774472082968809200,6.023809326171875,-0.04148714989423752,-0.41944998502731323,0.05684090405702591
1774472082978837000,6.0338369140625,-0.2003353238105774,-0.33548876643180847,0.5805519223213196
1774472082988866000,6.043865966796875,-0.38044998049736023,-0.3969891369342804,1.3600019216537476
1774472082998894300,6.053894287109375,-0.5844498872756958,-0.516193151473999,2.103443145751953
1774472083008922000,6.063922119140625,-0.7339493632316589,-0.690521776676178,2.58807373046875
1774472083018950000,6.073949951171875,-0.6259666085243225,-1.341723084449768,2.553333044052124
1774472083028979000,6.08397900390625,-0.365994930267334,-1.5976451635360718,2.3182196617126465
1774472083039007200,6.09400732421875,-0.2299923151731491,-1.523704171180725,2.1726787090301514
1774472083049035000,6.104034912109375,-0.17464357614517212,-1.1636743545532227,1.996307134628296
1774472083059064000,6.11406396484375,-0.027261430397629738,-0.5534788966178894,1.6250580549240112
1774472083069092000,6.124092041015625,0.15244175493717194,-0.544013261795044,1.316921353340149
1774472083079120100,6.1341201171875,0.07762553542852402,-0.6749940514564514,1.1179291009902954
1774472083089148200,6.144148193359375,-0.1790565848350525,-0.7127041220664978,1.0894109010696411
1774472083099177200,6.15417724609375,-0.34913820028305054,-0.8021929264068604,0.9785455465316772
1774472083109205000,6.164205078125,-0.364044189453125,-1.3166450262069702,0.8080869913101196
1774472083119233000,6.17423291015625,-0.4237403869628906,-1.5280803442001343,0.774493932723999
1774472083129262300,6.184262451171875,-0.5328096747398376,-1.6019511222839355,0.879160463809967
1774472083139290000,6.1942900390625,-0.5891445875167847,-1.6660538911819458,1.0136268138885498
1774472083149318100,6.204318115234375,-0.5930107235908508,-1.6338258981704712,1.1120891571044922
1774472083159346200,6.21434619140625,-0.5182914137840271,-1.2527921199798584,1.1721261739730835
1774472083169375200,6.224375244140625,-0.36182165145874023,-0.6651261448860168,1.21310555934906
1774472083179403000,6.234403076171875,-0.23127421736717224,-0.20378507673740387,1.1959354877471924
1774472083189431300,6.244431396484375,-0.19473405182361603,-0.04921361431479454,1.0298857688903809
1774472083199460000,6.254460205078125,-0.14774541556835175,0.1325165182352066,0.8869168162345886
1774472083209488100,6.264488037109375,-0.05298561230301857,0.5746060609817505,0.7315315008163452
1774472083219520000,6.27452001953125,0.03917274996638298,0.850346028804779,0.4794365167617798
1774472083229548300,6.28454833984375,0.10585696995258331,0.8552592992782593,0.060753487050533295
1774472083239577000,6.2945771484375,0.18963520228862762,0.8646399974822998,-0.4163534343242645
1774472083249605000,6.304605224609375,0.34706875681877136,0.9155604243278503,-0.8640430569648743
1774472083259633200,6.314633056640625,0.5069527626037598,0.8836003541946411,-1.2549017667770386
1774472083269662200,6.324662109375,0.5802142024040222,0.8846672177314758,-1.5270472764968872
1774472083279690000,6.33468994140625,0.6274151802062988,0.9233300089836121,-1.6729878187179565
1774472083289718300,6.34471826171875,0.5682839155197144,0.9099207520484924,-1.7655603885650635
1774472083299746000,6.35474609375,0.3558259606361389,0.5517527461051941,-1.9060665369033813
1774472083309775000,6.364775146484375,0.026804674416780472,0.09199817478656769,-1.9701539278030396
1774472083319803000,6.374802978515625,-0.2634463310241699,-0.17945855855941772,-1.8948220014572144
1774472083329831200,6.3848310546875,-0.2698240578174591,-0.4044048488140106,-1.760156512260437
1774472083339860200,6.394860107421875,-0.2648254930973053,-0.6005287170410156,-1.6826488971710205
1774472083349888000,6.404887939453125,-0.3014969527721405,-0.9685634970664978,-0.7955461740493774
1774472083359916300,6.414916259765625,-0.20843130350112915,-1.3380423784255981,0.39133062958717346
1774472083369944000,6.424944091796875,0.11327508836984634,-1.543441653251648,1.2216317653656006
1774472083379973000,6.43497314453125,0.5097326040267944,-1.6065638065338135,1.6890687942504883
1774472083390001200,6.445001220703125,0.8843821287155151,-1.5763657093048096,1.9878551959991455
1774472083400029200,6.455029296875,1.0650289058685303,-1.3894896507263184,2.304598331451416
1774472083410058000,6.46505810546875,0.9968157410621643,-0.7347688674926758,2.828296184539795
1774472083420086300,6.475086181640625,0.7789941430091858,0.42388659715652466,3.5067217350006104
1774472083430114000,6.485114013671875,0.427080899477005,1.5367074012756348,4.112619876861572
1774472083440142000,6.49514208984375,0.33277177810668945,1.9703015089035034,4.392405986785889
1774472083450171000,6.5051708984375,0.5280840396881104,2.1992862224578857,4.556271553039551
1774472083460199200,6.51519921875,0.7191159129142761,2.511230945587158,4.680990695953369
1774472083470227000,6.52522705078125,0.7719128131866455,2.9795236587524414,4.6733717918396
1774472083480256000,6.535256103515625,0.6088520884513855,3.356902599334717,4.540560245513916
1774472083490284300,6.5452841796875,0.39506950974464417,2.5197339057922363,4.362014293670654
1774472083500312000,6.55531201171875,0.2584145665168762,0.6861082911491394,3.763857364654541
1774472083510340000,6.565340087890625,0.27855736017227173,0.09310808032751083,2.641894817352295
1774472083520369200,6.575369140625,0.20648691058158875,0.18163806200027466,1.5733963251113892
1774472083530397200,6.585397216796875,0.00821137148886919,0.3042135238647461,0.8861919641494751
1774472083540425000,6.595425048828125,-0.2859096825122833,0.6526137590408325,0.3017018437385559
1774472083550454000,6.6054541015625,-0.5301990509033203,1.0495349168777466,-0.40561509132385254
1774472083560482000,6.61548193359375,-0.6287075877189636,1.0694369077682495,-0.9087176322937012
1774472083570510000,6.625510009765625,-0.6811718344688416,0.943642258644104,-1.124501347541809
1774472083580538000,6.6355380859375,-0.6202067732810974,0.6827263832092285,-1.0742809772491455
1774472083590567200,6.645567138671875,-0.3935600519180298,0.14775776863098145,-0.8716560006141663
1774472083600595000,6.655594970703125,-0.03230684623122215,-0.3782437741756439,-0.658726692199707
1774472083610623200,6.665623291015625,0.33656519651412964,-0.9574011564254761,-0.4305417537689209
1774472083620652300,6.67565234375,0.6468934416770935,-1.393870234489441,-0.384260892868042
1774472083630680000,6.68568017578125,0.9138686656951904,-1.581334114074707,-0.4693922996520996
1774472083640708000,6.6957080078125,1.041365623474121,-1.5573608875274658,-0.575915515422821
1774472083650736000,6.705736083984375,0.9939176440238953,-1.6016087532043457,-0.6837916374206543
1774472083660765200,6.71576513671875,0.8439488410949707,-1.7833919525146484,-0.8397843241691589
1774472083670793000,6.72579296875,0.7009967565536499,-1.897436499595642,-1.0134724378585815
1774472083680821200,6.7358212890625,0.5526494979858398,-1.4246336221694946,-1.25257408618927
1774472083690850000,6.74585009765625,0.37969768047332764,-0.8696873188018799,-1.4608575105667114
1774472083700878000,6.755878173828125,0.21674981713294983,-0.35783299803733826,-1.4910759925842285
1774472083710906000,6.765906005859375,0.08042286336421967,0.26114824414253235,-1.3106156587600708
1774472083720935200,6.77593505859375,-0.10396263003349304,0.7366836071014404,-1.0057259798049927
1774472083730963000,6.785962890625,-0.3074001669883728,0.7577049732208252,-0.7453750371932983
1774472083740991200,6.7959912109375,-0.37198007106781006,0.5887045860290527,-0.5873015522956848
1774472083751019000,6.80601904296875,-0.3648587763309479,0.2521718442440033,-0.47718703746795654
1774472083761048000,6.816048095703125,-0.4160033166408539,-0.02629977837204933,-0.32270950078964233
1774472083771076000,6.826076171875,-0.5175490975379944,-0.0898158997297287,-0.33509135246276855
1774472083781104000,6.836104248046875,-0.5078933835029602,-0.03775811195373535,-0.4595819413661957
1774472083791133200,6.84613330078125,-0.33256471157073975,-0.10307346284389496,-0.6025726795196533
1774472083801161000,6.856160888671875,-0.13292092084884644,-0.33770909905433655,-0.6971651911735535
1774472083811189200,6.866189208984375,0.033739957958459854,-0.43844449520111084,-0.7328664660453796
1774472083821217000,6.876217041015625,0.12470726668834686,-0.3361060321331024,-0.666513979434967
1774472083831246000,6.88624609375,0.152809739112854,-0.3227502703666687,-0.5223208069801331
1774472083841274000,6.896274169921875,0.1834157407283783,-0.4483835697174072,-0.38210269808769226
1774472083851302100,6.90630224609375,0.18550898134708405,-0.5950161218643188,-0.3383839726448059
1774472083861331000,6.9163310546875,0.18946939706802368,-0.699582040309906,-0.35181814432144165
1774472083871359200,6.926359130859375,0.17230159044265747,-0.616195559501648,-0.39509397745132446
1774472083881387000,6.936386962890625,0.12291490286588669,-0.283077597618103,-0.4799940586090088
1774472083891415000,6.9464150390625,0.052127014845609665,0.1410054713487625,-0.5310614705085754
1774472083901444000,6.956444091796875,-0.051197152584791183,0.3574049174785614,-0.5327444672584534
1774472083911472000,6.96647216796875,-0.15731054544448853,0.4602804183959961,-0.4680964946746826
1774472083921500200,6.976500244140625,-0.29081323742866516,0.6222601532936096,-0.4093121886253357
1774472083931529000,6.986529052734375,-0.39086446166038513,0.7869404554367065,-0.35473203659057617
1774472083941557200,6.99655712890625,-0.4267347753047943,0.8812547326087952,-0.29802045226097107
1774472083951585000,7.0065849609375,-0.3697316646575928,0.8754367828369141,-0.20769773423671722
1774472083961613000,7.016613037109375,-0.15116919577121735,0.8815293908119202,-0.06535448133945465
1774472083971642000,7.02664208984375,0.0919550359249115,0.8994127511978149,0.07888152450323105
1774472083981670100,7.036670166015625,0.23219870030879974,0.8444472551345825,0.1970750093460083
1774472083991698000,7.046697998046875,0.3040667474269867,0.7171044945716858,0.2896627187728882
1774472084001727200,7.056727294921875,0.34934040904045105,0.5916066765785217,0.31312695145606995
1774472084011755000,7.066755126953125,0.40115514397621155,0.4525843560695648,0.2775929272174835
1774472084021783000,7.076782958984375,0.4598129391670227,0.3128166198730469,0.22109144926071167
1774472084031811000,7.08681103515625,0.5100758075714111,0.1520056426525116,0.17428693175315857
1774472084041840000,7.096840087890625,0.5590852499008179,0.02642054297029972,0.13169273734092712
1774472084051868200,7.1068681640625,0.5954943895339966,-0.09678927809000015,0.10970780998468399
1774472084061896200,7.116896240234375,0.6052356362342834,-0.21193884313106537,0.13249531388282776
1774472084071925200,7.12692529296875,0.5988045930862427,-0.3024064302444458,0.16638298332691193
1774472084081953000,7.136953125,0.5456101894378662,-0.3353661894798279,0.17271029949188232
1774472084091981000,7.14698095703125,0.4608974754810333,-0.31741514801979065,0.13368166983127594
1774472084102009000,7.157009033203125,0.37100720405578613,-0.22935445606708527,0.10262104123830795
1774472084112038100,7.1670380859375,0.28540468215942383,-0.03141261637210846,0.07975221425294876
1774472084122066000,7.17706591796875,0.2550799250602722,0.20160497725009918,0.029216255992650986
1774472084132094200,7.18709423828125,0.2502947449684143,0.38340485095977783,-0.03925308585166931
1774472084142123000,7.197123046875,0.24675428867340088,0.47288909554481506,-0.07847478985786438
1774472084152151000,7.207151123046875,0.22512222826480865,0.5875823497772217,-0.13021600246429443
1774472084162179000,7.217178955078125,0.16719457507133484,0.6389580368995667,-0.1480974555015564
1774472084172208000,7.2272080078125,0.08752158284187317,0.7139012813568115,-0.16718964278697968
1774472084182236200,7.237236083984375,0.056685108691453934,0.7635178565979004,-0.1526038646697998
1774472084192264200,7.24726416015625,0.013394358567893505,0.8494492769241333,-0.1102670431137085
1774472084202292200,7.257292236328125,-0.0556098036468029,0.9474133849143982,-0.08174631744623184
1774472084212318000,7.26731787109375,-0.09066499024629593,1.0474649667739868,-0.06392764300107956
1774472084222345700,7.277345703125,-0.0826869010925293,1.1009732484817505,-0.002247038297355175
1774472084232374000,7.2873740234375,-0.10798879712820053,1.1617908477783203,0.13518619537353516
1774472084242402800,7.29740283203125,-0.20194579660892487,1.2247951030731201,0.31121453642845154
1774472084252430800,7.307430908203125,-0.31644362211227417,1.2266145944595337,0.4119400978088379
1774472084262459000,7.317458984375,-0.40396127104759216,1.2735892534255981,0.36644870042800903
1774472084272487000,7.32748681640625,-0.5117875933647156,1.3527947664260864,0.2905145287513733
1774472084282516000,7.337515869140625,-0.5914826393127441,1.2967407703399658,0.33166375756263733
1774472084292544000,7.3475439453125,-0.5733350515365601,1.039776086807251,0.3720250427722931
1774472084302572000,7.357572021484375,-0.41868364810943604,0.6930669546127319,0.343364953994751
1774472084312600800,7.367600830078125,-0.25673097372055054,0.27064937353134155,0.29464906454086304
1774472084322628900,7.37762890625,-0.1503741592168808,-0.1807619035243988,0.3119322955608368
1774472084332657000,7.387656982421875,-0.03369894251227379,-0.5757092237472534,0.3664786219596863
1774472084342685000,7.397684814453125,0.11962004005908966,-0.8674585819244385,0.45853593945503235
1774472084352713700,7.407713623046875,0.3353440761566162,-1.0622626543045044,0.607060968875885
1774472084362742000,7.417741943359375,0.5573937892913818,-1.1640483140945435,0.760064959526062
1774472084372769800,7.427769775390625,0.7044865489006042,-1.2507786750793457,0.8740008473396301
1774472084382798800,7.437798828125,0.707751452922821,-1.3888646364212036,0.9105397462844849
1774472084392827000,7.447826904296875,0.5984252691268921,-1.4818980693817139,0.8483485579490662
1774472084402855000,7.45785498046875,0.4873221218585968,-1.4649790525436401,0.714719295501709
1774472084412882700,7.467882568359375,0.4120537340641022,-1.3148009777069092,0.5619046688079834
1774472084422912000,7.477912109375,0.37697193026542664,-1.159703254699707,0.4833295941352844
1774472084432940000,7.48793994140625,0.36553603410720825,-1.0423235893249512,0.4726676344871521
1774472084442967800,7.4979677734375,0.3618629276752472,-0.978875458240509,0.5141223073005676
1774472084452996900,7.507996826171875,0.32762718200683594,-0.9195852279663086,0.5704028606414795
1774472084463025000,7.51802490234375,0.29364800453186035,-0.9100179672241211,0.607251763343811
1774472084473053000,7.528052978515625,0.23082482814788818,-0.9751208424568176,0.652305006980896
1774472084483081000,7.5380810546875,0.20470605790615082,-0.9942208528518677,0.6743450164794922
1774472084493110000,7.548110107421875,0.21057991683483124,-1.0322134494781494,0.644101619720459
1774472084503137800,7.5581376953125,0.24144607782363892,-1.0657243728637695,0.6090651154518127
1774472084513165800,7.568165771484375,0.24962091445922852,-1.1100494861602783,0.5571742057800293
1774472084523195000,7.57819482421875,0.23472902178764343,-1.0991663932800293,0.5207299590110779
1774472084533223000,7.588222900390625,0.19971485435962677,-1.0296763181686401,0.5008504986763
1774472084543250700,7.598250732421875,0.15546734631061554,-0.9670253992080688,0.47991594672203064
1774472084553279000,7.608279052734375,0.11076964437961578,-0.8938475847244263,0.4746314287185669
1774472084563308000,7.61830810546875,0.041224922984838486,-0.9019517302513123,0.5075554847717285
1774472084573335800,7.628335693359375,-0.007764458656311035,-0.8578165173530579,0.5194483399391174
1774472084583364000,7.638364013671875,0.15568752586841583,-0.6882151961326599,0.39380770921707153
1774472084593393000,7.648392822265625,0.17021960020065308,-0.5750744938850403,0.28094667196273804
1774472084603421000,7.6584208984375,0.1384039670228958,-0.41059595346450806,0.11966358870267868
1774472084613449000,7.668448974609375,-0.020275963470339775,-0.39545002579689026,0.016815509647130966
1774472084623477000,7.67847705078125,-0.10574878752231598,-0.4090486168861389,-0.014460728503763676
1774472084633505800,7.688505859375,-0.044224172830581665,-0.4063071310520172,0.009456854313611984
1774472084643533800,7.698533935546875,0.01634756475687027,-0.34223058819770813,0.07058132439851761
1774472084653561900,7.708561767578125,-0.02626221254467964,-0.2573724091053009,0.14796186983585358
1774472084663591000,7.7185908203125,-0.06037411093711853,-0.21808019280433655,0.23547473549842834
1774472084673618700,7.72861865234375,-0.09934734553098679,-0.2843601405620575,0.343615859746933
1774472084683647000,7.73864697265625,-0.15275606513023376,-0.40815234184265137,0.4922035038471222
1774472084693674800,7.7486748046875,-0.18479575216770172,-0.4598722755908966,0.6609184741973877
1774472084703703800,7.758703857421875,-0.24965214729309082,-0.3384062945842743,0.7383460402488708
1774472084713732000,7.768732177734375,-0.260585218667984,-0.2579396665096283,0.7288162112236023
1774472084723759900,7.778759765625,-0.2937135398387909,-0.32012465596199036,0.6810309290885925
1774472084733789000,7.788788818359375,-0.24336674809455872,-0.38863447308540344,0.5157802104949951
1774472084743817000,7.79881689453125,-0.2340913712978363,-0.3956798017024994,0.33609262108802795
1774472084753845000,7.808844970703125,-0.26691028475761414,-0.3654939532279968,0.20799805223941803
1774472084763872800,7.818872802734375,-0.22279858589172363,-0.22155031561851501,0.15425950288772583
1774472084773901800,7.82890185546875,-0.10415688902139664,-0.09799163043498993,0.18372072279453278
1774472084783929900,7.838929931640625,0.0613001249730587,0.019873779267072678,0.2476632297039032
1774472084793958000,7.8489580078125,0.19843481481075287,0.10622837394475937,0.3166321814060211
1774472084803986700,7.858986572265625,0.2458309680223465,0.0031334254890680313,0.5070260763168335
1774472084814015000,7.869014892578125,0.21907472610473633,-0.2560445964336395,0.7161484360694885
1774472084824042800,7.879042724609375,0.10376206785440445,-0.6186509132385254,0.8246898651123047
1774472084834071000,7.889071044921875,-0.009332263842225075,-0.8004662394523621,0.7313244938850403
1774472084844100000,7.89910009765625,-0.03730042278766632,-0.7069457769393921,0.5018908381462097
1774472084854127900,7.9091279296875,-0.14740481972694397,-0.7979830503463745,0.6489218473434448
1774472084864156000,7.919156005859375,-0.17164835333824158,-0.51921546459198,0.5480327606201172
1774472084874185000,7.92918505859375,-0.1392163783311844,-0.2616102695465088,0.23844903707504272
1774472084884213000,7.939212890625,-0.14234590530395508,-0.5113875269889832,0.37403279542922974
1774472084894240800,7.94924072265625,-0.10084906965494156,-0.4790098965167999,0.2705862820148468
1774472084904269000,7.95926904296875,-0.0692225843667984,-0.4981933832168579,-0.008902433328330517
1774472084914297900,7.9692978515625,-0.0504387728869915,-0.5861884951591492,-0.12994177639484406
1774472084924326000,7.979325927734375,-0.024921100586652756,-0.6688218116760254,-0.06054532155394554
1774472084934354000,7.98935400390625,0.03756198659539223,-0.6004390120506287,0.02641008421778679
1774472084944383000,7.999383056640625,0.06222785264253616,-0.4934428334236145,0.12284893542528152
1774472084954410800,8.00941064453125,0.03318661451339722,-0.43844324350357056,0.2170257717370987
1774472084964439000,8.01943896484375,0.008989074267446995,-0.5091004967689514,0.3099953830242157
1774472084974466800,8.029466796875,-0.10964836180210114,-0.5861724019050598,0.41743555665016174
1774472084984495900,8.039495849609375,-0.19267453253269196,-0.557580828666687,0.44810760021209717
1774472084994524000,8.04952392578125,-0.29205411672592163,-0.507825493812561,0.4858347475528717
1774472085004552000,8.059552001953126,-0.3765955865383148,-0.4511334002017975,0.5336664915084839
1774472085014581000,8.0695810546875,-0.4073590934276581,-0.24244092404842377,0.5210465788841248
1774472085024608800,8.07960888671875,-0.4442841410636902,-0.028982359915971756,0.5374059677124023
1774472085034637000,8.089636962890625,-0.4887711703777313,0.0683915987610817,0.6064239144325256
1774472085044665900,8.099665771484375,-0.5363526940345764,0.03141336515545845,0.7014158964157104
1774472085054694000,8.10969384765625,-0.6039698123931885,-0.08198483288288116,0.7619650363922119
1774472085064722000,8.119721923828125,-0.6447601914405823,-0.0797654241323471,0.7401919960975647
1774472085074750000,8.12975,-0.6809754371643066,0.09192883968353271,0.6694626808166504
1774472085084778800,8.13977880859375,-0.8805424571037292,0.42267829179763794,0.6842070817947388
1774472085094806800,8.149806884765624,-0.8906022906303406,0.5627637505531311,0.9352371692657471
1774472085104834800,8.159834716796874,-0.9671932458877563,1.0445679426193237,0.8508639931678772
1774472085114863900,8.16986376953125,-1.0180336236953735,1.210052251815796,0.9825490713119507
1774472085124892000,8.179891845703125,-0.8901401162147522,0.9169078469276428,1.3100628852844238
1774472085134920000,8.189919921875,-0.7035630941390991,0.665989875793457,1.4616641998291016
1774472085144948000,8.199947998046875,-0.7231326699256897,0.5723048448562622,1.255326747894287
1774472085154976800,8.209976806640626,-0.7657368779182434,0.9212719202041626,0.5823767781257629
1774472085165005000,8.220005126953126,-0.7106258869171143,1.191084384918213,0.07834284007549286
1774472085175032800,8.23003271484375,-0.6190991997718811,1.0599255561828613,0.17091085016727448
1774472085185060900,8.240060791015624,-0.48247143626213074,0.7744284868240356,0.5264745950698853
1774472085195090000,8.25008984375,-0.30002865195274353,0.6081162095069885,0.6998551487922668
1774472085205118000,8.260117919921875,0.04405713453888893,0.4828549921512604,0.46768999099731445
1774472085215146500,8.270146484375,0.4933595657348633,0.5973085761070251,0.009189249016344547
1774472085225175600,8.280175537109375,0.7347854375839233,0.7726549506187439,0.048132337629795074
1774472085235203800,8.290203857421876,0.667718231678009,0.8077884316444397,0.34937340021133423
1774472085245231600,8.300231689453126,0.4765002131462097,0.8671337366104126,0.39428427815437317
1774472085255260700,8.3102607421875,0.23268090188503265,1.0013868808746338,0.21221700310707092
1774472085265288700,8.320288818359375,-0.0066470857709646225,0.8652188777923584,0.08679506182670593
1774472085275316700,8.330316650390625,-0.1122555360198021,0.620254635810852,0.02227040007710457
1774472085285344500,8.340344482421875,-0.10896546393632889,0.3791089355945587,-0.04828692227602005
1774472085295373600,8.35037353515625,-0.1091231256723404,0.138016939163208,-0.1007637083530426
1774472085305401600,8.360401611328125,-0.11251217126846313,-0.05560670047998428,-0.1492672860622406
1774472085315429600,8.3704296875,-0.047630105167627335,-0.14185743033885956,-0.32364973425865173
1774472085325458400,8.38045849609375,0.04066145420074463,0.08541533350944519,-0.842851996421814
1774472085335486700,8.39048681640625,0.14057420194149017,0.009621504694223404,-0.7479425668716431
1774472085345514500,8.400514404296874,0.08539226651191711,-0.3835570812225342,-0.32498806715011597
1774472085355542800,8.410542724609375,-0.12729495763778687,-0.5379399657249451,-0.3624379634857178
1774472085365571800,8.42057177734375,-0.26079413294792175,-0.32420167326927185,-0.6314559578895569
1774472085375599600,8.430599609375,-0.2720593214035034,-0.11044226586818695,-0.6737003326416016
1774472085385627600,8.440627685546875,-0.4096449017524719,-0.21816323697566986,-0.5649027228355408
1774472085395656700,8.45065673828125,-0.49251794815063477,-0.34377947449684143,-0.5830561518669128
1774472085405684700,8.460684814453124,-0.5432295203208923,-0.4166143536567688,-0.5637056827545166
1774472085415712500,8.47071240234375,-0.5600961446762085,-0.410285085439682,-0.4845259189605713
1774472085425740800,8.48074072265625,-0.5615482926368713,-0.37737926840782166,-0.4627220332622528
1774472085435769600,8.49076953125,-0.4586240351200104,-0.2232898473739624,-0.5513762831687927
1774472085445797600,8.500797607421875,-0.3238879144191742,-0.05416291579604149,-0.6613309383392334
1774472085455825700,8.51082568359375,-0.2091091424226761,0.06686097383499146,-0.6946552991867065
1774472085465854700,8.520854736328126,-0.11022880673408508,0.25789299607276917,-0.7721749544143677
1774472085475882500,8.530882568359376,-0.05045708641409874,0.49319764971733093,-0.8348804116249084
1774472085485910500,8.54091064453125,-0.00966536533087492,0.6864668130874634,-0.8736916780471802
1774472085495938600,8.5509384765625,0.023564759641885757,0.8058847784996033,-0.8798880577087402
1774472085505967600,8.560967529296875,0.03678862750530243,0.8058288097381592,-0.8223273158073425
1774472085515995600,8.57099560546875,0.04855074733495712,0.5748251080513,-0.8032712936401367
1774472085526023700,8.581023681640625,0.07008376717567444,0.15939858555793762,-0.8063769936561584
1774472085536052700,8.591052734375,0.17189136147499084,-0.3239941895008087,-0.8747981190681458
1774472085546080500,8.60108056640625,0.3435138761997223,-0.9265579581260681,-0.9152265191078186
1774472085556108800,8.61110888671875,0.5254793763160706,-1.5208572149276733,-1.0249961614608765
1774472085566136600,8.621136474609376,0.7279878854751587,-1.9295220375061035,-1.233247995376587
1774472085576165600,8.63116552734375,0.9462025165557861,-2.171363592147827,-1.4579758644104004
1774472085586193700,8.641193603515624,1.160247564315796,-2.389214277267456,-1.5204603672027588
1774472085596221700,8.6512216796875,1.3504230976104736,-2.5905792713165283,-1.5082319974899292
1774472085606250800,8.661250732421875,1.5585871934890747,-3.1434273719787598,-1.564735770225525
1774472085616278500,8.671278564453125,1.6971147060394287,-3.8760106563568115,-1.5641525983810425
1774472085626306600,8.681306640625,1.7972856760025024,-4.754334449768066,-1.486553430557251
1774472085636334600,8.69133447265625,1.8346655368804932,-5.634539604187012,-1.3787676095962524
1774472085646363600,8.70136376953125,1.7350579500198364,-6.411698818206787,-1.2852492332458496
1774472085656391700,8.7113916015625,1.519126534461975,-6.956644058227539,-1.2343591451644897
1774472085666419700,8.721419677734374,1.2984697818756104,-7.322682857513428,-1.3360894918441772
1774472085676448500,8.731448486328125,1.0288505554199219,-7.521029472351074,-1.4040536880493164
1774472085686476800,8.741476806640625,0.6345492601394653,-7.262372970581055,-1.4039353132247925
1774472085696504600,8.751504638671875,0.30163708329200745,-6.236863136291504,-1.3827695846557617
1774472085706532600,8.76153271484375,-0.5273481011390686,-3.88869571685791,-0.8320078253746033
1774472085716561700,8.771561767578126,-0.5511349439620972,0.23619867861270905,0.17009952664375305
1774472085726589700,8.781589599609376,0.08914007246494293,2.6248722076416016,0.9422386884689331
1774472085736617500,8.791617431640624,0.18185563385486603,3.0391204357147217,1.2464357614517212
1774472085746646500,8.801646484375,-0.05804162472486496,2.0160775184631348,1.0378732681274414
1774472085756674600,8.811674560546875,-0.2300967425107956,0.4711478352546692,0.546177089214325
1774472085766702600,8.82170263671875,-0.25081586837768555,-0.9796209931373596,0.02993326634168625
1774472085776730600,8.831730712890625,-0.1766718626022339,-1.8802751302719116,-0.3596065044403076
1774472085786759700,8.841759765625,-0.05982336774468422,-2.16097354888916,-0.5452480316162109
1774472085796787700,8.85178759765625,-0.0016801708843559027,-1.9697881937026978,-0.5538007616996765
1774472085806815700,8.861815673828126,-0.034544289112091064,-1.3303292989730835,-0.39081117510795593
1774472085816844800,8.8718447265625,-0.18736526370048523,-0.5463637113571167,-0.25086233019828796
1774472085826872600,8.88187255859375,-0.3878251612186432,0.06496001780033112,-0.2328404188156128
1774472085836900600,8.891900634765625,-0.5315524935722351,0.5136264562606812,-0.2877897024154663
1774472085846928600,8.9019287109375,-0.5628486275672913,0.856972873210907,-0.46247923374176025
1774472085856957700,8.911957763671875,-0.5452174544334412,1.097580909729004,-0.6222617030143738
1774472085866985500,8.9219853515625,-0.5329659581184387,1.3034292459487915,-0.7558731436729431
1774472085877013800,8.932013671875,-0.6377866268157959,1.4375702142715454,-0.8513317704200745
1774472085887042800,8.942042724609376,-0.8457902073860168,1.4977002143859863,-0.8715769052505493
1774472085897070600,8.952070556640624,-1.0901447534561157,1.4633842706680298,-0.7625427842140198
1774472085907098600,8.9620986328125,-1.2944015264511108,1.2674700021743774,-0.49914196133613586
1774472085917126700,8.972126708984375,-1.4522572755813599,0.8844251036643982,-0.11497005075216293
1774472085927155700,8.98215576171875,-1.586111307144165,0.4173281490802765,0.23325523734092712
1774472085937183700,8.992183837890625,-1.7202582359313965,0.005769380368292332,0.41559651494026184
1774472085947211800,9.002211669921875,-1.9247266054153442,-0.2443549633026123,0.5625702738761902
1774472085957240600,9.012240478515626,-2.1180295944213867,-0.4580930769443512,0.5564162731170654
1774472085967268600,9.0222685546875,-2.2384204864501953,-0.7025321125984192,0.45213791728019714
1774472085977296600,9.032296630859374,-2.3311665058135986,-0.8075554966926575,0.2897018790245056
1774472085987324700,9.04232470703125,-2.3912885189056396,-0.8672618865966797,0.11997456848621368
1774472085997353500,9.052353515625,-2.4207353591918945,-0.9238321781158447,-0.035956971347332
1774472086007381800,9.0623818359375,-2.398205518722534,-0.9347043037414551,-0.24825260043144226
1774472086017409500,9.072409423828125,-2.306210517883301,-0.9486662149429321,-0.34758850932121277
1774472086027438600,9.0824384765625,-2.191300392150879,-0.97324138879776,-0.4634994864463806
1774472086037466600,9.092466552734376,-2.0869758129119873,-1.074921727180481,-0.5522841811180115
1774472086047494700,9.10249462890625,-1.863931655883789,-1.2834198474884033,-0.6129335761070251
1774472086057522400,9.1125224609375,-1.641742467880249,-1.6411104202270508,-0.7249287962913513
1774472086067551500,9.122551513671874,-1.415696620941162,-2.1167681217193604,-0.7528643012046814
1774472086077579800,9.132579833984375,-1.1867331266403198,-2.4773709774017334,-0.868188202381134
1774472086087607600,9.142607666015625,-0.9374152421951294,-2.7224020957946777,-0.8083997368812561
1774472086097636600,9.15263671875,-0.6983762979507446,-2.7062950134277344,-0.7879102230072021
1774472086107664600,9.16266455078125,-0.4629869759082794,-2.6398377418518066,-0.7043845057487488
1774472086117692700,9.172692626953125,-0.2812110483646393,-2.505838394165039,-0.7535187602043152
1774472086127720700,9.182720703125,-0.1227317601442337,-2.336117744445801,-0.7327348589897156
1774472086137749800,9.192749755859374,-0.019071144983172417,-2.1084556579589844,-0.7406833171844482
1774472086147777500,9.202777587890624,0.05052799731492996,-1.912561297416687,-0.6891665458679199
1774472086157805600,9.2128056640625,0.12354148924350739,-1.7089117765426636,-0.6999041438102722
1774472086167835000,9.2228349609375,0.24560216069221497,-1.5897165536880493,-0.6063396334648132
1774472086177862700,9.232862548828125,0.37974822521209717,-1.5660821199417114,-0.5196470618247986
1774472086187890400,9.242890380859375,0.5201336145401001,-1.69456946849823,-0.4942963123321533
1774472086197918700,9.252918701171875,0.584097683429718,-1.7999361753463745,-0.5072842836380005
1774472086207947800,9.26294775390625,0.5187386870384216,-1.8535734415054321,-0.6038572788238525
1774472086217974500,9.272974609375,0.46468421816825867,-1.8363169431686401,-0.7391940355300903
1774472086228002300,9.283002197265626,0.4377947151660919,-1.7081694602966309,-0.8878960013389587
1774472086238031400,9.29303125,0.4474462568759918,-1.5285389423370361,-1.0061430931091309
1774472086248059400,9.303059326171875,0.4849352240562439,-1.3319129943847656,-1.1230671405792236
1774472086258087400,9.31308740234375,0.5451298356056213,-1.1386330127716064,-1.1728699207305908
1774472086268115200,9.323115234375,0.6221603751182556,-0.90524822473526,-1.1840358972549438
1774472086278144300,9.333144287109375,0.6732656359672546,-0.637985348701477,-1.1635665893554688
1774472086288172500,9.343172607421875,0.6661026477813721,-0.3408883810043335,-1.1109439134597778
1774472086298200300,9.353200439453126,0.6235889792442322,0.020481811836361885,-1.0077574253082275
1774472086308228600,9.363228515625,0.4971086382865906,0.3863571882247925,-0.8975787162780762
1774472086318257400,9.37325732421875,0.2815627455711365,0.7805907726287842,-0.7849888205528259
1774472086328285400,9.383285400390625,0.20789380371570587,0.9740543961524963,-0.7680779695510864
1774472086338313200,9.393313232421875,0.24866759777069092,0.864836573600769,-0.8426286578178406
1774472086348342500,9.403342529296875,0.34518957138061523,0.7065392136573792,-0.855089008808136
1774472086358370300,9.413370361328125,0.4794078469276428,0.5974599123001099,-0.8270270228385925
1774472086368398300,9.4233984375,0.6305979490280151,0.47275304794311523,-0.8126302361488342
1774472086378426400,9.43342626953125,0.6898642182350159,0.34109219908714294,-0.8912017345428467
1774472086388455400,9.443455322265624,0.6743107438087463,0.29708153009414673,-1.0231118202209473
1774472086398483200,9.453483154296874,0.5910935997962952,0.6104037761688232,-1.0689841508865356
1774472086408511500,9.463511474609374,0.435228168964386,1.120967984199524,-1.1613329648971558
1774472086418540500,9.47354052734375,0.19558148086071014,1.7604845762252808,-1.2066186666488647
1774472086428568300,9.483568359375,0.10737639665603638,1.9689091444015503,-1.7334917783737183
1774472086438596600,9.4935966796875,0.11612860858440399,1.6586202383041382,-2.3690996170043945
1774472086448624400,9.503624267578125,0.030616164207458496,1.9173599481582642,-2.8572914600372314
1774472086458653400,9.5136533203125,-0.14196306467056274,2.751244306564331,-3.229926109313965
1774472086468681200,9.52368115234375,-0.40690726041793823,3.8217575550079346,-3.4958322048187256
1774472086478709500,9.53370947265625,-0.7256159782409668,4.72056245803833,-3.68959641456604
1774472086488738300,9.54373828125,-0.8917037844657898,5.116176605224609,-3.7621588706970215
1774472086498766300,9.553766357421875,-0.8841782212257385,4.94188928604126,-3.6854569911956787
1774472086508794400,9.56379443359375,-0.7910347580909729,4.442636966705322,-3.441091537475586
1774472086518822400,9.573822509765625,-0.6638832092285156,3.7577149868011475,-3.2400500774383545
1774472086528851500,9.5838515625,-0.5352325439453125,3.034104108810425,-3.1360738277435303
1774472086538879500,9.59387939453125,-0.4084397256374359,2.462841033935547,-3.047391414642334
1774472086548907300,9.6039072265625,-0.3181134760379791,2.030196189880371,-2.87957501411438
1774472086558936300,9.613936279296874,-0.22386793792247772,1.7869367599487305,-2.535839557647705
1774472086568964600,9.623964599609375,-0.10475566238164902,2.0379443168640137,-1.8101011514663696
1774472086578992400,9.633992431640625,0.020246461033821106,3.2263917922973633,-0.534488320350647
1774472086589020400,9.6440205078125,-0.26038989424705505,5.583319187164307,0.43777748942375183
1774472086599049200,9.65404931640625,-0.2589118480682373,5.973793029785156,1.2510465383529663
1774472086609077500,9.664077392578125,-0.15126824378967285,5.439565181732178,0.9592623710632324
1774472086619105300,9.674105224609375,-0.3168494701385498,0.3498443067073822,-1.5263218879699707
1774472086629134300,9.68413427734375,0.04922163113951683,-1.8007097244262695,-2.5487520694732666
1774472086639162400,9.694162353515624,0.22732186317443848,-2.1378045082092285,-3.070063352584839
1774472086649190400,9.7041904296875,-0.023414425551891327,-1.0833419561386108,-3.219433546066284
1774472086659218400,9.714218505859375,-0.19891062378883362,-0.2015012949705124,-3.3441479206085205
1774472086669247500,9.72424755859375,-0.19336840510368347,-0.19382163882255554,-3.461890697479248
1774472086679275500,9.734275634765625,-0.14910480380058289,-0.6072049140930176,-3.6029422283172607
1774472086689303300,9.74430322265625,-0.098695307970047,-0.7186839580535889,-3.467839241027832
1774472086699331300,9.754331298828125,-0.11741812527179718,-0.5768226981163025,-3.147491931915283
1774472086709360400,9.7643603515625,-0.1652471125125885,-0.41851747035980225,-2.8149819374084473
1774472086719388400,9.774388427734374,-0.2549794018268585,-0.6951029896736145,-2.623831033706665
1774472086729416400,9.78441650390625,-0.3392793536186218,-1.0982166528701782,-2.625182867050171
1774472086739445500,9.794445556640625,-0.5311960577964783,-1.18781316280365,-2.581639528274536
1774472086749473300,9.804473388671875,-0.6998646855354309,-0.9926057457923889,-2.423779249191284
1774472086759501600,9.81450146484375,-0.7561311721801758,-0.5578007698059082,-2.0979487895965576
1774472086769529300,9.824529296875,-0.7342629432678223,-0.20861554145812988,-1.7829928398132324
1774472086779558400,9.834558349609376,-0.6726935505867004,-0.15143772959709167,-1.4555764198303223
1774472086789586400,9.84458642578125,-0.624843180179596,-0.32828617095947266,-1.1478753089904785
1774472086799614500,9.854614501953124,-0.608848512172699,-0.7899901866912842,-0.9794602394104004
1774472086809643500,9.8646435546875,-0.6571049094200134,-1.0979048013687134,-1.0260014533996582
1774472086819671300,9.87467138671875,-0.7507073283195496,-0.9040999412536621,-1.1293305158615112
1774472086829699300,9.88469921875,-0.7621262073516846,-0.22326502203941345,-1.2042607069015503
1774472086839727400,9.894727294921875,-0.6876314878463745,0.36937329173088074,-1.3603246212005615
1774472086849756400,9.90475634765625,-0.6452863812446594,0.7090726494789124,-1.630514144897461
1774472086859784400,9.914784423828126,-0.6270373463630676,0.3722911477088928,-1.8776037693023682
1774472086869812500,9.9248125,-0.6389945149421692,-0.3525809347629547,-1.9433941841125488
1774472086879840300,9.93484033203125,-0.697201132774353,-0.9047935009002686,-1.8529553413391113
1774472086889869600,9.94486962890625,-0.7630518078804016,-1.177597999572754,-1.7177757024765015
1774472086899897300,9.9548974609375,-0.8060458302497864,-1.0745453834533691,-1.5063239336013794
1774472086909925400,9.96492529296875,-0.8761293292045593,-0.7424898743629456,-1.326505184173584
1774472086919954200,9.9749541015625,-1.0176068544387817,-0.4853057265281677,-1.2418714761734009
1774472086929982500,9.984982421875,-1.166176438331604,-0.3634658753871918,-1.102673053741455
1774472086940010200,9.99501025390625,-1.2326593399047852,-0.41682231426239014,-0.9375665783882141
1774472086950038500,10.00503857421875,-1.2560465335845947,-0.4569644331932068,-0.6982948184013367
1774472086960067600,10.015067626953124,-1.2823702096939087,-0.5997287631034851,-0.5060656666755676
1774472086970095400,10.025095458984374,-1.2709962129592896,-0.7809010148048401,-0.3598327934741974
1774472086980123400,10.035123291015625,-1.2178653478622437,-0.8223184943199158,-0.24649959802627563
1774472086990152400,10.04515234375,-1.1397247314453125,-0.7221941947937012,-0.20962361991405487
1774472087000180500,10.055180419921875,-1.052499532699585,-0.4042995870113373,-0.234048530459404
1774472087010208300,10.065208251953125,-1.0114179849624634,0.05136675760149956,-0.46856874227523804
1774472087020236500,10.075236572265625,-1.1801306009292603,0.3930327296257019,-0.8372296094894409
1774472087030265300,10.085265380859376,-1.4953151941299438,0.23424360156059265,-0.9974650740623474
1774472087040293400,10.09529345703125,-1.765570044517517,-0.17485256493091583,-1.0113918781280518
1774472087050321400,10.1053212890625,-2.0125675201416016,-0.3897974491119385,-0.9382858872413635
1774472087060350500,10.1153505859375,-2.227898120880127,-0.5215107798576355,-0.8227092027664185
1774472087070378200,10.125378173828125,-2.265737771987915,-0.6152471303939819,-0.6510080695152283
1774472087080406500,10.135406494140625,-2.1671700477600098,-0.5037296414375305,-0.4415012300014496
1774472087090434300,10.145434326171875,-2.1146953105926514,-0.16896136105060577,-0.3977370262145996
1774472087100463400,10.15546337890625,-2.1646761894226074,0.5555822253227234,-0.49349552392959595
1774472087110491400,10.165491455078126,-2.4284114837646484,0.9595710635185242,-0.8005914688110352
1774472087120519400,10.17551953125,-2.6911933422088623,1.0233937501907349,-1.2137588262557983
1774472087130547200,10.185547119140624,-2.874086380004883,1.1466840505599976,-1.7679661512374878
1774472087140576300,10.195576171875,-3.019106388092041,0.783340334892273,-2.133296489715576
1774472087150604500,10.2056044921875,-3.1148641109466553,0.3063723146915436,-2.441044569015503
1774472087160632300,10.21563232421875,-3.218400716781616,-0.22594352066516876,-2.5751781463623047
1774472087170661400,10.225661376953125,-3.2882368564605713,-0.8564366102218628,-2.573194980621338
1774472087180689400,10.235689453125,-3.4421284198760986,-1.6477198600769043,-2.5574662685394287
1774472087190717400,10.245717529296876,-3.626936912536621,-2.412090301513672,-2.370327949523926
1774472087200745500,10.255745361328126,-3.750511646270752,-3.0150656700134277,-2.1914281845092773
1774472087210774500,10.2657744140625,-3.796450614929199,-3.273214817047119,-2.082793712615967
1774472087220802800,10.275802734375,-3.697472095489502,-3.109346389770508,-1.9851576089859009
1774472087230830600,10.28583056640625,-3.4295806884765625,-2.6938958168029785,-1.9090379476547241
1774472087240859000,10.29585888671875,-3.136157989501953,-2.2523577213287354,-1.7137200832366943
1774472087250888000,10.305887939453125,-2.870119094848633,-1.9456682205200195,-1.3637385368347168
1774472087260915700,10.315915771484375,-2.5909433364868164,-1.9160206317901611,-1.137027621269226
1774472087270944000,10.325944091796876,-2.419476270675659,-2.1969847679138184,-1.0684748888015747
1774472087280972800,10.335972900390624,-2.3486738204956055,-2.7758545875549316,-1.1517280340194702
1774472087291000800,10.346000732421874,-2.238718032836914,-3.3971107006073,-1.2573108673095703
1774472087301028600,10.356028564453124,-2.0076987743377686,-3.676129102706909,-1.362319827079773
1774472087311057000,10.366056884765625,-1.6918938159942627,-3.437713623046875,-1.438476324081421
1774472087321085700,10.376085693359375,-1.3754570484161377,-2.9057068824768066,-1.3723740577697754
1774472087331113700,10.38611376953125,-1.1714727878570557,-2.342674732208252,-1.0790926218032837
1774472087341141800,10.396141845703125,-0.942494809627533,-2.0351006984710693,-0.8036932349205017
1774472087351170800,10.4061708984375,-1.0167014598846436,-2.587125539779663,-0.9877021908760071
1774472087361198600,10.416198486328126,-1.2874901294708252,-2.967317819595337,-1.2262051105499268
1774472087371227000,10.426226806640624,-1.4175283908843994,-3.5501391887664795,-1.7103643417358398
1774472087381254700,10.436254638671874,-1.4844719171524048,-4.097026824951172,-2.065385103225708
1774472087391283700,10.44628369140625,-1.6281062364578247,-4.584840774536133,-2.377755880355835
1774472087401312000,10.45631201171875,-1.8852685689926147,-5.0942511558532715,-2.624892234802246
1774472087411339800,10.46633984375,-2.140648126602173,-5.312105178833008,-2.8155434131622314
1774472087421367800,10.476367919921875,-2.3282318115234375,-5.266211986541748,-2.879951238632202
1774472087431396600,10.486396728515626,-2.4801688194274902,-5.02748966217041,-2.894209146499634
1774472087441425000,10.4964248046875,-2.577376127243042,-5.014915943145752,-2.8735320568084717
1774472087451452700,10.50645263671875,-2.516162872314453,-5.450826168060303,-2.7683537006378174
1774472087461481700,10.516481689453125,-2.3957996368408203,-5.106557369232178,-2.6204066276550293
1774472087471509800,10.526509765625,-2.1693220138549805,-4.188730239868164,-2.4489378929138184
1774472087481537800,10.536537841796875,-1.8005821704864502,-3.091732978820801,-2.31638765335083
1774472087491565800,10.54656591796875,-1.3898646831512451,-1.935323715209961,-2.2658321857452393
1774472087501595000,10.556594970703125,-0.9644671082496643,-1.0334810018539429,-2.3399744033813477
1774472087511622700,10.56662255859375,-0.5668154954910278,-0.5798410177230835,-2.5524888038635254
1774472087521650700,10.576650634765626,-0.4598245918750763,-0.4960193634033203,-2.82356858253479
1774472087531678700,10.5866787109375,-0.5326828360557556,-0.8159839510917664,-3.0507287979125977
1774472087541707800,10.596707763671875,-0.4551864564418793,-1.3167953491210938,-3.2952349185943604
1774472087551735800,10.60673583984375,-0.16344822943210602,-1.4834520816802979,-3.3037586212158203
1774472087561763800,10.616763916015625,0.15373478829860687,-1.3235018253326416,-3.1059718132019043
1774472087571793000,10.62679296875,0.3389120399951935,-1.0563913583755493,-2.816838264465332
1774472087581820700,10.636820556640625,0.40045130252838135,-0.960300624370575,-2.6527175903320312
1774472087591849700,10.646849609375,0.3492874801158905,-1.1179919242858887,-2.6719326972961426
1774472087601877800,10.656877685546876,0.2765027582645416,-1.212483286857605,-2.8379666805267334
1774472087611905800,10.66690576171875,0.2401924729347229,-1.1381595134735107,-3.1409106254577637
1774472087621934600,10.6769345703125,0.21976789832115173,-1.0613811016082764,-3.596400499343872
1774472087631963000,10.686962890625,0.20496033132076263,-0.9893003702163696,-4.109397888183594
1774472087641990700,10.69699072265625,0.2265750765800476,-0.7614387273788452,-4.526730060577393
1774472087652018700,10.707018798828125,0.4305768311023712,-0.32779228687286377,-4.646394729614258
1774472087662047700,10.7170478515625,0.664283037185669,0.02300543710589409,-4.635911464691162
1774472087672075800,10.72707568359375,0.9108889698982239,0.1406031996011734,-4.566616058349609
1774472087682103800,10.737103759765626,0.9804725646972656,0.06069052219390869,-4.327210426330566
1774472087692131800,10.7471318359375,0.8955063819885254,0.04484562948346138,-3.9795897006988525
1774472087702161000,10.757160888671875,0.717322826385498,-0.006753117311745882,-3.7266414165496826
1774472087712188700,10.767188720703125,0.4991932809352875,-0.14959044754505157,-3.6501593589782715
1774472087722217000,10.777217041015625,0.23811376094818115,-0.29220566153526306,-3.6212031841278076
1774472087732245800,10.787245849609375,-0.06654175370931625,-0.4331530034542084,-3.6629860401153564
1774472087742273800,10.797273681640625,-0.307684063911438,-0.4832289516925812,-3.7428884506225586
1774472087752301600,10.807301513671876,-0.3983374536037445,-0.444303035736084,-3.7747843265533447
1774472087762329900,10.817329833984376,-0.45575252175331116,-0.3368559181690216,-3.6390936374664307
1774472087772358700,10.827358642578124,-0.4832170009613037,-0.2220248430967331,-3.4653878211975098
1774472087782386700,10.83738671875,-0.46502628922462463,-0.24877870082855225,-3.3847365379333496
1774472087792414700,10.847414794921875,-0.4724942445755005,-0.09155870974063873,-3.164126396179199
1774472087802443800,10.85744384765625,-0.510936439037323,-0.03818364068865776,-2.9874958992004395
1774472087812471800,10.867471923828125,-0.5880049467086792,-0.05586075782775879,-2.979783535003662
1774472087822499800,10.877499755859375,-0.5647145509719849,-0.1747695654630661,-3.1880431175231934
1774472087832528000,10.88752783203125,-0.5238112807273865,-0.17088131606578827,-3.337991237640381
1774472087842556700,10.897556640625,-0.49463367462158203,-0.23316547274589539,-3.3381752967834473
1774472087852585000,10.9075849609375,-0.4448580741882324,-0.22096793353557587,-3.2696328163146973
1774472087862612700,10.91761279296875,-0.30668580532073975,-0.2135331928730011,-3.1807308197021484
1774472087872640800,10.927640869140625,-0.2170543223619461,-0.32317879796028137,-2.9308021068573
1774472087882669600,10.937669677734375,-0.08105972409248352,-0.5612453818321228,-2.343508243560791
1774472087892697900,10.94769775390625,-0.016905691474676132,-1.113985538482666,-1.3600449562072754
1774472087902725600,10.9577255859375,0.06959643959999084,-0.8930846452713013,-1.2398227453231812
1774472087912754700,10.967754638671876,0.18369333446025848,-0.5444669723510742,-1.4153205156326294
1774472087922782700,10.97778271484375,0.30245915055274963,-0.41294625401496887,-1.2281361818313599
1774472087932810800,10.987810791015624,0.3789260983467102,-0.4296415150165558,-0.8953943252563477
1774472087942838800,10.9978388671875,0.43731191754341125,-0.48007139563560486,-0.6867827773094177
1774472087952867800,11.007867919921875,0.4308713674545288,-0.4888717830181122,-0.643515944480896
1774472087962896000,11.017895751953125,0.3698998987674713,-0.47123047709465027,-0.7059942483901978
1774472087972923600,11.027923583984375,0.3723967969417572,-0.45437386631965637,-0.8215301632881165
1774472087982953000,11.037952880859375,0.43337517976760864,-0.5263500809669495,-0.8860255479812622
1774472087992980700,11.047980712890626,0.5014132261276245,-0.6997517943382263,-0.6935973763465881
1774472088003008800,11.0580087890625,0.7328776121139526,-0.9601871371269226,-0.34187212586402893
1774472088013036800,11.068036865234374,1.0185993909835815,-1.469714641571045,-0.18671204149723053
1774472088023065900,11.07806591796875,1.1760039329528809,-2.26174259185791,-0.5909974575042725
1774472088033093600,11.08809375,1.3527311086654663,-2.8800013065338135,-0.9316955804824829
1774472088043122000,11.098121826171875,1.4066787958145142,-3.8341429233551025,-0.925947904586792
1774472088053149700,11.108149658203125,1.2921537160873413,-4.275993347167969,-0.8612228035926819
1774472088063178800,11.1181787109375,1.1079202890396118,-4.1809868812561035,-0.9922116994857788
1774472088073206800,11.128206787109375,0.9806442856788635,-4.007718086242676,-1.0506209135055542
1774472088083234800,11.13823486328125,0.8611010909080505,-3.8918840885162354,-1.1206570863723755
1774472088093264000,11.148263916015624,0.7993804216384888,-3.42911696434021,-1.2247105836868286
1774472088103291600,11.158291748046874,0.7274817824363708,-2.82576847076416,-1.2981150150299072
1774472088113320000,11.16831982421875,0.573540449142456,-2.2680413722991943,-1.3088206052780151
1774472088123347700,11.17834765625,0.28182655572891235,-1.4863194227218628,-1.3017067909240723
1774472088133376800,11.188376708984375,-0.028014417737722397,-0.6822858452796936,-1.3357925415039062
1774472088143404800,11.19840478515625,-0.2653619945049286,0.03704571723937988,-1.3978015184402466
1774472088153432800,11.208432861328125,-0.4191817045211792,0.5509443283081055,-1.4432638883590698
1774472088163460600,11.218460693359376,-0.5595100522041321,0.8246963024139404,-1.5370959043502808
1774472088173490000,11.228489990234374,-0.6737924814224243,0.9131361246109009,-1.6387360095977783
1774472088183517700,11.238517578125,-0.7682401537895203,0.8200511932373047,-1.7305210828781128
1774472088193545700,11.248545654296874,-0.8489046692848206,0.5852992534637451,-1.839894413948059
1774472088203574800,11.25857470703125,-0.8899301290512085,0.3093654215335846,-1.9465103149414062
1774472088213603000,11.26860302734375,-1.1281585693359375,0.541269063949585,-2.181612730026245
1774472088223631000,11.278631103515625,-1.630597472190857,1.1221749782562256,-2.4159610271453857
1774472088233659100,11.2886591796875,-1.8839936256408691,1.4384769201278687,-2.507054090499878
1774472088243688200,11.298688232421876,-1.7628424167633057,0.98073410987854,-2.425424814224243
1774472088253716000,11.308716064453124,-1.500942587852478,0.32646533846855164,-2.227790594100952
1774472088263744000,11.318743896484374,-1.226438045501709,0.00394053990021348,-1.9516150951385498
1774472088273773300,11.328773193359375,-1.0988750457763672,0.4558481276035309,-1.6430703401565552
1774472088283801000,11.338801025390625,-0.8731303811073303,1.1749937534332275,-1.2239047288894653
1774472088293829000,11.3488291015625,-0.6936193108558655,1.8810752630233765,-0.7598013281822205
1774472088303857200,11.358857177734375,-0.6265965700149536,2.457941770553589,-0.3146481215953827
1774472088313886200,11.36888623046875,-0.7041605114936829,2.857541799545288,-0.013646934181451797
1774472088323914000,11.3789140625,-1.1674836874008179,3.062849283218384,0.07126396149396896
1774472088333942300,11.3889423828125,-1.038845181465149,2.3929102420806885,0.34122294187545776
1774472088343970000,11.398969970703124,-1.0726590156555176,1.8087081909179688,0.41164305806159973
1774472088353999000,11.4089990234375,-1.0847265720367432,1.5680757761001587,0.403543621301651
1774472088364027100,11.419027099609375,-1.0944771766662598,1.5213476419448853,0.4849388897418976
1774472088374055200,11.42905517578125,-1.152944803237915,1.730493187904358,0.5784908533096313
1774472088384084000,11.439083984375,-1.4209098815917969,2.0339438915252686,0.6281209588050842
1774472088394112000,11.449112060546875,-1.7427136898040771,2.0594887733459473,0.7706695795059204
1774472088404140000,11.45914013671875,-1.931088924407959,1.8397235870361328,0.9767116904258728
1774472088414168000,11.46916796875,-2.116138219833374,1.2995973825454712,0.9568293690681458
1774472088424197000,11.479197021484374,-2.187614679336548,0.5074481964111328,0.8922852277755737
1774472088434225200,11.48922509765625,-2.197643756866455,-0.068663090467453,0.8251091837882996
1774472088444253200,11.499253173828125,-2.1435322761535645,-0.45076385140419006,0.6904959678649902
1774472088454281200,11.50928125,-1.9086743593215942,-0.6129029393196106,0.6184448599815369
1774472088464310300,11.519310302734375,-1.3275675773620605,-0.5603995323181152,0.6827002763748169
1774472088474338000,11.529338134765625,-0.5971375703811646,-0.38164883852005005,0.8461483716964722
1774472088484366000,11.539365966796876,0.10400638729333878,-0.0809883251786232,0.960258960723877
1774472088494395100,11.54939501953125,0.6804935932159424,0.20808812975883484,0.9683369994163513
1774472088504423200,11.559423095703124,1.0322383642196655,0.2906722128391266,0.8399582505226135
1774472088514451000,11.569450927734374,1.1780486106872559,0.2619299292564392,0.6525798439979553
1774472088524479200,11.579479248046875,0.5681151747703552,0.515017032623291,0.5710048079490662
1774472088534508000,11.589508056640625,0.04247318580746651,0.37500497698783875,0.5740679502487183
1774472088544536000,11.5995361328125,-0.14873193204402924,-0.1701238602399826,0.584313690662384
1774472088554564000,11.609564208984375,-0.08228827267885208,-0.405259907245636,0.5709659457206726
1774472088564593200,11.61959326171875,0.08427168428897858,-0.3141864538192749,0.6060291528701782
1774472088574621200,11.62962109375,0.26951178908348083,-0.1859215497970581,0.696354866027832
1774472088584649000,11.63964892578125,0.4248851239681244,-0.08103827387094498,0.8186799883842468
1774472088594677200,11.64967724609375,0.5490861535072327,-0.06401225179433823,0.9564607739448547
1774472088604706000,11.6597060546875,0.6994820833206177,-0.19546693563461304,1.0670557022094727
1774472088614734000,11.669734130859375,0.9138830900192261,-0.4037649631500244,1.0918554067611694
1774472088624762000,11.67976220703125,1.0773972272872925,-0.6430204510688782,1.0524996519088745
1774472088634791200,11.689791259765625,1.1109778881072998,-0.8417120575904846,0.9488306641578674
1774472088644819000,11.69981884765625,1.076433539390564,-0.9444496035575867,0.8290477991104126
1774472088654847200,11.70984716796875,1.0400350093841553,-0.9087579846382141,0.7197349071502686
1774472088664875000,11.719875,1.0038375854492188,-0.853857159614563,0.620938241481781
1774472088674904000,11.729904052734375,1.0180745124816895,-1.087570309638977,0.46626320481300354
1774472088684932000,11.73993212890625,1.1474412679672241,-1.9067085981369019,0.1527918428182602
1774472088694960000,11.749960205078125,1.3431881666183472,-3.4295687675476074,-0.2547684907913208
1774472088704988000,11.75998779296875,1.2763378620147705,-4.65948486328125,-0.5795103311538696
1774472088715017000,11.770016845703125,1.1194318532943726,-4.94892692565918,-0.7073958516120911
1774472088725045200,11.780045166015626,0.9677384495735168,-4.552914142608643,-0.5863389372825623
1774472088735073000,11.790072998046876,0.7313989996910095,-3.037515640258789,0.08079152554273605
1774472088745102000,11.80010205078125,0.46479713916778564,-1.1202611923217773,0.6461681127548218
1774472088755130000,11.810130126953124,0.3886789083480835,-0.3651013970375061,0.602448046207428
1774472088765158100,11.820158203125,0.497577428817749,-0.4432598650455475,0.15058709681034088
1774472088775186200,11.830186279296875,0.5575489401817322,-0.7183417081832886,-0.22287090122699738
1774472088785215200,11.84021533203125,0.549572765827179,-0.5127164125442505,-0.2692040503025055
1774472088795243000,11.850242919921875,0.5007131695747375,-0.177001491189003,-0.2752002477645874
1774472088805271000,11.86027099609375,0.3384222686290741,-0.2351100742816925,-0.5533072352409363
1774472088815299000,11.870299072265626,0.35113558173179626,-0.36131274700164795,-0.8482620120048523
1774472088825328000,11.880328125,0.38476651906967163,-0.31189459562301636,-1.01094388961792
1774472088835356000,11.89035595703125,0.3684351444244385,-0.2953941524028778,-1.262500524520874
1774472088845384200,11.90038427734375,0.3767814636230469,-0.27856937050819397,-1.3791770935058594
1774472088855413200,11.910413330078125,0.4454847276210785,0.17230170965194702,-1.2831223011016846
1774472088865441000,11.92044091796875,0.5001892447471619,0.4783886671066284,-1.2855491638183594
1774472088875469300,11.93046923828125,0.5738632082939148,0.5522438883781433,-1.3740955591201782
1774472088885497000,11.9404970703125,0.5430879592895508,0.2948874533176422,-1.414906620979309
1774472088895526100,11.950526123046876,0.4655674397945404,-0.2661800682544708,-1.3603216409683228
1774472088905554200,11.96055419921875,0.4664159417152405,-0.9069616794586182,-1.2321535348892212
1774472088915582200,11.970582275390624,0.5006648898124695,-1.4914113283157349,-1.0420137643814087
1774472088925611000,11.980611083984375,0.5003809928894043,-2.0435831546783447,-0.8777168989181519
1774472088935639000,11.99063916015625,0.6781708598136902,-2.250711679458618,-0.8352665305137634
1774472088945667000,12.0006669921875,0.9065560698509216,-2.126889944076538,-0.8166254758834839
1774472088955695000,12.010695068359375,1.0940015316009521,-1.8795868158340454,-0.7631212472915649
1774472088965724000,12.020723876953125,1.2241332530975342,-1.7208043336868286,-0.6803757548332214
1774472088975752200,12.030752197265626,1.2281140089035034,-1.6164191961288452,-0.5533744692802429
1774472088985780000,12.040780029296876,1.1930289268493652,-1.4615355730056763,-0.3660551905632019
1774472088995808000,12.05080810546875,1.1642122268676758,-1.3268457651138306,-0.2179413139820099
1774472089005837300,12.06083740234375,1.1910728216171265,-1.3306015729904175,-0.11428336799144745
1774472089015865000,12.070864990234375,1.2749576568603516,-1.2569223642349243,0.0812772884964943
1774472089025893000,12.08089306640625,1.3295034170150757,-1.4244378805160522,0.251907616853714
1774472089035922200,12.090922119140625,1.3863245248794556,-1.6530460119247437,0.33051687479019165
1774472089045950200,12.1009501953125,1.4133121967315674,-1.772483468055725,0.4279339909553528
1774472089055978000,12.11097802734375,1.3984047174453735,-1.7068426609039307,0.527254045009613
1774472089066006300,12.12100634765625,1.3813471794128418,-1.5203633308410645,0.575372576713562
1774472089076035000,12.13103515625,1.294561743736267,-1.3747254610061646,0.6132557392120361
1774472089086063000,12.14106298828125,1.1415897607803345,-1.2920868396759033,0.6061336398124695
1774472089096091100,12.151091064453125,0.9999513626098633,-1.042410135269165,0.5683010220527649
1774472089106120200,12.1611201171875,0.9763309955596924,-0.3941982686519623,0.5948508977890015
1774472089116148000,12.17114794921875,0.914257824420929,0.25101006031036377,0.4772670269012451
1774472089126176000,12.181176025390625,0.813234806060791,0.9111109972000122,0.05531124025583267
1774472089136204000,12.1912041015625,0.6674397587776184,1.653395652770996,-0.3387788236141205
1774472089146233000,12.201233154296874,0.5042521357536316,2.3244118690490723,-0.5257910490036011
1774472089156261000,12.21126123046875,0.3835946321487427,2.812697410583496,-0.6898540258407593
1774472089166289200,12.2212890625,0.2753547132015228,3.2025749683380127,-0.871666431427002
1774472089176317200,12.231317138671875,0.16602198779582977,3.5524139404296875,-0.9850698709487915
1774472089186346000,12.241345947265625,0.05675036832690239,3.856553316116333,-0.9935914874076843
1774472089196374300,12.251374267578125,-0.01256896834820509,3.8710639476776123,-0.7921339869499207
1774472089206402000,12.261402099609375,-0.03547561541199684,3.5840227603912354,-0.46711647510528564
1774472089216430000,12.27143017578125,-0.023579958826303482,2.9388928413391113,-0.23337143659591675
1774472089226458400,12.281458251953126,-0.09815140068531036,2.2305245399475098,-0.17799100279808044
1774472089236486100,12.291486083984376,-0.2057020366191864,1.8387123346328735,-0.24448275566101074
1774472089246514400,12.301514404296874,-0.30836716294288635,1.9521733522415161,-0.46611207723617554
1774472089256543200,12.311543212890625,-0.44853585958480835,2.426403045654297,-0.7962445616722107
1774472089266571300,12.3215712890625,-0.5796075463294983,2.845762014389038,-1.0159441232681274
1774472089276599300,12.331599365234375,-0.7152915596961975,3.1807518005371094,-1.1812341213226318
1774472089286627300,12.34162744140625,-0.7791954278945923,2.91264009475708,-1.0666321516036987
1774472089296656400,12.351656494140625,-0.8050445914268494,2.1795854568481445,-0.9185099601745605
1774472089306684200,12.36168408203125,-0.7357041239738464,1.176979660987854,-0.6501525640487671
1774472089316712400,12.37171240234375,-0.5120057463645935,0.23758235573768616,-0.3798728585243225
1774472089326741200,12.3817412109375,-0.27069276571273804,-0.291140079498291,-0.21398590505123138
1774472089336769300,12.391769287109375,-0.122527576982975,-0.46593236923217773,-0.20664262771606445
1774472089346797300,12.40179736328125,-0.0691828653216362,-0.577846884727478,-0.27645501494407654
1774472089356825300,12.411825439453125,-0.05969870835542679,-0.7276382446289062,-0.41146719455718994
1774472089366854100,12.421854248046875,-0.10113882273435593,-0.8929534554481506,-0.4278496205806732
1774472089376882400,12.43188232421875,-0.14361140131950378,-1.1472336053848267,-0.5339751839637756
1774472089386910200,12.44191015625,-0.11636113375425339,-1.5193603038787842,-0.6143669486045837
1774472089396939300,12.451939208984374,-0.05903281271457672,-1.8309301137924194,-0.5628302693367004
1774472089406967000,12.461967041015624,0.015875782817602158,-2.0851247310638428,-0.45666685700416565
1774472089416995300,12.471995361328124,0.016600200906395912,-1.9977357387542725,-0.308820515871048
1774472089427023000,12.482023193359375,-0.04574626684188843,-1.5012485980987549,-0.16528251767158508
1774472089437052200,12.49205224609375,-0.11122727394104004,-0.8763602375984192,-0.054405275732278824
1774472089447080400,12.50208056640625,-0.218881294131279,-0.11772794276475906,0.12058331817388535
1774472089457108200,12.512108154296875,-0.486020565032959,1.426399827003479,0.2792357802391052
1774472089467136300,12.52213623046875,-0.7580317854881287,2.6220972537994385,0.09019474685192108
1774472089477165300,12.532165283203126,-0.9300346374511719,2.64172101020813,0.04661671072244644
1774472089487193300,12.542193359375,-0.9578145742416382,1.6285276412963867,0.18364299833774567
1774472089497221000,12.55222119140625,-0.9211126565933228,0.24273617565631866,0.2356036901473999
1774472089507250400,12.56225048828125,-0.9559334516525269,-0.9467839002609253,0.16905821859836578
