time,seconds_elapsed,z,y,x
1773258445379139300,0.069139404296875,-0.973876953125,-0.1890716552734375,-0.01361083984375
1773258445389166300,0.079166259765625,-0.975311279296875,-0.1905670166015625,-0.0140533447265625
1773258445399192300,0.0891923828125,-0.9764862060546875,-0.19171142578125,-0.0113525390625
1773258445409219600,0.099219482421875,-0.9771881103515625,-0.188720703125,-0.0066375732421875
1773258445419245600,0.10924560546875,-0.9786529541015625,-0.1872100830078125,-0.0030059814453125
1773258445429272300,0.119272216796875,-0.971771240234375,-0.186676025390625,0.0007171630859375
1773258445439298300,0.12929833984375,-0.9688720703125,-0.1832275390625,0.003997802734375
1773258445449325300,0.1393251953125,-0.972198486328125,-0.184906005859375,0.00592041015625
1773258445459352600,0.1493525390625,-0.9747161865234375,-0.1892242431640625,0.0074615478515625
1773258445469378600,0.159378662109375,-0.9799041748046875,-0.19281005859375,0.01287841796875
1773258445479405300,0.1694052734375,-0.9824066162109375,-0.189849853515625,0.01129150390625
1773258445489431300,0.179431396484375,-0.97393798828125,-0.18670654296875,0.0052642822265625
1773258445499458300,0.189458251953125,-0.9728546142578125,-0.1889495849609375,0.012054443359375
1773258445509484500,0.199484619140625,-0.9779510498046875,-0.18414306640625,0.0230255126953125
1773258445519511600,0.209511474609375,-0.967864990234375,-0.1857452392578125,0.027801513671875
1773258445529537500,0.21953759765625,-0.96734619140625,-0.1956787109375,0.0437164306640625
1773258445539564300,0.229564208984375,-0.9807586669921875,-0.2090911865234375,0.054107666015625
1773258445549591600,0.239591552734375,-1.0015716552734375,-0.221343994140625,0.0574798583984375
1773258445559617500,0.249617431640625,-1.007171630859375,-0.2347259521484375,0.0638580322265625
1773258445569644500,0.25964453125,-0.9953460693359375,-0.240814208984375,0.0655975341796875
1773258445579670500,0.26967041015625,-0.9662628173828125,-0.2227783203125,0.041046142578125
1773258445589697300,0.279697265625,-0.9364166259765625,-0.2079925537109375,0.0425262451171875
1773258445599723300,0.28972314453125,-0.954833984375,-0.212646484375,0.0529327392578125
1773258445609750500,0.29975048828125,-0.9613189697265625,-0.2276153564453125,0.0736083984375
1773258445619776500,0.309776611328125,-0.9720611572265625,-0.242828369140625,0.10028076171875
1773258445629803500,0.319803466796875,-1.0152130126953125,-0.25482177734375,0.1109161376953125
1773258445639830300,0.329830322265625,-1.0394287109375,-0.2606353759765625,0.1109771728515625
1773258445649856300,0.339856201171875,-1.0123748779296875,-0.2586669921875,0.1111602783203125
1773258445659883500,0.349883544921875,-0.9703826904296875,-0.2515716552734375,0.1150360107421875
1773258445669909500,0.359909423828125,-0.963287353515625,-0.255584716796875,0.1233978271484375
1773258445679936500,0.3699365234375,-0.966522216796875,-0.2643280029296875,0.1278533935546875
1773258445689962500,0.37996240234375,-0.9669342041015625,-0.2718353271484375,0.14599609375
1773258445699989200,0.3899892578125,-0.97784423828125,-0.2642974853515625,0.1752166748046875
1773258445710016500,0.4000166015625,-0.9619903564453125,-0.2347259521484375,0.1931610107421875
1773258445720042500,0.41004248046875,-0.9560089111328125,-0.22650146484375,0.210601806640625
1773258445730069500,0.420069580078125,-0.9567108154296875,-0.230010986328125,0.23675537109375
1773258445740095500,0.430095458984375,-0.993499755859375,-0.2306365966796875,0.206207275390625
1773258445750122200,0.440122314453125,-1.0480194091796875,-0.22845458984375,0.217376708984375
1773258445760148500,0.4501484375,-1.0985565185546875,-0.199493408203125,0.276885986328125
1773258445770175500,0.460175537109375,-1.133453369140625,-0.2371368408203125,0.2802276611328125
1773258445780201500,0.470201416015625,-1.095672607421875,-0.299285888671875,0.27410888671875
1773258445790228500,0.480228515625,-0.971923828125,-0.3441925048828125,0.2391510009765625
1773258445800255500,0.49025537109375,-0.85638427734375,-0.377471923828125,0.1994781494140625
1773258445810281500,0.500281494140625,-0.79656982421875,-0.400421142578125,0.165008544921875
1773258445820308500,0.51030859375,-0.7700347900390625,-0.3964996337890625,0.19915771484375
1773258445830334500,0.52033447265625,-0.78509521484375,-0.3744964599609375,0.247711181640625
1773258445840361500,0.530361572265625,-0.8361358642578125,-0.3407135009765625,0.2816009521484375
1773258445850387500,0.540387451171875,-0.870391845703125,-0.33135986328125,0.31640625
1773258445860414500,0.55041455078125,-0.925811767578125,-0.3588714599609375,0.282989501953125
1773258445870441500,0.56044140625,-0.9650115966796875,-0.3751983642578125,0.250335693359375
1773258445880467500,0.570467529296875,-0.916717529296875,-0.3624114990234375,0.23846435546875
1773258445890494500,0.580494384765625,-0.9347076416015625,-0.31884765625,0.17254638671875
1773258445900520400,0.5905205078125,-0.9860382080078125,-0.272735595703125,0.1771697998046875
1773258445910547500,0.60054736328125,-1.009033203125,-0.2315521240234375,0.25628662109375
1773258445920573400,0.610573486328125,-0.9841461181640625,-0.186431884765625,0.3406219482421875
1773258445930600400,0.620600341796875,-0.8885498046875,-0.2282867431640625,0.3449859619140625
1773258445940627500,0.63062744140625,-0.7818450927734375,-0.340362548828125,0.2862548828125
1773258445950653400,0.6406533203125,-0.6822509765625,-0.41943359375,0.200408935546875
1773258445960680400,0.650680419921875,-0.6901092529296875,-0.429229736328125,0.14056396484375
1773258445970706400,0.66070654296875,-0.843109130859375,-0.3573455810546875,0.117401123046875
1773258445980733400,0.6707333984375,-0.9890289306640625,-0.2578125,0.1803436279296875
1773258445990759400,0.680759521484375,-0.9998779296875,-0.2625274658203125,0.302886962890625
1773258446000786400,0.690786376953125,-0.919769287109375,-0.3519744873046875,0.378997802734375
1773258446010812400,0.7008125,-0.8684234619140625,-0.4257965087890625,0.355926513671875
1773258446020839400,0.71083935546875,-0.8466339111328125,-0.3997344970703125,0.2784881591796875
1773258446030866400,0.720866455078125,-0.82122802734375,-0.3527374267578125,0.205718994140625
1773258446040892400,0.730892333984375,-0.8473052978515625,-0.3040008544921875,0.1796112060546875
1773258446050919400,0.74091943359375,-0.9099273681640625,-0.2757110595703125,0.178802490234375
1773258446060945400,0.7509453125,-0.955230712890625,-0.30853271484375,0.1827392578125
1773258446070972400,0.760972412109375,-0.9009246826171875,-0.3954620361328125,0.2005615234375
1773258446080998400,0.770998291015625,-0.8559417724609375,-0.4782562255859375,0.1889190673828125
1773258446091025400,0.781025390625,-0.8663787841796875,-0.5184783935546875,0.1466064453125
1773258446101052400,0.791052490234375,-0.7974700927734375,-0.4940032958984375,0.1365203857421875
1773258446111078400,0.801078369140625,-0.7541046142578125,-0.4713592529296875,0.143707275390625
1773258446121105400,0.81110546875,-0.8148345947265625,-0.46563720703125,0.1761932373046875
1773258446131131400,0.82113134765625,-0.7889404296875,-0.5207366943359375,0.1653900146484375
1773258446141158400,0.831158447265625,-0.748992919921875,-0.50689697265625,0.1515045166015625
1773258446151184400,0.841184326171875,-0.8117828369140625,-0.4887847900390625,0.128173828125
1773258446161211400,0.85121142578125,-0.916473388671875,-0.505767822265625,0.135986328125
1773258446171238400,0.86123828125,-0.8128662109375,-0.5103912353515625,0.1525726318359375
1773258446181264400,0.871264404296875,-0.8153076171875,-0.5015716552734375,0.1721038818359375
1773258446191291400,0.88129150390625,-0.866058349609375,-0.459869384765625,0.21356201171875
1773258446201317400,0.8913173828125,-0.8420867919921875,-0.4652862548828125,0.2217864990234375
1773258446211344400,0.901344482421875,-0.8265380859375,-0.45794677734375,0.203155517578125
1773258446221370400,0.911370361328125,-0.8477325439453125,-0.446044921875,0.20135498046875
1773258446231397400,0.9213974609375,-0.8428192138671875,-0.4424896240234375,0.1844024658203125
1773258446241424400,0.93142431640625,-0.82177734375,-0.427032470703125,0.169769287109375
1773258446251450600,0.94145068359375,-0.8215484619140625,-0.4133453369140625,0.173492431640625
1773258446261477400,0.951477294921875,-0.825531005859375,-0.4104461669921875,0.182647705078125
1773258446271503400,0.96150341796875,-0.8309783935546875,-0.4144134521484375,0.1862030029296875
1773258446281530400,0.9715302734375,-0.8509063720703125,-0.4337158203125,0.1774444580078125
1773258446291556400,0.981556396484375,-0.876678466796875,-0.447265625,0.1823577880859375
1773258446301583600,0.99158349609375,-0.8787384033203125,-0.4728851318359375,0.1689300537109375
1773258446311609600,1.001609619140625,-0.8944854736328125,-0.5080413818359375,0.157379150390625
1773258446321637000,1.01163720703125,-0.8872222900390625,-0.5346221923828125,0.1563568115234375
1773258446331664400,1.021664306640625,-0.8986663818359375,-0.5468597412109375,0.14215087890625
1773258446341690400,1.0316904296875,-0.904449462890625,-0.5478973388671875,0.129608154296875
1773258446351717000,1.041717041015625,-0.91265869140625,-0.549652099609375,0.123016357421875
1773258446361743000,1.0517431640625,-0.9173736572265625,-0.5545501708984375,0.1154022216796875
1773258446371770000,1.06177001953125,-0.9166107177734375,-0.5535888671875,0.10577392578125
1773258446381796000,1.071796142578125,-0.8984527587890625,-0.53887939453125,0.1050262451171875
1773258446391823400,1.0818232421875,-0.87359619140625,-0.5247650146484375,0.10906982421875
1773258446401850000,1.09185009765625,-0.8487396240234375,-0.510009765625,0.1172943115234375
1773258446411876000,1.1018759765625,-0.82879638671875,-0.4937744140625,0.1209716796875
1773258446421903000,1.111903076171875,-0.8083953857421875,-0.4837799072265625,0.122802734375
1773258446431929000,1.12192919921875,-0.800872802734375,-0.477325439453125,0.1161651611328125
1773258446441956400,1.131956298828125,-0.801513671875,-0.4680938720703125,0.10784912109375
1773258446451983000,1.141983154296875,-0.7956695556640625,-0.45611572265625,0.098236083984375
1773258446462009000,1.152009033203125,-0.80010986328125,-0.4524078369140625,0.0943450927734375
1773258446472036000,1.1620361328125,-0.8339385986328125,-0.45330810546875,0.1063690185546875
1773258446482062000,1.17206201171875,-0.8551483154296875,-0.4420928955078125,0.12298583984375
1773258446492089300,1.18208935546875,-0.87384033203125,-0.4246063232421875,0.1185760498046875
1773258446502115300,1.192115234375,-0.89117431640625,-0.4109954833984375,0.1174163818359375
1773258446512142000,1.20214208984375,-0.8918609619140625,-0.4069671630859375,0.1165924072265625
1773258446522169000,1.212169189453125,-0.8964691162109375,-0.4045257568359375,0.130615234375
1773258446532195300,1.2221953125,-0.92681884765625,-0.4125213623046875,0.153045654296875
1773258446542222300,1.232222412109375,-0.9104766845703125,-0.416473388671875,0.15936279296875
1773258446552248300,1.242248291015625,-0.8515625,-0.399017333984375,0.15362548828125
1773258446562275000,1.252275146484375,-0.86248779296875,-0.3637237548828125,0.185546875
1773258446572301000,1.262301025390625,-0.948944091796875,-0.3774566650390625,0.19012451171875
1773258446582328300,1.272328369140625,-0.97314453125,-0.4214324951171875,0.1641387939453125
1773258446592354300,1.282354248046875,-0.925048828125,-0.4072113037109375,0.1644439697265625
1773258446602381300,1.29238134765625,-0.913726806640625,-0.40948486328125,0.1578216552734375
1773258446612408000,1.302407958984375,-0.89202880859375,-0.4566650390625,0.121673583984375
1773258446622434000,1.31243408203125,-0.865325927734375,-0.470245361328125,0.0935516357421875
1773258446632461300,1.32246142578125,-0.87933349609375,-0.501007080078125,0.0815277099609375
1773258446642487300,1.3324873046875,-0.89154052734375,-0.52801513671875,0.068603515625
1773258446652514300,1.342514404296875,-0.8790740966796875,-0.5232391357421875,0.05450439453125
1773258446662541000,1.352541015625,-0.855224609375,-0.513702392578125,0.0567169189453125
1773258446672567000,1.362567138671875,-0.843658447265625,-0.498779296875,0.0616302490234375
1773258446682594300,1.37259423828125,-0.838348388671875,-0.48272705078125,0.0507354736328125
1773258446692620300,1.382620361328125,-0.831573486328125,-0.4723968505859375,0.064422607421875
1773258446702647300,1.392647216796875,-0.837249755859375,-0.455657958984375,0.0915374755859375
1773258446712673300,1.40267333984375,-0.8209228515625,-0.4435272216796875,0.1026458740234375
1773258446722700000,1.412699951171875,-0.8422393798828125,-0.44427490234375,0.101104736328125
1773258446732727300,1.422727294921875,-0.8748321533203125,-0.4464263916015625,0.098541259765625
1773258446742753300,1.432753173828125,-0.8875732421875,-0.4420013427734375,0.0857696533203125
1773258446752780300,1.4427802734375,-0.8667144775390625,-0.4503631591796875,0.0706329345703125
1773258446762806300,1.45280615234375,-0.8783721923828125,-0.456024169921875,0.054718017578125
1773258446772833000,1.4628330078125,-0.9075469970703125,-0.459197998046875,0.0552825927734375
1773258446782859300,1.472859375,-0.92999267578125,-0.4546966552734375,0.0697479248046875
1773258446792886300,1.48288623046875,-0.9490203857421875,-0.44403076171875,0.068511962890625
1773258446802913300,1.492913330078125,-0.9387664794921875,-0.4387664794921875,0.0460357666015625
1773258446812939300,1.502939208984375,-0.908966064453125,-0.42974853515625,0.0269775390625
1773258446822966000,1.512966064453125,-0.90673828125,-0.425811767578125,0.0315704345703125
1773258446832992300,1.5229921875,-0.9142608642578125,-0.4276123046875,0.04180908203125
1773258446843019300,1.533019287109375,-0.901458740234375,-0.43743896484375,0.0498504638671875
1773258446853045200,1.543045166015625,-0.904571533203125,-0.445281982421875,0.0596160888671875
1773258446863072300,1.553072265625,-0.9049835205078125,-0.45025634765625,0.061431884765625
1773258446873099300,1.563099365234375,-0.90411376953125,-0.4456939697265625,0.0622711181640625
1773258446883125200,1.573125244140625,-0.9098968505859375,-0.445159912109375,0.0596160888671875
1773258446893152300,1.58315234375,-0.8936920166015625,-0.4403228759765625,0.060089111328125
1773258446903178200,1.59317822265625,-0.8728485107421875,-0.4318695068359375,0.0682220458984375
1773258446913205200,1.603205322265625,-0.863616943359375,-0.4320068359375,0.0737152099609375
1773258446923232300,1.613232177734375,-0.8395538330078125,-0.4279937744140625,0.0755767822265625
1773258446933258200,1.62325830078125,-0.8364410400390625,-0.424468994140625,0.077911376953125
1773258446943285200,1.63328515625,-0.8329620361328125,-0.4268035888671875,0.08941650390625
1773258446953311200,1.643311279296875,-0.8187713623046875,-0.4407806396484375,0.08575439453125
1773258446963338200,1.653338134765625,-0.84442138671875,-0.4474639892578125,0.09014892578125
1773258446973364200,1.6633642578125,-0.8477783203125,-0.4681549072265625,0.081146240234375
1773258446983391200,1.67339111328125,-0.8573455810546875,-0.4738311767578125,0.0784912109375
1773258446993418200,1.683418212890625,-0.8669891357421875,-0.4744110107421875,0.058624267578125
1773258447003444200,1.6934443359375,-0.8660125732421875,-0.4762420654296875,0.0306854248046875
1773258447013471200,1.70347119140625,-0.8576812744140625,-0.484466552734375,0.00274658203125
1773258447023497200,1.713497314453125,-0.869537353515625,-0.491424560546875,-0.010345458984375
1773258447033524200,1.723524169921875,-0.8875732421875,-0.5100860595703125,-0.014617919921875
1773258447043551200,1.73355126953125,-0.9048919677734375,-0.5223388671875,-0.0204315185546875
1773258447053577200,1.7435771484375,-0.9178009033203125,-0.52044677734375,-0.021209716796875
1773258447063604200,1.753604248046875,-0.9221343994140625,-0.5015411376953125,-0.0140228271484375
1773258447073630200,1.763630126953125,-0.9426422119140625,-0.47943115234375,-0.011016845703125
1773258447083657200,1.7736572265625,-0.95538330078125,-0.4402313232421875,-0.0138397216796875
1773258447093683200,1.78368310546875,-0.9507293701171875,-0.417022705078125,0.0005645751953125
1773258447103710200,1.793710205078125,-0.92437744140625,-0.426788330078125,0.014312744140625
1773258447113737200,1.8037373046875,-0.8761138916015625,-0.434326171875,0.02093505859375
1773258447123763200,1.81376318359375,-0.8365936279296875,-0.471099853515625,0.0160675048828125
1773258447133790200,1.823790283203125,-0.851837158203125,-0.4885101318359375,0.007049560546875
1773258447143816200,1.833816162109375,-0.85382080078125,-0.5056304931640625,-0.0062103271484375
1773258447153843200,1.84384326171875,-0.8395843505859375,-0.5144195556640625,0.002960205078125
1773258447163870200,1.8538701171875,-0.8327178955078125,-0.49920654296875,0.01605224609375
1773258447173896200,1.863896240234375,-0.860687255859375,-0.4787750244140625,0.008392333984375
1773258447183923200,1.873923095703125,-0.881195068359375,-0.4594268798828125,-0.018035888671875
1773258447193949200,1.88394921875,-0.8885955810546875,-0.436676025390625,-0.0325469970703125
1773258447203976200,1.89397607421875,-0.9496917724609375,-0.495269775390625,-0.0189971923828125
1773258447214002200,1.904002197265625,-1.0221099853515625,-0.529754638671875,-0.0102691650390625
1773258447224029200,1.914029296875,-0.899688720703125,-0.43121337890625,-0.029296875
1773258447234056200,1.92405615234375,-0.9135589599609375,-0.4196319580078125,0.000762939453125
1773258447244082200,1.934082275390625,-0.9424285888671875,-0.415863037109375,0.0125274658203125
1773258447254109200,1.944109130859375,-0.899505615234375,-0.3567657470703125,0.047027587890625
1773258447264135200,1.95413525390625,-0.93292236328125,-0.3590545654296875,0.0920562744140625
1773258447274162200,1.964162109375,-0.9766082763671875,-0.3763885498046875,0.1147918701171875
1773258447284189200,1.974189208984375,-0.9797515869140625,-0.34234619140625,0.112884521484375
1773258447294215200,1.984215087890625,-0.9811859130859375,-0.2788543701171875,0.062652587890625
1773258447304242200,1.9942421875,-0.9707794189453125,-0.3045196533203125,0.0762939453125
1773258447314268000,2.004267822265625,-0.96539306640625,-0.3565673828125,0.1181182861328125
1773258447324295000,2.014294921875,-0.953216552734375,-0.396270751953125,0.1595001220703125
1773258447334321000,2.02432080078125,-0.868438720703125,-0.452606201171875,0.2110443115234375
1773258447344347600,2.03434765625,-0.8009033203125,-0.4940032958984375,0.2514190673828125
1773258447354375000,2.044375,-0.801177978515625,-0.5652618408203125,0.2636871337890625
1773258447364401000,2.05440087890625,-0.8144683837890625,-0.54351806640625,0.2804107666015625
1773258447374428000,2.064427978515625,-0.7827911376953125,-0.4295196533203125,0.2574005126953125
1773258447384454000,2.074453857421875,-0.754547119140625,-0.3638763427734375,0.213104248046875
1773258447394480600,2.084480712890625,-0.755645751953125,-0.368194580078125,0.183013916015625
1773258447404508000,2.0945078125,-0.725555419921875,-0.39556884765625,0.183319091796875
1773258447414534000,2.104533935546875,-0.6943817138671875,-0.4496307373046875,0.163299560546875
1773258447424561000,2.114560791015625,-0.7727508544921875,-0.4988861083984375,0.06591796875
1773258447434587000,2.1245869140625,-0.7997894287109375,-0.503082275390625,0.1067962646484375
1773258447444613600,2.134613525390625,-0.8823089599609375,-0.4372100830078125,0.1343536376953125
1773258447454641000,2.144640869140625,-0.87176513671875,-0.42193603515625,0.048736572265625
1773258447464667000,2.1546669921875,-0.8155670166015625,-0.389068603515625,0.05224609375
1773258447474694000,2.16469384765625,-0.8079986572265625,-0.37957763671875,0.0658111572265625
1773258447484719900,2.174719970703125,-0.8340301513671875,-0.3753204345703125,0.1142425537109375
1773258447494746600,2.18474658203125,-0.853668212890625,-0.3680419921875,0.175537109375
1773258447504774000,2.19477392578125,-0.8353729248046875,-0.3680877685546875,0.2199859619140625
1773258447514799900,2.2047998046875,-0.8352813720703125,-0.372283935546875,0.20867919921875
1773258447524827000,2.214826904296875,-0.86602783203125,-0.36370849609375,0.16705322265625
1773258447534852900,2.224852783203125,-0.8861083984375,-0.3553314208984375,0.1427459716796875
1773258447544879900,2.2348798828125,-0.897125244140625,-0.3537139892578125,0.137176513671875
1773258447554905900,2.24490576171875,-0.923248291015625,-0.3454437255859375,0.1417083740234375
1773258447564932900,2.254932861328125,-0.9366607666015625,-0.3344879150390625,0.148101806640625
1773258447574959900,2.2649599609375,-0.9294281005859375,-0.3408660888671875,0.1477203369140625
1773258447584985900,2.27498583984375,-0.9394378662109375,-0.33740234375,0.1700286865234375
1773258447595012900,2.285012939453125,-0.9538116455078125,-0.3324432373046875,0.17254638671875
1773258447605038800,2.295038818359375,-0.967926025390625,-0.3343658447265625,0.180145263671875
1773258447615065900,2.30506591796875,-0.9823150634765625,-0.33636474609375,0.18536376953125
1773258447625092900,2.3150927734375,-1.0020294189453125,-0.3336944580078125,0.1521759033203125
1773258447635118800,2.325118896484375,-1.0171661376953125,-0.3280487060546875,0.118804931640625
1773258447645145900,2.335145751953125,-1.013580322265625,-0.3219146728515625,0.116912841796875
1773258447655171800,2.345171875,-0.984710693359375,-0.3301849365234375,0.1327667236328125
1773258447665198800,2.35519873046875,-0.967254638671875,-0.3363800048828125,0.1581573486328125
1773258447675225900,2.365225830078125,-0.95965576171875,-0.3315277099609375,0.16900634765625
1773258447685251800,2.375251953125,-0.9292144775390625,-0.336700439453125,0.1663360595703125
1773258447695278800,2.38527880859375,-0.924163818359375,-0.3336944580078125,0.1667938232421875
1773258447705304800,2.395304931640625,-0.9268646240234375,-0.3428497314453125,0.1446380615234375
1773258447715331800,2.405331787109375,-0.93658447265625,-0.3525543212890625,0.139190673828125
1773258447725358800,2.41535888671875,-0.9625091552734375,-0.347564697265625,0.117156982421875
1773258447735384600,2.425384521484375,-0.9754486083984375,-0.35284423828125,0.11181640625
1773258447745411800,2.435411865234375,-0.9589691162109375,-0.3489990234375,0.112640380859375
1773258447755437800,2.445437744140625,-0.9378509521484375,-0.3492889404296875,0.108642578125
1773258447765464800,2.45546484375,-0.9356536865234375,-0.35357666015625,0.1554412841796875
1773258447775491800,2.465491943359375,-0.96124267578125,-0.36065673828125,0.1881256103515625
1773258447785517600,2.475517578125,-0.9416961669921875,-0.3693389892578125,0.19647216796875
1773258447795544800,2.485544921875,-0.921966552734375,-0.3780670166015625,0.2091522216796875
1773258447805570800,2.49557080078125,-0.917205810546875,-0.3940582275390625,0.2094879150390625
1773258447815597800,2.505597900390625,-0.892852783203125,-0.4029083251953125,0.205963134765625
1773258447825624800,2.515624755859375,-0.8929290771484375,-0.4001312255859375,0.195037841796875
1773258447835650600,2.525650634765625,-0.8857269287109375,-0.387847900390625,0.1737060546875
1773258447845677800,2.535677734375,-0.8609771728515625,-0.3878326416015625,0.1540679931640625
1773258447855703800,2.545703857421875,-0.8755340576171875,-0.3550262451171875,0.14276123046875
1773258447865730800,2.555730712890625,-0.9049072265625,-0.342376708984375,0.1659088134765625
1773258447875757600,2.565757568359375,-0.9451141357421875,-0.3595428466796875,0.1891632080078125
1773258447885783800,2.57578369140625,-0.9423370361328125,-0.3726959228515625,0.175567626953125
1773258447895810800,2.585810791015625,-0.93798828125,-0.4192047119140625,0.169677734375
1773258447905836800,2.5958369140625,-0.9488677978515625,-0.44940185546875,0.1707916259765625
1773258447915863800,2.60586376953125,-0.944976806640625,-0.4592437744140625,0.141815185546875
1773258447925890600,2.615890625,-0.931793212890625,-0.480133056640625,0.1109466552734375
1773258447935916800,2.625916748046875,-0.9235687255859375,-0.463409423828125,0.0791168212890625
1773258447945943800,2.63594384765625,-0.8849639892578125,-0.4549560546875,0.0360260009765625
1773258447955969800,2.6459697265625,-0.876251220703125,-0.44287109375,-0.000640869140625
1773258447965996800,2.655996826171875,-0.858367919921875,-0.46405029296875,-0.029693603515625
1773258447976023800,2.66602392578125,-0.840484619140625,-0.429840087890625,-0.0632476806640625
1773258447986049800,2.6760498046875,-0.8368072509765625,-0.3939361572265625,-0.0864105224609375
1773258447996076800,2.686076904296875,-0.850067138671875,-0.35894775390625,-0.1218109130859375
1773258448006102800,2.696102783203125,-0.8679962158203125,-0.3051910400390625,-0.19622802734375
1773258448016129800,2.7061298828125,-0.872528076171875,-0.30731201171875,-0.2656402587890625
1773258448026156800,2.71615673828125,-0.8850555419921875,-0.303253173828125,-0.317901611328125
1773258448036182800,2.726182861328125,-0.94744873046875,-0.3051300048828125,-0.325531005859375
1773258448046209800,2.736209716796875,-0.987091064453125,-0.320465087890625,-0.375732421875
1773258448056235800,2.74623583984375,-1.01849365234375,-0.2961578369140625,-0.3929290771484375
1773258448066262800,2.7562626953125,-1.0449371337890625,-0.260040283203125,-0.4038848876953125
1773258448076289800,2.766289794921875,-1.0643157958984375,-0.21160888671875,-0.409271240234375
1773258448086315800,2.776315673828125,-1.051300048828125,-0.1988525390625,-0.375152587890625
1773258448096342800,2.7863427734375,-0.92626953125,-0.1288909912109375,-0.4114837646484375
1773258448106368800,2.79636865234375,-0.8144073486328125,-0.0377197265625,-0.4414825439453125
1773258448116395800,2.806395751953125,-0.947021484375,-0.1436309814453125,-0.379302978515625
1773258448126422800,2.8164228515625,-0.9574432373046875,-0.2747802734375,-0.38330078125
1773258448136448800,2.82644873046875,-0.9124603271484375,-0.2509765625,-0.429290771484375
1773258448146475800,2.836475830078125,-0.944244384765625,-0.1685791015625,-0.442413330078125
1773258448156502800,2.846502685546875,-0.9886932373046875,-0.1518402099609375,-0.433258056640625
1773258448166528800,2.85652880859375,-0.9858245849609375,-0.172943115234375,-0.3863067626953125
1773258448176555800,2.8665556640625,-0.9673919677734375,-0.1326141357421875,-0.340423583984375
1773258448186581800,2.876581787109375,-0.9522857666015625,-0.0615692138671875,-0.35784912109375
1773258448196608800,2.88660888671875,-0.9265289306640625,-0.009185791015625,-0.4008636474609375
1773258448206635800,2.8966357421875,-0.9651336669921875,0.01409912109375,-0.4781951904296875
1773258448216661800,2.906661865234375,-0.9817962646484375,0.0188140869140625,-0.3843841552734375
1773258448226688800,2.916688720703125,-0.9842681884765625,-0.055938720703125,-0.2599639892578125
1773258448236714800,2.92671484375,-1.0092620849609375,-0.1436767578125,-0.2867431640625
1773258448246741800,2.93674169921875,-1.1187896728515625,-0.1902313232421875,-0.4520263671875
1773258448256768800,2.946768798828125,-1.17327880859375,-0.231231689453125,-0.4740142822265625
1773258448266794800,2.956794677734375,-1.1452178955078125,-0.2669830322265625,-0.4816741943359375
1773258448276821800,2.96682177734375,-1.2099151611328125,-0.26959228515625,-0.54193115234375
1773258448286847700,2.97684765625,-1.2433013916015625,-0.256866455078125,-0.512847900390625
1773258448296874800,2.986874755859375,-1.2603912353515625,-0.2350921630859375,-0.4160614013671875
1773258448306901800,2.99690185546875,-1.2843017578125,-0.1650238037109375,-0.3666534423828125
1773258448316927700,3.006927734375,-1.1522674560546875,-0.0116424560546875,-0.185089111328125
1773258448326954500,3.01695458984375,-0.9398651123046875,0.1292877197265625,-0.11798095703125
1773258448336980700,3.026980712890625,-0.795440673828125,0.2368621826171875,-0.128936767578125
1773258448347007700,3.0370078125,-0.8657379150390625,0.22503662109375,-0.22210693359375
1773258448357034800,3.04703466796875,-0.914337158203125,0.25311279296875,-0.2887115478515625
1773258448367060700,3.057060791015625,-0.9908447265625,0.345794677734375,-0.273773193359375
1773258448377087700,3.067087646484375,-1.0393829345703125,0.4563140869140625,-0.2718353271484375
1773258448387113700,3.07711376953125,-1.05975341796875,0.5084991455078125,-0.2729339599609375
1773258448397140700,3.087140625,-1.1207275390625,0.4712677001953125,-0.2690582275390625
1773258448407167700,3.097167724609375,-1.212860107421875,0.4358978271484375,-0.311431884765625
1773258448417193700,3.10719384765625,-1.2894287109375,0.4089202880859375,-0.3397216796875
1773258448427220700,3.117220703125,-1.36468505859375,0.3370208740234375,-0.350189208984375
1773258448437247700,3.127247802734375,-1.5194854736328125,0.246368408203125,-0.314910888671875
1773258448447273700,3.137273681640625,-1.430694580078125,0.184295654296875,-0.3232421875
1773258448457300700,3.14730078125,-1.2715911865234375,0.1472015380859375,-0.2888641357421875
1773258448467326700,3.15732666015625,-1.2805938720703125,0.126922607421875,-0.2362823486328125
1773258448477353700,3.167353759765625,-1.2384033203125,0.129241943359375,-0.238494873046875
1773258448487380700,3.177380615234375,-1.1174774169921875,0.063232421875,-0.29083251953125
1773258448497406700,3.18740673828125,-1.07470703125,-0.0564727783203125,-0.3572845458984375
1773258448507433700,3.197433837890625,-1.0365753173828125,-0.086395263671875,-0.37255859375
1773258448517459700,3.207459716796875,-0.9642791748046875,-0.0604400634765625,-0.412139892578125
1773258448527486700,3.21748681640625,-0.922576904296875,-0.0752716064453125,-0.4951171875
1773258448537513700,3.227513671875,-0.86090087890625,-0.1399383544921875,-0.5431976318359375
1773258448547539700,3.237539794921875,-0.9177398681640625,-0.14013671875,-0.5448760986328125
1773258448557566700,3.247566650390625,-0.964691162109375,-0.1011505126953125,-0.478729248046875
1773258448567592700,3.2575927734375,-0.9201202392578125,-0.0924530029296875,-0.3957672119140625
1773258448577619700,3.26761962890625,-0.8270416259765625,-0.1094818115234375,-0.332977294921875
1773258448587646700,3.277646728515625,-0.7948150634765625,-0.132293701171875,-0.322845458984375
1773258448597672700,3.287672607421875,-0.861297607421875,-0.118560791015625,-0.3419342041015625
1773258448607699700,3.29769970703125,-0.860260009765625,-0.03350830078125,-0.345184326171875
1773258448617726700,3.307726806640625,-0.914947509765625,0.0796966552734375,-0.3541412353515625
1773258448627752700,3.317752685546875,-1.047576904296875,0.140045166015625,-0.325592041015625
1773258448637779700,3.32777978515625,-1.005645751953125,0.1766815185546875,-0.3758087158203125
1773258448647805700,3.3378056640625,-1.0320281982421875,0.206085205078125,-0.396453857421875
1773258448657832700,3.347832763671875,-1.044891357421875,0.2615814208984375,-0.435699462890625
1773258448667859700,3.357859619140625,-1.0358123779296875,0.328765869140625,-0.46392822265625
1773258448677885700,3.3678857421875,-1.07220458984375,0.3752288818359375,-0.49169921875
1773258448687912700,3.37791259765625,-1.020782470703125,0.3329315185546875,-0.523406982421875
1773258448697938700,3.387938720703125,-0.9586029052734375,0.2711029052734375,-0.5877838134765625
1773258448707965700,3.397965576171875,-1.0879058837890625,0.2752838134765625,-0.694000244140625
1773258448717992700,3.40799267578125,-1.122222900390625,0.2635040283203125,-0.7365875244140625
1773258448728018700,3.418018798828125,-0.8300323486328125,0.2843780517578125,-0.533233642578125
1773258448738045700,3.428045654296875,-0.7981414794921875,0.451934814453125,-0.2267303466796875
1773258448748072700,3.43807275390625,-0.8098297119140625,0.5383453369140625,-0.1146240234375
1773258448758098700,3.4480986328125,-0.8345794677734375,0.59564208984375,-0.1582183837890625
1773258448768125700,3.458125732421875,-0.7435150146484375,0.583251953125,-0.1678009033203125
1773258448778151700,3.468151611328125,-0.54730224609375,0.511444091796875,-0.1461639404296875
1773258448788178700,3.4781787109375,-0.450958251953125,0.56390380859375,-0.1378936767578125
1773258448798205700,3.488205810546875,-0.4988861083984375,0.5627593994140625,-0.2073822021484375
1773258448808232000,3.49823193359375,-0.6495819091796875,0.465362548828125,-0.273773193359375
1773258448818258700,3.5082587890625,-0.843109130859375,0.5587615966796875,-0.14300537109375
1773258448828284700,3.51828466796875,-0.8718414306640625,0.8525238037109375,0.2296295166015625
1773258448838311700,3.528311767578125,-0.737457275390625,0.9499969482421875,0.448699951171875
1773258448848338700,3.538338623046875,-0.783416748046875,0.7939910888671875,0.3117523193359375
1773258448858365000,3.548364990234375,-0.82012939453125,0.6007537841796875,0.145233154296875
1773258448868391700,3.5583916015625,-0.888702392578125,0.4376983642578125,0.0561065673828125
1773258448878417700,3.568417724609375,-1.019866943359375,0.3237457275390625,0.006134033203125
1773258448888444700,3.578444580078125,-1.0751190185546875,0.289337158203125,-0.0127716064453125
1773258448898472000,3.588471923828125,-1.127960205078125,0.276123046875,-0.0020904541015625
1773258448908498000,3.598497802734375,-1.21038818359375,0.2934417724609375,0.01959228515625
1773258448918524700,3.608524658203125,-1.2581329345703125,0.28839111328125,0.01055908203125
1773258448928551700,3.6185517578125,-1.241973876953125,0.257781982421875,-0.01806640625
1773258448938577700,3.62857763671875,-1.181610107421875,0.24835205078125,-0.0385284423828125
1773258448948605000,3.63860498046875,-1.1438140869140625,0.2744293212890625,0.016845703125
1773258448958631000,3.648630859375,-1.0818328857421875,0.3946380615234375,0.189666748046875
1773258448968657700,3.65865771484375,-0.82672119140625,0.411865234375,0.212158203125
1773258448978684700,3.6686845703125,-0.767822265625,0.3677978515625,0.1335601806640625
1773258448988710700,3.678710693359375,-0.91461181640625,0.322235107421875,0.037841796875
1773258448998738000,3.688738037109375,-1.0408935546875,0.284210205078125,0.006072998046875
1773258449008764000,3.698763916015625,-0.967376708984375,0.2362213134765625,0.1135406494140625
1773258449018790700,3.708790771484375,-1.0543975830078125,0.1443328857421875,0.1511077880859375
1773258449028817700,3.718817626953125,-0.990509033203125,0.136993408203125,0.136199951171875
1773258449038843600,3.72884375,-0.926422119140625,0.1580810546875,0.129364013671875
1773258449048871000,3.738870849609375,-0.926300048828125,0.1515960693359375,0.1622161865234375
1773258449058897700,3.748897705078125,-0.8847808837890625,0.1093902587890625,0.1817169189453125
1773258449068923600,3.758923583984375,-0.784820556640625,0.060272216796875,0.15948486328125
1773258449078950700,3.76895068359375,-0.7552337646484375,0.0528717041015625,0.1572113037109375
1773258449088976600,3.7789765625,-0.7441864013671875,0.0696258544921875,0.1592864990234375
1773258449099004000,3.78900390625,-0.727142333984375,0.076873779296875,0.1397247314453125
1773258449109030700,3.79903076171875,-0.7154693603515625,0.08087158203125,0.103912353515625
1773258449119056600,3.809056640625,-0.791107177734375,0.133087158203125,0.0629119873046875
1773258449129083600,3.819083740234375,-0.873291015625,0.252227783203125,0.0828094482421875
1773258449139109600,3.829109619140625,-0.8769989013671875,0.285675048828125,0.0731964111328125
1773258449149137000,3.839136962890625,-0.9539947509765625,0.3861846923828125,0.08941650390625
1773258449159163600,3.84916357421875,-0.986419677734375,0.472381591796875,0.165557861328125
1773258449169189600,3.859189697265625,-1.0421600341796875,0.5289764404296875,0.2371368408203125
1773258449179216600,3.869216552734375,-1.104644775390625,0.56439208984375,0.3375701904296875
1773258449189244000,3.879243896484375,-1.1273193359375,0.6035919189453125,0.4259490966796875
1773258449199270000,3.889269775390625,-1.1725311279296875,0.6179351806640625,0.4858245849609375
1773258449209296600,3.899296630859375,-1.1486358642578125,0.6219940185546875,0.529266357421875
1773258449219322600,3.909322509765625,-1.0862579345703125,0.6371307373046875,0.5567626953125
1773258449229349600,3.919349609375,-1.03326416015625,0.67205810546875,0.6042022705078125
1773258449239377000,3.929376953125,-0.9483184814453125,0.64923095703125,0.677154541015625
1773258449249403000,3.93940283203125,-0.8373565673828125,0.5830535888671875,0.6575469970703125
1773258449259429600,3.9494296875,-0.7956390380859375,0.50323486328125,0.6196746826171875
1773258449269455600,3.95945556640625,-0.7099761962890625,0.3877716064453125,0.4985198974609375
1773258449279482600,3.969482666015625,-0.6277008056640625,0.3363494873046875,0.4714813232421875
1773258449289510000,3.979510009765625,-0.5931243896484375,0.3560333251953125,0.51116943359375
1773258449299536000,3.989535888671875,-0.5361480712890625,0.4035186767578125,0.5051422119140625
1773258449309562600,3.999562744140625,-0.4634857177734375,0.450775146484375,0.5077972412109375
1773258449319589000,4.009589111328125,-0.378204345703125,0.5318603515625,0.5288238525390625
1773258449329615000,4.019614990234375,-0.2681884765625,0.5943145751953125,0.4650115966796875
1773258449339642400,4.029642333984375,-0.2030487060546875,0.5589141845703125,0.43096923828125
1773258449349668400,4.03966845703125,-0.1075439453125,0.5264434814453125,0.453704833984375
1773258449359695000,4.049695068359375,-0.046844482421875,0.5580291748046875,0.42864990234375
1773258449369722000,4.05972216796875,-0.0260772705078125,0.5438385009765625,0.425872802734375
1773258449379748000,4.069748046875,-0.024871826171875,0.499664306640625,0.424530029296875
1773258449389775400,4.079775390625,-0.007232666015625,0.5313873291015625,0.418487548828125
1773258449399801300,4.08980126953125,-0.0457916259765625,0.5956573486328125,0.441558837890625
1773258449409828000,4.099828125,-0.0743865966796875,0.6940155029296875,0.466644287109375
1773258449419855000,4.109855224609375,-0.0730133056640625,0.8199615478515625,0.424835205078125
1773258449429881000,4.119881103515625,-0.0919189453125,0.94781494140625,0.38946533203125
1773258449439908400,4.129908447265625,-0.163787841796875,1.154266357421875,0.428558349609375
1773258449449935000,4.13993505859375,-0.26611328125,1.36016845703125,0.394439697265625
1773258449459961000,4.149961181640625,-0.28033447265625,1.4552154541015625,0.2932891845703125
1773258449469988000,4.159988037109375,-0.229583740234375,1.455657958984375,0.2596282958984375
1773258449480014000,4.17001416015625,-0.145904541015625,1.35162353515625,0.2154693603515625
1773258449490041300,4.180041259765625,-0.1771697998046875,1.2859649658203125,0.2374267578125
1773258449500068000,4.190068115234375,-0.21734619140625,1.1980438232421875,0.2170257568359375
1773258449510094000,4.200093994140625,-0.110198974609375,1.0185699462890625,0.037750244140625
1773258449520121000,4.21012109375,-0.10626220703125,0.707855224609375,-0.06732177734375
1773258449530148400,4.2201484375,-0.2439727783203125,0.8559722900390625,0.008575439453125
1773258449540174300,4.23017431640625,-0.3878631591796875,0.722137451171875,0.0667572021484375
1773258449550201000,4.240201171875,-0.41192626953125,0.709320068359375,0.2390899658203125
1773258449560227000,4.25022705078125,-0.6540069580078125,0.727813720703125,0.4785919189453125
1773258449570254000,4.260254150390625,-0.6813201904296875,0.79864501953125,0.5217132568359375
1773258449580281300,4.27028125,-0.4526214599609375,0.7958221435546875,0.3796234130859375
1773258449590307300,4.280307373046875,-0.385772705078125,0.738433837890625,0.3516693115234375
1773258449600334000,4.290333984375,-0.3558197021484375,0.6211395263671875,0.34295654296875
1773258449610360000,4.300360107421875,-0.31304931640625,0.421356201171875,0.26763916015625
1773258449620387000,4.310386962890625,-0.3177490234375,0.3242034912109375,0.192596435546875
1773258449630414300,4.320414306640625,-0.3840484619140625,0.4409332275390625,0.07330322265625
1773258449640440300,4.3304404296875,-0.3200836181640625,0.5765533447265625,-0.102264404296875
1773258449650467000,4.340467041015625,-0.31036376953125,0.7601470947265625,-0.292816162109375
1773258449660494000,4.350494140625,-0.287017822265625,0.8494873046875,-0.4318389892578125
1773258449670520000,4.36052001953125,-0.2323455810546875,0.9353179931640625,-0.451416015625
1773258449680547300,4.37054736328125,-0.266326904296875,1.064239501953125,-0.4314727783203125
1773258449690573300,4.3805732421875,-0.2283477783203125,1.251068115234375,-0.3429412841796875
1773258449700600000,4.39060009765625,-0.1894683837890625,1.4608154296875,-0.26153564453125
1773258449710627000,4.400626953125,-0.1408538818359375,1.5791168212890625,-0.18267822265625
1773258449720653000,4.410653076171875,-0.041412353515625,1.6658172607421875,-0.0413970947265625
1773258449730680300,4.420680419921875,-0.003692626953125,1.8053741455078125,0.1671905517578125
1773258449740707000,4.43070703125,-0.0079803466796875,1.5978240966796875,0.0697479248046875
1773258449750733000,4.440733154296875,-0.0503997802734375,1.4802703857421875,-0.040679931640625
1773258449760760000,4.450760009765625,-0.098876953125,1.3482666015625,-0.173553466796875
1773258449770786300,4.460786376953125,-0.1707611083984375,1.213653564453125,-0.26373291015625
1773258449780813300,4.470813232421875,-0.2386474609375,1.073272705078125,-0.318328857421875
1773258449790840000,4.480840087890625,-0.2773284912109375,0.9323577880859375,-0.3568572998046875
1773258449800866000,4.490865966796875,-0.2908782958984375,0.8487548828125,-0.3927154541015625
1773258449810893000,4.50089306640625,-0.3017578125,0.7663726806640625,-0.368255615234375
1773258449820920300,4.51092041015625,-0.3173065185546875,0.680206298828125,-0.3415679931640625
1773258449830946300,4.5209462890625,-0.3313751220703125,0.5860137939453125,-0.3030242919921875
1773258449840973000,4.53097314453125,-0.31732177734375,0.5205078125,-0.279052734375
1773258449850999000,4.5409990234375,-0.3162689208984375,0.485321044921875,-0.2199859619140625
1773258449861026300,4.5510263671875,-0.3026275634765625,0.435577392578125,-0.18475341796875
1773258449871053300,4.56105322265625,-0.2934722900390625,0.3995208740234375,-0.1774139404296875
1773258449881079300,4.571079345703125,-0.3219757080078125,0.3781890869140625,-0.181793212890625
1773258449891106000,4.58110595703125,-0.35919189453125,0.3785552978515625,-0.205291748046875
1773258449901133000,4.591133056640625,-0.383697509765625,0.4356536865234375,-0.2169342041015625
1773258449911159300,4.6011591796875,-0.3768768310546875,0.6014556884765625,-0.2254180908203125
1773258449921186300,4.611186279296875,-0.3234405517578125,0.71630859375,-0.2157440185546875
1773258449931212300,4.62121240234375,-0.3306732177734375,0.77618408203125,-0.2237396240234375
1773258449941239000,4.631239013671875,-0.3815155029296875,0.871063232421875,-0.2823638916015625
1773258449951266300,4.641266357421875,-0.3885040283203125,1.0303955078125,-0.32379150390625
1773258449961292300,4.651292236328125,-0.345489501953125,1.083831787109375,-0.3640594482421875
1773258449971319300,4.6613193359375,-0.2977447509765625,0.9655914306640625,-0.8588104248046875
1773258449981346000,4.671345947265625,-0.4012451171875,0.7911529541015625,-1.4045562744140625
1773258449991372000,4.6813720703125,-0.080413818359375,1.1067352294921875,-0.2159423828125
1773258450001399300,4.6913994140625,0.0409088134765625,1.0341033935546875,-0.7076416015625
1773258450011425300,4.70142529296875,0.042327880859375,1.131378173828125,-0.4732513427734375
1773258450021452300,4.711452392578125,-0.008148193359375,1.0175628662109375,-0.47125244140625
1773258450031479000,4.72147900390625,-0.1289215087890625,0.9421234130859375,-0.5416259765625
1773258450041505000,4.731505126953125,-0.1858062744140625,0.8543701171875,-0.68048095703125
1773258450051532300,4.7415322265625,-0.030975341796875,0.7477264404296875,-0.883636474609375
1773258450061559300,4.751559326171875,-0.2056427001953125,0.682586669921875,-0.909637451171875
1773258450071585300,4.761585205078125,-0.4357147216796875,0.514129638671875,-0.7592926025390625
1773258450081612000,4.771612060546875,-0.3538360595703125,0.631866455078125,-0.7216339111328125
1773258450091639300,4.781639404296875,-0.2825164794921875,0.6000823974609375,-0.788055419921875
1773258450101665300,4.791665283203125,-0.201507568359375,0.5093994140625,-0.8785400390625
1773258450111692300,4.8016923828125,-0.1143341064453125,0.46038818359375,-0.9279327392578125
1773258450121718300,4.81171826171875,-0.0258636474609375,0.434906005859375,-0.9996795654296875
1773258450131745000,4.8217451171875,-0.034423828125,0.4467010498046875,-1.081146240234375
1773258450141772300,4.831772216796875,-0.036163330078125,0.586517333984375,-1.1396331787109375
1773258450151798300,4.84179833984375,-0.0322265625,0.75482177734375,-1.10369873046875
1773258450161825300,4.8518251953125,-0.048004150390625,0.9982147216796875,-0.952392578125
1773258450171852000,4.86185205078125,-0.05023193359375,1.1845550537109375,-0.8485260009765625
1773258450181878000,4.8718779296875,-0.01873779296875,1.2625274658203125,-0.8376007080078125
1773258450191905300,4.8819052734375,0.0137481689453125,1.2686309814453125,-0.82220458984375
1773258450201931300,4.89193115234375,-0.052520751953125,1.2749176025390625,-0.866790771484375
1773258450211958300,4.901958251953125,-0.0468292236328125,1.247100830078125,-0.953094482421875
1773258450221985000,4.911985107421875,-0.093292236328125,1.1381378173828125,-0.89691162109375
1773258450232011000,4.922010986328125,-0.2310638427734375,1.081634521484375,-0.7626800537109375
1773258450242038300,4.932038330078125,-0.346771240234375,1.044647216796875,-0.6640625
1773258450252065300,4.942065185546875,-0.391693115234375,1.0157012939453125,-0.5647125244140625
1773258450262091300,4.95209130859375,-0.451934814453125,0.91583251953125,-0.4347381591796875
1773258450272118000,4.962117919921875,-0.4766387939453125,0.7794036865234375,-0.314849853515625
1773258450282145300,4.972145263671875,-0.50262451171875,0.625030517578125,-0.2323455810546875
1773258450292171300,4.982171142578125,-0.449462890625,0.4627838134765625,-0.2276458740234375
1773258450302198300,4.9921982421875,-0.348419189453125,0.4559326171875,-0.333282470703125
1773258450312224300,5.002224365234375,-0.20794677734375,0.255096435546875,-0.349609375
1773258450322251300,5.012251220703125,-0.138671875,0.1038665771484375,-0.41290283203125
1773258450332278300,5.0222783203125,-0.0900421142578125,0.0737152099609375,-0.5106964111328125
1773258450342304300,5.03230419921875,-0.066314697265625,0.1609649658203125,-0.5536346435546875
1773258450352331500,5.04233154296875,-0.0441131591796875,0.3351593017578125,-0.619232177734375
1773258450362358300,5.052358154296875,-0.0853729248046875,0.5411834716796875,-0.722320556640625
1773258450372384300,5.06238427734375,-0.176361083984375,0.7205963134765625,-0.7395782470703125
1773258450382411300,5.072411376953125,-0.226531982421875,0.8955078125,-0.7513580322265625
1773258450392438500,5.0824384765625,-0.2271728515625,1.0305633544921875,-0.6986236572265625
1773258450402464500,5.092464599609375,-0.248199462890625,1.0857086181640625,-0.69091796875
1773258450412491300,5.1024912109375,-0.2617340087890625,1.061065673828125,-0.7614288330078125
1773258450422517200,5.112517333984375,-0.3080902099609375,0.916748046875,-0.8087310791015625
1773258450432544300,5.122544189453125,-0.34149169921875,0.8201904296875,-0.927032470703125
1773258450442571500,5.132571533203125,-0.3468170166015625,0.7499542236328125,-0.923126220703125
1773258450452597500,5.142597412109375,-0.3394622802734375,0.6993408203125,-0.8756866455078125
1773258450462624300,5.152624267578125,-0.2942657470703125,0.7051239013671875,-0.8278045654296875
1773258450472651300,5.1626513671875,-0.26239013671875,0.704681396484375,-0.6949615478515625
1773258450482677200,5.17267724609375,-0.232391357421875,0.6678009033203125,-0.6259002685546875
1773258450492704500,5.18270458984375,-0.1996917724609375,0.6064910888671875,-0.549285888671875
1773258450502731300,5.192731201171875,-0.159759521484375,0.4678497314453125,-0.501495361328125
1773258450512757200,5.20275732421875,-0.0895233154296875,0.3074951171875,-0.486328125
1773258450522784300,5.2127841796875,-0.0633392333984375,0.205780029296875,-0.49346923828125
1773258450532810200,5.222810302734375,-0.083740234375,0.2094573974609375,-0.4640045166015625
1773258450542837500,5.23283740234375,-0.1231689453125,0.2617034912109375,-0.3505096435546875
1773258450552864300,5.2428642578125,-0.1504974365234375,0.325439453125,-0.29229736328125
1773258450562890200,5.25289013671875,-0.1789093017578125,0.336883544921875,-0.312164306640625
1773258450572917200,5.262917236328125,-0.19427490234375,0.311920166015625,-0.3751220703125
1773258450582944500,5.272944580078125,-0.20941162109375,0.2840728759765625,-0.4620208740234375
1773258450592970500,5.282970458984375,-0.224273681640625,0.2775115966796875,-0.5005035400390625
1773258450602997200,5.292997314453125,-0.2357025146484375,0.25482177734375,-0.4878997802734375
1773258450613024300,5.303024169921875,-0.211700439453125,0.2648773193359375,-0.46746826171875
1773258450623050200,5.31305029296875,-0.181610107421875,0.350799560546875,-0.470611572265625
1773258450633077500,5.323077392578125,-0.189666748046875,0.5158538818359375,-0.4534912109375
1773258450643103500,5.333103515625,-0.2722015380859375,0.769927978515625,-0.440032958984375
1773258450653130200,5.343130126953125,-0.31689453125,0.9977569580078125,-0.46868896484375
1773258450663157200,5.3531572265625,-0.3288726806640625,1.1556854248046875,-0.6627960205078125
1773258450673183200,5.363183349609375,-0.5127716064453125,1.0646514892578125,-1.567138671875
1773258450683210500,5.37321044921875,-0.36700439453125,1.1399383544921875,-0.9341583251953125
1773258450693237200,5.3832373046875,-0.408538818359375,1.3562164306640625,-1.1013336181640625
1773258450703263200,5.39326318359375,-0.3393402099609375,1.234710693359375,-0.9581451416015625
1773258450713290200,5.403290283203125,-0.137054443359375,1.116943359375,-0.8878173828125
1773258450723317500,5.4133173828125,-0.147186279296875,0.92108154296875,-0.7685089111328125
1773258450733343500,5.423343505859375,-0.10833740234375,0.7794036865234375,-0.688751220703125
1773258450743370200,5.433370361328125,0.068511962890625,0.7158050537109375,-0.67413330078125
1773258450753397200,5.443397216796875,0.0595855712890625,0.61248779296875,-0.7348175048828125
1773258450763423200,5.45342333984375,-0.154937744140625,0.5123138427734375,-0.6672515869140625
1773258450773450500,5.463450439453125,-0.25469970703125,0.5026397705078125,-0.6999664306640625
1773258450783476500,5.4734765625,-0.3226776123046875,0.5314788818359375,-0.8512115478515625
1773258450793503200,5.483503173828125,-0.379852294921875,0.5604400634765625,-0.9926910400390625
1773258450803530200,5.4935302734375,-0.405731201171875,0.5685577392578125,-1.0671539306640625
1773258450813556200,5.50355615234375,-0.3734588623046875,0.48974609375,-1.141510009765625
1773258450823583500,5.51358349609375,-0.4564208984375,0.4548797607421875,-1.1834716796875
1773258450833610200,5.5236103515625,-0.56011962890625,0.5800018310546875,-0.9604949951171875
1773258450843636200,5.53363623046875,-0.214752197265625,0.8160858154296875,-0.6682586669921875
1773258450853663200,5.543663330078125,0.107574462890625,0.93096923828125,-0.434112548828125
1773258450863690500,5.5536904296875,0.2267913818359375,0.9473876953125,-0.3590087890625
1773258450873716500,5.563716552734375,0.07257080078125,0.92474365234375,-0.38482666015625
1773258450883743200,5.5737431640625,-0.0484771728515625,0.8668670654296875,-0.41180419921875
1773258450893769200,5.583769287109375,-0.099853515625,0.8114013671875,-0.4744415283203125
1773258450903796200,5.593796142578125,-0.2248382568359375,0.7766876220703125,-0.4509124755859375
1773258450913823500,5.603823486328125,-0.267059326171875,0.769012451171875,-0.4206085205078125
1773258450923849500,5.613849365234375,-0.284332275390625,0.7867889404296875,-0.371337890625
1773258450933876200,5.623876220703125,-0.2652587890625,0.812042236328125,-0.3387908935546875
1773258450943903200,5.6339033203125,-0.181396484375,0.7595672607421875,-0.4668121337890625
1773258450953929200,5.64392919921875,-0.1253814697265625,0.7290496826171875,-0.565887451171875
1773258450963956500,5.65395654296875,-0.1180419921875,0.7628326416015625,-0.563995361328125
1773258450973983200,5.663983154296875,-0.12249755859375,0.7856903076171875,-0.544097900390625
1773258450984009200,5.67400927734375,-0.0763702392578125,0.8065643310546875,-0.5641021728515625
1773258450994036200,5.6840361328125,-0.1148681640625,0.8041839599609375,-0.6182098388671875
1773258451004062500,5.6940625,-0.16766357421875,0.7713165283203125,-0.6734619140625
1773258451014089500,5.70408935546875,-0.2556915283203125,0.7580718994140625,-0.7207794189453125
1773258451024116200,5.7141162109375,-0.3911590576171875,0.790252685546875,-0.7241668701171875
1773258451034142200,5.72414208984375,-0.4054718017578125,0.8157196044921875,-0.7069244384765625
1773258451044169200,5.734169189453125,-0.2745513916015625,0.8241729736328125,-0.6735992431640625
1773258451054196500,5.744196533203125,-0.1529693603515625,0.7889251708984375,-0.642303466796875
1773258451064222200,5.75422216796875,-0.0214691162109375,0.719818115234375,-0.6094207763671875
1773258451074249200,5.764249267578125,0.0688018798828125,0.6250457763671875,-0.6145782470703125
1773258451084275200,5.774275146484375,0.1025238037109375,0.5496063232421875,-0.6557159423828125
1773258451094302500,5.784302490234375,0.0956268310546875,0.5468597412109375,-0.694854736328125
1773258451104329500,5.79432958984375,0.1215667724609375,0.5359649658203125,-0.7907867431640625
1773258451114355200,5.804355224609375,0.0552978515625,0.5264739990234375,-0.808868408203125
1773258451124382200,5.81438232421875,0.017059326171875,0.5753021240234375,-0.75311279296875
1773258451134409200,5.8244091796875,0.042205810546875,0.7198486328125,-0.7611236572265625
1773258451144435500,5.834435546875,0.04888916015625,0.8253631591796875,-0.8160552978515625
1773258451154462500,5.84446240234375,-0.0956268310546875,0.8972930908203125,-0.7703857421875
1773258451164488200,5.85448828125,-0.334228515625,0.9604339599609375,-0.7790985107421875
1773258451174515200,5.86451513671875,-1.313720703125,1.70880126953125,-0.7358551025390625
1773258451184542500,5.87454248046875,-1.505615234375,1.4914093017578125,-0.5714569091796875
1773258451194568400,5.884568359375,0.235809326171875,0.4065093994140625,-0.48583984375
1773258451204595200,5.89459521484375,0.761962890625,0.719757080078125,-0.543975830078125
1773258451214622200,5.904622314453125,0.1479034423828125,0.82989501953125,-0.8259124755859375
1773258451224648200,5.914648193359375,-0.2449798583984375,0.91522216796875,-0.7661895751953125
1773258451234675500,5.924675537109375,-0.26910400390625,0.8939666748046875,-0.9105987548828125
1773258451244702500,5.934702392578125,-0.0940399169921875,0.541473388671875,-1.042694091796875
1773258451254728200,5.944728271484375,0.062225341796875,0.1843719482421875,-0.6813201904296875
1773258451264755200,5.954755126953125,0.0362396240234375,0.25146484375,-0.2003936767578125
1773258451274781200,5.96478125,0.0220184326171875,0.57537841796875,0.041259765625
1773258451284808400,5.974808349609375,0.258087158203125,0.8704071044921875,-0.129425048828125
1773258451294835500,5.98483544921875,0.3616180419921875,1.022216796875,-0.30767822265625
1773258451304861200,5.994861083984375,0.245758056640625,1.0125885009765625,-0.2738037109375
1773258451314888200,6.00488818359375,0.1100616455078125,1.098297119140625,-0.2421417236328125
1773258451324915500,6.01491552734375,0.084381103515625,1.3263092041015625,-0.3445892333984375
1773258451334941400,6.02494140625,0.126708984375,1.1147918701171875,-0.4402618408203125
1773258451344968200,6.03496826171875,0.0143280029296875,0.7682952880859375,-0.4257354736328125
1773258451354995500,6.044995361328125,-0.1980438232421875,0.5851898193359375,-0.4881744384765625
1773258451365021400,6.055021484375,-0.2428436279296875,0.656280517578125,-0.6237335205078125
1773258451375048400,6.06504833984375,-0.027313232421875,0.876953125,-0.50830078125
1773258451385075500,6.075075439453125,0.06005859375,0.8792266845703125,-0.4673614501953125
1773258451395101200,6.08510107421875,0.039764404296875,0.9413909912109375,-0.3826141357421875
1773258451405128400,6.09512841796875,-0.0925445556640625,1.0078277587890625,-0.5080718994140625
1773258451415155500,6.105155517578125,-0.20172119140625,0.8632354736328125,-0.5832061767578125
1773258451425181400,6.115181396484375,-0.3233642578125,1.0521240234375,-0.7952423095703125
1773258451435208400,6.12520849609375,-0.206268310546875,1.2499542236328125,-0.877532958984375
1773258451445234400,6.135234375,-0.0992584228515625,1.5749969482421875,-0.8085784912109375
1773258451455261400,6.145261474609375,-0.1266326904296875,0.9750518798828125,-0.417083740234375
1773258451465288400,6.155288330078125,-0.074066162109375,0.759124755859375,-0.32501220703125
1773258451475314400,6.165314453125,0.064483642578125,0.6878662109375,-0.771392822265625
1773258451485341200,6.175341064453125,0.17724609375,0.70184326171875,-1.072509765625
1773258451495368400,6.185368408203125,0.3169097900390625,0.675537109375,-0.754608154296875
1773258451505394400,6.19539453125,0.401947021484375,0.7894134521484375,-0.32110595703125
1773258451515421400,6.20542138671875,0.763519287109375,1.1203765869140625,0.38165283203125
1773258451525448400,6.215448486328125,0.6385650634765625,1.450408935546875,0.803955078125
1773258451535474400,6.225474365234375,0.091033935546875,1.4113006591796875,0.2251739501953125
1773258451545501400,6.23550146484375,0.0727081298828125,1.1874847412109375,-0.0881500244140625
1773258451555528400,6.245528564453125,0.30133056640625,1.174224853515625,-0.0609283447265625
1773258451565554400,6.255554443359375,0.187896728515625,1.3014373779296875,-0.1187286376953125
1773258451575581400,6.26558154296875,0.180938720703125,1.3328857421875,-0.28619384765625
1773258451585608400,6.2756083984375,0.237060546875,1.22283935546875,-0.48419189453125
1773258451595634400,6.285634521484375,0.234100341796875,1.083984375,-0.5697479248046875
1773258451605661400,6.295661376953125,0.02740478515625,1.0193634033203125,-0.55206298828125
1773258451615687400,6.3056875,-0.16131591796875,1.0580902099609375,-0.5098724365234375
1773258451625714400,6.31571435546875,-0.1562347412109375,1.0469818115234375,-0.3854827880859375
1773258451635741400,6.325741455078125,-0.1509246826171875,1.000518798828125,-0.3490753173828125
1773258451645767400,6.335767333984375,-0.3044281005859375,1.168182373046875,-0.1976470947265625
1773258451655794400,6.34579443359375,-0.067291259765625,1.23748779296875,0.0494232177734375
1773258451665821400,6.355821533203125,0.1876220703125,0.964019775390625,-0.2515716552734375
1773258451675847400,6.365847412109375,-0.086181640625,0.497833251953125,-0.3090057373046875
1773258451685874400,6.37587451171875,-0.24224853515625,0.1754913330078125,-0.258087158203125
1773258451695901400,6.3859013671875,0.1427459716796875,0.3702545166015625,-0.2786712646484375
1773258451705927400,6.395927490234375,0.521881103515625,0.4394683837890625,-0.500091552734375
1773258451715954400,6.405954345703125,0.431640625,0.3156585693359375,-0.499908447265625
1773258451725981400,6.4159814453125,0.236053466796875,0.4494476318359375,-0.3682861328125
1773258451736007400,6.42600732421875,0.17718505859375,0.6973876953125,-0.3785247802734375
1773258451746034400,6.436034423828125,0.2042236328125,0.616302490234375,-0.62994384765625
1773258451756061400,6.4460615234375,0.2005767822265625,0.4869232177734375,-0.8690948486328125
1773258451766087400,6.45608740234375,0.0521087646484375,0.2491302490234375,-0.8956451416015625
1773258451776114400,6.466114501953125,-0.1179351806640625,-0.0085906982421875,-0.9171295166015625
1773258451786140400,6.476140380859375,-0.099029541015625,0.0262603759765625,-0.9766387939453125
1773258451796167400,6.48616748046875,-0.0429840087890625,0.18743896484375,-0.8590087890625
1773258451806194400,6.4961943359375,-0.099822998046875,0.180633544921875,-0.628021240234375
1773258451816220400,6.506220458984375,-0.2034149169921875,0.2000732421875,-0.4818572998046875
1773258451826247400,6.516247314453125,-0.2725067138671875,0.222412109375,-0.4330596923828125
1773258451836274400,6.5262744140625,-0.3099212646484375,0.249237060546875,-0.4470977783203125
1773258451846300400,6.536300537109375,-0.3134002685546875,0.377288818359375,-0.640380859375
1773258451856327400,6.546327392578125,-0.385162353515625,0.5668487548828125,-0.8487091064453125
1773258451866354400,6.5563544921875,-0.587249755859375,0.70440673828125,-0.8907928466796875
1773258451876380400,6.56638037109375,-0.6678924560546875,0.845611572265625,-0.9494781494140625
1773258451886407400,6.576407470703125,-0.56646728515625,0.917694091796875,-1.0274200439453125
1773258451896434400,6.586434326171875,-0.506683349609375,0.8638763427734375,-1.146881103515625
1773258451906460400,6.59646044921875,0.1172332763671875,0.7447357177734375,-1.337493896484375
1773258451916487400,6.6064873046875,0.5885162353515625,0.958953857421875,-0.5057830810546875
1773258451926514400,6.616514404296875,-0.1328125,0.851165771484375,-0.44537353515625
1773258451936540400,6.62654052734375,-0.3933563232421875,0.70501708984375,-0.7003021240234375
1773258451946567400,6.6365673828125,-0.2803497314453125,0.69146728515625,-0.8561859130859375
1773258451956594400,6.646594482421875,-0.188446044921875,0.5359344482421875,-0.8385009765625
1773258451966620400,6.656620361328125,-0.04559326171875,0.6788787841796875,-0.64166259765625
1773258451976647400,6.6666474609375,-0.0489654541015625,0.72149658203125,-0.4703521728515625
1773258451986674400,6.67667431640625,-0.104248046875,0.7667083740234375,-0.5187530517578125
1773258451996700400,6.686700439453125,-0.0806427001953125,0.5061187744140625,-0.749664306640625
1773258452006727400,6.6967275390625,-0.1366424560546875,0.562591552734375,-0.923828125
1773258452016753400,6.70675341796875,-0.1314849853515625,0.6982269287109375,-0.8852081298828125
1773258452026780400,6.716780517578125,-0.054473876953125,0.7615966796875,-0.87811279296875
1773258452036807400,6.726807373046875,-0.1245574951171875,0.779541015625,-0.9502105712890625
1773258452046833400,6.73683349609375,-0.0961456298828125,0.7567901611328125,-0.915679931640625
1773258452056860400,6.7468603515625,-0.048858642578125,0.9011077880859375,-0.9322509765625
1773258452066887400,6.756887451171875,0.1435089111328125,0.997528076171875,-0.8269805908203125
1773258452076913400,6.766913330078125,0.0343017578125,1.1070098876953125,-0.753570556640625
1773258452086940400,6.7769404296875,-0.059844970703125,1.12640380859375,-0.908294677734375
1773258452096967400,6.786967529296875,0.0706634521484375,0.8054046630859375,-0.9799957275390625
1773258452106993400,6.796993408203125,-0.392791748046875,0.3941192626953125,-0.6890869140625
1773258452117020400,6.8070205078125,-0.6298980712890625,0.987335205078125,-0.06781005859375
1773258452127047400,6.81704736328125,-0.3916473388671875,1.2916107177734375,-0.238189697265625
1773258452137073400,6.827073486328125,-0.051849365234375,1.0238800048828125,-0.4285888671875
1773258452147100400,6.837100341796875,0.26727294921875,1.1373748779296875,-0.2808685302734375
1773258452157127400,6.84712744140625,0.4111480712890625,1.0862274169921875,-0.364898681640625
1773258452167153400,6.8571533203125,0.439361572265625,0.8441009521484375,-0.452850341796875
1773258452177180400,6.867180419921875,0.1935577392578125,0.69451904296875,-0.45843505859375
1773258452187207400,6.87720751953125,0.0204925537109375,0.5801544189453125,-0.4949493408203125
1773258452197233400,6.8872333984375,0.017669677734375,0.4165496826171875,-0.6015625
1773258452207260400,6.897260498046875,-0.04754638671875,0.3065338134765625,-0.7234954833984375
1773258452217287400,6.907287353515625,-0.129547119140625,0.24493408203125,-0.7502899169921875
1773258452227313400,6.9173134765625,-0.138916015625,0.2028350830078125,-0.710235595703125
1773258452237340400,6.92734033203125,-0.11090087890625,0.2440643310546875,-0.659576416015625
1773258452247367400,6.937367431640625,-0.0061798095703125,0.3316802978515625,-0.6395111083984375
1773258452257393400,6.947393310546875,0.080718994140625,0.415802001953125,-0.6094512939453125
1773258452267420400,6.95742041015625,0.1682891845703125,0.505218505859375,-0.4681549072265625
1773258452277447400,6.967447509765625,0.181396484375,0.6308441162109375,-0.39666748046875
1773258452287473400,6.977473388671875,0.0904693603515625,0.674407958984375,-0.377349853515625
1773258452297500400,6.98750048828125,0.0936126708984375,0.595611572265625,-0.97607421875
1773258452307527400,6.99752734375,-0.5317535400390625,0.6413421630859375,-1.371307373046875
1773258452317553400,7.007553466796875,-0.1590728759765625,0.6529388427734375,-0.6564483642578125
1773258452327580400,7.017580322265625,-0.0971832275390625,0.4814453125,-1.2812652587890625
1773258452337606400,7.0276064453125,-0.246734619140625,0.589141845703125,-1.0964813232421875
1773258452347633400,7.03763330078125,-0.1302337646484375,0.5951690673828125,-0.786773681640625
1773258452357660400,7.047660400390625,-0.1512603759765625,0.6223907470703125,-0.9465484619140625
1773258452367686400,7.057686279296875,-0.0432586669921875,0.6191253662109375,-0.814422607421875
1773258452377713400,7.06771337890625,0.0266571044921875,0.5870513916015625,-0.84564208984375
1773258452387740400,7.077740478515625,0.0970458984375,0.52301025390625,-0.807708740234375
1773258452397766400,7.087766357421875,0.1080169677734375,0.5452117919921875,-0.921661376953125
1773258452407793400,7.09779345703125,0.1211090087890625,0.566009521484375,-0.9476776123046875
1773258452417820400,7.1078203125,0.1483001708984375,0.58087158203125,-0.952301025390625
1773258452427846400,7.117846435546875,0.13201904296875,0.604339599609375,-0.9084014892578125
1773258452437873400,7.127873291015625,0.1233062744140625,0.5878143310546875,-0.846893310546875
1773258452447900400,7.137900390625,0.1204376220703125,0.502227783203125,-0.776519775390625
1773258452457926400,7.147926513671875,0.1185760498046875,0.436279296875,-0.7288360595703125
1773258452467953400,7.157953369140625,0.0810699462890625,0.383026123046875,-0.662200927734375
1773258452477980400,7.16798046875,0.005859375,0.3927001953125,-0.6468353271484375
1773258452488006400,7.17800634765625,-0.045867919921875,0.3922271728515625,-0.6602783203125
1773258452498033400,7.188033447265625,-0.07269287109375,0.4219207763671875,-0.6972808837890625
1773258452508060400,7.198060302734375,-0.0850067138671875,0.45550537109375,-0.783660888671875
1773258452518086400,7.20808642578125,-0.147796630859375,0.474395751953125,-0.797698974609375
1773258452528113400,7.218113525390625,-0.2041015625,0.546234130859375,-0.8745269775390625
1773258452538139400,7.228139404296875,-0.2333831787109375,0.6440277099609375,-1.0113677978515625
1773258452548166400,7.23816650390625,-0.20867919921875,0.6771240234375,-1.1873321533203125
1773258452558193400,7.248193359375,-0.139129638671875,0.6913299560546875,-1.263427734375
1773258452568219400,7.258219482421875,-0.0170135498046875,0.8252716064453125,-1.31903076171875
1773258452578246400,7.268246337890625,0.0709075927734375,0.970245361328125,-1.1711883544921875
1773258452588273400,7.2782734375,0.0828704833984375,1.0073394775390625,-0.92803955078125
1773258452598299400,7.28829931640625,0.1335906982421875,1.022186279296875,-0.6082611083984375
1773258452608326400,7.298326416015625,0.2626800537109375,0.9282379150390625,-0.4341278076171875
1773258452618353400,7.308353515625,0.1765594482421875,0.89483642578125,-0.6191253662109375
1773258452628379400,7.31837939453125,0.345733642578125,0.6997222900390625,-0.819061279296875
1773258452638406400,7.328406494140625,0.5996246337890625,0.5630340576171875,-0.945953369140625
1773258452648433400,7.338433349609375,0.6766510009765625,0.5700225830078125,-0.8356781005859375
1773258452658459400,7.34845947265625,0.305694580078125,0.4875640869140625,-0.6433563232421875
1773258452668486400,7.358486328125,-0.024200439453125,0.6328582763671875,-0.6544036865234375
1773258452678513400,7.368513427734375,0.2961883544921875,0.6483306884765625,-0.908111572265625
1773258452688539400,7.378539306640625,0.1565399169921875,0.505615234375,-0.8909912109375
1773258452698566400,7.38856640625,-0.168609619140625,0.474578857421875,-0.762237548828125
1773258452708593400,7.398593505859375,-0.778045654296875,0.3222198486328125,-0.511383056640625
1773258452718619400,7.408619384765625,-0.1633148193359375,0.5203704833984375,-0.5263671875
1773258452728646400,7.418646484375,1.0938262939453125,0.5160675048828125,-0.9337005615234375
1773258452738673400,7.42867333984375,0.3200531005859375,0.2181243896484375,-0.913909912109375
1773258452748699400,7.438699462890625,-0.2552947998046875,0.270843505859375,-0.8292236328125
1773258452758726400,7.448726318359375,0.106109619140625,0.441864013671875,-0.79278564453125
1773258452768753400,7.45875341796875,0.1261444091796875,0.4193878173828125,-0.808807373046875
1773258452778779400,7.468779296875,0.0022735595703125,0.392181396484375,-0.905242919921875
1773258452788806400,7.478806396484375,0.1182403564453125,0.39617919921875,-1.0227508544921875
1773258452798832400,7.488832275390625,0.1363983154296875,0.3617095947265625,-1.05511474609375
1773258452808859400,7.498859375,0.1303863525390625,0.4820556640625,-0.9499359130859375
1773258452818886400,7.508886474609375,-0.27734375,1.20703125,-0.382232666015625
1773258452828912400,7.518912353515625,-0.2327728271484375,1.01495361328125,-0.0930328369140625
1773258452838939400,7.528939453125,0.55859375,-0.022125244140625,-0.758544921875
1773258452848966400,7.53896630859375,0.5798492431640625,0.0692596435546875,-0.914794921875
1773258452858992400,7.548992431640625,0.460418701171875,0.1488189697265625,-0.9324188232421875
1773258452869019400,7.559019287109375,0.332305908203125,0.2052154541015625,-0.8976593017578125
1773258452879046400,7.56904638671875,0.2786102294921875,0.4425201416015625,-0.8766326904296875
1773258452889072400,7.579072265625,0.28228759765625,0.508544921875,-1.0585174560546875
1773258452899099400,7.589099365234375,0.1733551025390625,0.4946441650390625,-1.20550537109375
1773258452909126400,7.59912646484375,0.119842529296875,0.5007171630859375,-1.183868408203125
1773258452919152400,7.60915234375,0.0882720947265625,0.4294281005859375,-1.1930084228515625
1773258452929179400,7.619179443359375,0.0515594482421875,0.46661376953125,-1.126068115234375
1773258452939206400,7.629206298828125,0.0827789306640625,0.4262847900390625,-1.0965576171875
1773258452949232400,7.639232421875,0.184539794921875,0.3221435546875,-0.9520721435546875
1773258452959259400,7.64925927734375,0.26385498046875,0.382904052734375,-0.88812255859375
1773258452969286400,7.659286376953125,0.237213134765625,0.3614349365234375,-0.938568115234375
1773258452979312400,7.6693125,0.15179443359375,0.287689208984375,-0.9634552001953125
1773258452989339400,7.67933935546875,0.118865966796875,0.27545166015625,-0.952056884765625
1773258452999365400,7.689365478515625,0.1174163818359375,0.3758544921875,-0.9409027099609375
1773258453009392400,7.699392333984375,0.0449066162109375,0.363525390625,-0.9267120361328125
1773258453019419400,7.70941943359375,-0.0022125244140625,0.3333740234375,-0.8219451904296875
1773258453029445400,7.7194453125,0.01953125,0.3643646240234375,-0.757232666015625
1773258453039472400,7.729472412109375,0.0134429931640625,0.4625244140625,-0.733795166015625
1773258453049499400,7.73949951171875,0.0354156494140625,0.6053009033203125,-0.6795654296875
1773258453059525400,7.749525390625,0.0124664306640625,0.59661865234375,-0.63372802734375
1773258453069552400,7.759552490234375,-0.015716552734375,0.5259552001953125,-0.61773681640625
1773258453079579400,7.769579345703125,-0.05303955078125,0.4867095947265625,-0.6089324951171875
1773258453089605400,7.77960546875,-0.086517333984375,0.5126953125,-0.603729248046875
1773258453099632400,7.78963232421875,-0.088104248046875,0.5023956298828125,-0.57659912109375
1773258453109658400,7.799658447265625,-0.18377685546875,0.365692138671875,-0.6785736083984375
1773258453119685400,7.809685302734375,-0.65582275390625,0.113128662109375,-1.0060577392578125
1773258453129712400,7.81971240234375,-0.1074066162109375,0.3568878173828125,-0.7265472412109375
1773258453139738400,7.82973828125,-0.30816650390625,0.3847808837890625,-1.169342041015625
1773258453149765400,7.839765380859375,-0.1873626708984375,0.3143463134765625,-0.9271697998046875
1773258453159792400,7.84979248046875,-0.044036865234375,0.327789306640625,-0.8088531494140625
1773258453169818400,7.859818359375,0.1480255126953125,0.4078826904296875,-0.81683349609375
1773258453179845400,7.869845458984375,0.251861572265625,0.357696533203125,-0.893646240234375
1773258453189872400,7.879872314453125,0.4057769775390625,0.358306884765625,-0.91241455078125
1773258453199898400,7.8898984375,0.4209136962890625,0.3345184326171875,-1.00567626953125
1773258453209925400,7.89992529296875,0.2349090576171875,0.22509765625,-1.093658447265625
1773258453219951400,7.909951416015625,0.1201324462890625,0.1324005126953125,-1.12225341796875
1773258453229978400,7.919978271484375,0.0550689697265625,0.0597381591796875,-1.0957183837890625
1773258453240005400,7.93000537109375,0.0730438232421875,0.0715789794921875,-1.0258636474609375
1773258453250031400,7.94003125,0.075592041015625,0.1827239990234375,-0.9262847900390625
1773258453260058400,7.950058349609375,0.096282958984375,0.255126953125,-0.8277740478515625
1773258453270085400,7.96008544921875,0.0222015380859375,0.2794647216796875,-0.8185882568359375
1773258453280111400,7.970111328125,0.0484771728515625,0.3491668701171875,-0.7977142333984375
1773258453290138400,7.980138427734375,0.077972412109375,0.3321685791015625,-0.8219757080078125
1773258453300165400,7.990165283203125,0.1558074951171875,0.308563232421875,-0.8616180419921875
1773258453310191400,8.00019140625,0.2122802734375,0.215423583984375,-0.8847198486328125
1773258453320218600,8.010218505859376,0.2252197265625,0.1912689208984375,-1.0042724609375
1773258453330245600,8.02024560546875,0.181671142578125,0.3124542236328125,-1.1636962890625
1773258453340271600,8.030271728515626,0.1905059814453125,0.308197021484375,-1.285247802734375
1773258453350298600,8.040298583984375,0.2514801025390625,0.2588043212890625,-1.3557891845703125
1773258453360324600,8.05032470703125,0.49176025390625,0.2563323974609375,-1.2589111328125
1773258453370351900,8.060351806640625,0.5097503662109375,0.12237548828125,-0.945770263671875
1773258453380378600,8.070378662109375,0.3203887939453125,0.1267852783203125,-1.049224853515625
1773258453390404600,8.080404541015625,0.3042755126953125,0.2227020263671875,-1.08660888671875
1773258453400431600,8.090431640625,0.400177001953125,0.2958831787109375,-1.03826904296875
1773258453410458600,8.100458740234375,0.2725982666015625,0.1424560546875,-1.0305328369140625
1773258453420484900,8.11048486328125,0.43389892578125,-0.0920562744140625,-0.8711700439453125
1773258453430511600,8.12051171875,-0.313720703125,-0.047943115234375,-0.5923004150390625
1773258453440538600,8.13053857421875,-0.2467193603515625,0.0702362060546875,-1.7518768310546875
1773258453450564600,8.140564697265624,0.2885284423828125,0.4487762451171875,-1.5736083984375
1773258453460591900,8.150591796875,0.2889251708984375,0.4859161376953125,-0.9843597412109375
1773258453470618600,8.16061865234375,0.189727783203125,0.3437347412109375,-0.890899658203125
1773258453480644600,8.17064453125,0.1078643798828125,0.3610687255859375,-0.8255767822265625
1773258453490671600,8.180671630859376,0.096832275390625,0.401519775390625,-0.745635986328125
1773258453500698600,8.19069873046875,0.079010009765625,0.3268585205078125,-0.77386474609375
1773258453510724900,8.200724853515625,0.05859375,0.2274169921875,-0.8746490478515625
1773258453520751600,8.210751708984375,0.06182861328125,0.149810791015625,-0.9157867431640625
1773258453530778600,8.220778564453125,0.092010498046875,0.125762939453125,-0.9939422607421875
1773258453540804600,8.2308046875,0.066558837890625,0.1280059814453125,-1.1252288818359375
1773258453550831900,8.240831787109375,0.074798583984375,0.1522064208984375,-1.18109130859375
1773258453560858600,8.250858642578125,0.0062713623046875,0.3348541259765625,-1.066070556640625
1773258453570884600,8.260884521484375,0.085906982421875,0.4667510986328125,-0.9736328125
1773258453580911600,8.27091162109375,0.21160888671875,0.5458526611328125,-0.9009857177734375
1773258453590937600,8.2809375,0.3497314453125,0.2613983154296875,-1.005462646484375
1773258453600964900,8.29096484375,0.228759765625,0.187042236328125,-1.1815338134765625
1773258453610991600,8.30099169921875,0.3898468017578125,0.4144134521484375,-1.0465240478515625
1773258453621017600,8.311017578125,0.6194610595703125,0.4350128173828125,-0.8691864013671875
1773258453631044600,8.321044677734376,0.5155792236328125,0.271270751953125,-0.7921600341796875
1773258453641071600,8.331071533203126,0.4264068603515625,0.072784423828125,-0.776519775390625
1773258453651097900,8.341097900390626,0.2997589111328125,-0.0266876220703125,-0.7697296142578125
1773258453661124600,8.35112451171875,0.289825439453125,-0.0740966796875,-0.732940673828125
1773258453671151600,8.361151611328125,0.22491455078125,-0.0651702880859375,-0.5336761474609375
1773258453681177600,8.371177490234375,0.1735382080078125,0.221343994140625,-0.44451904296875
1773258453691204900,8.381204833984375,0.16632080078125,0.1766357421875,-0.6282806396484375
1773258453701231600,8.391231689453125,0.2334442138671875,0.1530914306640625,-0.775665283203125
1773258453711257600,8.401257568359375,0.1355743408203125,0.1822509765625,-0.9687652587890625
1773258453721284600,8.41128466796875,0.3050994873046875,0.3638458251953125,-1.130523681640625
1773258453731311600,8.4213115234375,0.4507293701171875,0.349517822265625,-1.2594757080078125
1773258453741337900,8.431337890625,0.234649658203125,0.057861328125,-1.30230712890625
1773258453751364600,8.441364501953124,0.08319091796875,0.031768798828125,-1.111907958984375
1773258453761391600,8.4513916015625,0.262359619140625,0.0704803466796875,-1.0205535888671875
1773258453771417600,8.46141748046875,0.215179443359375,0.1490631103515625,-0.9784393310546875
1773258453781444900,8.47144482421875,0.19403076171875,0.2216033935546875,-0.9132537841796875
1773258453791471600,8.4814716796875,0.233154296875,0.1456451416015625,-0.8753204345703125
1773258453801497600,8.49149755859375,0.2320098876953125,0.14532470703125,-0.8884735107421875
1773258453811524600,8.501524658203126,0.178558349609375,0.2055816650390625,-0.8935089111328125
1773258453821551600,8.511551513671876,0.2204132080078125,0.191253662109375,-0.898345947265625
1773258453831577900,8.521577880859375,0.302032470703125,0.0956878662109375,-0.9560699462890625
1773258453841604600,8.5316044921875,0.3563690185546875,0.03240966796875,-1.0316925048828125
1773258453851631600,8.541631591796875,0.3128204345703125,0.0502471923828125,-1.0743560791015625
1773258453861657600,8.55165771484375,0.0211639404296875,0.16485595703125,-0.9791717529296875
1773258453871684900,8.561684814453125,-0.1176910400390625,0.276763916015625,-0.9260711669921875
1773258453881710800,8.5717109375,0.0253448486328125,0.2765045166015625,-0.978271484375
1773258453891737600,8.581737548828125,0.193023681640625,0.274017333984375,-0.9851531982421875
1773258453901764600,8.5917646484375,0.2901153564453125,0.2713775634765625,-0.9515838623046875
1773258453911790600,8.60179052734375,0.29302978515625,0.286041259765625,-0.90240478515625
1773258453921817900,8.61181787109375,0.228302001953125,0.3213348388671875,-0.895263671875
1773258453931844600,8.6218447265625,0.1593475341796875,0.338836669921875,-0.960052490234375
1773258453941870600,8.63187060546875,0.1641693115234375,0.3728790283203125,-1.025390625
1773258453951897600,8.641897705078126,0.17974853515625,0.336761474609375,-1.079254150390625
1773258453961924900,8.6519248046875,0.177154541015625,0.2580413818359375,-1.0911865234375
1773258453971950800,8.661950927734376,0.2174224853515625,0.239166259765625,-1.03125
1773258453981977600,8.6719775390625,0.25677490234375,0.2733306884765625,-0.943603515625
1773258453992004600,8.682004638671875,0.2901458740234375,0.1869049072265625,-0.9268798828125
1773258454002030600,8.692030517578125,0.31103515625,0.0662078857421875,-0.946685791015625
1773258454012057900,8.702057861328125,0.271026611328125,0.0088958740234375,-0.9532318115234375
1773258454022084600,8.712084716796875,0.277679443359375,0.011688232421875,-0.9234466552734375
1773258454032110600,8.722110595703125,0.1710205078125,0.0679931640625,-0.903289794921875
1773258454042137600,8.7321376953125,0.0453948974609375,0.1024169921875,-0.893798828125
1773258454052164900,8.742164794921875,-0.04913330078125,0.1817169189453125,-0.8960113525390625
1773258454062190800,8.75219091796875,-0.0478515625,0.17626953125,-0.938751220703125
1773258454072217600,8.762217529296874,-0.0020904541015625,0.0492401123046875,-0.98992919921875
1773258454082244600,8.77224462890625,0.1120758056640625,0.0594482421875,-1.0379486083984375
1773258454092270600,8.7822705078125,0.2979583740234375,0.195587158203125,-0.992401123046875
1773258454102297900,8.7922978515625,0.34326171875,0.278656005859375,-0.9721221923828125
1773258454112324600,8.80232470703125,0.2501068115234375,0.2778167724609375,-1.01519775390625
1773258454122350600,8.8123505859375,0.139892578125,0.4563140869140625,-0.917694091796875
1773258454132377600,8.822377685546876,-0.15545654296875,1.01007080078125,-0.310577392578125
1773258454142404900,8.83240478515625,0.01654052734375,0.5669708251953125,-0.585723876953125
1773258454152430800,8.842430908203125,0.1970672607421875,0.0897979736328125,-1.163238525390625
1773258454162457600,8.85245751953125,0.0828399658203125,-0.0086212158203125,-1.3401641845703125
1773258454172484600,8.862484619140625,-0.049072265625,-0.015899658203125,-1.2671051025390625
1773258454182510600,8.872510498046875,-0.087860107421875,-0.0499267578125,-1.10626220703125
1773258454192537900,8.882537841796875,0.0333099365234375,-0.0247955322265625,-0.9408721923828125
1773258454202563800,8.892563720703125,0.1643829345703125,-0.0037689208984375,-0.8722686767578125
1773258454212590600,8.902590576171875,0.2071075439453125,-0.0116729736328125,-0.9244842529296875
1773258454222617600,8.91261767578125,0.1805572509765625,-0.0653533935546875,-1.039581298828125
1773258454232643600,8.9226435546875,0.1428680419921875,-0.1121826171875,-1.0938262939453125
1773258454242670800,8.9326708984375,0.121856689453125,-0.0619659423828125,-1.054473876953125
1773258454252697600,8.942697509765624,0.060943603515625,-0.0434112548828125,-1.052978515625
1773258454262723600,8.9527236328125,-0.067779541015625,-0.1050872802734375,-1.0866546630859375
1773258454272750600,8.96275048828125,-0.2165679931640625,-0.2039947509765625,-1.0957794189453125
1773258454282777900,8.97277783203125,-0.252593994140625,-0.3155517578125,-1.1278839111328125
1773258454292803800,8.982803955078126,-0.291290283203125,-0.18701171875,-1.0985565185546875
1773258454302830600,8.99283056640625,-0.0548248291015625,0.2369232177734375,-0.9724273681640625
1773258454312857600,9.002857666015625,0.0177459716796875,0.5521697998046875,-0.8988189697265625
1773258454322883300,9.01288330078125,0.0401611328125,0.6201934814453125,-0.91790771484375
1773258454332910600,9.02291064453125,-0.012664794921875,0.43292236328125,-1.0583343505859375
1773258454342937300,9.032937255859375,-0.145904541015625,0.43927001953125,-1.0215911865234375
1773258454352963300,9.04296337890625,-0.0756378173828125,0.3864898681640625,-0.8614959716796875
1773258454362990300,9.052990234375,0.20098876953125,0.01641845703125,-0.9384613037109375
1773258454373017600,9.063017578125,0.466583251953125,-0.2400665283203125,-1.04705810546875
1773258454383043600,9.073043701171875,0.535003662109375,-0.150970458984375,-0.8900909423828125
1773258454393070300,9.0830703125,0.488983154296875,-0.0106964111328125,-0.730804443359375
1773258454403097300,9.093097412109374,0.4123382568359375,-0.0139923095703125,-0.726837158203125
1773258454413123300,9.103123291015624,0.23809814453125,-0.0337982177734375,-0.8561859130859375
1773258454423150600,9.113150634765624,0.1653594970703125,-0.0994415283203125,-0.980010986328125
1773258454433177300,9.12317724609375,0.203521728515625,-0.084381103515625,-0.9706268310546875
1773258454443203300,9.133203369140626,0.091796875,-0.066253662109375,-0.9176483154296875
1773258454453230300,9.143230224609376,0.0114593505859375,-0.170440673828125,-0.9248504638671875
1773258454463257600,9.153257568359376,-0.1329803466796875,-0.1235504150390625,-0.85784912109375
1773258454473283600,9.16328369140625,0.055023193359375,-0.26953125,-0.8774261474609375
1773258454483310300,9.173310302734375,0.19097900390625,-0.2275238037109375,-0.918701171875
1773258454493336300,9.18333642578125,0.264312744140625,-0.1045989990234375,-0.918487548828125
1773258454503363300,9.19336328125,0.28045654296875,-0.0242919921875,-0.9674072265625
1773258454513390600,9.203390625,0.40777587890625,0.0209503173828125,-1.03778076171875
1773258454523416600,9.21341650390625,0.4346160888671875,-0.03094482421875,-1.0727081298828125
1773258454533443300,9.223443359375,0.4207611083984375,-0.0830230712890625,-1.0388031005859375
1773258454543470300,9.23347021484375,0.4193572998046875,-0.0623931884765625,-0.9824981689453125
1773258454553496300,9.243496337890624,0.3488922119140625,-0.064666748046875,-0.9914093017578125
1773258454563523600,9.253523681640624,0.27569580078125,-0.1130218505859375,-1.06494140625
1773258454573550300,9.26355029296875,0.1772308349609375,-0.18536376953125,-1.1084136962890625
1773258454583576300,9.273576416015626,0.113739013671875,-0.188629150390625,-1.063995361328125
1773258454593603300,9.283603271484376,0.116180419921875,-0.139892578125,-0.943115234375
1773258454603630600,9.293630615234376,0.180694580078125,-0.08355712890625,-0.8940277099609375
1773258454613656600,9.303656494140625,0.2564849853515625,-0.066986083984375,-0.914764404296875
1773258454623683300,9.313683349609375,0.2906494140625,-0.0738067626953125,-0.9601898193359375
1773258454633710300,9.32371044921875,0.3462677001953125,-0.123077392578125,-1.028076171875
1773258454643736300,9.333736328125,0.3372802734375,-0.1566314697265625,-1.029571533203125
1773258454653763600,9.343763671875,0.32122802734375,-0.177642822265625,-1.0149688720703125
1773258454663790600,9.35379052734375,0.355072021484375,-0.256988525390625,-1.08203125
1773258454673816300,9.36381640625,0.305908203125,-0.31536865234375,-1.0998992919921875
1773258454683843300,9.37384326171875,0.2314300537109375,-0.3538665771484375,-0.97857666015625
1773258454693870600,9.38387060546875,0.2219696044921875,-0.3519287109375,-0.8910369873046875
1773258454703896600,9.393896484375,0.244903564453125,-0.321258544921875,-0.9111785888671875
1773258454713923300,9.40392333984375,0.2926025390625,-0.29730224609375,-0.9929046630859375
1773258454723950300,9.413950439453124,0.308074951171875,-0.2122802734375,-1.04345703125
1773258454733976300,9.423976318359376,0.2712860107421875,-0.0517730712890625,-1.004364013671875
1773258454744003600,9.434003662109374,0.287567138671875,-0.0049591064453125,-0.999420166015625
1773258454754030600,9.444030517578126,0.3564605712890625,-0.03717041015625,-1.1989898681640625
1773258454764056300,9.454056396484376,0.379791259765625,-0.0853729248046875,-1.39501953125
1773258454774083300,9.464083251953125,0.3851470947265625,-0.00201416015625,-1.323211669921875
1773258454784110600,9.474110595703126,0.3382720947265625,0.2240447998046875,-1.01837158203125
1773258454794136600,9.484136474609375,0.1180267333984375,0.2283935546875,-1.09320068359375
1773258454804163300,9.494163330078125,0.207733154296875,0.45355224609375,-0.8824615478515625
1773258454814190300,9.5041904296875,0.17132568359375,0.4186859130859375,-0.6655426025390625
1773258454824216300,9.51421630859375,0.0570526123046875,0.339508056640625,-0.5082550048828125
1773258454834243600,9.52424365234375,-0.003662109375,0.13433837890625,-0.464508056640625
1773258454844270600,9.5342705078125,-0.0637664794921875,-0.0167694091796875,-0.436859130859375
1773258454854296300,9.54429638671875,-0.1865081787109375,-0.13671875,-0.34368896484375
1773258454864323300,9.5543232421875,-0.2827606201171875,-0.150238037109375,-0.2590789794921875
1773258454874350600,9.5643505859375,-0.16754150390625,-0.09307861328125,-0.3332366943359375
1773258454884376600,9.57437646484375,0.19281005859375,-0.1184234619140625,-0.5721435546875
1773258454894403600,9.584403564453124,0.61810302734375,-0.2008056640625,-0.854888916015625
1773258454904430300,9.594430419921874,0.7245025634765625,-0.1182861328125,-1.034454345703125
1773258454914456300,9.604456298828126,0.4362945556640625,-0.16583251953125,-1.097930908203125
1773258454924483600,9.614483642578126,0.438629150390625,-0.38153076171875,-1.141357421875
1773258454934510600,9.624510498046876,0.4339752197265625,-0.50738525390625,-1.234405517578125
1773258454944536300,9.634536376953125,0.3799896240234375,-0.66766357421875,-1.4246063232421875
1773258454954563300,9.644563232421875,0.3740234375,-0.5829010009765625,-1.6296844482421875
1773258454964590600,9.654590576171875,0.23974609375,-0.2093505859375,-1.5128173828125
1773258454974616600,9.664616455078125,0.080352783203125,0.353973388671875,-1.1679534912109375
1773258454984643600,9.6746435546875,0.2003173828125,0.45281982421875,-0.9821319580078125
1773258454994670300,9.68467041015625,0.26654052734375,0.1977691650390625,-0.8950653076171875
1773258455004696300,9.6946962890625,0.277801513671875,0.0365142822265625,-0.85223388671875
1773258455014723600,9.7047236328125,0.191009521484375,-0.0668182373046875,-0.83013916015625
1773258455024750600,9.71475048828125,0.256439208984375,-0.196624755859375,-0.89886474609375
1773258455034776600,9.724776611328124,0.267974853515625,-0.25689697265625,-0.93719482421875
1773258455044803300,9.73480322265625,0.26763916015625,-0.3106231689453125,-0.978668212890625
1773258455054830600,9.74483056640625,0.2825927734375,-0.32373046875,-1.0028228759765625
1773258455064856600,9.754856689453124,0.2974395751953125,-0.2882080078125,-1.0103912353515625
1773258455074883600,9.764883544921876,0.3719635009765625,-0.2344512939453125,-1.0496673583984375
1773258455084910300,9.774910400390626,0.386932373046875,-0.230010986328125,-1.1716461181640625
1773258455094936300,9.784936279296875,0.3695831298828125,-0.2362823486328125,-1.255584716796875
1773258455104963600,9.794963623046876,0.3441162109375,-0.2607269287109375,-1.2879180908203125
1773258455114990600,9.804990478515625,0.34063720703125,-0.28228759765625,-1.299072265625
1773258455125016600,9.8150166015625,0.25665283203125,-0.206146240234375,-1.19561767578125
1773258455135043300,9.825043212890625,0.1768341064453125,-0.0782623291015625,-1.134857177734375
1773258455145070600,9.835070556640625,0.3555145263671875,0.07025146484375,-1.1669769287109375
1773258455155096600,9.8450966796875,0.161712646484375,0.2627716064453125,-1.0789794921875
1773258455165123600,9.85512353515625,-0.935791015625,-0.067657470703125,-1.270599365234375
1773258455175150300,9.865150390625,-0.51885986328125,-0.1387939453125,-1.64874267578125
1773258455185176300,9.87517626953125,-0.0108795166015625,0.0904388427734375,-1.45037841796875
1773258455195203600,9.88520361328125,0.4203948974609375,0.1611175537109375,-1.2289276123046875
1773258455205230600,9.895230712890625,0.8739166259765625,-0.065338134765625,-1.0485076904296875
1773258455215256600,9.905256591796874,0.70111083984375,-0.3988189697265625,-0.9972076416015625
1773258455225283300,9.915283447265624,0.2186431884765625,-0.1795501708984375,-0.785064697265625
1773258455235310600,9.925310546875,0.158721923828125,0.313140869140625,-0.565185546875
1773258455245336600,9.935336669921876,0.1333465576171875,0.7083740234375,-0.3394622802734375
1773258455255363600,9.945363525390626,0.019317626953125,0.6841888427734375,-0.1834869384765625
1773258455265390300,9.955390380859376,-0.1060791015625,0.4379730224609375,-0.0452117919921875
1773258455275416300,9.965416259765625,-0.2470245361328125,0.14471435546875,0.0392608642578125
1773258455285443600,9.975443603515625,-0.10382080078125,-0.2468719482421875,0.0546875
1773258455295470600,9.985470703125,0.1816558837890625,-0.31414794921875,-0.1283111572265625
1773258455305496600,9.99549658203125,0.282928466796875,-0.1440887451171875,-0.4576416015625
1773258455315523300,10.0055234375,0.420745849609375,-0.0728759765625,-0.6778564453125
1773258455325551000,10.015551025390625,0.5737457275390625,-0.072601318359375,-0.86798095703125
1773258455335577000,10.0255771484375,0.5068206787109375,-0.1303863525390625,-0.9439239501953125
1773258455345603800,10.035603759765625,0.2527923583984375,-0.1679229736328125,-0.939727783203125
1773258455355630800,10.045630859375,-0.04132080078125,-0.2541046142578125,-0.942901611328125
1773258455365656800,10.05565673828125,-0.2100830078125,-0.3386077880859375,-0.902862548828125
1773258455375684000,10.06568408203125,-0.0148162841796875,-0.334930419921875,-0.97503662109375
1773258455385710800,10.0757109375,-0.3355865478515625,-0.23284912109375,-1.0670318603515625
1773258455395736800,10.08573681640625,-0.9380950927734375,-0.2111358642578125,-1.648193359375
1773258455405763800,10.095763916015626,-1.0192718505859375,-0.1700286865234375,-1.7592620849609375
1773258455415791000,10.105791015625,1.5975494384765625,0.5626983642578125,-1.4580841064453125
1773258455425817000,10.115817138671876,2.7476043701171875,1.153472900390625,-1.4373779296875
1773258455435843800,10.12584375,0.394073486328125,0.761260986328125,-1.5094757080078125
1773258455445870800,10.135870849609375,-0.520172119140625,0.2360382080078125,-1.3170166015625
1773258455455896800,10.145896728515625,0.05908203125,-0.107452392578125,-0.9805755615234375
1773258455465924000,10.155924072265625,0.535858154296875,-0.2176666259765625,-0.8160552978515625
1773258455475950800,10.165950927734375,0.3554840087890625,-0.1623992919921875,-0.76953125
1773258455485976800,10.175976806640625,0.1460418701171875,-0.121826171875,-0.7711029052734375
1773258455496003800,10.18600390625,0.214385986328125,-0.1119384765625,-0.8206787109375
1773258455506031000,10.196031005859375,0.30535888671875,-0.08111572265625,-0.8740997314453125
1773258455516057000,10.20605712890625,0.29364013671875,-0.040130615234375,-0.9208984375
1773258455526083800,10.216083740234374,0.2667388916015625,0.0007476806640625,-0.956512451171875
1773258455536110800,10.22611083984375,0.2502593994140625,0.0175628662109375,-1.0099029541015625
1773258455546136800,10.23613671875,0.145111083984375,0.0543212890625,-1.23529052734375
1773258455556164000,10.2461640625,0.2509307861328125,0.038787841796875,-1.0510406494140625
1773258455566190800,10.25619091796875,0.3471527099609375,-0.0073394775390625,-0.9727935791015625
1773258455576216800,10.266216796875,0.1212310791015625,-0.005584716796875,-1.001434326171875
1773258455586243800,10.276243896484376,0.1005096435546875,0.01513671875,-1.008453369140625
1773258455596271000,10.28627099609375,0.4539947509765625,0.0303497314453125,-0.8015594482421875
1773258455606297000,10.296297119140625,0.3893585205078125,-0.04150390625,-0.8275909423828125
1773258455616323800,10.30632373046875,0.2410736083984375,-0.05816650390625,-0.875091552734375
1773258455626350800,10.316350830078125,0.2704315185546875,-0.0321502685546875,-0.9638824462890625
1773258455636376800,10.326376953125,0.1913299560546875,0.0363006591796875,-1.0472259521484375
1773258455646404000,10.336404052734375,0.2043304443359375,0.0745391845703125,-1.0401763916015625
1773258455656430800,10.346430908203125,0.2591705322265625,0.0198974609375,-1.06683349609375
1773258455666456800,10.356456787109375,0.33636474609375,-0.0733489990234375,-1.027801513671875
1773258455676483800,10.36648388671875,0.4345550537109375,-0.1043853759765625,-0.9040985107421875
1773258455686511000,10.376510986328125,0.33966064453125,-0.0788116455078125,-0.8547515869140625
1773258455696537000,10.386537109375,0.327117919921875,-0.0467681884765625,-0.848968505859375
1773258455706563800,10.396563720703124,0.2735443115234375,-0.020965576171875,-0.8659210205078125
1773258455716590800,10.4065908203125,0.3007659912109375,-0.04339599609375,-0.8733978271484375
1773258455726616800,10.416616943359376,0.301849365234375,-0.070465087890625,-0.955841064453125
1773258455736644000,10.42664404296875,0.241668701171875,-0.0487060546875,-1.0676727294921875
1773258455746670800,10.4366708984375,0.238555908203125,-0.0426483154296875,-1.09375
1773258455756696800,10.44669677734375,0.3020782470703125,-0.177154541015625,-1.0707855224609375
1773258455766723800,10.456723876953125,0.195404052734375,-0.19268798828125,-1.0467071533203125
1773258455776751000,10.466751220703125,0.2667083740234375,-0.055572509765625,-0.9887847900390625
1773258455786777000,10.476777099609375,0.3059844970703125,0.1851043701171875,-0.913177490234375
1773258455796803800,10.486803955078125,0.2960052490234375,0.3379364013671875,-0.9052581787109375
1773258455806830800,10.496830810546875,0.2997283935546875,0.2347869873046875,-0.9183349609375
1773258455816856800,10.50685693359375,0.2721405029296875,0.2681884765625,-0.86126708984375
1773258455826884000,10.516884033203125,0.2574462890625,0.34423828125,-0.8561248779296875
1773258455836910800,10.526910888671875,0.284942626953125,0.2848968505859375,-0.90618896484375
1773258455846936800,10.536936767578124,0.291168212890625,0.09100341796875,-0.98406982421875
1773258455856963800,10.5469638671875,0.2729034423828125,0.02008056640625,-1.007720947265625
1773258455866991000,10.5569912109375,0.29486083984375,0.0068206787109375,-0.9716644287109375
1773258455877017000,10.56701708984375,0.3277740478515625,-0.0004730224609375,-0.914581298828125
1773258455887043800,10.5770439453125,0.2865142822265625,0.06536865234375,-0.8299560546875
1773258455897070800,10.58707080078125,0.1964874267578125,0.17340087890625,-0.807586669921875
1773258455907096800,10.597096923828126,0.236419677734375,0.1915435791015625,-0.8356475830078125
1773258455917124000,10.6071240234375,0.2897186279296875,0.147064208984375,-0.872802734375
1773258455927150800,10.61715087890625,0.3048248291015625,0.1214752197265625,-0.870697021484375
1773258455937177900,10.627177734375,0.3457794189453125,0.0394287109375,-1.038238525390625
1773258455947203800,10.637203857421875,0.4058685302734375,-0.1216583251953125,-1.2335205078125
1773258455957231000,10.647231201171875,0.096343994140625,-0.146728515625,-0.899139404296875
1773258455967257900,10.6572578125,0.444915771484375,-0.13543701171875,-0.9130096435546875
1773258455977283800,10.667283935546875,0.2823638916015625,-0.189544677734375,-1.1195831298828125
1773258455987310800,10.677310791015625,0.2940216064453125,-0.2203369140625,-1.055206298828125
1773258455997337900,10.687337890625,0.4035797119140625,-0.1906585693359375,-1.00091552734375
1773258456007364000,10.697364013671875,0.3704071044921875,-0.1243896484375,-0.9669342041015625
1773258456017390800,10.707390869140625,0.35821533203125,-0.152313232421875,-0.947052001953125
1773258456027417900,10.71741796875,0.2834320068359375,-0.128875732421875,-0.973114013671875
1773258456037443800,10.72744384765625,0.2750396728515625,-0.0225372314453125,-1.0141754150390625
1773258456047470800,10.737470947265624,0.3636016845703125,-0.029815673828125,-1.016754150390625
1773258456057497900,10.747497802734374,0.334716796875,0.1053466796875,-1.000030517578125
1773258456067523800,10.75752392578125,0.374847412109375,0.138702392578125,-0.9672393798828125
1773258456077550800,10.76755078125,0.3590850830078125,0.00701904296875,-0.9511871337890625
1773258456087577900,10.777577880859376,0.3106231689453125,0.0584716796875,-0.9072418212890625
1773258456097604000,10.78760400390625,0.2941131591796875,0.0918121337890625,-0.9133148193359375
1773258456107630800,10.797630859375,0.3213348388671875,0.082061767578125,-0.9207000732421875
1773258456117657900,10.807657958984375,0.2368011474609375,0.0571746826171875,-0.9210968017578125
1773258456127683800,10.817683837890625,0.2176513671875,0.07916259765625,-0.8911895751953125
1773258456137710800,10.8277109375,0.23883056640625,0.1008453369140625,-0.8616485595703125
1773258456147737900,10.83773779296875,0.26739501953125,0.0536041259765625,-0.8738250732421875
1773258456157763800,10.847763916015625,0.260650634765625,0.036529541015625,-0.8912506103515625
1773258456167790800,10.857790771484375,0.3518829345703125,-0.0075836181640625,-0.925567626953125
1773258456177817900,10.86781787109375,0.344329833984375,-0.06048583984375,-0.9308013916015625
1773258456187844000,10.877843994140624,0.25323486328125,0.081390380859375,-0.9624481201171875
1773258456197870800,10.887870849609374,0.3457794189453125,0.045013427734375,-1.040374755859375
1773258456207897900,10.89789794921875,0.300933837890625,0.040313720703125,-1.0347747802734375
1773258456217923800,10.907923828125,0.3327484130859375,0.1215972900390625,-0.9787750244140625
1773258456227950800,10.917950927734376,0.386444091796875,0.0313262939453125,-0.937591552734375
1773258456237977900,10.927977783203126,0.342498779296875,0.028289794921875,-0.9034576416015625
1773258456248003800,10.93800390625,0.330780029296875,0.0355072021484375,-0.8870391845703125
1773258456258030800,10.94803076171875,0.2764739990234375,0.075469970703125,-0.875518798828125
1773258456268057900,10.958057861328125,0.2649078369140625,0.081146240234375,-0.917236328125
1773258456278084000,10.968083984375,0.2761077880859375,0.02618408203125,-1.0263214111328125
1773258456288110800,10.97811083984375,0.2480926513671875,0.0093994140625,-1.0401611328125
1773258456298137900,10.988137939453125,0.3223114013671875,-0.0694732666015625,-1.04095458984375
1773258456308163800,10.998163818359375,0.3222198486328125,-0.03253173828125,-1.0121612548828125
1773258456318190800,11.00819091796875,0.379302978515625,0.038238525390625,-0.855194091796875
1773258456328217900,11.0182177734375,0.3395538330078125,0.0322113037109375,-0.88922119140625
1773258456338243800,11.028243896484375,0.3047637939453125,0.0567474365234375,-0.9927825927734375
1773258456348270800,11.038270751953124,0.298431396484375,0.1568145751953125,-0.9958648681640625
1773258456358297900,11.0482978515625,0.290802001953125,0.1058349609375,-0.991943359375
1773258456368324000,11.058323974609374,0.2938232421875,-0.0220794677734375,-0.9898223876953125
1773258456378350800,11.068350830078124,0.300262451171875,-0.0527191162109375,-0.957244873046875
1773258456388377900,11.0783779296875,0.3400421142578125,-0.0298309326171875,-0.9545745849609375
1773258456398403800,11.08840380859375,0.3524169921875,-0.0181121826171875,-0.9810333251953125
1773258456408430800,11.098430908203126,0.3501129150390625,-0.0156097412109375,-0.971710205078125
1773258456418458000,11.1084580078125,0.345611572265625,-0.0194091796875,-0.979248046875
1773258456428483800,11.11848388671875,0.280731201171875,0.0345306396484375,-0.9412841796875
1773258456438510800,11.1285107421875,0.2470703125,0.114105224609375,-0.8535614013671875
1773258456448537900,11.138537841796875,0.236602783203125,0.1334686279296875,-0.7928924560546875
1773258456458564000,11.148564208984375,0.331573486328125,-0.018402099609375,-1.1024017333984375
1773258456468590800,11.1585908203125,0.3100128173828125,0.0111236572265625,-1.0485687255859375
1773258456478617900,11.168617919921875,0.37493896484375,0.0943145751953125,-0.7382659912109375
1773258456488643800,11.178643798828125,0.3040618896484375,0.08331298828125,-0.71844482421875
1773258456498670800,11.1886708984375,0.3043975830078125,0.1080474853515625,-0.746368408203125
1773258456508698000,11.198697998046875,0.30010986328125,-0.002166748046875,-0.8795928955078125
1773258456518723800,11.208723876953124,0.30767822265625,-0.07958984375,-0.9960479736328125
1773258456528750800,11.218750732421874,0.3526458740234375,0.025177001953125,-0.938934326171875
1773258456538777900,11.22877783203125,0.358612060546875,0.0824737548828125,-0.93780517578125
1773258456548804000,11.23880419921875,0.321044921875,0.1193695068359375,-0.9615478515625
1773258456558831000,11.2488310546875,0.270050048828125,0.1797943115234375,-0.9551544189453125
1773258456568857900,11.25885791015625,0.2181549072265625,0.2780609130859375,-0.6634674072265625
1773258456578883800,11.2688837890625,0.5781402587890625,-0.081695556640625,-0.91070556640625
1773258456588910800,11.278910888671875,0.24493408203125,-0.109222412109375,-1.2187652587890625
1773258456598938000,11.288938232421875,0.0743865966796875,-0.0706787109375,-1.2212677001953125
1773258456608963800,11.2989638671875,0.530792236328125,-0.077728271484375,-1.084014892578125
1773258456618990800,11.308990966796875,0.481201171875,-0.1430816650390625,-0.93646240234375
1773258456629017900,11.319017822265625,0.0381011962890625,-0.0357666015625,-0.978851318359375
1773258456639043800,11.3290439453125,0.1858367919921875,0.0037841796875,-0.92926025390625
1773258456649071000,11.339071044921875,0.479339599609375,-0.0520477294921875,-0.8775482177734375
1773258456659097900,11.349097900390625,0.185028076171875,0.1368865966796875,-0.8854827880859375
1773258456669123800,11.359123779296874,0.3024444580078125,0.124725341796875,-0.88812255859375
1773258456679150800,11.36915087890625,0.3558807373046875,0.06536865234375,-0.88568115234375
1773258456689178000,11.37917822265625,0.272735595703125,0.0556182861328125,-0.8937530517578125
1773258456699204000,11.3892041015625,0.2934722900390625,0.0166778564453125,-0.923370361328125
1773258456709230800,11.39923095703125,0.224578857421875,0.0308837890625,-0.9637298583984375
1773258456719257900,11.4092578125,0.3187713623046875,-0.00811767578125,-0.961395263671875
1773258456729283800,11.419283935546876,0.283599853515625,0.0256805419921875,-0.968109130859375
1773258456739311000,11.42931103515625,0.34600830078125,0.008514404296875,-0.9447174072265625
1773258456749337900,11.439337890625,0.371337890625,0.0012664794921875,-0.93359375
1773258456759363800,11.44936376953125,0.371185302734375,0.0058135986328125,-0.9473876953125
1773258456769390800,11.459390869140625,0.3759307861328125,-0.0292510986328125,-0.9815521240234375
1773258456779418000,11.469418212890625,0.30938720703125,-0.042816162109375,-1.0304107666015625
1773258456789444000,11.479444091796875,0.26629638671875,-0.057952880859375,-1.040771484375
1773258456799470800,11.489470947265625,0.2161407470703125,-0.04364013671875,-1.01202392578125
1773258456809497900,11.499497802734375,0.133758544921875,-0.0193939208984375,-0.98260498046875
1773258456819523800,11.50952392578125,0.06488037109375,0.0150299072265625,-0.9561309814453125
1773258456829551000,11.519551025390625,0.11676025390625,0.0265960693359375,-0.9393463134765625
1773258456839577900,11.529577880859375,0.232818603515625,0.00897216796875,-0.9567718505859375
1773258456849603800,11.539603759765624,0.25537109375,0.044464111328125,-0.9802398681640625
1773258456859630800,11.549630859375,0.2361297607421875,0.2119293212890625,-0.98211669921875
1773258456869658000,11.559658203125,0.3347320556640625,0.34564208984375,-0.978851318359375
1773258456879684000,11.56968408203125,0.394683837890625,0.453887939453125,-0.9808197021484375
1773258456889710800,11.5797109375,0.3668975830078125,0.41162109375,-0.9913482666015625
1773258456899737900,11.58973779296875,0.314117431640625,0.1173095703125,-0.98876953125
1773258456909763800,11.599763916015625,0.294189453125,0.0018310546875,-0.97064208984375
1773258456919791000,11.609791015625,0.311676025390625,-0.0191650390625,-0.9741363525390625
1773258456929817900,11.61981787109375,0.310882568359375,-0.090423583984375,-0.974853515625
1773258456939843800,11.62984375,0.2841949462890625,-0.1863861083984375,-0.96649169921875
1773258456949870800,11.639870849609375,0.242401123046875,-0.1290130615234375,-0.953887939453125
1773258456959898000,11.649898193359375,0.2593841552734375,-0.02056884765625,-0.951690673828125
1773258456969924000,11.659924072265625,0.2751617431640625,0.155181884765625,-0.9414520263671875
1773258456979950800,11.669950927734375,0.3052215576171875,0.213226318359375,-0.957275390625
1773258456989977900,11.679977783203125,0.2832794189453125,0.077301025390625,-0.976898193359375
1773258457000003800,11.69000390625,0.25152587890625,-0.1848602294921875,-0.998443603515625
1773258457010031000,11.700031005859374,0.3143768310546875,-0.7898712158203125,-1.13275146484375
1773258457020057900,11.710057861328124,0.2850189208984375,-1.14886474609375,-1.20953369140625
1773258457030083800,11.720083740234376,0.4604644775390625,-0.5438690185546875,-0.975189208984375
1773258457040110800,11.73011083984375,0.3589630126953125,-0.2473297119140625,-0.987152099609375
1773258457050138000,11.74013818359375,0.151123046875,-0.1872100830078125,-1.0863189697265625
1773258457060164000,11.7501640625,0.0761566162109375,0.141754150390625,-1.021575927734375
1773258457070190800,11.76019091796875,0.1697845458984375,0.747955322265625,-0.8775634765625
1773258457080217900,11.7702177734375,0.2790985107421875,1.2245635986328125,-0.7522125244140625
1773258457090243800,11.780243896484375,0.3335418701171875,1.18408203125,-0.7092437744140625
1773258457100271000,11.79027099609375,0.334259033203125,0.93975830078125,-0.6729736328125
1773258457110297900,11.8002978515625,0.3221282958984375,0.557037353515625,-0.757354736328125
1773258457120323800,11.81032373046875,0.281829833984375,0.3572998046875,-0.8339080810546875
1773258457130350800,11.820350830078125,0.2826080322265625,0.2454833984375,-0.878173828125
1773258457140378000,11.830378173828125,0.30303955078125,0.133819580078125,-0.894256591796875
1773258457150404000,11.840404052734375,0.3287811279296875,0.32537841796875,-0.861663818359375
1773258457160430800,11.850430908203125,0.30145263671875,0.3736419677734375,-0.9255218505859375
1773258457170457900,11.860457763671874,0.30694580078125,0.4321746826171875,-0.997161865234375
1773258457180483800,11.87048388671875,0.2949066162109375,0.126495361328125,-1.170074462890625
1773258457190511000,11.880510986328124,0.2332000732421875,-0.3482666015625,-1.2237396240234375
1773258457200537900,11.890537841796874,0.2566986083984375,-0.46038818359375,-1.0809173583984375
1773258457210563800,11.900563720703126,0.298980712890625,-0.442108154296875,-0.9750213623046875
1773258457220590800,11.9105908203125,0.31494140625,-0.351715087890625,-0.9569549560546875
1773258457230618000,11.9206181640625,0.30767822265625,-0.045166015625,-0.9433441162109375
1773258457240644000,11.93064404296875,0.2862548828125,0.08990478515625,-0.9444732666015625
1773258457250670800,11.9406708984375,0.286285400390625,0.1387481689453125,-0.937469482421875
1773258457260697900,11.95069775390625,0.2867889404296875,0.17340087890625,-0.9309844970703125
1773258457270723800,11.960723876953125,0.28338623046875,0.179534912109375,-0.926605224609375
1773258457280751000,11.970751220703125,0.2834320068359375,0.159881591796875,-0.9270782470703125
1773258457290777900,11.98077783203125,0.2874755859375,0.12255859375,-0.931915283203125
1773258457300803800,11.990803955078125,0.29302978515625,0.0832061767578125,-0.9359893798828125
1773258457310830800,12.000830810546875,0.297698974609375,0.0529327392578125,-0.9435577392578125
1773258457320858000,12.010858154296875,0.29644775390625,0.044525146484375,-0.9452056884765625
1773258457330883800,12.0208837890625,0.2916107177734375,0.0259857177734375,-0.9502716064453125
1773258457340910600,12.03091064453125,0.2856903076171875,0.0291900634765625,-0.9475250244140625
1773258457350937600,12.0409375,0.2789306640625,0.0286407470703125,-0.9548797607421875
1773258457360963600,12.050963623046876,0.2822418212890625,0.02679443359375,-0.95806884765625
1773258457370990800,12.060990966796876,0.28741455078125,0.0255584716796875,-0.9598388671875
1773258457381017600,12.071017578125,0.28875732421875,0.0275726318359375,-0.9608306884765625
1773258457391043600,12.081043701171875,0.290802001953125,0.028533935546875,-0.9599456787109375
1773258457401070600,12.091070556640625,0.2964324951171875,0.025909423828125,-0.955352783203125
1773258457411097900,12.101097900390625,0.2959442138671875,0.0237884521484375,-0.949676513671875
1773258457421123800,12.111123779296875,0.2938690185546875,0.024932861328125,-0.944244384765625
1773258457431150600,12.121150634765625,0.2923583984375,0.0301971435546875,-0.938934326171875
1773258457441177600,12.131177490234375,0.2895050048828125,0.04107666015625,-0.9354705810546875
1773258457451203600,12.14120361328125,0.28265380859375,0.0487060546875,-0.9362335205078125
1773258457461230800,12.15123095703125,0.277679443359375,0.0478973388671875,-0.9394378662109375
1773258457471257600,12.161257568359375,0.277191162109375,0.0366363525390625,-0.9483489990234375
1773258457481283600,12.17128369140625,0.2776031494140625,0.0223388671875,-0.9649505615234375
1773258457491310600,12.181310546875,0.27667236328125,0.00640869140625,-0.980377197265625
1773258457501337900,12.191337890625,0.275238037109375,-0.0119171142578125,-0.98974609375
1773258457511363800,12.20136376953125,0.276092529296875,-0.022491455078125,-0.9942779541015625
1773258457521390600,12.211390625,0.2719879150390625,-0.016265869140625,-0.9952850341796875
1773258457531417600,12.22141748046875,0.270050048828125,-0.0014801025390625,-0.9872894287109375
1773258457541443600,12.231443603515626,0.2692718505859375,0.01324462890625,-0.97393798828125
1773258457551470800,12.241470947265626,0.2710113525390625,0.022918701171875,-0.9627685546875
1773258457561497600,12.25149755859375,0.26995849609375,0.0271148681640625,-0.952789306640625
1773258457571523600,12.261523681640625,0.267578125,0.0253753662109375,-0.9489288330078125
1773258457581550600,12.271550537109375,0.26904296875,0.0217132568359375,-0.950836181640625
1773258457591577900,12.281577880859375,0.2758331298828125,0.0196380615234375,-0.9540863037109375
1773258457601603800,12.291603759765625,0.2791748046875,0.02301025390625,-0.960968017578125
1773258457611630600,12.301630615234375,0.2816925048828125,0.0323333740234375,-0.9649505615234375
1773258457621657600,12.31165771484375,0.2870635986328125,0.0469818115234375,-0.964202880859375
1773258457631683600,12.32168359375,0.2932586669921875,0.0624237060546875,-0.9612579345703125
1773258457641710800,12.3317109375,0.3018798828125,0.0761566162109375,-0.955535888671875
1773258457651737600,12.341737548828124,0.3118743896484375,0.08612060546875,-0.9472503662109375
1773258457661763600,12.351763671875,0.32012939453125,0.0928802490234375,-0.940155029296875
1773258457671790600,12.36179052734375,0.327484130859375,0.0946044921875,-0.93548583984375
1773258457681817900,12.37181787109375,0.330902099609375,0.0957794189453125,-0.9330902099609375
1773258457691843800,12.38184375,0.3303070068359375,0.0956573486328125,-0.9304656982421875
1773258457701870600,12.39187060546875,0.3281097412109375,0.093658447265625,-0.9278717041015625
1773258457711897600,12.401897705078126,0.32720947265625,0.0928955078125,-0.9278717041015625
1773258457721923600,12.411923583984375,0.3244781494140625,0.0922698974609375,-0.9297637939453125
1773258457731950800,12.421950927734375,0.3222198486328125,0.090606689453125,-0.9342498779296875
1773258457741977600,12.4319775390625,0.3241424560546875,0.0886077880859375,-0.9388580322265625
1773258457752003600,12.442003662109375,0.322998046875,0.086761474609375,-0.9449005126953125
1773258457762030600,12.452030517578125,0.320098876953125,0.085723876953125,-0.9494476318359375
1773258457772057900,12.462057861328125,0.320953369140625,0.082763671875,-0.95086669921875
1773258457782083800,12.472083740234375,0.321319580078125,0.07830810546875,-0.9474334716796875
1773258457792110600,12.482110595703125,0.3207550048828125,0.072479248046875,-0.9442596435546875
1773258457802137600,12.4921376953125,0.322998046875,0.0706634521484375,-0.9409027099609375
1773258457812163600,12.50216357421875,0.324371337890625,0.0706787109375,-0.9381256103515625
1773258457822190800,12.51219091796875,0.322113037109375,0.070556640625,-0.936920166015625
1773258457832217600,12.522217529296874,0.3194732666015625,0.0678253173828125,-0.93798828125
1773258457842243600,12.53224365234375,0.3181915283203125,0.0647125244140625,-0.9375762939453125
1773258457852270600,12.5422705078125,0.318206787109375,0.0621337890625,-0.9373016357421875
1773258457862297900,12.5522978515625,0.3200836181640625,0.058837890625,-0.937652587890625
1773258457872323800,12.56232373046875,0.316070556640625,0.0560760498046875,-0.940887451171875
1773258457882350600,12.5723505859375,0.3132171630859375,0.053314208984375,-0.9411163330078125
1773258457892377600,12.582377685546875,0.3133544921875,0.0517425537109375,-0.94342041015625
1773258457902403600,12.592403564453125,0.3109130859375,0.050323486328125,-0.9466094970703125
1773258457912430800,12.602430908203125,0.3052978515625,0.050079345703125,-0.9485626220703125
1773258457922457600,12.61245751953125,0.3063201904296875,0.04058837890625,-0.9451446533203125
1773258457932483600,12.622483642578125,0.3032989501953125,0.0462799072265625,-0.947509765625
1773258457942510600,12.632510498046875,0.3026580810546875,0.0542755126953125,-0.9514007568359375
1773258457952537900,12.642537841796875,0.3031463623046875,0.0444793701171875,-0.9466552734375
1773258457962563800,12.652563720703125,0.29486083984375,0.03472900390625,-0.9443817138671875
1773258457972590600,12.662590576171874,0.301788330078125,0.031158447265625,-0.9379119873046875
1773258457982617600,12.67261767578125,0.3086090087890625,0.030548095703125,-0.9395751953125
1773258457992643600,12.6826435546875,0.3129119873046875,0.0263824462890625,-0.940185546875
1773258458002670800,12.6926708984375,0.31591796875,0.0210418701171875,-0.9403839111328125
1773258458012697600,12.702697509765626,0.316009521484375,0.014892578125,-0.9343109130859375
1773258458022723600,12.7127236328125,0.31475830078125,0.00604248046875,-0.9283599853515625
1773258458032750600,12.72275048828125,0.31536865234375,-0.003326416015625,-0.923736572265625
1773258458042777900,12.73277783203125,0.3199310302734375,-0.006683349609375,-0.92236328125
1773258458052803800,12.742803955078125,0.3226776123046875,-0.0052337646484375,-0.9227447509765625
1773258458062830600,12.75283056640625,0.32177734375,-0.0021820068359375,-0.9237213134765625
1773258458072857600,12.762857666015625,0.3237152099609375,-0.000152587890625,-0.921356201171875
1773258458082883600,12.772883544921875,0.326080322265625,-0.001556396484375,-0.9200439453125
1773258458092910800,12.782910888671875,0.324066162109375,0.0010223388671875,-0.9257049560546875
1773258458102937600,12.7929375,0.3217620849609375,-0.0068359375,-0.9412078857421875
1773258458112963600,12.802963623046875,0.30657958984375,-0.0022735595703125,-0.9514312744140625
1773258458122990600,12.812990478515625,0.3012237548828125,0.0237579345703125,-0.958099365234375
1773258458133017900,12.823017822265625,0.3004608154296875,0.0166473388671875,-0.9622802734375
1773258458143043800,12.8330439453125,0.2936859130859375,0.0259857177734375,-0.956390380859375
1773258458153070600,12.843070556640624,0.2988433837890625,0.0391845703125,-0.959136962890625
1773258458163097600,12.85309765625,0.30670166015625,0.0424957275390625,-0.960601806640625
1773258458173123600,12.86312353515625,0.3094482421875,0.0301055908203125,-0.9574127197265625
1773258458183150800,12.87315087890625,0.3094024658203125,0.02386474609375,-0.9532318115234375
1773258458193177600,12.883177490234376,0.3144683837890625,0.0280303955078125,-0.951416015625
1773258458203203600,12.89320361328125,0.319183349609375,0.0354766845703125,-0.9532318115234375
1773258458213230600,12.903230712890625,0.318328857421875,0.04864501953125,-0.955535888671875
1773258458223257900,12.9132578125,0.3181915283203125,0.06396484375,-0.9574432373046875
1773258458233283800,12.923283935546875,0.3162689208984375,0.0731964111328125,-0.9603729248046875
1773258458243310600,12.933310546875,0.313629150390625,0.078277587890625,-0.9647064208984375
1773258458253337600,12.943337646484375,0.309661865234375,0.07794189453125,-0.965484619140625
1773258458263363600,12.953363525390625,0.305633544921875,0.07891845703125,-0.9600830078125
1773258458273390800,12.963390869140625,0.30194091796875,0.0807952880859375,-0.9486083984375
1773258458283417600,12.97341748046875,0.298858642578125,0.0708770751953125,-0.9444732666015625
1773258458293443600,12.983443603515624,0.2928924560546875,0.0551605224609375,-0.949615478515625
1773258458303470600,12.993470703125,0.2843017578125,0.04443359375,-0.9570159912109375
1773258458313497900,13.003497802734374,0.278839111328125,0.036956787109375,-0.968475341796875
