time,seconds_elapsed,z,y,x
1773258445386658300,0.076658203125,0.0938677857428789,-0.11177461383342742,-0.022238665016088635
1773258445396685300,0.086685302734375,0.08146247767806053,-0.12275003522559999,-0.02343769294177182
1773258445406711300,0.096711181640625,0.06384031174778938,-0.11420841685160994,0.0050793582240585234
1773258445416738600,0.106738525390625,0.06106675538122654,-0.07337240246385336,0.0373732519143261
1773258445426765600,0.116765625,0.06278992591202259,-0.06729512837678193,0.06334965128717013
1773258445436791300,0.126791259765625,0.13863982440531253,-0.047071840037405485,0.07971420923862606
1773258445446818300,0.136818359375,0.12570610855221748,-0.011611088947206735,0.09060572434016503
1773258445456844300,0.14684423828125,0.10230009852349757,-0.04369096542745828,0.07527386130415833
1773258445466871600,0.15687158203125,0.06348959861397743,-0.06868541369140148,0.09414689494520426
1773258445476897500,0.1668974609375,0.009728197810053825,-0.0749273768208921,0.10153264868180267
1773258445486924300,0.17692431640625,0.018273323315382003,-0.004484890329092741,0.02240479709692299
1773258445496950300,0.1869501953125,0.10162029956579208,0.017985884676128626,-0.05480702826618217
1773258445506977300,0.196977294921875,0.05624971048831939,0.05141995224431157,0.009224175544362515
1773258445517004500,0.207004638671875,0.04179506867825985,0.12922303063198923,0.019149868687894193
1773258445527030500,0.217030517578125,0.13519582143127917,0.11713482569232582,0.021352164505142716
1773258445537057300,0.227057373046875,0.0715384650349617,0.03122852034792304,0.14557199828866868
1773258445547083300,0.237083251953125,-0.104024438098073,-0.06178221017420291,0.15085673375856132
1773258445557110300,0.2471103515625,-0.2973521305024624,-0.16175883418619633,0.13548468484263868
1773258445567136500,0.257136474609375,-0.27005203564465047,-0.26903789016604424,0.18176855284012852
1773258445577163500,0.26716357421875,-0.11939970188438892,-0.22056743537709117,0.017866715275868774
1773258445587189500,0.277189453125,0.23189210859835147,0.009118541479110717,-0.24178221897184848
1773258445597216300,0.28721630859375,0.3359598013162613,0.10660963228568435,-0.25428302330039443
1773258445607243500,0.297243408203125,0.09535773203969002,0.03317439371868968,-0.2380260813087225
1773258445617269500,0.30726953125,0.09255787218809128,-0.0909283712901175,-0.09447992629185319
1773258445627296500,0.317296630859375,-0.18209084359705446,-0.20964038317129013,0.008687968042120338
1773258445637322500,0.327322509765625,-0.6126929221600294,-0.27829481720253824,-0.043572380549088116
1773258445647349200,0.337349365234375,-0.6939017173379659,-0.2922695665411651,-0.15373627125024794
1773258445657375200,0.347375244140625,-0.31049802780151364,-0.2018381849877536,-0.23937588848248123
1773258445667402500,0.357402587890625,-0.03874444893598556,-0.13699454141631723,-0.28281390206217766
1773258445677429500,0.367429443359375,-0.07981295690536498,-0.15113427205830812,-0.3100906160444021
1773258445687455500,0.37745556640625,-0.10650514899790287,-0.194360688713938,-0.34701705577298997
1773258445697482200,0.387482177734375,-0.20696166548132897,-0.18497955077588557,-0.20764891709312797
1773258445707508200,0.39750830078125,-0.27108488582372664,0.05486030195653438,-0.08865224305167793
1773258445717535500,0.407535400390625,-0.14869886160492896,0.3617930384919047,-0.04903568745627999
1773258445727561500,0.4175615234375,-0.17392507279813288,0.4320858873799443,0.0037331951789557932
1773258445737588500,0.42758837890625,-0.3279325622051954,0.47222091389149423,0.08819704663008451
1773258445747614500,0.437614501953125,-0.8612211082607507,0.5253434322699904,-0.5691175459362566
1773258445757641200,0.44764111328125,-1.3995406342208385,0.7299497667968273,0.036947920908033845
1773258445767668500,0.45766845703125,-1.9355156428813933,0.9583078560501337,0.2219672191724181
1773258445777694500,0.467694580078125,-2.0729659652411936,0.40897535316646094,0.3248623609796166
1773258445787721500,0.477721435546875,-1.3521458458393811,-0.0746492905318737,0.12061083123981951
1773258445797747500,0.48774755859375,-0.046263154003024096,-0.4223834085330367,-0.1739906853802502
1773258445807774500,0.4977744140625,0.855377642929554,-0.6769166802674531,-0.5889693706147372
1773258445817800400,0.507800537109375,1.2858131327539681,-0.764044344100356,-0.7451997967682779
1773258445827827500,0.517827392578125,1.379024500414729,-0.5886494910106063,-0.2705839505642652
1773258445837854500,0.5278544921875,1.0227186611622572,-0.26622224822342394,0.04476180952936411
1773258445847880400,0.53788037109375,0.516962849676609,0.09056319123953581,0.3891773045018315
1773258445857907500,0.547907470703125,0.14446049338281153,0.0551338582009077,0.48040977330505846
1773258445867933400,0.557933349609375,-0.4891261637240648,-0.19936258865445852,0.02942804679721594
1773258445877960400,0.56796044921875,-0.509555203768611,-0.18946458723545073,-0.028209318657219408
1773258445887986400,0.577986328125,-0.09191022193431854,0.037246027071774004,-0.46019028435796494
1773258445898013400,0.588013427734375,-0.5254501075148582,0.5856035474434494,-0.5705082696422934
1773258445908039400,0.598039306640625,-0.8912667024344205,0.9578370236679911,-0.32527634860798715
1773258445918066400,0.60806640625,-0.9339011445462703,1.3935373021528124,0.9004391660578548
1773258445928093400,0.618093505859375,-0.3845125275611877,1.5967074663966894,1.4973966128170488
1773258445938119400,0.628119384765625,0.6962427275061607,0.7881488577872514,1.4332181551560759
1773258445948146400,0.638146484375,1.7244237457275389,-0.2804009957015514,0.5951050968907773
1773258445958172400,0.64817236328125,2.4571762949854135,-0.7817635406643152,-0.17862331361696124
1773258445968199400,0.658199462890625,1.7016969501346348,-0.5332897150993346,-0.8146303297385573
1773258445978225400,0.668225341796875,0.005802548798918724,0.4306438718780875,-0.8345072888582944
1773258445988252400,0.67825244140625,-1.0321908383846283,1.1644856776773929,0.08812631948143243
1773258445998279400,0.688279541015625,-0.6293745923697948,0.6882987827643752,1.2615882075577973
1773258446008305400,0.698305419921875,0.1382961255341768,-0.22703794656544923,1.765655043043196
1773258446018332400,0.70833251953125,0.4860463178873062,-0.5908984389811753,1.2950659681372343
1773258446028358400,0.7183583984375,0.7074661323100329,-0.05405103140026331,0.5729125543050467
1773258446038385400,0.728385498046875,0.7982388746470213,0.44424131233692166,0.0026201193705201148
1773258446048411400,0.738411376953125,0.30834581820368767,1.0114064090311528,-0.10396423234343528
1773258446058438700,0.748438720703125,-0.3700876963675022,1.1859484446838497,-0.12151084881946443
1773258446068465400,0.75846533203125,-0.517013118559122,0.7031564524173736,0.013041852402687073
1773258446078491400,0.768491455078125,0.14425474167764185,-0.09503273786902428,0.16466536928266287
1773258446088518400,0.778518310546875,0.2210375371068716,-0.7113254380866885,-0.04720467263683677
1773258446098544400,0.78854443359375,0.35743162841200826,-0.768567082221806,-0.3793358555756509
1773258446108571600,0.798571533203125,1.063652144575119,-0.41540480169206856,-0.315886296711117
1773258446118597600,0.80859765625,1.072215974780917,-0.178106157875061,-0.157264737637341
1773258446128624400,0.818624267578125,0.5498433750152587,-0.32862609742730853,0.15054171299263833
1773258446138651400,0.8286513671875,1.1193763698846102,-0.7447673967003822,-0.0531362546429038
1773258446148677400,0.838677490234375,1.1232079108715056,-0.3435930726736784,-0.11524448190107942
1773258446158704600,0.84870458984375,0.11699790143966673,-0.41702305054366584,-0.33310119701474905
1773258446168730600,0.858730712890625,-0.13690963961184024,-0.5045490660443902,-0.1457625158920884
1773258446178757400,0.86875732421875,0.7871160076081752,-0.5216922162860632,-0.019354542680829763
1773258446188783400,0.878783447265625,0.34241000036895275,-0.27574907824248074,0.22478592985495924
1773258446198810400,0.888810302734375,0.07315642162561416,0.021337971583008764,0.6431890365801751
1773258446208837600,0.898837646484375,0.4633335508197546,-0.07371522455215454,0.5406560060836374
1773258446218863400,0.90886328125,0.3843745803952217,0.07151800676882267,0.49217181503027674
1773258446228890400,0.918890380859375,0.25599136158823965,0.1583057711228728,0.48546091921478507
1773258446238916400,0.928916259765625,0.39104163706898687,0.23406711454987525,0.3277617356829345
1773258446248943400,0.938943359375,0.5403209289103746,0.4508215675100684,0.2850895919091999
1773258446258969300,0.94896923828125,0.4815829087376594,0.5470788787379861,0.37806437433511014
1773258446268996400,0.958996337890625,0.44673546724021435,0.590182984188199,0.48921077326759693
1773258446279023400,0.9690234375,0.36618542823195455,0.4888686818316579,0.4802171733424067
1773258446289049300,0.97904931640625,0.06217968505918979,0.3091752547651529,0.47339551062881946
1773258446299076400,0.989076416015625,0.0036579379856586454,0.12835223914682864,0.491262152839452
1773258446309102600,0.9991025390625,-0.1259615446180105,-0.17805355090498923,0.3581530745543539
1773258446319130000,1.009130126953125,-0.14041501738429069,-0.5517065385386347,0.3165028942395001
1773258446329156000,1.019156005859375,-0.11555588593780994,-0.7565358681663871,0.3004207242928445
1773258446339183400,1.029183349609375,-0.22772622109055518,-0.8541343648701906,0.15206234668865798
1773258446349209300,1.039209228515625,-0.26681553794145585,-0.8511614865392446,0.08177329719290137
1773258446359236400,1.049236328125,-0.34974984173774715,-0.8928358514472842,0.02878317302241921
1773258446369263000,1.05926318359375,-0.3719312784075737,-0.9343503496184945,-0.04737944468185305
1773258446379289000,1.0692890625,-0.3163426621764898,-0.8678057473480701,-0.11336911648325622
1773258446389316400,1.07931640625,-0.08852057949602603,-0.7087813065618276,-0.10257343557216227
1773258446399342300,1.08934228515625,0.15122691877782343,-0.5781693057894707,-0.057857511011138556
1773258446409369300,1.099369384765625,0.3777653913885355,-0.41068449517190453,-0.0005598258398473262
1773258446419395300,1.109395263671875,0.5703600933432579,-0.2803016269803047,0.014261749586462974
1773258446429422000,1.119422119140625,0.7474632116556167,-0.2056982214167714,0.0018519845422357319
1773258446439449300,1.129449462890625,0.7780845598906279,-0.15877923385351894,-0.09948810984268784
1773258446449475300,1.139475341796875,0.7956026809245348,-0.06738748283535241,-0.17513664054498077
1773258446459502300,1.14950244140625,0.8651841666728257,0.0023377952978014946,-0.2798432887535542
1773258446469528300,1.1595283203125,0.7233423313558102,-0.02730652459859848,-0.25928777278512716
1773258446479555000,1.16955517578125,0.39679391698539257,-0.028617314936220644,-0.08239384024403988
1773258446489582300,1.179582275390625,0.2650684020131826,0.0947089127421379,0.04123969981782138
1773258446499608300,1.1896083984375,0.06485387270450592,0.23699176982492207,-0.0012814181126654146
1773258446509635300,1.19963525390625,-0.0361287134796381,0.33351503851264713,0.0367565630543977
1773258446519661300,1.209661376953125,0.0018096797704696655,0.3533355912700295,0.06637516398765146
1773258446529688000,1.21968798828125,-0.17451953155994415,0.350145563057065,0.281540374995023
1773258446539714300,1.22971435546875,-0.3674918346554041,0.24014409637600181,0.46843386963345107
1773258446549741300,1.2397412109375,0.009609539866447449,0.28613281735181806,0.4633462641708553
1773258446559767300,1.249767333984375,0.48437809241414065,0.5381693038344383,0.5149022638849914
1773258446569794300,1.259794189453125,-0.02178045465350151,0.7894064566329121,0.8293209722615777
1773258446579821000,1.269821044921875,-0.7691366988033056,0.39610447341650723,0.667388681204617
1773258446589847300,1.279847412109375,-0.6181055948585271,0.11429010378569364,0.4760504821170121
1773258446599874300,1.289874267578125,-0.20989479632377622,0.33867432097196576,0.5289439409799873
1773258446609900300,1.299900390625,-0.15021277329921723,0.009984218397736548,0.3144470576882362
1773258446619927000,1.309927001953125,0.17452829938828945,-0.30607348935753104,-0.007674918542057275
1773258446629953000,1.319953125,0.27092706491351126,-0.46317631443142887,-0.21106661658212542
1773258446639980300,1.329980224609375,0.0823527045160532,-0.7881146632567048,-0.2627658241592348
1773258446650007300,1.34000732421875,0.05420914457142353,-0.9323448550149798,-0.3925161666009575
1773258446660033300,1.350033203125,0.24447686488330364,-0.8266852169305086,-0.431403385008499
1773258446670060000,1.36006005859375,0.4610796344131231,-0.725798784597218,-0.3349655295819044
1773258446680086000,1.3700859375,0.522882302853465,-0.5610469060748815,-0.3269505654305219
1773258446690113300,1.38011328125,0.6185977622896432,-0.4463379923552274,-0.35777978426255286
1773258446700140300,1.390140380859375,0.6126753865033387,-0.33404256951808925,-0.09986446887440979
1773258446710166300,1.400166259765625,0.6564613367378711,-0.17534663003385065,0.154927453796193
1773258446720193000,1.410193115234375,0.7314204238712787,-0.10483516995906829,0.2256781294543296
1773258446730219000,1.420218994140625,0.4297358171224594,-0.14123773194402456,0.2501489191703498
1773258446740246300,1.430246337890625,0.1473983004003763,-0.12512246344536543,0.2299007155854255
1773258446750272300,1.440272216796875,0.1773883649945259,-0.11282324610352515,0.11709186333343385
1773258446760299300,1.45029931640625,0.33186054930388925,-0.1990662360563874,-0.0033968028314411637
1773258446770326000,1.460325927734375,0.08451192837655544,-0.23348025457262991,-0.0992096582274884
1773258446780352000,1.47035205078125,-0.17024141584932803,-0.2296279630586505,0.032324097032286225
1773258446790379300,1.480379150390625,-0.39985622716546054,-0.13357494223117827,0.2012581931427121
1773258446800405200,1.4904052734375,-0.5119213483780622,-0.021418927864730358,0.16332378194797784
1773258446810432300,1.500432373046875,-0.3133884885460138,0.06770633952617645,-0.041389556617289776
1773258446820458200,1.510458251953125,-0.08011983089745044,0.16971826875805854,-0.13347634069491177
1773258446830485000,1.520485107421875,-0.1932172177672386,0.2191898634135723,-0.03789981480538845
1773258446840512300,1.53051220703125,-0.17504793934822083,0.19569032988250254,0.029287761543691157
1773258446850538200,1.540538330078125,-0.10333119513690471,0.13055325632244347,0.11619831202719359
1773258446860565200,1.550565185546875,-0.17940730360150337,0.09599924481362104,0.18380371192954478
1773258446870591200,1.56059130859375,-0.1607961266338825,0.10392506937682627,0.1935877681126818
1773258446880618200,1.5706181640625,-0.21206746418774128,0.1759638851493597,0.19004399455860255
1773258446890644200,1.580644287109375,-0.21253917335271835,0.1788081686645746,0.15165296217016874
1773258446900671200,1.590671142578125,0.006837152543663978,0.26821839047670365,0.17388163551520555
1773258446910698200,1.6006982421875,0.14567629891335962,0.31545360438227654,0.23904841009378433
1773258446920724200,1.61072412109375,0.28001988742947576,0.3235495248153806,0.2727204511363059
1773258446930751200,1.620751220703125,0.49387365051209925,0.3803837571933865,0.28658640633821486
1773258446940777200,1.630777099609375,0.4281447485387325,0.42330286146551366,0.3654340253427624
1773258446950804200,1.64080419921875,0.5709457842767238,0.35856852348744866,0.4544476490527391
1773258446960831200,1.650831298828125,0.5463771602094173,0.25874153707921504,0.42940132447108625
1773258446970857200,1.660857177734375,0.3339712578475475,0.14577362180799244,0.4799137699490413
1773258446980884200,1.67088427734375,0.29932430735826493,-0.009141630093753338,0.4308782286232337
1773258446990910200,1.68091015625,0.2143278103351593,-0.05772825860828161,0.39127771084718405
1773258447000937200,1.690937255859375,0.13347206637859343,-0.03787935653924942,0.18185740016736088
1773258447010963200,1.700963134765625,0.197483643040061,-0.10108546203672886,-0.0735239032311365
1773258447020990200,1.710990234375,0.21915654566586015,-0.14688888957351445,-0.2868669585789554
1773258447031017200,1.721017333984375,0.04187281008958816,-0.24426439117640256,-0.3278929608471691
1773258447041043200,1.731043212890625,-0.12459142530858516,-0.41419454911947245,-0.3662086995096877
1773258447051070200,1.7410703125,-0.3130529729813337,-0.49142391927242274,-0.39021066613756117
1773258447061096200,1.75109619140625,-0.3620908523947,-0.4147510139584541,-0.37118177521452306
1773258447071123200,1.761123291015625,-0.44831893703937525,-0.23249299710094928,-0.29877240909654645
1773258447081150200,1.771150146484375,-0.6540922695189714,-0.0075534841194748875,-0.31913715173322704
1773258447091176200,1.78117626953125,-0.655967415741086,0.35253625758588314,-0.3152281981285661
1773258447101203200,1.791203125,-0.5638450123608112,0.37089667466282844,-0.15986178665952755
1773258447111229200,1.801229248046875,-0.14789748209416864,0.24834113909602165,-0.0875961581274867
1773258447121256200,1.811256103515625,0.3282593099415302,0.06280716930776833,-0.0949660658409819
1773258447131282400,1.821282470703125,0.5529875182598829,-0.3232870744869113,-0.22599830131940543
1773258447141309200,1.83130908203125,0.32543782278001304,-0.43715486120730634,-0.37158191698063164
1773258447151336200,1.841336181640625,0.4936462714970112,-0.6794391844823956,-0.532297233463265
1773258447161362200,1.851362060546875,0.5566086313664913,-0.6497200457841158,-0.37890075209401547
1773258447171389200,1.86138916015625,0.5781693057894707,-0.5012886029437184,-0.39571722766458983
1773258447181415400,1.87141552734375,0.23501170192360876,-0.3511687686249614,-0.5736018152108415
1773258447191442200,1.881442138671875,0.18221710032522678,-0.18216712370365856,-0.9493011774476617
1773258447201469200,1.89146923828125,0.006668225717544555,-0.1677744412139058,-1.0162773030031471
1773258447211495200,1.9014951171875,-0.892679491841793,-1.1067758315086365,-0.9541691488102078
1773258447221522400,1.9115224609375,-0.7472697349101305,-0.8254223573878406,-1.1707823666688053
1773258447231548400,1.92154833984375,0.2400251461714506,-0.08066285173296928,-1.28053621526435
1773258447241575200,1.9315751953125,-0.3065712097465992,-0.25190233870893713,-1.1501908295389265
1773258447251601200,1.94160107421875,-0.17720307155549525,0.06492080046087503,-1.1314680819556115
1773258447261628200,1.951628173828125,0.020582769301533698,0.514230502103269,-0.7525115810863673
1773258447271655400,1.961655517578125,-0.48594753368794913,0.30811317849159237,-0.4541448667138815
1773258447281681400,1.971681396484375,-0.7868512191921472,0.350869201156497,-0.27687793614193795
1773258447291708200,1.981708251953125,-0.746699826067686,0.8758908541262149,-0.48643137168213724
1773258447301734100,1.991734130859375,-0.7836316726237536,1.329531278449297,-0.794279907888174
1773258447311761200,2.00176123046875,-0.6369558412790298,0.8498638479441404,-0.4249566200219094
1773258447321788000,2.011787841796875,-0.6799006645143032,0.4920154554247856,0.008862082500010728
1773258447331814000,2.02181396484375,-0.31793139267265796,0.046616497485339636,0.4450895997293293
1773258447341840600,2.031840576171875,0.5962970831543207,-0.4030591148599982,0.9622234220586716
1773258447351866600,2.04186669921875,0.9754361009836197,-0.9031029784396291,1.2188812847316264
1773258447361894000,2.051893798828125,0.825093563824892,-1.423499601957202,1.4011334563702345
1773258447371921000,2.0619208984375,0.8578548466980457,-0.7345312493681907,1.5055083153411746
1773258447381947000,2.07194677734375,1.2543418896913527,0.3556520515188575,1.221534867980331
1773258447391973600,2.0819736328125,1.372043555486202,0.7078489941477775,0.8791730176020414
1773258447401999600,2.09199951171875,1.4255612106621265,0.5852139636039734,0.7739538898266851
1773258447412027000,2.10202685546875,1.782005581602454,0.2762543974161148,0.8331322011128067
1773258447422052900,2.112052978515625,1.8575614655852317,-0.30617870329767466,0.20094342810511587
1773258447432080000,2.122079833984375,0.7857312752515078,-0.655210167632997,-0.4667977197989821
1773258447442106600,2.132106689453125,0.812611098870635,-0.4210556670606136,0.2108260858245194
1773258447452132600,2.142132568359375,-0.059631169620156285,-0.01674538309574127,-0.2269486608467996
1773258447462160000,2.152159912109375,0.5210802218675613,0.07710895864367484,-0.8580395556151866
1773258447472185900,2.162185791015625,0.9400047221183776,0.2661357389837503,-0.7871288670897484
1773258447482212900,2.172212890625,0.8541717742711306,0.2370107667863369,-0.6384989790678024
1773258447492239600,2.182239501953125,0.6030260991483927,0.23510522542595863,-0.11427709817364812
1773258447502265600,2.192265625,0.558321280503273,0.26673925783485175,0.4557726140461862
1773258447512292900,2.20229296875,0.7702116345584392,0.1966027685523033,0.7154483632355928
1773258447522318800,2.21231884765625,0.6189847157806158,0.18693068484365938,0.44079467901438474
1773258447532345900,2.222345947265625,0.3435276062220335,0.26964696197509763,0.08250234211981296
1773258447542372600,2.23237255859375,0.19941256527602672,0.3004085954636335,-0.06862842280715703
1773258447552398600,2.242398681640625,0.08144961819648742,0.28917525378763675,-0.0832782949283719
1773258447562425900,2.25242578125,-0.18372107514739036,0.37310704418867824,-0.020254998651891946
1773258447572451800,2.262451904296875,-0.1672188531577587,0.36493104425668715,-0.027226152838766574
1773258447582478800,2.272478759765625,-0.14891162757277487,0.26665713250935075,0.04894362525865435
1773258447592505600,2.282505615234375,-0.24710838243067262,0.29043314489424227,0.2173589947246015
1773258447602531800,2.29253173828125,-0.3866851954251528,0.2837295556023717,0.21927242713049053
1773258447612558800,2.302558837890625,-0.5151531699061394,0.2520139823898673,0.35264410187453027
1773258447622584800,2.312584716796875,-0.6692138508051634,0.23576573516130447,0.28449001858085393
1773258447632611800,2.32261181640625,-0.8583394153445959,0.2869835889622569,-0.0949599648937583
1773258447642638600,2.332638671875,-0.9684294370919465,0.35209435903728004,-0.3055180474318564
1773258447652664800,2.342664794921875,-0.8109633316636085,0.3672928049519658,-0.25126857085004445
1773258447662691800,2.35269189453125,-0.5360416441559791,0.25976035873293873,-0.059266281830519435
1773258447672717800,2.3627177734375,-0.4409446088790893,0.25786387746185063,0.17135653748437762
1773258447682744800,2.372744873046875,-0.2876005518168211,0.28572745142132044,0.1880702102676034
1773258447692771800,2.382771728515625,-0.018290274450182914,0.24823826324343679,0.21393749584332108
1773258447702797800,2.3927978515625,-0.07558744816482067,0.2990624415516853,0.11395312691628932
1773258447712824800,2.402824951171875,-0.0810802003622055,0.17306144170612095,-0.0196950266815722
1773258447722850800,2.412850830078125,-0.274929870814085,0.17737345968633889,-0.13591405270323156
1773258447732877800,2.4228779296875,-0.5232072970241308,0.20597265444397925,-0.33225670901462434
1773258447742903800,2.43290380859375,-0.5318184735029936,0.17605156343281267,-0.3621818916790187
1773258447752930800,2.442930908203125,-0.34917233411073684,0.22589053009599447,-0.4237717941515147
1773258447762957800,2.452957763671875,-0.16204583443403242,0.19660627568364142,-0.378933850646019
1773258447772983800,2.46298388671875,-0.32010464505851266,0.16349194158911703,0.12005129766091703
1773258447783010800,2.4730107421875,-0.4604536114692688,0.08312748828083276,0.2363566867917776
1773258447793036800,2.483036865234375,-0.17766659741401672,0.0342898076146841,0.3288166515633464
1773258447803063800,2.493063720703125,-0.11974924597442149,-0.06326835707873106,0.40120866468772287
1773258447813090800,2.5030908203125,0.013614683854579925,-0.1882669018834829,0.3581773322127759
1773258447823116800,2.51311669921875,0.19332710788249968,-0.2347790622115135,0.3253393308416009
1773258447833143800,2.523143798828125,0.12401684029102325,-0.1133764960721135,0.13699205719828605
1773258447843169800,2.533169677734375,0.356611544200778,-0.11366378858089446,-0.036507483664155
1773258447853196800,2.54319677734375,0.416841848757863,0.08389555004388094,-0.2810156204685569
1773258447863223800,2.553223876953125,0.2547083360403776,0.33693244574069975,-0.2239297514170408
1773258447873249800,2.563249755859375,-0.1864198127120733,0.408182741484046,0.06831848007515072
1773258447883276800,2.57327685546875,-0.420500955787301,0.2752995809093118,0.18808277748823166
1773258447893303800,2.5833037109375,-0.38367841482460496,0.20379531040489673,0.013265285895019768
1773258447903329800,2.593329833984375,-0.41954701606333256,-0.3417553358525038,0.0869825562737882
1773258447913356800,2.603356689453125,-0.5278074842959642,-0.3634051498636603,-0.06011047756969928
1773258447923382800,2.6133828125,-0.4136193795800209,-0.6145040632352232,-0.341262583899498
1773258447933409800,2.623409912109375,-0.3004629559993744,-0.6819166805118322,-0.6723167852565646
1773258447943436800,2.633436767578125,-0.09283668912947177,-0.594565729317069,-0.9874754983454942
1773258447953462800,2.643462890625,0.2603150700062513,-0.532981379802525,-1.4162978538848459
1773258447963489800,2.65348974609375,0.3300017696946859,-0.5511243547365069,-1.6935811559572815
1773258447973515800,2.663515869140625,0.583724601829052,-0.7443059166684747,-1.9118107960365711
1773258447983543000,2.67354296875,0.7273100659430026,-0.2362771918147802,-2.1549632804483174
1773258447993569800,2.68356982421875,0.7142728897154331,-0.015048516049981116,-2.225023343493789
1773258448003595800,2.693595703125,0.5914385372072458,0.44297553018480534,-2.623089326241612
1773258448013622800,2.703622802734375,0.43419045844376086,0.7970096251130103,-3.173639388221502
1773258448023648800,2.713648681640625,0.5103004691779613,0.6706503133490681,-3.765476569357514
1773258448033676000,2.723676025390625,0.1386357327520847,0.8023276052653789,-3.826109901757538
1773258448043702800,2.733702880859375,-0.4186848462760448,0.654896863900125,-3.9178015125051138
1773258448053728800,2.743728759765625,-0.7379705761671066,0.6700505938902497,-4.198909487432241
1773258448063755800,2.753755859375,-1.056980996248126,0.9890452318802475,-4.103263293839991
1773258448073781800,2.76378173828125,-1.2714046681731939,1.4220344978407025,-4.0943589796334505
1773258448083809000,2.77380908203125,-1.441010124206543,1.8252055486425756,-3.76073755813688
1773258448093835800,2.783835693359375,-0.9497697448074817,2.0238567741572857,-3.3533746086031195
1773258448103861800,2.79386181640625,0.4722036704957485,3.070156217393279,-3.6773058262124656
1773258448113888800,2.803888671875,0.6300163974046706,3.457452238193154,-3.3668870011270045
1773258448123914800,2.813914794921875,-0.7278279523372649,2.0538141055256127,-2.449809857870638
1773258448133942000,2.82394189453125,-0.40036768381893634,1.4083660379722713,-2.5451386560767886
1773258448143968800,2.83396875,-0.3428811250120401,2.144238472816348,-2.560005970340967
1773258448153994800,2.843994873046875,-0.9012491672664881,2.8660636776074764,-2.3187710099883376
1773258448164021800,2.854021728515625,-1.294064243748784,2.799507969421148,-1.800559621555358
1773258448174047700,2.8640478515625,-1.1938263384521006,2.741517552745342,-0.9598051088705658
1773258448184074800,2.87407470703125,-1.1783271560251711,3.2960172291338443,-0.36339170586019753
1773258448194101800,2.884101806640625,-0.98901279091537,3.8440181911528106,-0.3766881175458431
1773258448204127700,2.894127685546875,-1.0677116490989922,4.142776973582804,-0.4885255674824118
1773258448214154800,2.90415478515625,-1.558475643157959,4.141251371450722,-0.6319350905075669
1773258448224180700,2.9141806640625,-1.7834423364073038,3.79288129363358,1.2944523662835359
1773258448234207700,2.924207763671875,-1.832545682272315,2.6879467060774562,2.2919433549478647
1773258448244234800,2.93423486328125,-2.5721616875588893,1.7713386416375636,1.6400754834800957
1773258448254260700,2.9442607421875,-3.6568028441488742,1.1218243475586176,0.5426596009910106
1773258448264287700,2.954287841796875,-3.724580495345592,0.3720157418206334,0.9149275640070438
1773258448274313700,2.964313720703125,-3.693480423682928,-0.27581688278168437,0.6062725337237119
1773258448284340700,2.9743408203125,-4.361768976336718,-0.6659834905818104,0.33266602046787735
1773258448294367700,2.98436767578125,-4.371664347407221,-1.080108043204993,1.2082149292886257
1773258448304393700,2.994393798828125,-4.820803953179717,-1.3836261489912867,1.9189608139216898
1773258448314420700,3.004420654296875,-4.38979563190341,-1.041348908156529,2.8642548746198413
1773258448324447700,3.01444775390625,-2.934053802511096,-0.20279607023447752,4.799851181522011
1773258448334473700,3.0244736328125,-0.7899158674597739,0.38890623247548933,4.712024429509043
1773258448344500700,3.034500732421875,-0.37375264861583707,0.33803938406929374,4.538988414505124
1773258448354526700,3.044526611328125,-1.3759247808337212,-0.45053047560900444,3.277488469752669
1773258448364553700,3.0545537109375,-1.9169629181027412,-0.36620617875903844,3.008355302518606
1773258448374580700,3.064580810546875,-2.808616574028134,0.2545072605103254,3.016731501197815
1773258448384606700,3.074606689453125,-3.1372821266829964,0.9016051410973072,2.848075308713317
1773258448394633700,3.0846337890625,-3.516180321493745,0.7604983420565724,2.766523399186134
1773258448404659700,3.09465966796875,-4.272658614253998,0.050581893984973425,2.4637989279955623
1773258448414686700,3.104686767578125,-5.177323142921924,-0.4213984891489148,1.8374872303277252
1773258448424713700,3.114713623046875,-5.79214898545742,-1.037896356549859,1.3780577012091875
1773258448434739700,3.12473974609375,-6.744947722697257,-2.090741275906563,1.0270789021983742
1773258448444766700,3.1347666015625,-7.706154807320237,-3.0370979974001644,0.9540203879892826
1773258448454792700,3.144792724609375,-5.897179385727644,-3.6876048096477985,0.5491165220454335
1773258448464819700,3.15481982421875,-4.801187398561835,-4.0247815855383875,0.5176099154084921
1773258448474846700,3.1648466796875,-4.839181321391463,-4.114884465789794,0.49346799232065675
1773258448484872700,3.174872802734375,-3.7640830691725014,-4.147987693968415,-0.1829969986565411
1773258448494899700,3.184899658203125,-2.573276955324411,-4.9922179199397565,-1.1951738075383007
1773258448504925700,3.19492578125,-2.222073992168903,-5.841667926385998,-2.090407660038024
1773258448514952700,3.20495263671875,-1.3800626112908123,-5.522652830129862,-2.4694202750086784
1773258448524979700,3.214979736328125,-0.7008715563505887,-5.179016502836347,-3.4404350524187084
1773258448535005700,3.225005615234375,-0.006839490631222724,-5.274346762347221,-4.468393367800116
1773258448545032700,3.23503271484375,0.4318360042721033,-5.554019443774223,-5.064324540251493
1773258448555059700,3.245059814453125,-0.25642741491794585,-4.982160636305808,-5.056059400731325
1773258448565085700,3.255085693359375,-0.20788637911081312,-4.452689894972742,-4.363832338607311
1773258448575112700,3.26511279296875,0.5323363598972559,-4.166709345573187,-3.623441257295012
1773258448585138700,3.275138671875,1.523870193722844,-4.149858164015412,-3.1069372573018073
1773258448595165700,3.285165771484375,1.3899047908693551,-4.018525447753071,-3.0716596076935527
1773258448605192700,3.295192626953125,0.9551853401154279,-3.4307536163598296,-2.9768074870884416
1773258448615218700,3.30521875,1.0350859753042458,-2.158276642780006,-2.8621581946015358
1773258448625245700,3.31524560546875,0.02526128250658512,-1.120219542710483,-2.570979492036998
1773258448635271700,3.325271728515625,-0.7407657598435878,-0.5144222252830862,-2.372300793993473
1773258448645298700,3.335298583984375,-0.25556875226199627,-0.16050883412510156,-2.6863872016757724
1773258448655325700,3.34532568359375,-0.7438648949027061,0.29483854024633765,-2.8137019144684077
1773258448665351700,3.3553515625,-0.5954834286838769,0.9901054084576666,-3.135905577632785
1773258448675378700,3.365378662109375,-0.7331073540449142,1.7551034000210464,-3.346975847476721
1773258448685405700,3.37540576171875,-0.8758107746273278,2.058290958678722,-3.675824355483055
1773258448695431700,3.385431640625,0.008814590096473693,1.551781698477268,-4.135830223184824
1773258448705458700,3.395458740234375,-0.047399464556574816,1.289266634208709,-5.114165552741289
1773258448715484700,3.405484619140625,-1.4586410579651594,1.4591218272194266,-6.272153685092926
1773258448725511700,3.41551171875,-0.4130389493435621,1.1610757231034339,-6.202869136464596
1773258448735538700,3.42553857421875,2.0944629267781973,1.9411533565074204,-3.7482971787586807
1773258448745564700,3.435564697265625,1.721564849165082,3.4007530303716655,-1.5242949950061737
1773258448755591700,3.445591796875,1.6312527100771665,3.6298236518085,-1.5961048243284224
1773258448765617700,3.45561767578125,1.6075468403190374,4.1524908506065605,-2.1277488180473445
1773258448775644700,3.465644775390625,2.875693968001008,3.2442066701367493,-2.2877333360373973
1773258448785671700,3.475671630859375,4.776271568492055,2.900688708525896,-2.168528279942274
1773258448795697700,3.48569775390625,4.946221307918429,3.3493449146956205,-2.4861489992305636
1773258448805724700,3.495724609375,4.125879907056689,2.7500100712805984,-3.5031571737915277
1773258448815751700,3.505751708984375,2.3672470177352425,2.0300249413982034,-3.703498836611211
1773258448825777700,3.515777587890625,0.5530851334154605,4.106734477081894,-1.4038517754182218
1773258448835804700,3.5258046875,1.5603122109353542,6.5722074757695195,2.3968849078908563
1773258448845830700,3.53583056640625,2.1243302417755126,6.473329752910137,3.1244825586035847
1773258448855857700,3.545857666015625,1.6275994482666254,4.6787236329317095,1.5016308893859385
1773258448865884700,3.555884765625,1.318501350390911,3.002404285159707,0.323980463578552
1773258448875910700,3.56591064453125,0.3310883958876133,1.5620827277392149,-0.23986728872861712
1773258448885937700,3.575937744140625,-0.7313555419415235,0.8691086466401815,-0.4976635077817365
1773258448895963600,3.585963623046875,-1.0990835234403609,0.7081577678360045,-0.5522791873274371
1773258448905990700,3.59599072265625,-1.797843202203512,0.6878012085057794,-0.3329293841117993
1773258448916017700,3.606017578125,-2.520608025932312,0.8979887041658162,-0.262700759566389
1773258448926043600,3.616043701171875,-2.789329105234146,0.5756967781960964,-0.47521534646712243
1773258448936070700,3.626070556640625,-2.435333881011605,0.3183442112572491,-0.8700551337100565
1773258448946096600,3.6360966796875,-1.8717939890772104,0.036751375422626735,-1.0358452692389488
1773258448956124000,3.6461240234375,-1.8567746991217136,0.5344450226143003,-0.1145578878764063
1773258448966150700,3.656150634765625,-0.292772401496768,1.23850397682935,1.1821246486119925
1773258448976176600,3.6661767578125,1.5786761351436376,0.8646873230665921,0.5672514598034322
1773258448986203600,3.67620361328125,1.4862188007205723,0.3860921979680657,-0.23294527091309428
1773258448996230700,3.686230712890625,-0.7142512624055146,-0.20451456459015607,-1.4314474922217428
1773258449006257000,3.6962568359375,-0.6186831024855375,-0.45641982590854163,-1.0064736288040876
1773258449016283600,3.70628369140625,-0.6681202103495597,-1.245782735660672,-0.17212606055215
1773258449026309600,3.7163095703125,-1.1009387959182262,-1.8567720687732099,-0.05955664307922125
1773258449036336600,3.726336669921875,-0.24268822790086267,-1.7539976307362317,-0.3019951340027153
1773258449046364000,3.736364013671875,0.08975392068326472,-1.6131459755003452,-0.2397795008473098
1773258449056390000,3.746389892578125,0.03893792568147182,-1.882631901694834,0.005443652358651161
1773258449066416600,3.756416748046875,0.776219350540638,-2.434770986431837,-0.07409282569289206
1773258449076442600,3.766442626953125,1.4876374353468418,-2.8797026191204784,-0.41989962889328597
1773258449086469600,3.7764697265625,1.575306950971484,-2.8807153032943607,-0.4351084500715136
1773258449096497000,3.786496826171875,1.6243021602869032,-2.848046374879777,-0.6486871956050395
1773258449106523000,3.79652294921875,1.8060832072824238,-2.8905142282530663,-0.9458576859302819
1773258449116549600,3.806549560546875,1.5311147580236195,-2.93564107170254,-1.5158102213859557
1773258449126576600,3.81657666015625,0.5133423210918903,-2.1078607530117033,-1.7562595843188464
1773258449136602600,3.8266025390625,0.0466378325343132,-1.388185419730842,-1.6151172755733132
1773258449146630000,3.8366298828125,-0.31582419126033784,-0.986409038157761,-1.8684958243146537
1773258449156655900,3.84665576171875,-1.000088896203041,0.033844694195687766,-1.456064193214476
1773258449166682600,3.8566826171875,-1.3555091847926377,0.7162780920580029,-0.8234779453217983
1773258449176709600,3.866709716796875,-2.125469474938512,1.1468538671359418,-0.20341420213282108
1773258449186735600,3.876735595703125,-2.5893179895430802,1.4482982353881,0.6439236344650388
1773258449196763000,3.886762939453125,-3.024439591357112,1.730636044371128,1.1370540653944015
1773258449206789600,3.89678955078125,-3.488595564475655,1.7274536149427293,1.4224629523858427
1773258449216815600,3.906815673828125,-3.1452363005578516,1.756897151570022,1.4307240002527832
1773258449226842600,3.916842529296875,-2.751813321310282,1.9210501874163746,1.4074293416440486
1773258449236868600,3.92686865234375,-2.516372580319643,2.1104954854294657,1.6207707712903618
1773258449246895900,3.936895751953125,-1.776319352659583,1.4868559295803307,1.6915215930789709
1773258449256922600,3.946922607421875,-1.29959206725955,0.7426748083353042,0.9873311214387416
1773258449266948600,3.956948486328125,-1.2639736413896083,-0.4170239273265004,-0.01028524717092514
1773258449276975600,3.9669755859375,-0.709047264021635,-1.5389964511841534,-1.358697751700878
1773258449287001600,3.977001708984375,-0.40148704323768614,-1.9631319640815257,-1.3362848443627358
1773258449297028900,3.98702880859375,-0.5140723889321088,-1.8265841435194015,-1.1942302430778742
1773258449307055600,3.9970556640625,-0.04547288040816783,-1.6469249109834432,-1.3649632418364286
1773258449317081600,4.00708154296875,0.23519787214547394,-1.3644903636276722,-1.1240396855205297
1773258449327108000,4.017108154296875,0.9288976371705532,-0.7983347362369299,-1.1693915698975323
1773258449337134000,4.027134033203125,1.548719680558145,-0.8400801205545664,-1.7580238175123928
1773258449347161300,4.037161376953125,1.8406889489784837,-1.6300643770754337,-1.6750930208474397
1773258449357188400,4.047188232421875,2.5614690286308526,-1.9051105677455662,-1.4418646952092646
1773258449367214000,4.057214111328125,2.6953987756490707,-1.8743471806913614,-1.5209487533181905
1773258449377241000,4.067240966796875,2.6101269688159228,-2.4648756173163653,-1.3026602226585149
1773258449387268000,4.07726806640625,2.496405312567949,-2.900819056907296,-1.1599129629343747
1773258449397294300,4.08729443359375,2.3893992283105847,-2.6000129865586756,-0.8319085045367479
1773258449407321000,4.097321044921875,1.7565283182576297,-2.1326836441010237,-0.2961366172328591
1773258449417347000,4.10734716796875,1.5364195864334702,-1.1960440145015716,0.16898732413500547
1773258449427374000,4.1173740234375,1.4502198511004447,-0.16193243718743322,-0.16982348269820213
1773258449437401300,4.1274013671875,1.0680560786224902,1.1397604017436505,0.18337679175436494
1773258449447427300,4.13742724609375,0.05611424754038453,3.2930443508028984,0.6773053873240947
1773258449457454000,4.1474541015625,-0.7445199978105723,4.786151741993427,0.15662322486341
1773258449467480000,4.15747998046875,-0.6639858870238066,5.341535800001025,-0.4986997554942965
1773258449477507000,4.167507080078125,0.017502046681940553,4.834648938658833,-0.6366501363307238
1773258449487534300,4.177534423828125,0.6051118193812668,3.8040047451943155,-0.8945069995298981
1773258449497560300,4.187560302734375,-0.17273469396978616,3.1686124999701977,-0.3693336631298065
1773258449507587000,4.197587158203125,-0.17114669412598013,1.993273419845104,-1.2022513447090983
1773258449517614000,4.207614013671875,0.8847317477077246,-0.6975877123743295,-2.7931813967481256
1773258449527640000,4.21764013671875,0.5258084194332361,-1.957310710582137,-2.9328140315830704
1773258449537667300,4.227667236328125,-1.3245913378290832,-1.2913649216622114,-1.9216881930589675
1773258449547693300,4.237693359375,-2.244589921490103,-2.5543781935870644,-1.1092137261800468
1773258449557720000,4.247719970703125,-2.688262347897887,-2.4022850133687257,1.2651489687792956
1773258449567747000,4.2577470703125,-5.358155510890484,-2.0736340737611054,3.3042455437749623
1773258449577773000,4.26777294921875,-3.6922833228528495,-1.452382582092285,2.8624533781558275
1773258449587800300,4.27780029296875,-2.0748568935543297,-1.9000877711474895,1.8946338896557688
1773258449597827000,4.2878271484375,-1.6617951478570698,-2.5317671333283185,2.07919740697667
1773258449607853000,4.29785302734375,-1.204497370070219,-4.118323208066821,1.8942383144669233
1773258449617880000,4.307880126953125,-0.8845859094962477,-6.014352643734217,1.3267448626011609
1773258449627906000,4.317906005859375,-1.1895375552169978,-5.994132862526178,0.8501729138933122
1773258449637933300,4.327933349609375,-1.3144210953399538,-4.773327331733704,-0.24745500391125677
1773258449647960000,4.3379599609375,-0.732982850882411,-3.195471865323186,-1.6509366308428346
1773258449657986000,4.347986083984375,-0.6364131127044558,-1.582895798665285,-3.0710785929352045
1773258449668013000,4.358012939453125,-0.0895829480305314,-0.9092746528118848,-3.632063539689779
1773258449678040300,4.368040283203125,0.1923173463180661,0.22964053027927875,-3.3153029443621636
1773258449688066300,4.37806640625,0.027696400699019432,1.6481652664333581,-2.592887664723396
1773258449698093000,4.388093017578125,0.5666156461179256,3.857766145998239,-1.3685504526734351
1773258449708119000,4.398119140625,0.9647907883286475,5.579646052461862,-0.48441798603311176
1773258449718146000,4.40814599609375,1.4946251022771,6.4518713698178525,0.5639376590803266
1773258449728173300,4.41817333984375,2.4391078465923663,7.877734193775058,2.8014193560004235
1773258449738199300,4.42819921875,2.5160578152820468,7.984682410365343,3.763572197040915
1773258449748226000,4.43822607421875,2.2581366546750066,5.903094747251272,2.809879141309857
1773258449758253000,4.448253173828125,1.9651538252979517,5.07622949757874,1.7348574614584444
1773258449768279000,4.458279052734375,1.3698276330024004,3.6539427785426377,0.8410340602785349
1773258449778306300,4.468306396484375,0.7609948934018611,2.5272850194782017,0.20797756452560423
1773258449788332300,4.478332275390625,0.15645751290768384,1.1098118382036686,0.04303367056250572
1773258449798359000,4.488359130859375,-0.015184125128388404,0.019289806881546974,-0.2515361357450485
1773258449808386000,4.498385986328125,-0.1441153332069516,-0.6605676030129194,-0.22092940055727958
1773258449818412000,4.508412109375,-0.3142848528638482,-1.4341741407066584,0.2575160869374871
1773258449828439300,4.518439208984375,-0.4882713004603982,-2.2651532554388045,0.6937725380003452
1773258449838466000,4.528466064453125,-0.5853548333793879,-3.042967766216397,1.2161638424664736
1773258449848492000,4.538491943359375,-0.4419909030616283,-3.4700200433433053,1.7202523052617906
1773258449858519000,4.54851904296875,-0.47691257883906363,-3.73502823960185,2.502211368498206
1773258449868545300,4.558545166015625,-0.3022907559484243,-4.115829053163528,2.882672574841976
1773258449878572300,4.568572265625,-0.3851537480741739,-4.295991559046507,3.1247932319879532
1773258449888599000,4.57859912109375,-0.7373708567082882,-4.369499862849712,3.1680998742729423
1773258449898625000,4.588625,-1.1279267560869455,-4.065197182556987,3.1152532502263783
1773258449908652000,4.598652099609375,-1.3616022409707307,-3.127005647340417,3.1639462617248295
1773258449918679300,4.60867919921875,-1.0775336626723409,-1.272827394452691,3.312807620415091
1773258449928705300,4.618705322265625,-0.8159890508711337,-0.438272759321332,3.5446734255284067
1773258449938732000,4.62873193359375,-1.0838201955959201,0.2610802091598511,3.3539117842197417
1773258449948758000,4.638758056640625,-1.6704285361677407,1.583207348832488,2.919754059001803
1773258449958785000,4.648784912109375,-1.4249023083619772,3.049946957579255,2.6983979574650525
1773258449968812300,4.658812255859375,-1.0010118562668562,3.174291130128503,2.2213293112814427
1773258449978838300,4.66883837890625,-1.173437630417943,0.04835691141188144,-9.709304893535375
1773258449988865000,4.678864990234375,-1.3058897060990333,2.783825247120857,0.5349404049158096
1773258449998892000,4.68889208984375,2.3613544525653123,2.652930337753892,1.3882114309549332
1773258450008918300,4.698918212890625,2.2211220982715485,3.426411203241348,0.05524316379427909
1773258450018945300,4.7089453125,2.195030648551136,3.4673505318731066,1.884431936854124
1773258450028971300,4.71897119140625,1.339885499203205,2.3615572816610335,1.5068606067329644
1773258450038998000,4.728998046875,0.08338336273804306,1.8053449561357497,0.6163479375362396
1773258450049025000,4.73902490234375,0.29229017093777654,0.5599959357172251,-0.9522510402292013
1773258450059051300,4.74905126953125,1.428828834155947,0.15769173087775706,-2.724534853762388
1773258450069078300,4.759078369140625,-1.7374277503378688,-1.45136609852612,-1.9537930578500031
1773258450079105000,4.76910498046875,-2.583096923071146,-1.8994260923683641,-0.7401432440310716
1773258450089131000,4.779131103515625,-1.7462847182713448,-1.032353335469961,-0.905669321796298
1773258450099158300,4.789158203125,-1.2038069035880268,-1.8794664234012364,-1.772436373746395
1773258450109184300,4.799184326171875,-0.37859351277574893,-2.6867560349881647,-2.567828042268753
1773258450119211300,4.809211181640625,0.35069618267714975,-3.093793113568425,-3.1264258016258477
1773258450129238000,4.819238037109375,1.023752826515585,-3.3423598781138657,-3.9390252100586887
1773258450139264000,4.829263916015625,0.6651001318760216,-2.8230267921745775,-4.796567922067642
1773258450149291300,4.839291259765625,0.8214989003337919,-1.2805956903666258,-5.072521290710569
1773258450159318300,4.849318359375,0.7258160279929637,0.5205079749375582,-4.4119244616031645
1773258450169344300,4.85934423828125,0.656107116472721,2.996594722098112,-2.814374114641547
1773258450179371000,4.86937109375,0.7662211036175489,4.214121669611335,-2.2523574867516754
1773258450189397000,4.87939697265625,1.2858755304656921,4.828513212382793,-2.227745608064532
1773258450199424300,4.88942431640625,1.3090421787805855,4.752959666487574,-2.0984218935370444
1773258450209451300,4.899451171875,0.8201023314088582,4.979426242905855,-2.840616809400916
1773258450219477200,4.909477294921875,1.0566466497272253,4.340739047789573,-3.1103590484440327
1773258450229504000,4.91950390625,0.3131472271360457,3.590614507970214,-2.05432322409153
1773258450239531300,4.92953125,-1.056661116643995,3.2048230465143916,-0.6612871494591236
1773258450249557200,4.93955712890625,-1.6287285984270274,3.051642071059346,0.29431904641687867
1773258450259584300,4.949584228515625,-2.130632410659641,2.6379472881555555,1.4239116898894308
1773258450269611000,4.959611083984375,-2.5133763211131095,1.485965702742338,2.784477573549747
1773258450279637000,4.969636962890625,-2.6807699463158845,0.153092712649703,3.9052269853532313
1773258450289664300,4.979664306640625,-2.749563496556878,-1.3684943385720252,4.510411723840236
1773258450299690200,4.989690185546875,-1.9868278969675301,-2.333145426169038,3.812794200849533
1773258450309717200,4.99971728515625,-0.5045034733369946,-2.875108277067542,3.518647003868222
1773258450319744300,5.009744140625,0.5853524952918291,-4.896733931171894,3.081683573579788
1773258450329770200,5.019770263671875,1.1898363920331,-5.919735500928759,2.4218390241444108
1773258450339797200,5.02979736328125,1.5491051727443932,-5.714962869924307,1.562369727987051
1773258450349824300,5.03982421875,1.7891843871906399,-4.450521611022949,1.3324690854668617
1773258450359850500,5.0498505859375,1.8024729078307746,-2.556208916145563,0.3528682660192251
1773258450369877200,5.059877197265625,1.0926385850846767,-0.5618856949865818,-0.2672784792780876
1773258450379904300,5.069904296875,0.25627616987898943,1.1995166590481996,-0.3516875318020582
1773258450389930200,5.07993017578125,-0.009088000210374593,2.8514082525283095,-0.22953473181724546
1773258450399957500,5.08995751953125,-0.0319175255253911,3.9757682560443874,0.3511211300909519
1773258450409983500,5.0999833984375,-0.2645169056102633,4.224632542231679,0.030668109986186024
1773258450420010200,5.11001025390625,-0.42854324633702634,3.5775270628601312,-0.5713619638621806
1773258450430037200,5.120037353515625,-0.9637333882302045,2.038902367597818,-1.2491992661058902
1773258450440063200,5.130063232421875,-1.098261539532989,1.412665488731861,-2.260845913633704
1773258450450090500,5.140090576171875,-1.1510440123021601,0.5696206731528043,-1.814169483104348
1773258450460117200,5.1501171875,-0.9480582647144794,0.32171675643026826,-1.5371569607973097
1773258450470143200,5.160143310546875,-0.43440059406310316,0.4577081121534109,-0.7262924133330583
1773258450480170200,5.170170166015625,-0.23028467340171335,0.13621055143177507,0.3897884221374988
1773258450490197200,5.180197265625,0.17695435749143362,-0.24436580572426317,0.90978727850914
1773258450500223500,5.190223388671875,0.49778600165024395,-1.2382272057145833,1.6221972969621419
1773258450510250200,5.200250244140625,1.0842290686577558,-2.748074719303846,1.8206196821570395
1773258450520276200,5.210276123046875,1.7264007448889314,-4.267573858335614,1.9156693711608648
1773258450530303200,5.22030322265625,1.7512796039491891,-4.792290390878915,1.8584142830222845
1773258450540330500,5.23033056640625,1.5269973858326673,-4.532115021604299,2.4890736545056105
1773258450550356500,5.2403564453125,1.1445800769850611,-3.8789281764924524,3.6206110023051497
1773258450560383200,5.25038330078125,0.9760711840167641,-3.372811130478978,3.856183260720968
1773258450570410200,5.26041015625,0.7077645307347178,-3.4061002366185185,3.4962200680047273
1773258450580436200,5.270436279296875,0.6062348320618272,-3.659325640624761,2.7941233537733554
1773258450590463500,5.28046337890625,0.44922290014177557,-3.8237703528940674,2.0350667349576947
1773258450600490200,5.290490234375,0.24505232668370008,-3.9011154583811756,1.9785159956961869
1773258450610516200,5.30051611328125,0.26134265948832036,-4.065921989700198,2.160750631678104
1773258450620543200,5.310543212890625,0.4315256231486797,-3.695572427526116,2.33030698787272
1773258450630570500,5.320570556640625,0.62725745408535,-2.5687036560595033,2.3937381342977284
1773258450640596500,5.330596435546875,0.130789110904932,-0.5823918919205665,2.5549773285239934
1773258450650623200,5.340623291015625,-0.6926588776700199,1.9885762019395827,2.745633755892515
1773258450660649200,5.350649169921875,-1.0043623357385396,3.9639761114418506,2.0197300496160984
1773258450670676200,5.36067626953125,-1.7202046667277813,4.565221172392368,-4.055820866924524
1773258450680703500,5.370703369140625,-2.4763094500005245,3.8174773902297017,-4.6553614620447155
1773258450690729500,5.3807294921875,-1.6805501172095536,5.638507406753301,-3.2800404923230406
1773258450700756200,5.390756103515625,-2.2474276291340587,6.2895209994792936,-3.2750749788701534
1773258450710783200,5.400783203125,-0.5429056847065686,5.194658308604359,-2.141407633304596
1773258450720809200,5.410809326171875,0.5270388380110264,3.590380699214339,-1.2786895644843577
1773258450730836500,5.42083642578125,0.33671047355309125,1.856607525861263,-0.14272270980477333
1773258450740863200,5.43086328125,1.1520571348674595,0.6894990984648466,0.46238604083657264
1773258450750889200,5.44088916015625,2.88654444783926,0.21032091278135776,0.15299568201601504
1773258450760916200,5.450916259765625,1.4914562629826367,-1.1988012042552232,-0.08746902461647987
1773258450770942200,5.460942138671875,-0.27298165935575963,-1.7837725912749767,0.4670090244621038
1773258450780969500,5.470969482421875,-1.04209088563025,-1.8468676376134157,-0.5330757800877094
1773258450790996200,5.480996337890625,-1.776692277625203,-1.606008963227272,-2.225985028132796
1773258450801022200,5.491022216796875,-2.2676373273395,-1.4745920758128166,-3.430890394482016
1773258450811049200,5.50104931640625,-2.370565202372521,-1.8030442779779434,-4.162335368272662
1773258450821076500,5.511076416015625,-2.1333077673487364,-2.7345301780760285,-5.140007265484333
1773258450831102500,5.5211025390625,-3.5801170793533323,-2.509454763755202,-4.662226671639084
1773258450841129200,5.531129150390625,-2.891170938596129,-0.7496142522096634,-1.961906221678853
1773258450851156200,5.54115625,0.926682299208641,1.3268904085516928,0.7902911305129527
1773258450861182200,5.55118212890625,3.4255338358849285,1.9613363128364085,2.5449054318428037
1773258450871209500,5.56120947265625,3.5274937426686286,1.9081728779256342,2.7154104670643804
1773258450881236200,5.571236328125,1.7061784794628618,1.5981810460805892,2.5405221021920443
1773258450891262200,5.58126220703125,1.0807400574982167,0.9279284998774529,1.9797697951495645
1773258450901289200,5.591289306640625,0.2246580656915903,0.49884384014010424,1.6735639115840195
1773258450911315200,5.601315185546875,-0.8282727783828974,0.2725602190732956,2.051267343652248
1773258450921342500,5.611342529296875,-1.0424072581030428,0.2855307598054409,2.3730980818510052
1773258450931369200,5.621369140625,-1.206898439862579,0.6003799685537815,3.020998510992527
1773258450941395200,5.631395263671875,-0.688311203854531,0.624812399020791,2.7419062598019837
1773258450951422200,5.641422119140625,0.031523265510797496,0.03534311605989933,1.4148416637271641
1773258450961449500,5.651449462890625,0.42925285591110585,0.07505319515764713,0.874905934742093
1773258450971475500,5.661475341796875,0.29365386050641534,0.4516729236423969,1.107517005264759
1773258450981502200,5.671502197265625,0.5022381587535143,0.652476066493988,1.230801439628005
1773258450991528200,5.681528076171875,0.726017103523016,0.8334189090996981,0.8359680090606212
1773258451001555200,5.69155517578125,0.15292685456350444,0.7118290036946535,0.3764192374765873
1773258451011582500,5.70158251953125,-0.411922950925678,0.3288666281849146,-0.2084323225557804
1773258451021608400,5.7116083984375,-1.5387554820351301,0.46028994534015655,-0.46210897746086116
1773258451031635200,5.72163525390625,-2.7765228151530024,0.8816992481440306,-0.37708150077760216
1773258451041662200,5.731662109375,-2.2049228047512472,1.0139724601268767,-0.10324819302856922
1773258451051688200,5.741688232421875,-0.9266149330608546,1.06031160197556,0.26543781984746456
1773258451061715500,5.751715576171875,0.16166297259628773,0.5194540819704533,0.683248805898428
1773258451071741400,5.761741455078125,1.3799350393883882,-0.10087269606888294,0.9088795160144567
1773258451081768200,5.771768310546875,1.9743394406639039,-1.1982821488171815,0.6968026994764804
1773258451091795200,5.781795166015625,2.119102716385573,-1.5343535938143729,0.31698505173325536
1773258451101821200,5.7918212890625,2.070157483691722,-1.714766859588027,-0.355194078618288
1773258451111848400,5.801848388671875,2.1961405094891786,-1.8113357209831475,-1.2887813349097967
1773258451121875200,5.811875244140625,1.3102192597359419,-2.0354910978496075,-1.1688596549779176
1773258451131901200,5.821901123046875,1.3403005097448826,-1.2507540943324564,-0.9657131638705729
1773258451141928200,5.83192822265625,1.4484177701145409,-0.10460311476886272,-1.6146470277130602
1773258451151955500,5.84195556640625,1.2997205159448086,0.6739093151450157,-1.941872318431735
1773258451161981400,5.8519814453125,-0.8829688296884298,0.950796749767661,-1.879610800307989
1773258451172008200,5.86200830078125,-4.148851617321371,2.7676667240023614,-2.008036689212918
1773258451182034200,5.8720341796875,-16.645162141579387,11.199618270093202,-1.0429378578484059
1773258451192061200,5.882061279296875,-7.973305860826373,1.0071335540175437,0.24798867239654063
1773258451202088400,5.89208837890625,6.564136982038617,-3.7038001576453445,0.9763497086971997
1773258451212114400,5.902114501953125,6.062416125157475,-0.09444821597933768,-0.9353443290919065
1773258451222141200,5.91214111328125,-0.35632914706282315,0.09820084651112555,-2.7335850061804057
1773258451232168200,5.922168212890625,-2.511209498468041,1.1081108795046806,-2.107859583967924
1773258451242194400,5.9321943359375,-2.00601891964972,-0.4440092571467161,-4.655642032551765
1773258451252221400,5.942221435546875,-0.042092572053801264,-4.69867804120183,-4.181064618661999
1773258451262248200,5.952248291015625,0.823840348893404,-6.882237886059284,0.10060790765285492
1773258451272274200,5.962274169921875,0.06902502090930938,-5.025508195123076,4.32298039599806
1773258451282301200,5.97230126953125,0.8204080363571643,-1.6442296805500982,4.826063481143117
1773258451292327400,5.982327392578125,3.129901953303814,0.624812399020791,2.648132582083344
1773258451302354400,5.9923544921875,3.059014645653963,1.553842722660303,1.5919032809853553
1773258451312381200,6.002381103515625,1.7013772166609764,1.2775631908029317,2.2023285504743457
1773258451322407400,6.012407470703125,0.511308184915781,3.1664374940186737,2.091419029037654
1773258451332434400,6.022434326171875,0.9292460122168064,4.200210633158684,0.8267135662421584
1773258451342461400,6.03246142578125,0.8194938441216946,0.9273428089439868,0.42457653466314077
1773258451352487400,6.0424873046875,-0.6413584601521491,-1.8829636178672313,0.5985834405258298
1773258451362514400,6.052514404296875,-2.6571628607571123,-2.9510370860159396,-0.6880529913097619
1773258451372541400,6.06254150390625,-1.6944307585239409,-1.1922300091713667,-1.0415449421852827
1773258451382567400,6.0725673828125,0.024003975921869276,0.18760873023569583,-0.03879267199188471
1773258451392594400,6.082594482421875,0.5475672467768192,0.038756139373779294,0.47987844290733334
1773258451402621400,6.092621337890625,-0.476982721465826,1.1099731662452221,0.4348483378306031
1773258451412647400,6.1026474609375,-1.4526374336361885,0.45551849315464493,-0.8034136469364166
1773258451422674400,6.11267431640625,-3.098218528795242,0.011677578312158585,-2.1917051573902366
1773258451432700400,6.122700439453125,-3.448901267468929,2.231531556344032,-4.198035919468104
1773258451442727400,6.1327275390625,-2.3906676408112046,5.015068049651384,-4.714145659446716
1773258451452754400,6.14275439453125,-1.0606991399884222,4.5680017430216076,-2.317062890896201
1773258451462780400,6.152780517578125,-3.19000015591383,-0.13185644787549972,0.7147913606315851
1773258451472807400,6.162807373046875,-0.5649076731562614,-2.2587018873423337,-0.25439561682939527
1773258451482834400,6.17283447265625,-0.7924049077965318,-1.8480840276658534,-5.807438909047842
1773258451492860400,6.1828603515625,1.2028921268306672,-2.439991351428628,-6.067447105062008
1773258451502887400,6.192887451171875,1.800429273173958,-2.1684733348846432,-2.485003044065833
1773258451512914400,6.20291455078125,3.7448645739614963,-0.42301381539106364,2.027813695089519
1773258451522940400,6.2129404296875,6.355944897979498,3.2053286579489706,9.83067151157856
1773258451532967400,6.222967529296875,3.270584681713581,5.39540533735454,9.462026415234803
1773258451542994400,6.232994384765625,-1.2668752080500125,3.7960190071374176,3.7053368656933308
1773258451553020400,6.2430205078125,1.0276384357772768,2.1571336102247236,2.628869370947778
1773258451563047400,6.25304736328125,1.8553940584182738,2.911615176209807,3.011354484334588
1773258451573074400,6.263074462890625,0.9313315863192081,4.069662345272302,2.1624977676063777
1773258451583100400,6.273100341796875,1.4879986698746681,3.8552725756168362,0.45258857718259093
1773258451593127400,6.28312744140625,2.116418153476715,2.5843776105314493,-1.0428694687873123
1773258451603153400,6.2931533203125,1.5780968739509582,1.445282394698262,-1.3283531745806336
1773258451613180400,6.303180419921875,-0.7297545364856719,1.2636463091313839,-0.9084905166968703
1773258451623207400,6.31320751953125,-1.8015069854080676,1.734414393866062,-0.24222353299856184
1773258451633233400,6.3232333984375,-1.4319593872666359,1.2750760501623153,1.0492433877333998
1773258451643260400,6.333260498046875,-1.8789163883030413,1.4773223775595425,1.2893936215892434
1773258451653287400,6.343287353515625,-3.014862784716487,3.681370883694291,4.223220921868085
1773258451663313400,6.3533134765625,1.3850573508381843,2.7054087130099536,4.620820894539356
1773258451673340400,6.36334033203125,0.9131301591962575,-0.10117606292963027,2.2337655990064142
1773258451683367400,6.373367431640625,-1.4036913241595028,-5.120968218493461,2.595781048077345
1773258451693393400,6.383393310546875,-1.8867150793552399,-5.811240639418363,3.3104093271017074
1773258451703420400,6.39342041015625,3.5418332336664196,-3.604918927654624,2.4095313312351703
1773258451713447400,6.403447509765625,4.9945712050676345,-3.7089907120257615,0.9293465499818324
1773258451723473400,6.413473388671875,3.4920553495407103,-4.2389474833101035,2.107631620430946
1773258451733500400,6.42350048828125,1.9122627775877714,-1.503577347278595,3.4224545745700596
1773258451743527400,6.43352734375,1.9291823482066393,0.11419687254428863,2.6850293573260307
1773258451753553400,6.443553466796875,2.2411241450756787,-1.0307079063504934,0.03777940329611301
1773258451763580400,6.453580322265625,1.8064385965913534,-2.205609764102101,-1.3230916007906197
1773258451773606700,6.463606689453125,-0.06688159740613774,-4.99784160504043,-1.2285673969656228
1773258451783633400,6.47363330078125,-1.089471060964465,-6.615283231908083,-1.7788456562668085
1773258451793660400,6.483660400390625,-0.3638426644980907,-5.464772303569316,-1.9425345817327497
1773258451803686400,6.493686279296875,-0.12134612324442713,-4.3904649094671,-0.19044892209768294
1773258451813713400,6.50371337890625,-0.8705770386923104,-4.7820443066745995,1.8934388346523046
1773258451823740400,6.513740478515625,-1.6662795997947453,-4.3410915144890545,2.8576187976062295
1773258451833766400,6.523766357421875,-2.1632120533555743,-4.2269887499690055,3.1946365835428234
1773258451843793400,6.53379345703125,-2.369333760881424,-3.606867139112949,2.5501433324962854
1773258451853820400,6.5438203125,-2.295402847751975,-1.8707137926250694,0.2404050853997469
1773258451863846700,6.5538466796875,-3.4893723940670487,-0.13725158491730688,-1.090877420631051
1773258451873873400,6.563873291015625,-5.1730736687839025,1.1409288610011339,-1.4271376661986113
1773258451883900400,6.573900390625,-4.902458154037594,2.473753920298815,-2.1399445750147104
1773258451893926400,6.583926513671875,-3.682803546845913,2.585123460462689,-3.179505065384507
1773258451903953400,6.593953369140625,-2.4540374124377964,1.5159125127166508,-5.008491009348631
1773258451913980400,6.60398046875,6.383025212606787,1.1178536903619765,-3.7903818780332803
1773258451924006400,6.61400634765625,5.298434909421205,2.979046790447831,3.578513735809922
1773258451934033400,6.624033447265625,-1.4548691382110117,0.5836176343232393,1.4068699541956184
1773258451944060400,6.634060302734375,-1.8224983355104922,0.2836678885430097,-0.7993839530289173
1773258451954086700,6.644086669921875,-0.9521024255387485,-1.1464221977204083,-1.8357126218706368
1773258451964113400,6.654113525390625,0.15103884885981678,-1.1922492983937263,-1.0326467654585838
1773258451974140400,6.664140380859375,1.0041450397260487,-0.4843091188311577,1.0974176360547543
1773258451984166400,6.67416650390625,0.457778839302063,0.3619295243531465,2.0432395200192928
1773258451994193400,6.684193359375,0.02841192855723202,-0.6303267785280943,0.6636310822367668
1773258452004219600,6.6942197265625,0.14317228020317851,-2.7286364438623187,-1.8367068936049937
1773258452014246400,6.704246337890625,-0.7687690345346927,-1.2445084779411553,-2.7587463354438544
1773258452024273400,6.7142734375,-0.20892149431221185,-0.4601005602478981,-2.1985142528831956
1773258452034299400,6.72429931640625,-0.23878479072153566,0.21588673021495342,-2.6502584881961346
1773258452044326700,6.73432666015625,-0.8176847488731145,-0.021546645897626875,-2.836383117353916
1773258452054353400,6.744353515625,-0.4935053651889786,0.42679976367056366,-2.609128605428338
1773258452064379400,6.75437939453125,0.47692368475496766,2.0118594623714685,-2.4326824897199866
1773258452074406400,6.764406494140625,1.9182447746068239,2.8266315386682748,-0.952624549716711
1773258452084433400,6.774433349609375,-0.09188044785056262,3.969357804480195,-1.2726900318086147
1773258452094459600,6.784459716796875,0.2717880656570196,3.1895769620656966,-2.736857159718871
1773258452104486400,6.794486328125,0.4257493778347969,-1.7230711620748043,-2.6083628817528486
1773258452114513400,6.804513427734375,-5.795946039652824,-2.1721599144428967,2.292051199236512
1773258452124539400,6.814539306640625,-4.862333064398169,5.00463024226725,6.41069706338644
1773258452134566400,6.82456640625,-2.7116730341017243,4.284387045970559,3.0720939074575897
1773258452144593400,6.834593505859375,1.2106482939153909,3.2136738769680258,3.144505063673854
1773258452154619400,6.844619384765625,3.456484269943833,4.431059954705834,4.201486644443869
1773258452164646400,6.854646484375,4.683346032035351,2.9478520262390373,2.9520477243632075
1773258452174673400,6.86467333984375,4.050909129485488,0.9481424358665943,2.687905205023289
1773258452184699600,6.87469970703125,1.2800140910863875,-0.162953012406826,2.764444254824519
1773258452194726400,6.884726318359375,0.5514911422222852,-1.2448907552570103,2.226017176836729
1773258452204753400,6.89475341796875,0.40150929160211235,-2.6764573438137766,1.1789987716764212
1773258452214779400,6.904779296875,-0.5025549330851062,-3.373284593209624,0.30767946324944495
1773258452224806400,6.914806396484375,-1.012209542107582,-3.8316684126675127,0.5024491711556911
1773258452234833400,6.92483349609375,-1.0125105708807707,-3.9168870280086994,0.9813163911938667
1773258452244859400,6.934859375,-0.3771457981854677,-3.1396167071104046,1.5384680433958768
1773258452254886400,6.944886474609375,0.5971663037369027,-2.228805346250534,1.6388380506396292
1773258452264913400,6.954913330078125,1.4690683439552783,-1.2986591703236103,2.4637831459045407
1773258452274939600,6.964939697265625,2.1448007828742264,-0.18378186542391775,3.846100842645764
1773258452284966400,6.97496630859375,1.8389175553917885,1.0878069271445274,4.610041726371645
1773258452294993400,6.984993408203125,1.0841957509100437,1.1291875698029994,2.821640306252241
1773258452305019400,6.995019287109375,-0.6889169146627188,0.3563169451683759,-3.868130888146162
1773258452315046400,7.00504638671875,-5.212528896337747,1.5883686771184204,-2.527028998890519
1773258452325073400,7.015073486328125,0.4426788853257894,0.49906303584873674,1.1456243253409861
1773258452335099400,7.025099365234375,-2.6481419344335793,-0.35996027010679243,-5.979668868365883
1773258452345126400,7.03512646484375,-1.3051228133797645,0.8163549615740776,0.3639917175799608
1773258452355152400,7.04515234375,-1.9425544554769991,0.7222305707216262,-0.6301900004059076
1773258452365179600,7.0551796875,-1.034392147821188,0.9736661687016487,-0.1447884101629257
1773258452375206400,7.065206298828125,-0.5863467670261859,0.9048539137601852,0.06267068344652653
1773258452385232400,7.075232421875,0.29597269537542015,0.31797114016115663,0.398411873576045
1773258452395259400,7.08525927734375,0.7255155837416648,0.0362812736928463,0.02642331202328205
1773258452405286400,7.095286376953125,0.7271252839606255,0.31256489720344544,-0.875226837259531
1773258452415312600,7.105312744140625,0.929414354521036,0.4706313066124916,-0.9739046536326408
1773258452425339400,7.11533935546875,1.100831243890524,0.6412362950772047,-0.8960375700980424
1773258452435366400,7.125366455078125,0.9075169954895973,0.8612439046144486,-0.3206272076278925
1773258452445392400,7.135392333984375,0.9033516925036906,0.3693734106183052,0.33383447972536084
1773258452455419600,7.145419677734375,0.9056628920555114,-0.40041444557011124,0.9477285943686962
1773258452465446400,7.1554462890625,0.8385819909512996,-1.0486188260942697,1.493224295568466
1773258452475472400,7.165472412109375,0.32959552698135375,-1.300921854558587,2.040849410012364
1773258452485499400,7.17549951171875,-0.35109307304024695,-1.2130682145386933,2.015380037713051
1773258452495526400,7.1855263671875,-0.70700494453907,-1.1984084055453539,1.7795874145448207
1773258452505552600,7.195552734375,-0.9444178623855114,-0.856973972210288,1.2534049011021853
1773258452515579400,7.205579345703125,-1.1318038897812366,-0.7095593051970005,0.42008652976751326
1773258452525606400,7.2156064453125,-1.994901897829771,-0.469431283172965,0.31685645691752434
1773258452535632400,7.22563232421875,-2.442307811677456,0.29794074404537674,-0.8826432509958744
1773258452545659600,7.23565966796875,-2.716685893827677,1.0339549254477023,-2.6107927392482755
1773258452555685600,7.245685546875,-2.521463765978813,0.9244792362064123,-3.9128766233235597
1773258452565712400,7.25571240234375,-1.7586486714124678,1.3153361643582582,-4.911525842112303
1773258452575739400,7.265739501953125,-0.711384182536602,2.843736987248063,-4.84569523333013
1773258452585765400,7.275765380859375,-0.3607330811101943,3.664188278225064,-2.9782062479704616
1773258452595792600,7.285792724609375,-0.3582780161082744,4.05996863425374,-0.37306115922033783
1773258452605819400,7.2958193359375,0.5228454779744148,3.818728851595521,2.8501234734147785
1773258452615845400,7.305845458984375,0.9618843993626535,3.005153291606903,2.971687075334787
1773258452625872400,7.315872314453125,0.23479440591111778,2.7542858489036557,1.0333452691167593
1773258452635899600,7.325899658203125,2.9867478663444516,0.34273207193017,-0.7848737816393375
1773258452645925600,7.335925537109375,4.634586385041475,0.3488718898594379,-1.132071600806713
1773258452655952400,7.345952392578125,4.548909504538774,-0.18360066363811492,0.6829676508694886
1773258452665979400,7.3559794921875,-0.6611480332493782,-0.02687807005345821,2.239664009395242
1773258452676005400,7.36600537109375,-0.4167535859525203,1.4524246676683426,0.8858528606921434
1773258452686032600,7.37603271484375,1.7207589396096765,0.8320826920598745,-0.8488111240208148
1773258452696059400,7.386059326171875,-0.821291687323898,-0.2707119608581066,0.06678980920314788
1773258452706085400,7.39608544921875,-4.60035561413765,-0.49879824743270873,1.655625519311428
1773258452716112400,7.4061123046875,-9.996687418687342,-1.8586638738691805,4.078471090149879
1773258452726139400,7.416139404296875,3.4120646979808806,1.1306734244465828,1.5589105274438857
1773258452736165600,7.42616552734375,8.298781093007326,-1.167379937814176,-1.1377899784535168
1773258452746192400,7.4361923828125,-1.8442274983681737,-2.8920597041293976,-0.11651216374933719
1773258452756219400,7.446219482421875,-2.8399557151436805,-1.3901006057024001,0.4947960260540247
1773258452766245400,7.456245361328125,0.37944822990894317,-0.38166298334896565,0.6493050352424383
1773258452776272600,7.466272705078125,-0.8639188229121267,-0.8309171554118394,0.3057949646770954
1773258452786299400,7.47629931640625,-1.1055882291592658,-0.8449147011041641,-0.9198369633585214
1773258452796325400,7.486325439453125,-0.13491130540147422,-0.9953694664657116,-1.8014555474817753
1773258452806352400,7.496352294921875,-0.11565598531141877,-1.1531024061366915,-1.7843927689999342
1773258452816378400,7.50637841796875,-1.1158604707181452,2.055150907087326,0.6182406194150447
1773258452826405600,7.516405517578125,-6.316556305921077,8.943297140407562,7.111487955716252
1773258452836432400,7.526432373046875,-0.19709990441948175,0.7040104388982057,5.3441112034469835
1773258452846458400,7.536458251953125,4.16394221894741,-5.356626986148953,-0.2222878294289112
1773258452856485400,7.5464853515625,3.6117350374102593,-3.084290833468735,-0.35959845105707644
1773258452866512600,7.5565126953125,2.4392215360999105,-3.117209644991159,-0.640103491654992
1773258452876538600,7.56653857421875,1.2527673338510095,-1.5552067044898867,0.1050789155870676
1773258452886565400,7.5765654296875,1.3434664264298974,0.5161252298086881,-0.4439899679243564
1773258452896592400,7.58659228515625,0.9095010089136659,0.5086372121408581,-2.4965274776428936
1773258452906618400,7.596618408203125,-0.013424129718542099,0.7379857737362384,-3.040451984003186
1773258452916645600,7.606645751953125,-0.3448876425288617,0.35696634898781776,-2.961659602317214
1773258452926672400,7.61667236328125,-0.6394456122681498,0.1118082238420844,-2.7026988695293666
1773258452936698400,7.626698486328125,-0.8719197585381567,0.514597874110937,-2.1106313867688176
1773258452946725400,7.636725341796875,-0.11628230051621793,-0.40832799517363305,-1.5803607272297142
1773258452956752600,7.646752685546875,0.9073663349725305,-0.7243287120446562,0.041105332848429675
1773258452966778600,7.656778564453125,1.4994086832918225,-0.1278895900711417,-0.019040216034650802
1773258452976805400,7.666805419921875,0.9042717299580574,-0.6391872535929084,-0.37510406322479245
1773258452986831400,7.676831298828125,0.3326465851150453,-1.2553177489861844,-0.508033108767867
1773258452996858400,7.6868583984375,0.28645547343492506,-0.8217898461043834,-0.28901158765852447
1773258453006885600,7.6968857421875,0.19849428138732908,0.06897504428774118,-0.22726503331959247
1773258453016911600,7.70691162109375,-0.51867666785717,-0.5050444483458996,0.22136545388698575
1773258453026938400,7.7169384765625,-0.5040040359148755,-0.3070271368205547,1.3560259021431207
1773258453036965400,7.72696533203125,-0.2456453241407871,0.04115706303566694,1.7033499780386685
1773258453046991400,7.736991455078125,-0.12328622446153312,1.5244415638700126,2.0855659190952776
1773258453057018600,7.7470185546875,0.1337082132220268,2.4400857517138124,2.6430186000704765
1773258453067045400,7.75704541015625,-0.0664227294564247,2.013957895955443,2.9980133567243814
1773258453077071400,7.7670712890625,-0.24999124439060685,1.4310893264338373,3.137466251078248
1773258453087098400,7.777098388671875,-0.514467525729537,1.3165908405944704,3.1695699468255043
1773258453097124400,7.787124267578125,-0.75810618622303,1.7620701702937482,3.418485086417198
1773258453107151600,7.797151611328125,-0.5036480255514383,1.441302677412331,3.6232355055898426
1773258453117178400,7.807178466796875,-4.06571273086369,-0.9727075528025626,0.7003940019667149
1773258453127204400,7.817204345703125,-3.8915766456633802,-0.7319076228663325,1.9130922141492366
1773258453137231400,7.8272314453125,-1.5282687209427357,0.601070873427391,-0.5991869593769311
1773258453147258600,7.837258544921875,-2.9598586903750896,0.8323635548278688,-0.9802221662163734
1773258453157284600,7.84728466796875,-1.5125661248981952,0.05602583860456943,0.6509323441833257
1773258453167311400,7.857311279296875,-0.010105177896283566,0.9702405781671404,1.7951532324671744
1773258453177338400,7.86733837890625,1.5850246273875235,1.341220839460194,1.1049456934720276
1773258453187364400,7.8773642578125,2.3981916065752507,0.9008104835882782,0.5225660765111446
1773258453197391600,7.8873916015625,3.828944540661573,1.2492948354348539,0.3972439988404512
1773258453207418400,7.89741845703125,2.7151883487462998,0.6417332848139107,-0.8137456558585167
1773258453217444400,7.9074443359375,1.05385212363787,-0.3135788965515792,-1.287023677587509
1773258453227471400,7.917471435546875,-0.066984966449067,-1.0969336519300936,-1.4828759200334547
1773258453237497300,7.927497314453125,-0.26605682852864265,-1.5295651904940604,-0.9494505958557128
1773258453247524600,7.937524658203125,-0.27314949020333584,-0.9046475775331259,-0.19516835183501244
1773258453257551400,7.94755126953125,-0.019385157014802097,0.33104747935533524,0.984905940118432
1773258453267577300,7.957577392578125,-0.4624444930255413,0.6038790627159177,1.4690174905508755
1773258453277604400,7.967604248046875,-0.951463543113321,1.1463443101786077,1.6376199070215225
1773258453287631600,7.977631591796875,-0.8069393368445337,1.4602734814725815,1.6281144120514393
1773258453297657600,7.98765771484375,-0.6489255344055592,1.0704727843753994,1.2191086637467146
1773258453307684400,7.997684326171875,-0.02012859579324722,0.5781128994271159,0.8837900829434394
1773258453317711400,8.00771142578125,0.2519993693426251,-0.6544996812760829,0.30602351273596284
1773258453327737600,8.017737548828125,-0.19766162995547054,-0.26813743419498204,-1.2809563403725623
1773258453337764900,8.027764892578125,-0.5855155768990516,0.5489779903575778,-2.753798942169547
1773258453347791600,8.03779150390625,-0.5119257322922348,0.06771832222491503,-3.8380326870024204
1773258453357817600,8.047817626953124,0.6302616043373942,-0.193664084751904,-4.265741382211447
1773258453367844600,8.0578447265625,2.6915166735187173,-0.6441983597531914,-2.017173350870609
1773258453377870600,8.06787060546875,1.7249796260446308,-1.591586470121145,-0.15297931540310383
1773258453387897900,8.07789794921875,0.27890783453434703,-1.210693009839952,-1.572039473608136
1773258453397924600,8.087924560546876,0.7800175737798214,0.19061492631435392,-1.3474579802840947
1773258453407950600,8.09795068359375,1.5561409166000784,0.03097206136882305,-0.8341483924180269
1773258453417977600,8.1079775390625,0.39866730964183805,-1.9378877788402138,-0.9407797981441021
1773258453428004900,8.1180048828125,1.9523732541799543,-3.522038984394073,2.798883115521073
1773258453438030600,8.128030517578125,-7.4507637497127055,-2.4727824449181557,0.03858312089443207
1773258453448057600,8.1380576171875,-0.9442635486066341,-0.30878932418748734,-9.325787222230433
1773258453458084600,8.148084716796875,1.1935304242454468,2.745911988312006,-3.2592519713163375
1773258453468110600,8.158110595703125,0.7945536102630197,1.7646065569035707,0.34067046322524547
1773258453478137900,8.168137939453125,-0.4652849771484732,0.8699744696892797,0.7260913378030062
1773258453488164600,8.17816455078125,-0.8993030016347765,1.404614284223318,1.5893939285129308
1773258453498190600,8.188190673828124,-1.0797757425107062,1.3880791828773915,2.03507608730793
1773258453508217600,8.198217529296874,-1.2009646658994257,0.4871040102466941,1.3807616994708776
1773258453518244900,8.208244873046874,-1.4028136645421385,-0.3952840969443321,0.5111082784295082
1773258453528270800,8.218270751953124,-1.2357096699357033,-0.9156789668962358,0.2593611302822828
1773258453538297600,8.228297607421876,-1.0154175443686544,-1.011272407387942,-0.967913888785243
1773258453548324600,8.23832470703125,-1.5254171309038995,-0.846043120612204,-1.8921108009189367
1773258453558350600,8.2483505859375,-1.3934627756118774,-0.22179873073771594,-2.1586831777542828
1773258453568377900,8.2583779296875,-2.184478859398514,1.8360203726455568,-0.5692477481871843
1773258453578403600,8.268403564453125,-1.2250772167623043,3.076040599256754,0.0089145433396101
1773258453588430600,8.2784306640625,0.3615080840706825,2.6295658287793398,0.27850831382274627
1773258453598457600,8.28845751953125,0.44288755964040755,-0.1592095880948007,-1.3416601076602934
1773258453608483800,8.29848388671875,-0.640392537729442,0.7102874733410776,-2.2984774328917266
1773258453618510800,8.3085107421875,2.4244059520229695,2.6615613879770037,-0.22181319765448568
1773258453628537600,8.31853759765625,2.936529544974863,1.9750372136697172,1.0267927787333726
1773258453638563600,8.3285634765625,1.7930229424402118,0.072973027882725,1.4901573092132805
1773258453648590600,8.338590576171875,0.7176511339768767,-1.5260697495937348,1.633900009715557
1773258453658617900,8.348617919921875,-0.3299284121975303,-2.0572510942369697,1.6014420937031506
1773258453668643800,8.358643798828124,-0.22783406537920237,-2.7539228608101607,2.575468327888846
1773258453678670600,8.368670654296874,-1.0338675394251942,-1.430638660056889,4.638711940538883
1773258453688697600,8.378697509765624,-1.223466274434328,0.9066596480078994,4.390156281909347
1773258453698723800,8.388723876953126,-0.4106415328130126,-0.4220658670164644,2.5059423717200753
1773258453708750800,8.398750732421876,-0.7705503649935126,-0.18543255524039268,1.0760521919429302
1773258453718777600,8.408777587890626,-0.3504451305255294,0.6426818177103996,-0.7225023734003305
1773258453728803600,8.418803466796875,1.3446036137662827,2.1129471163652838,-2.2891098850876093
1773258453738830600,8.42883056640625,2.067608529861271,0.8616941325999796,-3.2186504963368177
1773258453748857900,8.43885791015625,-1.1907798103630542,-1.7296370964616536,-2.86239200335741
1773258453758883800,8.4488837890625,-0.7419976397261023,-1.112101118184626,-0.980054992955923
1773258453768910600,8.45891064453125,0.33219080417156216,-0.870526989005506,-0.5165612831383943
1773258453778937600,8.4689375,-0.4624149746701121,0.37968919905796644,0.0683574969112873
1773258453788963800,8.4789638671875,-0.16944442025274037,0.1615811395317316,0.6221370423316955
1773258453798990800,8.488990966796875,0.1713699814878404,-0.3216790547683835,0.8319020747959613
1773258453809017600,8.499017578125,-0.19963029967993498,0.032133360233157875,0.5979851823717356
1773258453819043600,8.509043701171874,-0.35506928319483994,0.4096116052433848,0.7043529687255621
1773258453829070600,8.519070556640624,0.3134519091710448,-0.08934168662056326,0.4574292952120304
1773258453839097900,8.529097900390624,1.193579670214653,-1.1451607994824646,-0.2445487610757351
1773258453849123800,8.539123779296874,1.4729752882659435,-1.4850804443404078,-0.9056617230117321
1773258453859150600,8.549150634765626,0.33135289204269647,-1.0460637347839772,-0.9190671480298042
1773258453869177600,8.559177490234376,-2.7004306323364378,0.28785628014355896,0.210376442360878
1773258453879203600,8.56920361328125,-2.768907079452276,0.9140493198677897,0.17699439724087715
1773258453889230800,8.57923095703125,-1.0660147820532322,0.7635131598331034,-0.290894332665205
1773258453899256800,8.5892568359375,0.32524887607917186,0.7993966663800179,-0.15192717600166797
1773258453909283600,8.59928369140625,0.9284534005343913,0.740077193057537,0.24020108726024628
1773258453919310600,8.609310546875,0.6762617234900593,1.032640920239687,0.6703600982308388
1773258453929336800,8.6193369140625,-0.09534370351433753,1.3216452013745903,0.4395779967010021
1773258453939363800,8.62936376953125,-0.5278083610787987,1.5627968673579393,-0.2698714183807373
1773258453949390600,8.639390625,-0.3254642723955214,1.851586336698383,-0.8460130177348851
1773258453959416600,8.64941650390625,-0.2843348280191421,1.2074793084904551,-1.2679963210344314
1773258453969443600,8.659443603515625,-0.18619477178454397,0.6518903755605221,-1.1159832203149795
1773258453979470800,8.669470947265625,0.30708325092196465,0.860265707232058,-0.30606267570257184
1773258453989496800,8.679496826171874,0.6567047901049256,1.005555052654445,0.3950882821112871
1773258453999523600,8.689523681640624,1.0885840489968657,-0.24382760719433424,0.3428063062101602
1773258454009550600,8.699550537109374,1.106428771636635,-1.0097750084370374,0.16330372554063796
1773258454019576800,8.709576904296876,0.8879754058040678,-1.4971448300130665,0.3087929774492979
1773258454029603800,8.719603759765626,0.9450867015577852,-0.9350041373521089,0.595632481765747
1773258454039630600,8.729630615234376,-0.40310383078455925,-0.6501990614727139,0.7862520842552184
1773258454049656600,8.739656494140625,-1.3059599948562681,0.06890913944467902,0.8900076422840356
1773258454059683600,8.74968359375,-2.062895675995201,0.6180376441888511,0.690166037940979
1773258454069710800,8.7597109375,-1.6567185752451419,0.04473579830527305,0.24740941120386123
1773258454079736800,8.76973681640625,-1.2188440214611589,-1.0049779834188521,-0.33719080441594124
1773258454089763600,8.779763671875,0.4769907586418092,-0.1853308484315872,-0.4550748410403728
1773258454099790600,8.78979052734375,1.945261814739555,1.0742417815200984,0.05256429997384548
1773258454109816800,8.79981689453125,1.8533809650301931,1.6499102104045449,0.031814357411861414
1773258454119843800,8.80984375,0.9167410431697964,1.6001853716403245,-0.44854806962013244
1773258454129870600,8.81987060546875,-0.7155657060049474,5.845424648571014,2.903517209950089
1773258454139896600,8.829896484375,-2.753910585850477,8.208463693222402,6.9122577612698075
1773258454149923600,8.839923583984374,0.3191968825638294,2.2963350140355527,1.5034499215066432
1773258454159950800,8.849950927734374,0.7295043611168861,-0.6741272687446326,-2.7865269072949883
1773258454169976800,8.859976806640624,-0.5372996083278209,-0.8965319294862448,-3.3153882845580576
1773258454180003600,8.870003662109376,-1.6663351293742656,-1.018189931691438,-2.136768867588043
1773258454190029600,8.880029541015626,-1.3789806612730025,-1.139136497691646,-0.4621826272189617
1773258454200056800,8.890056884765626,0.04361695034317672,-0.6973550726622343,0.9484744442999362
1773258454210083800,8.900083740234376,1.0948329533237964,-0.6536801815867423,1.1053379076600074
1773258454220109800,8.91010986328125,1.247757835125923,-0.7056331447292119,0.31486265275180336
1773258454230136600,8.920136474609375,0.9563105447530746,-1.3610285327360032,-0.771362558159232
1773258454240163600,8.93016357421875,0.7360907537698745,-1.3636452911056578,-0.8443898004472256
1773258454250189800,8.94018994140625,0.5209293786874041,-0.786540253546834,-0.4604343222469091
1773258454260216800,8.950216796875,-0.24679211955573407,-0.8888646827939898,-0.693189185154438
1773258454270243600,8.96024365234375,-1.6960685888588427,-1.6753244915157555,-0.8804144690304994
1773258454280269600,8.97026953125,-2.9033564664304254,-2.6998431878373026,-1.0435720640987156
1773258454290296800,8.980296875,-3.1834090870857237,-3.498555232954025,-1.2981108887910842
1773258454300323800,8.99032373046875,-3.0561843906641006,-0.7263235391236841,-0.6155138247996569
1773258454310349800,9.000349853515624,-0.7354617351513355,3.3292601580440997,0.6383060868442059
1773258454320376600,9.01037646484375,-0.8640449335098266,5.808806105747818,0.9793559047758579
1773258454330403600,9.020403564453124,-0.6369580332361161,5.196040118351578,0.29400165103077885
1773258454340429600,9.0304296875,-2.02129306114912,3.8735964600756763,-0.8834200805872678
1773258454350456600,9.04045654296875,-2.8724831892609592,4.42268521733135,0.3866483705461025
1773258454360483300,9.0504833984375,-1.5906547422289847,2.5868703041300174,1.2370149073153733
1773258454370509300,9.06050927734375,1.3633612134672701,-1.1695060631226748,-0.18756021491885183
1773258454380536600,9.07053662109375,3.216329359912872,-2.334507654432952,-0.2960170825064182
1773258454390563600,9.0805634765625,3.2044732101634144,-0.6988295291289687,1.617737979465723
1773258454400589600,9.090589599609375,2.718057474441826,0.20941632862444967,2.6630881591528652
1773258454410616300,9.1006162109375,1.561921691958606,0.224705448497273,2.1195406694114207
1773258454420643600,9.1106435546875,0.013849661654233932,-0.036040304543823,0.6332417891919613
1773258454430669600,9.120669677734375,-0.05524769383892417,-0.32892113485112784,-0.0683791242212057
1773258454440696600,9.130696533203125,-0.09311521380990744,0.17672018340937792,0.2639578104227781
1773258454450723300,9.140723388671875,-1.3312896664239466,-0.2446934302434325,0.5521452222168445
1773258454460749300,9.150749267578124,-2.444359483510256,-0.5659963451758027,0.7191378654032945
1773258454470776600,9.160776611328124,-3.1338471837982533,-0.5787825423169881,1.1454355247706174
1773258454480803600,9.170803466796874,-0.922091610417515,-1.7585557324320076,0.7034294241398572
1773258454490829600,9.18082958984375,-0.16404226894825696,-0.6252329625204205,0.44567689809799194
1773258454500856300,9.190856201171876,0.1476278713725507,0.48467700229547916,0.3047901715487242
1773258454510882300,9.20088232421875,0.6614286037564278,1.1948472789976745,-0.3558756311416626
1773258454520909600,9.21090966796875,1.6269102969586848,1.375535927646607,-1.0002414564162492
1773258454530936600,9.2209365234375,1.5809163152858614,0.6735029263012111,-1.1127952379286288
1773258454540962600,9.230962646484375,1.49809423969239,0.5430855713181197,-0.5946873098701239
1773258454550989300,9.2409892578125,1.3141574759677053,0.7271633509486913,-0.2082581350326538
1773258454561016600,9.2510166015625,0.535551522551477,0.6163016141764819,-0.5991092179656028
1773258454571042600,9.26104248046875,-0.2126212986782193,-0.03612710604444146,-1.3304443016409873
1773258454581069600,9.271069580078125,-1.179454406489432,-0.5392587065063417,-1.4792244117885827
1773258454591096300,9.281096435546875,-1.5564169570624828,-0.25937691237330435,-0.653953153309226
1773258454601122300,9.291122314453125,-1.3641151005744934,0.3039866000808775,0.3832803554177284
1773258454611149600,9.301149658203125,-0.565796146428585,0.7574924382388591,0.4907727618873119
1773258454621176600,9.311176513671874,-0.07842793228775262,0.9067937957815826,0.22565409099161624
1773258454631202600,9.32120263671875,0.3015782237648964,0.6326151817262172,-0.3971533979475498
1773258454641229300,9.331229248046874,0.7619473718211054,0.12684022714868187,-0.9078940121084451
1773258454651256600,9.341256591796874,0.37305911339372394,-0.03141936674490571,-0.6679401776075363
1773258454661282600,9.351282470703126,0.5861290326222777,-0.5249528255172073,-0.8486234924942254
1773258454671309600,9.3613095703125,0.6830670195907353,-1.363209091645479,-1.5032552757173776
1773258454681336300,9.37133642578125,-0.0005626023188233376,-1.9076647822730242,-1.122985208031535
1773258454691362300,9.3813623046875,-0.50079146707654,-2.2849062959179283,0.2252636303693056
1773258454701389600,9.3913896484375,-0.4308183516621589,-2.1565929274767637,0.6442553506374359
1773258454711416600,9.40141650390625,-0.08697802622914313,-2.0209075689628717,0.19562369438707827
1773258454721442600,9.411442626953125,0.3786459736153483,-1.7813190606430171,-0.6419815604865551
1773258454731469300,9.42146923828125,0.2856397731378674,-0.6623245296828448,-0.7088058564811944
1773258454741496600,9.43149658203125,-0.0003454524368047714,0.5300872657962143,-0.2954121023505926
1773258454751522600,9.4415224609375,0.5155433382675051,0.46245859461613,-0.8198632619559765
1773258454761549600,9.451549560546875,1.0824760875105857,-0.16074629614278674,-3.220385941827297
1773258454771576300,9.461576416015625,1.2364949750944971,-0.47300954351853575,-4.346512370494008
1773258454781602300,9.471602294921874,1.428744370742887,0.9674919370461255,-2.339621928706765
1773258454791629600,9.481629638671874,-0.13816811524033545,2.1067161130212244,-0.43561143115758894
1773258454801656600,9.491656494140624,-0.9128148096367716,3.140337422600388,-0.8154992215275764
1773258454811682600,9.5016826171875,-0.028807284550368784,4.1881519465744494,1.842858986493945
1773258454821709300,9.511709228515626,-0.764117117075622,3.7439386912882324,3.729821903130412
1773258454831736600,9.521736572265626,-1.76554968297258,2.3988899641029535,4.8858296753197905
1773258454841762600,9.531762451171875,-2.0970672640576957,0.5406453385591506,5.121974765187502
1773258454851789600,9.54178955078125,-3.0582644118085502,-0.6364546137586236,5.563436675938964
1773258454861816300,9.55181640625,-4.345710698722303,-1.4300417170770465,6.638063218992948
1773258454871842300,9.56184228515625,-4.8946939497768875,-0.8251337497048079,6.9703668358892195
1773258454881869600,9.57186962890625,-2.7542469781979917,-0.3172727826334536,5.499405810055136
1773258454891896600,9.581896484375,1.0600257707715033,-0.606171703697741,2.7928941042393443
1773258454901922600,9.591922607421875,4.790355623424053,-0.821559909806028,0.2492839729040861
1773258454911949300,9.60194921875,3.499387592124939,0.2905840246070176,-1.0740262390732764
1773258454921976600,9.6119765625,1.4150292952537535,-1.1356753243871032,-1.4891601148694753
1773258454932002600,9.62200244140625,1.8609952394261955,-2.772728683567047,-2.177684815344214
1773258454942029600,9.632029541015624,1.412851951214671,-4.134125757354497,-3.2653292454034086
1773258454952056300,9.642056396484374,1.094661323083937,-5.1202901731014245,-5.561248225983977
1773258454962082300,9.652082275390624,0.8253869938135147,-3.2965503130972382,-6.655040072757005
1773258454972109600,9.662109619140624,-1.0181319178938866,1.438334621386975,-4.201547434720397
1773258454982136600,9.672136474609376,-1.5864903160259127,5.986438800892233,-1.1844827560454607
1773258454992162600,9.68216259765625,-0.20162381158471107,4.95108862169385,0.07800795331001281
1773258455002189300,9.692189208984376,0.09535568621307611,2.623542915228009,0.78151219625175
1773258455012216600,9.702216552734376,-0.10475304463356733,1.4401032384946941,1.1238754348695277
1773258455022242600,9.71224267578125,-0.6070283205270767,0.3014285861611366,1.0210808308273553
1773258455032269600,9.72226953125,0.13238982409983874,-0.7507261589743196,0.3590156827330589
1773258455042296300,9.73229638671875,0.04254997869879007,-1.2207307119905948,0.027630349725484848
1773258455052322300,9.742322265625,0.16785978140980004,-1.691677660423517,-0.35955168930590153
1773258455062349600,9.752349609375,0.2917404281005263,-1.6321612032242119,-0.5061772517681121
1773258455072376600,9.76237646484375,0.6654746642768382,-1.1557628575176,-0.5774129344642162
1773258455082402600,9.772402587890625,1.3993302063405513,-0.8360210544221103,-1.2984241925239561
1773258455092429300,9.78242919921875,1.3669159833393991,-0.9708910048998892,-2.459566404992342
1773258455102456600,9.79245654296875,1.2532182924889028,-1.1568890850685536,-3.0043723703622818
1773258455112482600,9.802482666015624,1.127841708151996,-1.6115060993388295,-3.209130388319492
1773258455122509600,9.812509521484374,1.155436109781265,-1.70781850175485,-2.9769407580792904
1773258455132536300,9.822536376953124,-0.13314005794525147,-0.7774320142660289,-1.7031956642597912
1773258455142562300,9.832562255859376,0.6604945377767085,0.2866601291615516,-1.6973106978744268
1773258455152589600,9.842589599609376,1.7600269740283487,1.9119183480642734,-1.598039591783285
1773258455162616600,9.852616455078126,-3.881532806032896,2.79713539507091,-0.4501847309112549
1773258455172642600,9.862642578125,-11.27644198205471,-2.1954630486190316,-5.273742951235175
1773258455182669300,9.87266943359375,-4.544021732497215,-0.2666612789615057,-5.913922430735826
1773258455192696600,9.882696533203125,-0.8079416457548737,0.7191313625972717,-3.959331500506401
1773258455202722600,9.89272265625,4.184304623496532,0.6481195517849176,-1.5051520492494106
1773258455212749600,9.90274951171875,7.200595395189524,-3.251748463818431,-0.5906657992690801
1773258455222776300,9.9127763671875,3.355632324402034,-4.847643737049401,0.5287245991408824
1773258455232802300,9.92280224609375,0.13015665822029113,-1.41003747831583,2.767805255690217
1773258455242829600,9.93282958984375,0.41953956340923904,3.4730899523079395,4.902084644550085
1773258455252856600,9.942856689453125,-0.30780104380249973,5.976591360616683,6.97198829961121
1773258455262882600,9.952882568359374,-1.26086062393561,4.582550492855907,8.356973754256963
1773258455272909300,9.962909423828124,-2.7888313848450776,2.156070657168329,9.69001041047871
1773258455282936600,9.9729365234375,-3.4101100567817686,-1.0988280143093316,10.128672461378574
1773258455292962600,9.982962646484374,-1.0415854203261434,-4.249338528943062,9.94691421073675
1773258455302989600,9.992989501953126,1.1448889968037606,-3.178486828252673,7.167227963116765
1773258455313016300,10.003016357421876,1.9706722964584826,-1.7299992077723145,4.315459060582518
1773258455323042300,10.013042236328126,3.6535458881795404,-1.0977417534425855,2.353286296921968
1773258455333070000,10.023070068359376,4.508628932076692,-1.2365062271408735,0.7512994288176298
1773258455343097000,10.03309716796875,2.938137856954336,-1.5769799987502395,0.5003747029691934
1773258455353123000,10.043123046875,0.09989479094743728,-1.9147012567810713,0.4483095846891403
1773258455363149800,10.05314990234375,-2.6858149547457693,-2.755980962383747,0.5830348659992217
1773258455373176800,10.0631767578125,-3.076928195746243,-3.212811999441683,0.7779226473271846
1773258455383203000,10.073203125,-1.9222798753418027,-2.6001941883444784,-0.07682897265851497
1773258455393230000,10.08322998046875,-7.860763769751787,-1.7628109056584536,-2.6125837143182755
1773258455403256800,10.0932568359375,-13.342896373444795,-2.175480583298206,-8.335984742242097
1773258455413282800,10.10328271484375,-6.514329287296533,0.6085126408006996,-6.435566131705046
1773258455423310000,10.11331005859375,22.535198669815063,8.758800404712558,-4.698967964059114
1773258455433337000,10.123337158203125,16.777378654938936,10.944755035752058,-4.895682960814237
1773258455443363000,10.133363037109374,-5.19003181784749,5.22377100584209,-5.229466587135195
1773258455453389800,10.143389892578124,-6.433387034100294,1.0418813345327973,-2.1312854677408932
1773258455463416800,10.153416748046874,0.09821282920986413,-1.6995536544956267,0.543934443232417
1773258455473443000,10.163443115234376,2.329608191953599,-1.8838754720151423,1.6330863552451134
1773258455483470000,10.173469970703126,-0.5018678641363978,-1.2949952409885823,1.8778414525479077
1773258455493496800,10.183496826171876,-1.354738492681086,-1.0441167654346675,1.6797107437759637
1773258455503522800,10.193522705078125,-0.31268589323461055,-0.8993776012409478,1.1279062978208065
1773258455513550000,10.203550048828125,0.20808365524858236,-0.5518809087248518,0.635299306243658
1773258455523577000,10.2135771484375,-0.09768997437953948,-0.10208870252883061,0.21843056947886944
1773258455533603000,10.22360302734375,-0.2819815428912639,0.20322949321568012,-0.15997954955399035
1773258455543629800,10.2336298828125,-0.6800526402056217,0.3899558145936578,-1.1643985839158295
1773258455553656800,10.24365673828125,-1.3256918464168905,0.7123557309824973,-2.5565432626664637
1773258455563683000,10.25368310546875,0.3870777018740773,0.28053156327866013,-0.28379706788063047
1773258455573710000,10.2637099609375,0.1778001606658101,-0.00294790828647092,-0.16925649646520613
1773258455583736800,10.27373681640625,-2.125746246053278,0.16882550290310755,-0.6464151590198278
1773258455593762800,10.2837626953125,-0.5470227646365762,0.3746041143460199,0.23970424365401266
1773258455603790000,10.2937900390625,2.137323286600411,0.2908554254269227,1.790605067643523
1773258455613817000,10.303817138671874,0.08073679375201463,-0.4210615853447467,0.9815379249900579
1773258455623843000,10.313843017578124,-0.30467268264889713,-0.29716022465955466,0.615625468480587
1773258455633869800,10.323869873046876,-0.5899693414375186,0.06440943513894454,-0.5456090984463692
1773258455643896800,10.333896728515626,-1.2332996861845253,0.932974312024936,-0.9499772500783205
1773258455653923000,10.343923095703126,-0.5823933532252907,0.6832073779094964,-0.9174684806615113
1773258455663950000,10.3539501953125,-0.4502034356117248,0.13789254970196635,-1.1267045208156108
1773258455673976800,10.363976806640625,0.8907964545741677,-0.7473639890648425,-0.30428397559225556
1773258455684002800,10.3740029296875,0.9088605190530419,-0.7823943128485232,0.7160983515769243
1773258455694029800,10.38402978515625,0.284407893255353,-0.45905762706622477,1.0569950247734785
1773258455704057000,10.39405712890625,0.015976152288913727,-0.18406004304448143,0.912564342007041
1773258455714083000,10.4040830078125,-0.2649301625862717,-0.0517395030548796,0.8685112652689218
1773258455724109800,10.41410986328125,0.10064619383662939,-0.41509829302616413,0.5860621048659086
1773258455734136800,10.42413671875,-0.20181874963492155,-0.5721807328991592,-0.5050689982652664
1773258455744163000,10.4341630859375,-0.7630041873976587,-0.18716862178537993,-1.2852531607836484
1773258455754190000,10.444190185546875,-0.2350470654979348,-0.8554796419993043,-1.3919552936583757
1773258455764216800,10.454216796875,-0.4000540878251195,-1.9599805143132805,-0.9806769242465495
1773258455774242800,10.464242919921874,-0.9690183428958058,-1.6753326748222113,-0.8066296863734722
1773258455784269800,10.474269775390624,-0.03316109584569931,0.16661971822082997,-0.04532967254519462
1773258455794297000,10.484297119140624,-0.019552549470961092,2.4585250792458653,0.5433499213427305
1773258455804323000,10.494322998046876,-0.07839841393232345,2.7334040966555473,0.2767810516387224
1773258455814349800,10.504349853515626,-0.03158610161393881,2.0596564018130303,0.5986047755748033
1773258455824376800,10.514376953125,-0.41167759786248204,2.641620131449401,0.9609387890756129
1773258455834403000,10.524403076171875,-0.3421343982979655,3.2157977372542024,0.8605471545219421
1773258455844430000,10.53443017578125,-0.1201908522620797,1.7661816972658038,0.14166238709688186
1773258455854456800,10.544456787109375,-0.15376812769323586,0.24677891301428898,-0.4585439784556627
1773258455864482800,10.55448291015625,-0.2843044328808784,-0.13988211608398704,-0.47032384809851646
1773258455874509800,10.564509765625,0.05113485169261694,-0.2394273446750827,-0.012241057413816451
1773258455884537000,10.574537109375,0.15172873082011937,-0.1293301442682743,0.6559452039092779
1773258455894563000,10.58456298828125,-0.5647486832022667,0.9151073044881224,1.4067407748579979
1773258455904589800,10.59458984375,-1.1459215547218917,1.7334006867788732,1.2927654361099004
1773258455914616800,10.604616943359375,-0.49031595803052186,1.7115470207586883,0.99636081559062
1773258455924644000,10.61464404296875,-0.14634528421610593,1.2575070757240057,0.6753723734349012
1773258455934670000,10.624670166015624,-0.12477175031155346,1.2935390508309006,0.5790151089638471
1773258455944696800,10.63469677734375,0.608653875902295,-0.1287254107076209,-1.9779659605979918
1773258455954723800,10.644723876953124,-0.307867679297924,-1.3034360293366014,-2.246161554720998
1773258455964749800,10.654749755859376,-1.174532147656381,-0.8865424503915011,1.366748956209421
1773258455974777000,10.664777099609376,0.743363375121355,-1.07400534241572,-0.7958920192599296
1773258455984803800,10.674803955078126,-0.38832945550084114,-1.9866589701414108,-1.607016094443202
1773258455994829800,10.684829833984375,0.035606443171203137,-1.484555105292052,-0.8492652975291013
1773258456004856800,10.69485693359375,0.4510743732273578,-1.0691686429742724,-0.42952363567650315
1773258456014884000,10.704884033203125,0.7197109891161322,-1.095520716392249,-0.09190203862786292
1773258456024910000,10.71491015625,0.16715923192501067,-1.1216403692938386,-0.020120997008681297
1773258456034936800,10.724936767578125,-0.7257049688339233,-0.40286304429862646,-0.49158875444531436
1773258456044963800,10.7349638671875,0.1420893803372979,0.07206022388674319,-0.57934536383152
1773258456054989800,10.74498974609375,0.3316623963832855,0.244922690688353,-0.7407838800221681
1773258456065017000,10.75501708984375,0.29586539907604453,1.8476628796443342,-0.29044249724447724
1773258456075043800,10.7650439453125,0.629146628832817,0.9452179997872561,-0.24527707535028456
1773258456085069800,10.77506982421875,0.2047740923091769,0.320114801126346,0.2202051779359579
1773258456095096800,10.785096923828124,-0.16293109283596277,0.8898065667539834,0.38320436757206916
1773258456105124000,10.7951240234375,-0.07134732637703418,0.9893352278027683,0.3413397407889366
1773258456115150000,10.805150146484374,-0.14261486551612615,0.7174233896356076,0.23014906432330606
1773258456125176800,10.8151767578125,-0.9826277660533785,0.6104433531349525,0.3776367965728044
1773258456135203800,10.825203857421876,-0.8944888793513178,0.9019763855624944,0.7073012971371412
1773258456145229800,10.835229736328126,-0.6124339789628982,0.8584069276228546,0.8440630527108908
1773258456155257000,10.845257080078126,-0.5524149790689349,0.38939839990660546,0.6694207715541124
1773258456165283800,10.855283935546876,-0.34018910944908853,0.26482765205986797,0.4022539359569549
1773258456175309800,10.865309814453125,0.6263514451563358,-0.428019478191249,0.1881149261921644
1773258456185336800,10.8753369140625,-0.33012188894301653,-0.21340601931512354,0.0899602569103241
1773258456195364000,10.885364013671875,-0.37739451224952936,0.9895741511251777,-0.40927755098342894
1773258456205390000,10.89539013671875,0.39024230338484045,-0.08507547141029499,-1.0677215859711169
1773258456215416800,10.905416748046875,-0.432366165626049,0.9675597415853291,-0.6110895786166191
1773258456225443800,10.91544384765625,0.5119102424621582,0.7819550446484237,-0.17908406299650667
1773258456235469800,10.9254697265625,0.4620423419654369,0.14972677988056093,0.23915303951203823
1773258456245497000,10.9354970703125,0.19855477940291166,0.23628252557702362,0.5266168132066726
1773258456255523800,10.94552392578125,-0.04753448911309242,0.35656679174359884,0.6169628545641899
1773258456265549800,10.9555498046875,-0.4772986555472016,0.7986842072617262,0.713329471385479
1773258456275576800,10.965576904296874,-0.4679238012194633,0.5085077405422925,-0.11607318781018257
1773258456285604000,10.97560400390625,-0.4874745971247553,0.05276876390422694,-1.0003566072285175
1773258456295630000,10.985630126953126,-0.4778136193320155,-0.1817382855660282,-0.7238269000023603
1773258456305656800,10.99565673828125,0.02780804437994957,-0.8619121592648327,-1.085239707005024
1773258456315683800,11.005683837890626,0.39153701937049623,-0.07234723783431109,0.021465981876850126
1773258456325709800,11.015709716796875,0.4520379575625062,0.42948447270989415,1.0599421841412782
1773258456335737000,11.025737060546875,0.10986410403698682,0.1312696609634906,0.1193348199546337
1773258456345763800,11.035763916015625,-0.1796174392208457,0.9786921801701187,-0.5566331812858581
1773258456355789800,11.045789794921875,-0.18653262543678284,1.4825029950678348,-0.389392700818181
1773258456365816800,11.05581689453125,-0.30762948662787676,0.5295620363457129,-0.4976771344482898
1773258456375844000,11.065843994140625,-0.25092823297977446,-0.46629824584424495,-0.2825724945217371
1773258456385870000,11.0758701171875,-0.0481716179728508,-0.4473790623733774,-0.02697568520903587
1773258456395896800,11.085896728515625,0.3104498047456145,-0.2438289406348951,-0.19466975466310976
1773258456405923800,11.095923828125,0.3148161832615733,-0.17506934746243058,-0.2924444847166538
1773258456415949800,11.10594970703125,0.34117724370360375,-0.22815726945158094,-0.24210136792361736
1773258456425977000,11.11597705078125,0.12137392456680536,-0.23105527418171987,-0.26140111167728897
1773258456436003800,11.12600390625,-0.5695885244488715,0.601648929043673,0.3718389239490032
1773258456446029800,11.13602978515625,-0.8109504721820354,1.1327993305593729,1.286546123203635
1773258456456056800,11.146056884765626,-0.5486813454985618,0.7637874467298388,0.7362976745188236
1773258456466084000,11.156083984375,-0.017447978407144547,-0.5891104595858604,-2.1466455339580772
1773258456476110000,11.166110107421876,0.15289572877287863,0.228669182762783,0.25246201841831206
1773258456486136800,11.17613671875,0.18486030831038952,0.6582553074825555,2.406911504125595
1773258456496163800,11.186163818359375,-0.17380553807169197,0.6412586530394851,2.009667505285144
1773258456506189800,11.19618994140625,-0.34049773700684305,0.7243130760841071,1.8051269294708967
1773258456516217000,11.206217041015625,-0.17899346210360526,-0.8104521672710776,-0.05254442622959613
1773258456526243800,11.216243896484375,-0.004881050039827823,-0.7131512652743607,-0.36223406025767324
1773258456536269800,11.226269775390625,0.3753694361627102,0.35130719071496275,0.2161924351632595
1773258456546296800,11.236296875,0.2543503163829446,0.6674436993274837,-0.05508475836217403
1773258456556324000,11.246323974609375,-0.15703502053469418,1.1756346290055661,-0.12523206129968165
1773258456566350000,11.25635009765625,-0.7837669894412159,1.8542467880792914,0.29380525167584415
1773258456576376800,11.266376953125,0.059168812805414195,2.1025442341640592,3.633729427075386
1773258456586403800,11.27640380859375,2.3401319240555165,-1.7507624482072888,-1.6427204450309276
1773258456596429800,11.286429931640624,-2.2371584563151,-0.9884330913312732,-2.699006444752216
1773258456606457000,11.29645703125,-0.8871943384289741,-0.7826759062688797,-2.3309786035239695
1773258456616483800,11.30648388671875,3.2425822838053104,-1.3203192134678363,-0.5498141489207744
1773258456626509800,11.316509765625,-0.49572015516161916,-1.3817524640738963,0.09398352107703685
1773258456636536800,11.326536865234376,-3.0649145173475145,-0.05285880767470225,-0.34968028363287446
1773258456646564000,11.336564208984376,0.9068728523671626,-0.7930950820177793,0.6551970158904791
1773258456656590000,11.346590087890625,0.6081023794993757,-0.03162099026422947,0.6421241838276386
1773258456666616800,11.356616943359375,-1.2146551914691925,1.3024250987283885,0.6750228293448686
1773258456676643800,11.366643798828125,0.5161307827666402,0.7944595022387803,0.6008183599710464
1773258456686669800,11.376669921875,0.09033931935578585,0.35186749147884544,0.6574708060413599
1773258456696697000,11.386697021484375,-0.15726502989828586,0.23456063368786126,0.5057493817448616
1773258456706723800,11.396723876953125,-0.39373073002249,-0.02789811554988846,0.11356266629397868
1773258456716749800,11.406749755859375,-0.4010197179868817,-0.0008091792247258127,-0.09919336467981338
1773258456726776800,11.41677685546875,0.07740823385119437,-0.15060001905113457,-0.12076748310625553
1773258456736804000,11.42680419921875,0.00438362191170454,0.08567361083338036,-0.05878302835822105
1773258456746830000,11.436830078125,0.7424883458524942,-0.18719558285754173,0.18526830458939075
1773258456756856800,11.44685693359375,0.6911266996666788,-0.031035819920571518,0.17263152585625646
1773258456766883800,11.4568837890625,0.9203235778316855,-0.219362699229829,0.02093698956668377
1773258456776909800,11.466909912109376,0.7488590499281883,-0.5196198669914156,-0.4074187713742256
1773258456786937000,11.47693701171875,0.03371668390184641,-0.5873267910394817,-0.7801485066831112
1773258456796963800,11.4869638671875,-0.08340192130804061,-0.8495005675897002,-0.6767904235392809
1773258456806989800,11.49698974609375,-0.8423381286144256,-0.5435618105277419,-0.37756431585848327
1773258456817016800,11.507016845703125,-1.5826763106957078,-0.3945859951449558,-0.06886486191153526
1773258456827044000,11.517044189453125,-2.01134362180382,-0.05875785738434642,0.1230821897894144
1773258456837070000,11.527070068359375,-1.1131281231448054,-0.10705777791198343,0.20367723698318002
1773258456847096800,11.537096923828125,-0.20514351014345883,-0.3361199603140354,-0.07667758148908614
1773258456857123800,11.547123779296875,-0.3737421272218227,0.4489991013232618,-0.23913433481156823
1773258456867149800,11.55714990234375,-0.3403995373293757,2.263102168127894,-0.24771745423972605
1773258456877177000,11.567177001953125,0.8376984861150384,3.219266874669492,-0.2283878998696804
1773258456887203800,11.577203857421875,0.9028595250725746,4.133022472287714,-0.29535657277107236
1773258456897229800,11.587229736328124,0.5598047970592975,2.4860700887754557,-0.39834932973384857
1773258456907256800,11.5972568359375,0.025238778413832187,-0.049452780357189474,-0.25715456014871596
1773258456917284000,11.6072841796875,0.049969899566471576,-0.5759144030021504,-0.15730769999623298
1773258456927310000,11.61731005859375,0.21341770975291727,-0.9500864095412194,-0.2176005483955145
1773258456937336800,11.6273369140625,0.105594756154716,-1.8386479446701705,-0.16545067444145678
1773258456947363800,11.63736376953125,-0.2822308414772153,-2.437668315308541,-0.08207271853089332
1773258456957389800,11.647389892578126,-0.5019339151099323,-1.4714520242214202,0.03160860570669174
1773258456967417000,11.6574169921875,-0.30081863756924865,-0.33901305140703913,0.024299159476161
1773258456977443800,11.66744384765625,-0.11411883887201547,1.3017130049362777,0.09054244071245193
1773258456987469800,11.6774697265625,0.07976298028379679,1.1770927919246255,-0.13164952712655068
1773258456997496800,11.687496826171875,-0.3987254695698619,-0.7738857199613004,-0.32237200546860695
1773258457007524000,11.697524169921875,-0.41507425456345076,-3.886528422363102,-0.7029571304529905
1773258457017550000,11.707550048828125,0.14933832855224607,-11.66687922348976,-2.645591080906987
1773258457027576800,11.717576904296875,0.1613759723484516,-10.004345824486016,-1.6486889980465174
1773258457037603800,11.727603759765625,1.675933855585754,-4.468694981095195,0.017881109127402303
1773258457047629800,11.7376298828125,-0.3659460665181279,-2.9649294177681207,-0.8237778050512075
1773258457057657000,11.747656982421875,-1.945316613666713,-1.7788783894926308,-1.306966395419836
1773258457067683800,11.757683837890625,-2.061532717078924,2.946013412635028,-0.16362170544862747
1773258457077709800,11.767709716796874,-0.8528796886339783,8.719555605039,1.1797849536180496
1773258457087736800,11.77773681640625,0.03491349247097969,12.250345466643571,2.2649521799087524
1773258457097764000,11.78776416015625,0.24848756182938814,10.139671994298697,2.505161450475454
1773258457107790000,11.7977900390625,0.29079379490017887,7.408830149346589,2.5331968738704917
1773258457117816800,11.80781689453125,-0.029289515109360217,3.9749288826107976,1.5472756192296742
1773258457127843800,11.81784375,-0.2966623946726322,2.672965702305734,0.9642010057419538
1773258457137869800,11.827869873046875,-0.16129530832767486,1.3982090933561324,0.5902168864578008
1773258457147897000,11.83789697265625,0.08215952003151178,1.2944039970971644,0.6887175926983357
1773258457157923800,11.847923828125,0.20235066455453632,3.2591923500835893,0.7692302223056554
1773258457167949800,11.85794970703125,-0.07026771444678306,3.3925586180001495,-0.006049217036366463
1773258457177976800,11.867976806640625,0.10518033013492822,3.6305347226873037,-0.916676453500986
1773258457188004000,11.878004150390625,-0.35497546743154523,-1.203499225878343,-2.678289819937944
1773258457198030000,11.888030029296875,-0.7311746324166655,-4.411251092386245,-2.2229180417776107
1773258457208056800,11.898056884765625,-0.31555706475675105,-4.755926699599623,-0.7544827350288629
1773258457218083800,11.908083740234375,0.012903612975776194,-4.635555522334576,-0.1419908883988857
1773258457228109800,11.91810986328125,0.08820902932882309,-2.621159527222812,0.014179916521906852
1773258457238137000,11.92813720703125,-0.07935469174385071,-0.04170103371925652,0.0749760382682085
1773258457248163800,11.938163818359374,-0.23143705830723046,0.7640230090513825,0.07782149082720279
1773258457258189800,11.94818994140625,-0.20097206967771053,1.1932070375099777,0.16238134999871254
1773258457268216800,11.958216796875,-0.22630583289861678,1.4308935116007924,0.20651392171382904
1773258457278244000,11.968244140625,-0.24972528693079946,1.3964572812527418,0.2438502574175596
1773258457288270000,11.97827001953125,-0.23163170409649608,1.1192641416817903,0.2177308967769146
1773258457298296800,11.988296875,-0.1806280775681138,0.7296376321077347,0.17057634689211845
1773258457308323800,11.99832373046875,-0.1300011753976345,0.3627934111734852,0.1163683713644743
1773258457318349800,12.008349853515625,-0.0919815336048603,0.14003880448304115,0.056062663483619685
1773258457328376800,12.018376953125,-0.14456132340878247,0.05391556845232844,0.037167993399500845
1773258457338403600,12.028403564453125,-0.17527765645086765,-0.08433105538431554,0.008901099336147307
1773258457348429600,12.0384296875,-0.2640136322632432,-0.0221557542392984,0.01324234341084957
1773258457358456600,12.04845654296875,-0.2940215247750282,-0.058278768630512054,-0.0632382542014122
1773258457368483800,12.05848388671875,-0.24593057082295416,-0.07438333307206631,-0.08588906194865703
1773258457378509800,12.068509765625,-0.20749211909621953,-0.06807232329435646,-0.09627660045027732
1773258457388536600,12.07853662109375,-0.20578911457061766,-0.04633512326069176,-0.10683131221234798
1773258457398563600,12.0885634765625,-0.16294629040509462,-0.05398812223188579,-0.084675009983778
1773258457408589600,12.098589599609374,-0.12991437389701604,-0.07602284390740097,-0.030641221979260443
1773258457418616800,12.108616943359374,-0.14556787010282277,-0.09131024674717336,0.025993103912472722
1773258457428643600,12.1186435546875,-0.15940262644886968,-0.06618026247005909,0.079167644739151
1773258457438669600,12.128669677734376,-0.17993249651938675,0.006621646629460156,0.12646481796503067
1773258457448696600,12.138696533203126,-0.22189649202376602,0.11250117454230785,0.1460872178018093
1773258457458723800,12.148723876953126,-0.2925622658774257,0.16465481135603038,0.12616495823562143
1773258457468749800,12.158749755859375,-0.32904929127544164,0.1143364636780694,0.07848901482522487
1773258457478776600,12.168776611328125,-0.33422347904294725,-0.012771328365616499,-0.04140110092461109
1773258457488803600,12.178803466796875,-0.3355859995678067,-0.14932462882045655,-0.21574118426442146
1773258457498829600,12.18882958984375,-0.3657315469846129,-0.31168201342169194,-0.3439712583363056
1773258457508856800,12.19885693359375,-0.3673667469710111,-0.477773944908753,-0.4200976356834173
1773258457518883600,12.208883544921875,-0.38906507629901166,-0.5105121391672641,-0.45640170572996136
1773258457528909600,12.21890966796875,-0.43232057291865345,-0.4052174254050478,-0.4393675688207149
1773258457538936600,12.2289365234375,-0.46104543988257646,-0.24179624749720094,-0.3344575800597667
1773258457548963800,12.2389638671875,-0.4657034948214888,-0.11205719363447278,-0.21151918265521524
1773258457558989800,12.24898974609375,-0.4651557978108525,-0.030319680141005664,-0.10921206986904143
1773258457569016600,12.2590166015625,-0.4959297062590718,-0.0062887614132836455,-0.030091186881065365
1773258457579043600,12.269043701171874,-0.5213818351626396,-0.034963505625165994,-0.022303017222881315
1773258457589069600,12.279069580078126,-0.49928106251358984,-0.06246286764843389,-0.05317103369534015
1773258457599096800,12.289096923828126,-0.4389434981897473,-0.06376554774483666,-0.10304185680150985
1773258457609123600,12.29912353515625,-0.4342246529743075,-0.006612860534805804,-0.16937340084314345
1773258457619149600,12.309149658203125,-0.40772535310536623,0.10999271711902692,-0.19108371286988257
1773258457629176600,12.319176513671875,-0.35942952423095703,0.26668478770125653,-0.17863748827278614
1773258457639203800,12.329203857421875,-0.30564678837805986,0.412882260944508,-0.14315525600314138
1773258457649229800,12.339229736328125,-0.2116457316443324,0.5417628348143771,-0.0768535225778818
1773258457659256600,12.349256591796875,-0.13235562956929206,0.6350793068174272,-0.0034258827954530714
1773258457669283600,12.35928369140625,-0.05558803170919418,0.6802594148240984,0.05708440774679183
1773258457679309600,12.3693095703125,0.0007765373304486274,0.6994737453166395,0.09636252516806125
1773258457689336800,12.3793369140625,0.011024375100433826,0.7041023549653589,0.10965922911465167
1773258457699363600,12.389363525390625,-0.004691080425679684,0.6948365139700472,0.14209142616391182
1773258457709389600,12.3993896484375,-0.025559096409380436,0.6707184101492166,0.1549625981748104
1773258457719416600,12.40941650390625,-0.038087154071033,0.6646072337925434,0.14958441226780414
1773258457729443800,12.41944384765625,-0.06906856779009103,0.6471376280754805,0.12212825006544589
1773258457739469800,12.4294697265625,-0.07992898450046777,0.6266171103551983,0.07205752047300339
1773258457749496600,12.43949658203125,-0.06372925258874892,0.6003652093760669,0.023993454527854917
1773258457759523600,12.449523681640626,-0.09151596191972494,0.5841093633629382,-0.03656301324367523
1773258457769549600,12.459549560546876,-0.10969167007952928,0.5668580035064369,-0.07194470774829387
1773258457779576800,12.469576904296876,-0.09937836585789918,0.5330102771034464,-0.06748246764242649
1773258457789603600,12.479603515625,-0.10666326216906309,0.4763278012210503,-0.03520575341582298
1773258457799629600,12.489629638671875,-0.10229571460932492,0.43325091257132586,-0.000793196204304695
1773258457809656600,12.499656494140625,-0.08384645020514726,0.4224994726607576,0.028919220492243766
1773258457819683800,12.509683837890625,-0.08474865974187851,0.4258500982629135,0.054169981604814524
1773258457829709800,12.519709716796875,-0.11834259404689072,0.41294604689572006,0.04951192666590214
1773258457839736600,12.529736572265625,-0.13540215765833855,0.3805004789082333,0.043642157849669454
1773258457849763600,12.539763671875,-0.15041881726533174,0.35131380311883986,0.047208910420536994
1773258457859789600,12.54978955078125,-0.13161825520545242,0.32255024811234323,0.05564765294194221
1773258457869816800,12.55981689453125,-0.133909288752079,0.28403390884380786,0.040026305440068244
1773258457879843600,12.569843505859374,-0.17389993835687637,0.26201612003678454,0.013207272097468376
1773258457889869600,12.57986962890625,-0.18093290573358534,0.2348112657143734,0.012808628168702124
1773258457899896600,12.589896484375,-0.18084259710162878,0.2233122953721322,-0.014097498935461044
