time,seconds_elapsed,z,y,x
1773257934701383000,0.0783828125,0.02999267168343067,-0.09627719223499298,0.03134734183549881
1773257934711409000,0.088408935546875,0.02517714351415634,-0.06462312489748001,-0.008046138100326061
1773257934721435000,0.098434814453125,0.024901429191231728,-0.023789096623659134,-0.036906443536281586
1773257934731462000,0.1084619140625,0.030189402401447296,-0.03310509771108627,-0.0602080412209034
1773257934741487900,0.11848779296875,0.042183857411146164,-0.07506295293569565,-0.07335509359836578
1773257934751515000,0.128514892578125,0.04022590443491936,-0.11472780257463455,-0.06397410482168198
1773257934761540900,0.138540771484375,0.03846330940723419,-0.1297292709350586,-0.041542187333106995
1773257934771567900,0.14856787109375,0.03392315283417702,-0.12166149914264679,-0.01515905000269413
1773257934781593900,0.15859375,0.019708605483174324,-0.10703375190496445,0.011084724217653275
1773257934791619800,0.168619873046875,0.0028153774328529835,-0.06391344964504242,0.035631343722343445
1773257934801646800,0.178646728515625,-0.005402375012636185,0.002685896586626768,0.057747840881347656
1773257934811672800,0.1886728515625,-0.011174511164426804,0.052448127418756485,0.08494111150503159
1773257934821699800,0.198699951171875,-0.016050340607762337,0.07708179205656052,0.10536155849695206
1773257934831725800,0.208725830078125,-0.018221616744995117,0.07978277653455734,0.11930160969495773
1773257934841751800,0.218751708984375,-0.019252676516771317,0.08015421777963638,0.1251542866230011
1773257934851779000,0.228779052734375,-0.022675903514027596,0.08627122640609741,0.12115262448787689
1773257934861805000,0.23880517578125,-0.019772371277213097,0.08980312943458557,0.10527786612510681
1773257934871831800,0.248831787109375,-0.015532619319856167,0.09431639313697815,0.08068250864744186
1773257934881857800,0.25885791015625,-0.011473394930362701,0.09119514375925064,0.05602516233921051
1773257934891884800,0.268884765625,-0.0008995807729661465,0.07649529725313187,0.03742058575153351
1773257934901910800,0.278910888671875,0.023313043639063835,0.06782997399568558,0.017551813274621964
1773257934911936800,0.288936767578125,0.04212907701730728,0.04403569549322128,0.0041300151497125626
1773257934921964000,0.298964111328125,0.05645791068673134,0.022358335554599762,-0.004589725285768509
1773257934931990000,0.308989990234375,0.0736938938498497,0.020913036540150642,-0.01380612701177597
1773257934942016800,0.319016845703125,0.08607941120862961,0.02289135940372944,-0.017635677009820938
1773257934952042800,0.329042724609375,0.08870448917150497,0.008847180753946304,-0.017357375472784042
1773257934962068700,0.33906884765625,0.0812954232096672,-0.004660387523472309,-0.016820302233099937
1773257934972096000,0.349095947265625,0.08570561558008194,-0.012025092728435993,-0.012631682679057121
1773257934982122000,0.3591220703125,0.09895937144756317,-0.01876065321266651,-0.014043936505913734
1773257934992149000,0.36914892578125,0.12209851294755936,-0.04788258671760559,-0.013306241482496262
1773257935002175000,0.379175048828125,0.13500137627124786,-0.09875398874282837,-0.007078567054122686
1773257935012201700,0.38920166015625,0.12920740246772766,-0.15583564341068268,-0.0009719389490783215
1773257935022227700,0.399227783203125,0.1161121129989624,-0.19408422708511353,0.011040516197681427
1773257935032254000,0.40925390625,0.1065223291516304,-0.18007813394069672,0.02838967926800251
1773257935042281000,0.419281005859375,0.11327424645423889,-0.153978630900383,0.062417156994342804
1773257935052307000,0.429306884765625,0.14098790287971497,-0.11796469986438751,0.11390192061662674
1773257935062333700,0.439333740234375,0.1843547374010086,-0.12797163426876068,0.18342465162277222
1773257935072359700,0.449359619140625,0.2376192808151245,-0.23067298531532288,0.257713258266449
1773257935082385700,0.4593857421875,0.2905253767967224,-0.3681042194366455,0.3019181787967682
1773257935092413000,0.469412841796875,0.3440764844417572,-0.5161075592041016,0.31358471512794495
1773257935102439000,0.47943896484375,0.3911207318305969,-0.6457476019859314,0.2898329794406891
1773257935112466000,0.4894658203125,0.4320939779281616,-0.7164270877838135,0.24359437823295593
1773257935122492000,0.499491943359375,0.4523962438106537,-0.7596627473831177,0.18041665852069855
1773257935132518700,0.5095185546875,0.4578048586845398,-0.798561692237854,0.12244096398353577
1773257935142545000,0.519544921875,0.4594850540161133,-0.8323394656181335,0.08482913672924042
1773257935152571000,0.52957080078125,0.4667706787586212,-0.8593702912330627,0.0645129457116127
1773257935162598000,0.539597900390625,0.48329561948776245,-0.868222177028656,0.06804344058036804
1773257935172624000,0.549623779296875,0.4939301609992981,-0.8431974649429321,0.10451942682266235
1773257935182651000,0.55965087890625,0.4987235367298126,-0.7640225887298584,0.16692425310611725
1773257935192676900,0.5696767578125,0.4830210208892822,-0.661679208278656,0.24829021096229553
1773257935202704000,0.579703857421875,0.48785725235939026,-0.5330758094787598,0.33605289459228516
1773257935212729900,0.589729736328125,0.55030757188797,-0.462893545627594,0.4203139841556549
1773257935222755600,0.599755615234375,0.6030595898628235,-0.4954376518726349,0.5193488597869873
1773257935232782800,0.609782958984375,0.6243086457252502,-0.5554813146591187,0.6276846528053284
1773257935242808800,0.619808837890625,0.5940233469009399,-0.5776022672653198,0.7552344799041748
1773257935252835800,0.6298359375,0.5544666051864624,-0.5705544948577881,0.9025919437408447
1773257935262861800,0.63986181640625,0.5296517610549927,-0.5918093323707581,1.0536900758743286
1773257935272887800,0.6498876953125,0.5306656360626221,-0.6729789972305298,1.1740188598632812
1773257935282914600,0.65991455078125,0.5387476086616516,-0.841943085193634,1.2228233814239502
1773257935292940800,0.66994091796875,0.5051712989807129,-1.0038704872131348,1.1617422103881836
1773257935302967800,0.6799677734375,0.44571653008461,-1.0384042263031006,1.0251877307891846
1773257935312993800,0.689993896484375,0.4472009539604187,-1.03147554397583,0.880327582359314
1773257935323020800,0.700020751953125,0.48238644003868103,-0.950037956237793,0.7392314076423645
1773257935333046800,0.710046875,0.5042008757591248,-0.7788038849830627,0.5856897830963135
1773257935343072800,0.72007275390625,0.4825320541858673,-0.6059461236000061,0.42874202132225037
1773257935353099800,0.730099853515625,0.405484139919281,-0.49894216656684875,0.27535751461982727
1773257935363125800,0.740125732421875,0.31886374950408936,-0.504059910774231,0.13076519966125488
1773257935373152800,0.75015283203125,0.22480306029319763,-0.6122614741325378,0.008907470852136612
1773257935383178800,0.7601787109375,0.12020785361528397,-0.7992536425590515,-0.09283743798732758
1773257935393205800,0.770205810546875,-0.008394860662519932,-1.1522740125656128,-0.27378857135772705
1773257935403231700,0.780231689453125,-0.16671445965766907,-1.8683152198791504,-0.6815419793128967
1773257935413257700,0.7902578125,-0.1804579794406891,-2.5678985118865967,-0.9871985912322998
1773257935423284700,0.80028466796875,-0.1542634218931198,-2.7387607097625732,-1.2092273235321045
1773257935433310700,0.810310791015625,-0.14851178228855133,-2.3323781490325928,-1.363942265510559
1773257935443337700,0.820337646484375,-0.138962984085083,-1.7338905334472656,-1.3728783130645752
1773257935453363700,0.83036376953125,-0.15808607637882233,-1.2032378911972046,-1.3107670545578003
1773257935463389700,0.8403896484375,-0.226701021194458,-0.911482036113739,-1.209235429763794
1773257935473416700,0.850416748046875,-0.3470466136932373,-0.7660537362098694,-1.039461374282837
1773257935483442700,0.860442626953125,-0.4828299582004547,-0.6676825284957886,-0.7871944904327393
1773257935493469700,0.8704697265625,-0.5794691443443298,-0.6269212961196899,-0.4460110664367676
1773257935503495700,0.88049560546875,-0.5869875550270081,-0.6390089988708496,-0.039135973900556564
1773257935513522700,0.890522705078125,-0.5123940110206604,-0.7509153485298157,0.3702544569969177
1773257935523549000,0.900548828125,-0.426616370677948,-0.7649803161621094,0.7471140027046204
1773257935533575000,0.910574951171875,-0.38432538509368896,-0.6478058099746704,1.0584388971328735
1773257935543601700,0.9206015625,-0.397256463766098,-0.42100051045417786,1.2891141176223755
1773257935553627600,0.930627685546875,-0.4369058907032013,-0.2562589645385742,1.4249944686889648
1773257935563654700,0.940654541015625,-0.4556303024291992,-0.2830650806427002,1.4844003915786743
1773257935573680600,0.9506806640625,-0.43081068992614746,-0.47571468353271484,1.4637545347213745
1773257935583708000,0.9607080078125,-0.3570615351200104,-0.658772885799408,1.4079740047454834
1773257935593734000,0.97073388671875,-0.2346264272928238,-0.7306814789772034,1.3848116397857666
1773257935603759900,0.980759765625,-0.07746447622776031,-0.6837462186813354,1.4239885807037354
1773257935613786600,0.99078662109375,0.07079876214265823,-0.4364892542362213,1.4954164028167725
1773257935623812600,1.0008125,0.25774312019348145,0.09568211436271667,1.4756261110305786
1773257935633839900,1.01083984375,0.6339330077171326,1.090109944343567,1.2688931226730347
1773257935643865900,1.020865966796875,0.95107102394104,1.9069424867630005,1.0190248489379883
1773257935653892900,1.030892822265625,0.7373301982879639,1.4329546689987183,0.53413325548172
1773257935663918800,1.0409189453125,0.6969002485275269,1.1571762561798096,-0.1640818566083908
1773257935673944800,1.05094482421875,1.0107077360153198,1.5993717908859253,-0.40276768803596497
1773257935683971600,1.0609716796875,1.2708525657653809,1.9064712524414062,-0.5631561279296875
1773257935693997800,1.070997802734375,1.115875244140625,1.825069546699524,-0.7357134819030762
1773257935704024800,1.08102490234375,0.816736102104187,1.8541594743728638,-0.8964055776596069
1773257935714050800,1.09105078125,0.5796130299568176,2.2697811126708984,-1.0367586612701416
1773257935724077800,1.101077880859375,0.437225341796875,2.296915292739868,-1.3401103019714355
1773257935734103600,1.111103515625,0.36557164788246155,2.063373565673828,-1.7616746425628662
1773257935744130800,1.121130859375,0.34395158290863037,1.7880276441574097,-2.2692975997924805
1773257935754156800,1.13115673828125,0.3327524662017822,1.7920162677764893,-2.7544662952423096
1773257935764182800,1.141182861328125,0.28579282760620117,2.219501495361328,-3.115870714187622
1773257935774209800,1.151209716796875,0.2820958197116852,2.8317227363586426,-3.2974963188171387
1773257935784235800,1.16123583984375,0.33799880743026733,3.3962559700012207,-3.24491810798645
1773257935794262500,1.171262451171875,0.31236106157302856,3.7796294689178467,-3.043433904647827
1773257935804288500,1.18128857421875,0.2683340609073639,4.025393962860107,-2.7775142192840576
1773257935814315800,1.191315673828125,0.22727982699871063,4.163755893707275,-2.476890802383423
1773257935824341800,1.201341796875,0.32990339398384094,1.620023250579834,-1.9102050065994263
1773257935834367700,1.21136767578125,0.5660839080810547,-0.6196547150611877,-1.3390538692474365
1773257935844394800,1.221394775390625,0.9062156677246094,-1.9936177730560303,-0.8458648920059204
1773257935854420700,1.231420654296875,1.1648787260055542,-2.0971357822418213,-0.4561387002468109
1773257935864447700,1.24144775390625,1.3316787481307983,-1.5686792135238647,-0.12249010801315308
1773257935874473700,1.2514736328125,1.476363182067871,-1.0785596370697021,0.20286348462104797
1773257935884500700,1.261500732421875,1.5520267486572266,-0.5265398621559143,0.5609833598136902
1773257935894526700,1.271526611328125,1.2636277675628662,0.5527026653289795,1.0144104957580566
1773257935904553700,1.2815537109375,0.5539156794548035,1.7065069675445557,1.4296573400497437
1773257935914579700,1.291579833984375,-0.17698167264461517,2.2038869857788086,1.7058074474334717
1773257935924606000,1.30160595703125,-0.6650296449661255,1.961503267288208,1.8932311534881592
1773257935934632700,1.3116328125,-0.9618895649909973,0.9533390998840332,2.0758423805236816
1773257935944658700,1.32165869140625,-1.1320414543151855,0.6336464881896973,2.303903341293335
1773257935954685700,1.331685791015625,-1.2188208103179932,0.4808042347431183,2.5966804027557373
1773257935964711700,1.341711669921875,-1.186811923980713,0.31196290254592896,2.8932199478149414
1773257935974737700,1.351737548828125,-1.093192219734192,-0.1929527074098587,3.17901611328125
1773257935984765000,1.361764892578125,-1.032177209854126,-0.7379204630851746,3.434443950653076
1773257935994791000,1.371791015625,-1.030532956123352,-1.218626618385315,3.6842777729034424
1773257936004817700,1.381817626953125,-0.9310752749443054,-0.9257810115814209,3.4755795001983643
1773257936014843600,1.39184375,0.01552134845405817,2.8944876194000244,0.7424485087394714
1773257936024870700,1.40187060546875,0.13288822770118713,1.8608750104904175,-0.47706788778305054
1773257936034897000,1.41189697265625,-0.36779510974884033,-0.002371598035097122,-0.9708533883094788
1773257936044924000,1.421923828125,-0.3386361300945282,-0.463379830121994,-1.6184176206588745
1773257936054950000,1.431949951171875,0.06942940503358841,-0.7143872976303101,-2.1422278881073
1773257936064975600,1.4419755859375,0.07351141422986984,-0.8836559057235718,-2.3162155151367188
1773257936075002600,1.452002685546875,-0.22033192217350006,-0.6578813791275024,-2.2018070220947266
1773257936085028600,1.462028564453125,-0.563269317150116,-0.3843134045600891,-1.8262410163879395
1773257936095056000,1.472055908203125,-0.7393279671669006,0.031810589134693146,-1.3080018758773804
1773257936105081900,1.482081787109375,-0.7662657499313354,0.5777729749679565,-0.6692624092102051
1773257936115108600,1.492108642578125,-0.7306251525878906,1.1929653882980347,0.03265518695116043
1773257936125134600,1.502134521484375,-0.5946398973464966,1.65595281124115,0.6837586760520935
1773257936135160600,1.51216064453125,-0.4512936472892761,1.934738039970398,1.087950587272644
1773257936145187800,1.522187744140625,-0.3286975026130676,2.059887409210205,1.159629464149475
1773257936155213800,1.5322138671875,-0.1895742416381836,2.1253960132598877,1.0361464023590088
1773257936165240800,1.54224072265625,-0.20541292428970337,1.7582582235336304,0.8672676086425781
1773257936175266800,1.552266845703125,-0.39834192395210266,1.6978135108947754,0.6978341341018677
1773257936185293600,1.56229345703125,-0.45400720834732056,1.823186993598938,0.478353351354599
1773257936195319600,1.572319580078125,-0.46876031160354614,1.769850492477417,0.253568172454834
1773257936205346800,1.582346923828125,-0.5080331563949585,1.6389237642288208,0.048373498022556305
1773257936215372800,1.592372802734375,-0.5371567010879517,1.553060531616211,-0.15318571031093597
1773257936225399300,1.6023994140625,-0.556938648223877,1.5539859533309937,-0.3466382324695587
1773257936235426300,1.61242626953125,-0.5450846552848816,1.484161615371704,-0.5425212383270264
1773257936245452300,1.622452392578125,-0.5539554357528687,1.1909416913986206,-0.5658078193664551
1773257936255479300,1.632479248046875,-0.5693128108978271,1.0319427251815796,-0.41643592715263367
1773257936265505300,1.64250537109375,-0.4496239423751831,0.8990532755851746,-0.24699845910072327
1773257936275532300,1.6525322265625,-0.31557798385620117,0.737248957157135,-0.06608487665653229
1773257936285558300,1.662558349609375,-0.15433482825756073,0.625933051109314,0.12717624008655548
1773257936295585300,1.672585205078125,0.01546085998415947,0.5105409622192383,0.26996853947639465
1773257936305611000,1.682611083984375,0.19359269738197327,0.386597603559494,0.29712650179862976
1773257936315637200,1.69263720703125,0.36649176478385925,0.27315840125083923,0.22666192054748535
1773257936325664300,1.702664306640625,0.5030412077903748,0.1217421442270279,0.078263059258461
1773257936335690200,1.712690185546875,0.582824170589447,0.03921930864453316,-0.10458958148956299
1773257936345717200,1.72271728515625,0.6206323504447937,-0.02925778552889824,-0.2666577398777008
1773257936355743200,1.7327431640625,0.6186853647232056,-0.15218770503997803,-0.3463522791862488
1773257936365770200,1.742770263671875,0.5943970084190369,-0.19567114114761353,-0.3592533767223358
1773257936375796200,1.752796142578125,0.5526506304740906,-0.2506510317325592,-0.32034832239151
1773257936385822200,1.762822265625,0.536092221736908,-0.1977398842573166,-0.22185328602790833
1773257936395849200,1.77284912109375,0.5467797517776489,0.0008461787365376949,-0.07055191695690155
1773257936405875200,1.782875244140625,0.5687421560287476,0.219283789396286,0.10379455983638763
1773257936415902200,1.792902099609375,0.5488989353179932,0.35790371894836426,0.19557534158229828
1773257936425928400,1.802928466796875,0.49603161215782166,0.25774556398391724,0.11748457700014114
1773257936435955200,1.812955078125,0.428872287273407,-0.12505079805850983,-0.08144422620534897
1773257936445981200,1.822981201171875,0.37891194224357605,-0.47725149989128113,-0.26441988348960876
1773257936456008200,1.83300830078125,0.3374273478984833,-0.574052095413208,-0.41212546825408936
1773257936466034200,1.8430341796875,0.23410075902938843,-0.6187030076980591,-0.5629823803901672
1773257936476060200,1.85306005859375,0.062215808779001236,-0.6942030787467957,-0.6943521499633789
1773257936486087400,1.86308740234375,-0.060622915625572205,-0.6485093832015991,-0.7132242321968079
1773257936496113400,1.873113525390625,-0.04921313375234604,-0.3633729815483093,-0.5951734781265259
1773257936506140200,1.88314013671875,0.03458535671234131,0.04332101717591286,-0.4073484539985657
1773257936516166100,1.893166259765625,0.09385321289300919,0.28590622544288635,-0.2771233320236206
1773257936526193200,1.903193115234375,0.047161608934402466,0.28693652153015137,-0.29924917221069336
1773257936536219400,1.913219482421875,-0.0984957292675972,0.15162131190299988,-0.43314412236213684
1773257936546246400,1.923246337890625,-0.2061668336391449,0.03878149762749672,-0.6134337186813354
1773257936556272400,1.9332724609375,-0.27170267701148987,-0.08507173508405685,-0.7863724827766418
1773257936566298400,1.94329833984375,-0.36620593070983887,-0.19934605062007904,-0.8884187340736389
1773257936576325000,1.9533251953125,-0.4937804043292999,-0.26155030727386475,-0.8960627913475037
1773257936586351000,1.96335107421875,-0.5465987324714661,-0.08046619594097137,-0.820220947265625
1773257936596378400,1.97337841796875,-0.4735163152217865,0.30355602502822876,-0.7407426238059998
1773257936606404400,1.983404296875,-0.3922373056411743,0.7072147130966187,-0.7041322588920593
1773257936616431400,1.993431396484375,-0.2437700629234314,0.7258174419403076,-0.7520425319671631
1773257936626457000,2.00345703125,0.05639375373721123,0.4748171269893646,-0.6246792078018188
1773257936636484000,2.013484130859375,0.35374873876571655,0.3386278450489044,-0.23387283086776733
1773257936646510000,2.023510009765625,0.6212447881698608,0.32625389099121094,0.17427986860275269
1773257936656536300,2.033536376953125,0.8038920760154724,0.43396010994911194,0.39802852272987366
1773257936666563300,2.043563232421875,0.8876392841339111,0.6392621994018555,0.38382309675216675
1773257936676589300,2.05358935546875,0.9022709727287292,0.6097235083580017,0.22551575303077698
1773257936686616000,2.063615966796875,0.900845468044281,0.4718826413154602,0.06817935407161713
1773257936696642000,2.07364208984375,0.9569854736328125,0.413472056388855,-0.07336419820785522
1773257936706669300,2.08366943359375,1.0332351922988892,0.3773086965084076,-0.17927777767181396
1773257936716695300,2.0936953125,1.0847716331481934,0.37656888365745544,-0.24382054805755615
1773257936726722300,2.103722412109375,1.055863380432129,0.36531177163124084,-0.25939124822616577
1773257936736748300,2.113748291015625,0.9733163714408875,0.3552042841911316,-0.24776893854141235
1773257936746774300,2.123774169921875,0.8840287327766418,0.3807661235332489,-0.31120243668556213
1773257936756801000,2.133801025390625,0.8022199273109436,0.3910161256790161,-0.4335693418979645
1773257936766827300,2.1438271484375,0.7633141279220581,0.40734928846359253,-0.5354657173156738
1773257936776854300,2.153854248046875,0.7510287165641785,0.4233687222003937,-0.5810691118240356
1773257936786880300,2.16388037109375,0.7495085000991821,0.43159985542297363,-0.5908998847007751
1773257936796907300,2.1739072265625,0.7629561424255371,0.4971170723438263,-0.5753520727157593
1773257936806933200,2.183933349609375,0.79942387342453,0.5858839750289917,-0.5429936051368713
1773257936816960300,2.193960205078125,0.8639311790466309,0.6542826294898987,-0.5244613885879517
1773257936826986200,2.203986328125,0.93953937292099,0.731454074382782,-0.5316089987754822
1773257936837012200,2.21401220703125,1.0118331909179688,0.7440124750137329,-0.5713540315628052
1773257936847039200,2.224039306640625,0.9982002377510071,0.7127662301063538,-0.6537714004516602
1773257936857065200,2.234065185546875,0.917579710483551,0.6261188983917236,-0.7528061270713806
1773257936867092200,2.24409228515625,0.8455319404602051,0.4725763201713562,-0.7999006509780884
1773257936877118500,2.254118408203125,0.8652212023735046,0.31034108996391296,-0.7170225381851196
1773257936887145200,2.264145263671875,0.9407474398612976,0.24242909252643585,-0.5342051982879639
1773257936897171200,2.274171142578125,1.0031373500823975,0.24142028391361237,-0.3511442542076111
1773257936907198200,2.2841982421875,1.0427719354629517,0.3113112449645996,-0.2743631601333618
1773257936917224200,2.29422412109375,1.038333535194397,0.36151397228240967,-0.3063195049762726
1773257936927250200,2.304250244140625,1.089766502380371,0.5151154398918152,-0.43937408924102783
1773257936937277400,2.31427734375,1.177626609802246,0.6053315997123718,-0.6351494193077087
1773257936947303200,2.32430322265625,1.2066410779953003,0.6046714782714844,-0.8137525320053101
1773257936957330200,2.334330078125,1.0867844820022583,0.42313629388809204,-0.9038645625114441
1773257936967356200,2.344356201171875,0.9838008880615234,0.16406095027923584,-0.820013701915741
1773257936977383200,2.354383056640625,1.0112708806991577,0.10387937724590302,-0.6567097306251526
1773257936987409400,2.364409423828125,1.0773998498916626,0.18069733679294586,-0.522607147693634
1773257936997436200,2.374436279296875,1.1034791469573975,0.2900722920894623,-0.4498237371444702
1773257937007462100,2.384462158203125,1.0606412887573242,0.38546815514564514,-0.42391151189804077
1773257937017488100,2.394488037109375,1.002341389656067,0.3585025668144226,-0.4332810342311859
1773257937027515100,2.40451513671875,0.8673117756843567,0.24706345796585083,-0.4726511836051941
1773257937037541000,2.414541015625,0.7113919854164124,0.15099790692329407,-0.5422019958496094
1773257937047568400,2.424568359375,0.5975802540779114,0.04227708652615547,-0.597408652305603
1773257937057594400,2.434594482421875,0.5446096658706665,-0.06293908506631851,-0.5912074446678162
1773257937067621000,2.44462109375,0.5312414169311523,-0.1925741285085678,-0.5254683494567871
1773257937077647000,2.454647216796875,0.5508350729942322,-0.32092705368995667,-0.4529544711112976
1773257937087674000,2.464674072265625,0.5848633050918579,-0.4315604567527771,-0.40552830696105957
1773257937097700400,2.474700439453125,0.5973905324935913,-0.5596451759338379,-0.3584319055080414
1773257937107727400,2.484727294921875,0.588676393032074,-0.7214309573173523,-0.2280038297176361
1773257937117753300,2.49475341796875,0.6634233593940735,-0.9971773624420166,0.05476633459329605
1773257937127779300,2.504779296875,0.8101686835289001,-1.3126991987228394,0.460429310798645
1773257937137806000,2.51480615234375,0.9608537554740906,-1.4043306112289429,0.9284932017326355
1773257937147832000,2.52483203125,1.0279104709625244,-1.2872893810272217,1.3527852296829224
1773257937157859300,2.534859375,1.0131003856658936,-0.9869338870048523,1.6790657043457031
1773257937167885300,2.54488525390625,0.8959764838218689,-0.636714518070221,1.8620810508728027
1773257937177912300,2.554912353515625,0.6708381772041321,-0.3705368936061859,1.8967639207839966
1773257937187938300,2.564938232421875,0.4674869477748871,-0.06271123141050339,1.7716997861862183
1773257937197965000,2.574965087890625,0.345594584941864,0.21557818353176117,1.4835926294326782
1773257937207991300,2.5849912109375,0.29080504179000854,0.4296762943267822,1.06641685962677
1773257937218018600,2.5950185546875,0.2773890793323517,0.6622424125671387,0.5449897646903992
1773257937228044500,2.60504443359375,0.32671207189559937,0.6686652898788452,-0.004079577978700399
1773257937238070800,2.61507080078125,0.4246636629104614,0.5532553195953369,-0.4847415089607239
1773257937248097500,2.62509765625,0.5188623666763306,0.378448486328125,-0.8323294520378113
1773257937258123500,2.63512353515625,0.5767035484313965,0.20779764652252197,-0.9718852043151855
1773257937268150500,2.645150634765625,0.6316859722137451,0.176974356174469,-0.9412314891815186
1773257937278176500,2.655176513671875,0.7350725531578064,0.2999197244644165,-0.7998724579811096
1773257937288203800,2.665203857421875,0.8527852892875671,0.4936118721961975,-0.6188834309577942
1773257937298229800,2.675229736328125,0.9934603571891785,0.5475560426712036,-0.41981321573257446
1773257937308256500,2.685256591796875,1.1233341693878174,0.45562106370925903,-0.22532549500465393
1773257937318282500,2.695282470703125,1.1266793012619019,0.41040778160095215,-0.05459129437804222
1773257937328308500,2.70530859375,0.9807044863700867,0.4960828721523285,0.03021792694926262
1773257937338335500,2.71533544921875,0.7688750624656677,0.5540521740913391,-0.028887737542390823
1773257937348361700,2.72536181640625,0.5870752334594727,0.5365278720855713,-0.24125435948371887
1773257937358388700,2.735388671875,0.4502739906311035,0.5389454960823059,-0.515267550945282
1773257937368414700,2.745414794921875,0.29355913400650024,0.5335796475410461,-0.7406750321388245
1773257937378441500,2.75544140625,0.1244441419839859,0.490879625082016,-0.8419182896614075
1773257937388467500,2.765467529296875,0.004810643848031759,0.6492587327957153,-0.8384971618652344
1773257937398494700,2.77549462890625,0.04413780942559242,0.9013373255729675,-0.7332452535629272
1773257937408520700,2.785520751953125,0.1929653286933899,1.0347838401794434,-0.542068600654602
1773257937418547700,2.795547607421875,0.34139448404312134,1.0116503238677979,-0.33512210845947266
1773257937428573700,2.80557373046875,0.43770846724510193,0.9192580580711365,-0.18598824739456177
1773257937438599700,2.815599609375,0.4539910554885864,0.8443787693977356,-0.14977911114692688
1773257937448626400,2.82562646484375,0.37289732694625854,0.7899259924888611,-0.22296418249607086
1773257937458652700,2.835652587890625,0.22093068063259125,0.7131922841072083,-0.39249300956726074
1773257937468679700,2.8456796875,0.03902271389961243,0.6567830443382263,-0.6253901720046997
1773257937478705700,2.85570556640625,-0.10132721066474915,0.6216711401939392,-0.8416417837142944
1773257937488732700,2.865732666015625,-0.18459223210811615,0.5297180414199829,-0.9957352876663208
1773257937498758700,2.875758544921875,-0.25979164242744446,0.4688864052295685,-1.0733251571655273
1773257937508785700,2.88578564453125,-0.33364754915237427,0.5135698318481445,-1.0760037899017334
1773257937518811600,2.895811767578125,-0.4085167348384857,0.6754793524742126,-1.0198498964309692
1773257937528838700,2.905838623046875,-0.5053766965866089,0.9381104111671448,-0.8985351920127869
1773257937538864600,2.91586474609375,-0.5959311127662659,1.1437503099441528,-0.7084677815437317
1773257937548890600,2.925890625,-0.6420743465423584,1.1528195142745972,-0.5069477558135986
1773257937558917600,2.935917724609375,-0.6886298656463623,1.0487970113754272,-0.3591763973236084
1773257937568943600,2.945943603515625,-0.7571246027946472,0.8688509464263916,-0.3284763991832733
1773257937578970600,2.955970703125,-0.8768630027770996,0.6898527145385742,-0.40710756182670593
1773257937588996600,2.96599658203125,-1.061813473701477,0.5644174814224243,-0.555029034614563
1773257937599023600,2.976023681640625,-1.2626606225967407,0.4719749391078949,-0.6996658444404602
1773257937609049600,2.986049560546875,-1.3949793577194214,0.3478788435459137,-0.7781671285629272
1773257937619076600,2.99607666015625,-1.4439167976379395,0.22445330023765564,-0.7603489756584167
1773257937629102600,3.0061025390625,-1.4010947942733765,0.08871184289455414,-0.6444128751754761
1773257937639128600,3.016128662109375,-1.1941746473312378,0.061489008367061615,-0.39442962408065796
1773257937649155600,3.026155517578125,-0.8748353719711304,-0.22700929641723633,-0.09671711921691895
1773257937659181600,3.036181640625,-0.6183817386627197,-0.5846361517906189,0.04755191132426262
1773257937669208600,3.04620849609375,-0.466024249792099,-0.8388375043869019,0.02191694639623165
1773257937679234600,3.056234619140625,-0.3549123704433441,-0.8706196546554565,0.035529427230358124
1773257937689261600,3.066261474609375,-0.321607381105423,-0.8680461645126343,0.11780880391597748
1773257937699287600,3.07628759765625,-0.35531848669052124,-0.7618967890739441,0.1604904979467392
1773257937709314600,3.086314453125,-0.42920657992362976,-0.529005229473114,0.21151991188526154
1773257937719340500,3.096340576171875,-0.5042163729667664,-0.3279546797275543,0.312788724899292
1773257937729367800,3.106367919921875,-0.5549420714378357,-0.08328918367624283,0.4431304335594177
1773257937739393800,3.116393798828125,-0.5574899315834045,0.2093818336725235,0.5943667888641357
1773257937749420500,3.126420654296875,-0.5138658881187439,0.47956186532974243,0.7342013120651245
1773257937759446500,3.136446533203125,-0.4452064335346222,0.6068643927574158,0.8342443108558655
1773257937769472500,3.146472412109375,-0.3817487955093384,0.593733012676239,0.8839976191520691
1773257937779499500,3.15649951171875,-0.35349318385124207,0.549720048904419,0.8735391497612
1773257937789525500,3.166525390625,-0.3563651442527771,0.48720628023147583,0.793371856212616
1773257937799552800,3.176552734375,-0.35665038228034973,0.3706980347633362,0.6348253488540649
1773257937809578800,3.186578857421875,-0.35712260007858276,0.19851943850517273,0.40966105461120605
1773257937819605500,3.19660546875,-0.33455362915992737,-0.13908575475215912,0.1120983138680458
1773257937829631500,3.206631591796875,-0.5355634093284607,-0.4739658534526825,-0.3323872983455658
1773257937839658800,3.21665869140625,-0.6698431968688965,-0.41724610328674316,-0.5724382400512695
1773257937849684700,3.226684814453125,-0.6077367663383484,-0.15497727692127228,-0.28607985377311707
1773257937859710700,3.236710693359375,-0.46364858746528625,0.154165118932724,0.22191038727760315
1773257937869737700,3.24673779296875,-0.2561960518360138,0.7046623229980469,0.6091834902763367
1773257937879763700,3.256763671875,0.09859774261713028,1.0275059938430786,0.906456470489502
1773257937889790500,3.26679052734375,0.28015512228012085,1.068245768547058,1.0365016460418701
1773257937899816400,3.27681640625,0.31859493255615234,1.0036505460739136,0.9361998438835144
1773257937909843700,3.28684375,0.33084970712661743,0.8942793011665344,0.6922250390052795
1773257937919869700,3.29686962890625,0.3596254289150238,0.7904495596885681,0.4451335072517395
1773257937929896700,3.306896728515625,0.41067177057266235,0.7839969396591187,0.30926623940467834
1773257937939922700,3.316922607421875,0.518880307674408,0.7967822551727295,0.29710623621940613
1773257937949949400,3.326949462890625,0.639862060546875,0.7966638803482056,0.3651899993419647
1773257937959975700,3.3369755859375,0.746263325214386,0.7626840472221375,0.4476233422756195
1773257937970002700,3.347002685546875,0.8176484107971191,0.6302504539489746,0.5194979906082153
1773257937980028700,3.357028564453125,0.8317112326622009,0.43909886479377747,0.5518958568572998
1773257937990054700,3.3670546875,0.8000404238700867,0.2887493073940277,0.5318565964698792
1773257938000081700,3.37708154296875,0.7724341154098511,0.20043890178203583,0.47312691807746887
1773257938010107400,3.387107421875,0.7414805889129639,0.1796877533197403,0.428832083940506
1773257938020134700,3.397134765625,0.7089436650276184,0.2459288239479065,0.39815381169319153
1773257938030160600,3.40716064453125,0.6777836680412292,0.40374955534935,0.3675420880317688
1773257938040187600,3.417187744140625,0.6223499774932861,0.5810649394989014,0.359311580657959
1773257938050213600,3.427213623046875,0.5446738600730896,0.7176223397254944,0.3700171411037445
1773257938060240400,3.437240478515625,0.48655757308006287,0.8271937966346741,0.3878541886806488
1773257938070266600,3.4472666015625,0.4316057562828064,0.9145892262458801,0.41656240820884705
1773257938080293600,3.457293701171875,0.3724114000797272,0.9033954739570618,0.45088762044906616
1773257938090319600,3.467319580078125,0.3236766457557678,0.7878676652908325,0.4561223089694977
1773257938100345600,3.477345703125,0.25307679176330566,0.632566511631012,0.4219939112663269
1773257938110372600,3.48737255859375,0.15383464097976685,0.42573294043540955,0.3484717309474945
1773257938120398600,3.497398681640625,0.03464006260037422,0.2449117749929428,0.26150035858154297
1773257938130425600,3.507425537109375,-0.1171448603272438,0.16163650155067444,0.19589756429195404
1773257938140451600,3.51745166015625,-0.28190532326698303,0.1230265200138092,0.16179871559143066
1773257938150478600,3.527478515625,-0.4249112904071808,0.11827553063631058,0.1513621211051941
1773257938160504600,3.537504638671875,-0.5438088774681091,0.1722540706396103,0.1724303960800171
1773257938170531600,3.547531494140625,-0.6233335137367249,0.29057568311691284,0.2250579297542572
1773257938180557800,3.557557861328125,-0.6620724201202393,0.4425380527973175,0.315340131521225
1773257938190584600,3.56758447265625,-0.6998037099838257,0.6066529750823975,0.4282607138156891
1773257938200610600,3.577610595703125,-0.733921229839325,0.759861946105957,0.5489853024482727
1773257938210636500,3.587636474609375,-0.6949259042739868,0.7995427250862122,0.6916257739067078
1773257938220666600,3.59766650390625,-0.6387494206428528,0.7737428545951843,0.8424368500709534
1773257938230692600,3.607692626953125,-0.6357619762420654,0.7590317726135254,0.9601628184318542
1773257938240720000,3.617719970703125,-0.717227578163147,0.7793729901313782,1.0285488367080688
1773257938250745900,3.627745849609375,-0.8678057789802551,0.8006314039230347,1.0607000589370728
1773257938260772600,3.637772705078125,-1.0692812204360962,0.8374258875846863,1.0879502296447754
1773257938270798600,3.647798583984375,-1.1746881008148193,0.7016063928604126,1.1034187078475952
1773257938280825900,3.657825927734375,-1.169335961341858,0.4838908314704895,1.0867295265197754
1773257938290851800,3.667851806640625,-1.1038789749145508,0.3219500482082367,1.0208661556243896
1773257938300878800,3.67787890625,-1.0049808025360107,0.16274762153625488,0.9170472621917725
1773257938310904800,3.68790478515625,-0.878520667552948,0.05552512779831886,0.8316970467567444
1773257938320930800,3.697930908203125,-0.7301617860794067,0.05224411189556122,0.7790769338607788
1773257938330957600,3.70795751953125,-0.5255839228630066,0.20518380403518677,0.7609201669692993
1773257938340983600,3.717983642578125,-0.22169435024261475,0.37076371908187866,0.8080205321311951
1773257938351010800,3.7280107421875,0.15960253775119781,0.38630691170692444,0.8496831059455872
1773257938361036800,3.738036865234375,0.510520339012146,0.3034946024417877,0.7914541959762573
1773257938371063800,3.748063720703125,0.7576442360877991,0.08414428681135178,0.5830121636390686
1773257938381089800,3.75808984375,0.8348423838615417,-0.29079604148864746,0.2347487062215805
1773257938391116800,3.76811669921875,0.7217389345169067,-1.036686897277832,-0.2314695119857788
1773257938401142800,3.778142822265625,0.3793155252933502,-1.756355881690979,-0.8156453371047974
1773257938411169800,3.788169677734375,0.09651701152324677,-1.8682767152786255,-1.5280578136444092
1773257938421195800,3.79819580078125,-0.024186769500374794,-2.0847012996673584,-2.018080949783325
1773257938431222800,3.808222900390625,-0.011234906502068043,-2.017951011657715,-2.3092687129974365
1773257938441248800,3.818248779296875,0.10072438418865204,-1.9217864274978638,-2.4175567626953125
1773257938451274800,3.828274658203125,0.21401092410087585,-1.7881743907928467,-2.3943097591400146
1773257938461301800,3.8383017578125,0.2322935163974762,-1.5550724267959595,-2.280151605606079
1773257938471327700,3.84832763671875,0.14487750828266144,-1.2669600248336792,-2.0868051052093506
1773257938481354800,3.858354736328125,0.0815720409154892,-0.9327476620674133,-1.8628448247909546
1773257938491380700,3.868380615234375,0.11461707204580307,-0.622908353805542,-1.6785609722137451
1773257938501407700,3.87840771484375,0.1838182508945465,-0.3627534508705139,-1.5660195350646973
1773257938511433700,3.888433837890625,0.19339920580387115,-0.08863965421915054,-1.4318171739578247
1773257938521460700,3.898460693359375,0.21775168180465698,-0.021076586097478867,-1.157477855682373
1773257938531486700,3.90848681640625,0.24926751852035522,0.01871138997375965,-0.7509409189224243
1773257938541513700,3.918513671875,0.19467857480049133,0.21583670377731323,-0.21187956631183624
1773257938551539700,3.928539794921875,0.040288589894771576,0.44013988971710205,0.44027549028396606
1773257938561566700,3.938566650390625,-0.2499123513698578,0.3116796314716339,1.136647343635559
1773257938571592700,3.9485927734375,-0.6592885255813599,-0.27640897035598755,1.7627009153366089
1773257938581618700,3.95861865234375,-1.0131021738052368,-1.179504156112671,2.0945069789886475
1773257938591645700,3.968645751953125,-1.3096696138381958,-1.3381030559539795,2.0186643600463867
1773257938601671700,3.978671630859375,-1.4981775283813477,-0.9070507884025574,1.346253752708435
1773257938611698700,3.98869873046875,-1.4782198667526245,-0.28909188508987427,0.24196508526802063
1773257938621725000,3.998724853515625,-1.3306173086166382,-0.004107282031327486,-0.8566261529922485
1773257938631751700,4.008751708984375,-1.1453200578689575,-0.05947810038924217,-1.6733980178833008
1773257938641777700,4.018777587890625,-1.0032241344451904,0.005069731269031763,-2.190203905105591
1773257938651804700,4.0288046875,-0.8340416550636292,0.054954055696725845,-2.430302858352661
1773257938661830700,4.03883056640625,-0.6223384737968445,-0.12208065390586853,-2.4366097450256348
1773257938671858000,4.04885791015625,-0.4681163430213928,-0.3246709406375885,-2.2630062103271484
1773257938681884000,4.0588837890625,-0.41513755917549133,-0.5931351780891418,-1.9603346586227417
1773257938691910700,4.06891064453125,-0.3969744145870209,-1.0586702823638916,-1.6007698774337769
1773257938701936600,4.0789365234375,-0.3898448944091797,-1.4575215578079224,-1.2440130710601807
1773257938711962600,4.088962646484375,-0.41550397872924805,-1.2528338432312012,-0.8880900740623474
1773257938721989600,4.09898974609375,-0.47021540999412537,-0.5246017575263977,-0.5118669271469116
1773257938732015900,4.109015869140625,-0.5340350270271301,0.514130711555481,-0.09620542824268341
1773257938742043000,4.11904296875,-0.5992880463600159,1.5967512130737305,0.3852860927581787
1773257938752068900,4.12906884765625,-0.6813914775848389,2.56683611869812,0.8957946300506592
1773257938762095600,4.139095703125,-0.799225926399231,3.3779187202453613,1.3792399168014526
1773257938772121600,4.14912158203125,-1.0006718635559082,3.981595754623413,1.766177773475647
1773257938782148900,4.15914892578125,-1.1997129917144775,4.262705326080322,2.0894618034362793
1773257938792174800,4.1691748046875,-1.3290196657180786,4.04123067855835,2.3633079528808594
1773257938802201900,4.179201904296875,-1.3098257780075073,3.4011828899383545,2.597902297973633
1773257938812227800,4.189227783203125,-1.089733600616455,1.9558987617492676,2.8382785320281982
1773257938822254600,4.199254638671875,-0.44703030586242676,-0.842214047908783,3.070574998855591
1773257938832280600,4.209280517578125,0.6275085806846619,-3.147270917892456,2.920016050338745
1773257938842306800,4.219306884765625,0.29871153831481934,-5.896791458129883,0.2200787365436554
1773257938852333800,4.229333740234375,-0.18290618062019348,-4.2220330238342285,-0.5386518836021423
1773257938862359800,4.23935986328125,-0.2921639680862427,-2.6760921478271484,-0.20753362774848938
1773257938872386800,4.24938671875,-0.41466638445854187,-2.8051395416259766,-0.00022073090076446533
1773257938882412800,4.259412841796875,-0.39089980721473694,-4.087102890014648,0.006147153675556183
1773257938892439800,4.269439697265625,-0.21234168112277985,-5.554112911224365,-0.08887797594070435
1773257938902465800,4.2794658203125,-0.004934436641633511,-6.896720886230469,-0.1649453043937683
1773257938912492800,4.289492919921875,0.1412505805492401,-7.959225654602051,-0.14690251648426056
1773257938922518800,4.299518798828125,0.15639331936836243,-9.933873176574707,-0.79949951171875
1773257938932545500,4.309545654296875,0.15583904087543488,-11.549345970153809,-0.9254727959632874
1773257938942571500,4.319571533203125,0.10653246939182281,-12.564023971557617,-0.31300991773605347
1773257938952598800,4.329598876953125,0.33267053961753845,-13.211871147155762,0.21137341856956482
1773257938962624800,4.339624755859375,0.7941497564315796,-12.108044624328613,-1.0502160787582397
1773257938972650800,4.349650634765625,0.6883637309074402,-5.494589328765869,1.0488032102584839
1773257938982677800,4.359677734375,-0.2245071679353714,-0.8590162396430969,0.9739444851875305
1773257938992703700,4.369703857421875,-0.67952960729599,0.10713522881269455,0.10054970532655716
1773257939002730800,4.379730712890625,-0.6513158082962036,1.3020825386047363,0.24571727216243744
1773257939012756700,4.3897568359375,-0.39680832624435425,2.0922505855560303,-0.41614386439323425
1773257939022783700,4.39978369140625,-0.05652770400047302,2.6914639472961426,-1.0134879350662231
1773257939032809700,4.409809814453125,0.19048961997032166,2.4736292362213135,-0.09621120989322662
1773257939042836700,4.419836669921875,0.057546216994524,0.5391802191734314,0.23692652583122253
1773257939052862700,4.42986279296875,-0.00823348481208086,-0.9624713659286499,0.0670929104089737
1773257939062889700,4.4398896484375,0.023132162168622017,-0.9136825203895569,0.2891707122325897
1773257939072915700,4.449915771484375,-0.017254529520869255,-0.4709802269935608,0.06024789437651634
1773257939082942700,4.459942626953125,-0.024848531931638718,0.2084621787071228,-0.13730140030384064
1773257939092968700,4.46996875,-0.053204383701086044,0.42238593101501465,-0.07125648111104965
1773257939102994700,4.47999462890625,0.01945970021188259,0.13889271020889282,0.03152821958065033
1773257939113022000,4.49002197265625,0.026943141594529152,-0.13075393438339233,0.08109234273433685
1773257939123048000,4.5000478515625,-0.026531534269452095,-0.1127656102180481,0.04378465563058853
1773257939133074700,4.51007470703125,-0.032431647181510925,0.015798009932041168,-0.019068986177444458
1773257939143100700,4.5201005859375,-0.018189597874879837,0.06233461946249008,0.012772299349308014
1773257939153127700,4.530127685546875,0.0004279126296751201,0.00018132198601961136,0.06671793758869171
1773257939163153700,4.540153564453125,0.0029342134948819876,-0.028517168015241623,0.08886158466339111
1773257939173181000,4.550180908203125,-0.006161506287753582,-0.007742529734969139,0.07141198962926865
1773257939183207000,4.56020703125,-0.009114951826632023,0.011492418125271797,0.055938757956027985
1773257939193233700,4.570233642578125,-0.0025123292580246925,-0.0015912782400846481,0.05919249355792999
1773257939203259600,4.580259765625,0.0016198315424844623,-0.009334951639175415,0.06887521594762802
1773257939213286700,4.59028662109375,0.0008209189400076866,-0.000794519204646349,0.07884764671325684
1773257939223308800,4.600308837890625,-0.0011543476721271873,0.0003588958643376827,0.09103107452392578
1773257939233334800,4.610334716796875,-0.003023581113666296,-0.000967654399573803,0.10774902999401093
1773257939243361800,4.62036181640625,-0.013714308850467205,0.0010257214307785034,0.1268787831068039
1773257939253387800,4.6303876953125,-0.02055669203400612,0.0006371070630848408,0.15618440508842468
1773257939263414800,4.640414794921875,-0.02327071875333786,-0.0018667969852685928,0.19029471278190613
1773257939273440800,4.650440673828125,-0.03411373868584633,0.0005696997977793217,0.21513155102729797
1773257939283467800,4.6604677734375,-0.030650831758975983,-0.005868225824087858,0.16697734594345093
1773257939293493800,4.67049365234375,-0.03152594715356827,-0.011172560974955559,0.05778215453028679
1773257939303520800,4.680520751953125,-0.03507567197084427,0.007900732569396496,0.027317188680171967
1773257939313546800,4.690546630859375,-0.02301262691617012,-0.006726762745529413,0.04058877378702164
1773257939323573800,4.70057373046875,-0.0006753633497282863,-0.010038670152425766,0.058255650103092194
1773257939333599700,4.710599853515625,0.0024938764981925488,0.014795243740081787,0.057261426001787186
1773257939343626800,4.720626708984375,0.010828238911926746,0.03544352948665619,0.0648823231458664
1773257939353652700,4.73065283203125,0.05661981552839279,0.03107907995581627,0.13637292385101318
1773257939363679700,4.7406796875,0.06668869405984879,0.029203947633504868,0.22122149169445038
1773257939373705700,4.750705810546875,0.10413460433483124,0.06864430010318756,0.3427119553089142
1773257939383732000,4.76073193359375,0.1358465999364853,0.0569286085665226,0.43302708864212036
1773257939393758700,4.7707587890625,0.1080675944685936,0.022973543033003807,0.4712965488433838
1773257939403784700,4.78078466796875,0.10249599814414978,-0.013499779626727104,0.45964762568473816
1773257939413811700,4.790811767578125,0.09419237822294235,-0.007479793392121792,0.39949148893356323
1773257939423837700,4.800837646484375,0.08604177087545395,0.011653953231871128,0.3225836753845215
1773257939433864700,4.81086474609375,0.07443723827600479,0.02519592083990574,0.25462862849235535
1773257939443890700,4.820890625,0.045566171407699585,0.012608756311237812,0.1621658205986023
1773257939453917700,4.830917724609375,0.03187904506921768,0.01260337047278881,0.07638068497180939
1773257939463943700,4.840943603515625,0.013662224635481834,0.011232108809053898,0.022269777953624725
1773257939473970700,4.850970703125,-0.0022207924630492926,0.004573586396872997,-0.0075720855966210365
1773257939483996700,4.86099658203125,-0.006163336336612701,0.004485169425606728,-0.026606230065226555
1773257939494023700,4.871023681640625,-0.01611754670739174,0.0033622323535382748,-0.03795357793569565
1773257939504049700,4.881049560546875,-0.02479412592947483,0.009976193308830261,-0.04447432607412338
1773257939514076700,4.89107666015625,-0.02402222715318203,0.007902538403868675,-0.05616465583443642
1773257939524102700,4.9011025390625,-0.027173014357686043,0.004376246128231287,-0.06889642775058746
1773257939534128600,4.911128662109375,-0.037004679441452026,0.008498374372720718,-0.0805833637714386
1773257939544156000,4.921156005859375,-0.03773545101284981,0.008614754304289818,-0.06479082256555557
1773257939554182000,4.931181884765625,-0.0363176204264164,-0.00947802234441042,-0.012332902289927006
1773257939564208600,4.941208740234375,-0.03267734497785568,-0.013538544066250324,0.04497832432389259
1773257939574234600,4.951234619140625,-0.015552841126918793,-0.02383074350655079,0.06806515157222748
1773257939584261600,4.96126171875,-0.007385725621134043,-0.012680621817708015,0.04625200107693672
1773257939594287600,4.97128759765625,-0.0056217629462480545,0.0026825936511158943,0.01107601635158062
1773257939604315000,4.98131494140625,-0.0047754100523889065,0.004324698820710182,0.0016255229711532593
1773257939614340900,4.9913408203125,-0.003729546442627907,-0.004208218771964312,0.014871785417199135
1773257939624367600,5.00136767578125,-0.0012205824023112655,-0.008127858862280846,0.019567204639315605
1773257939634393600,5.0113935546875,-0.00070092489477247,-0.0010252967476844788,0.012252487242221832
1773257939644420600,5.021420654296875,-0.0006426016334444284,0.0016178907826542854,0.008021257817745209
1773257939654446800,5.03144677734375,0.003407114651054144,-0.002427835948765278,0.012236926704645157
1773257939664473900,5.041473876953125,0.008871921338140965,-0.0032760528847575188,0.029670245945453644
1773257939674499800,5.051499755859375,0.013435211963951588,-0.005143668502569199,0.04493153095245361
1773257939684525800,5.06152587890625,0.01278912927955389,0.004172334913164377,0.04190165176987648
1773257939694552600,5.071552490234375,0.01838807947933674,-0.001208136323839426,0.04948054626584053
1773257939704578600,5.08157861328125,0.020337512716650963,-0.00621354766190052,0.055455613881349564
1773257939714605800,5.091605712890625,0.016139382496476173,-0.0031130369752645493,0.050705257803201675
1773257939724631800,5.1016318359375,0.016523675993084908,-0.0019234023056924343,0.03436676785349846
1773257939734658800,5.111658935546875,0.0009313654154539108,0.004617112223058939,0.017347609624266624
1773257939744684800,5.121684814453125,-0.003244204679504037,-0.003181955311447382,-0.0057518500834703445
1773257939754711600,5.131711669921875,-0.002966098953038454,-0.004534154199063778,-0.00924707017838955
1773257939764737800,5.14173779296875,-0.0028313430957496166,-0.0012715156190097332,-0.004844599403440952
1773257939774764800,5.151764892578125,-0.00272542261518538,0.0016478071920573711,-0.006512182764708996
1773257939784790800,5.161790771484375,-0.0011144764721393585,0.0017522030975669622,0.002060532569885254
1773257939794817800,5.17181787109375,0.004500420298427343,-0.0024332222528755665,0.010873047634959221
1773257939804843800,5.18184375,0.005090576596558094,-0.00009523332118988037,0.018188485875725746
1773257939814870800,5.191870849609375,0.008084158413112164,0.0009642322547733784,0.020510302856564522
1773257939824896800,5.201896728515625,0.00806258711963892,-0.00445769727230072,0.032749127596616745
1773257939834922800,5.2119228515625,0.014612708240747452,-0.005898674484342337,0.04065544158220291
1773257939844949800,5.22194970703125,0.007885295897722244,-0.002026704605668783,0.02741393819451332
1773257939854975700,5.231975830078125,0.00687306746840477,-0.0003366926684975624,0.02123483642935753
1773257939865002800,5.242002685546875,0.010652093216776848,-0.0024355300702154636,0.027288200333714485
1773257939875028700,5.25202880859375,0.007152051664888859,-0.004914162680506706,0.025105588138103485
1773257939885055700,5.2620556640625,0.003422028385102749,-0.0019974689930677414,0.01724580116569996
1773257939895081700,5.272081787109375,0.0034944661892950535,-0.00135804433375597,0.01069256104528904
1773257939905108700,5.282108642578125,0.0023612913209944963,-0.005381281487643719,0.011229453608393669
1773257939915134700,5.292134765625,0.0006513894186355174,-0.0012974417768418789,0.01083039678633213
1773257939925161700,5.30216162109375,0.0018780414247885346,-0.0013296660035848618,0.012343337759375572
1773257939935187700,5.312187744140625,0.005540839396417141,-0.007985587231814861,0.010949822142720222
1773257939945214700,5.322214599609375,0.001863546553067863,-0.008744588121771812,0.003007209859788418
1773257939955240700,5.33224072265625,-0.003975359257310629,0.0042361048981547356,-0.017770852893590927
1773257939965267700,5.342267822265625,-0.004403063096106052,0.004307211376726627,-0.019754640758037567
1773257939975293700,5.352293701171875,-0.006174065172672272,-0.0031613572500646114,-0.021061722189188004
1773257939985320700,5.36232080078125,-0.01281758677214384,0.0005606762133538723,-0.026788050308823586
1773257939995346700,5.3723466796875,-0.016374966129660606,0.0029076123610138893,-0.03433927148580551
1773257940005372700,5.38237255859375,-0.017764603719115257,0.0041819349862635136,-0.027706937864422798
1773257940015399700,5.392399658203125,-0.018350383266806602,-0.0056621478870511055,-0.021830245852470398
1773257940025425700,5.40242578125,-0.023884432390332222,-0.003353719599545002,-0.004855790175497532
1773257940035453000,5.412452880859375,-0.020762557163834572,-0.006934433709830046,0.021795159205794334
1773257940045479000,5.42247900390625,-0.015133701264858246,-0.016821686178445816,0.04078030213713646
1773257940055505700,5.432505615234375,-0.007862281985580921,-0.015594826079905033,0.03424204885959625
1773257940065531600,5.44253173828125,-0.005653722211718559,-0.004631391726434231,0.015436669811606407
1773257940075558700,5.45255859375,-0.0024849018082022667,0.0020343211945146322,0.008050739765167236
1773257940085584600,5.462584716796875,0.0036233244463801384,0.00026358524337410927,0.01590706594288349
1773257940095612000,5.47261181640625,0.006981036625802517,-0.004461274947971106,0.021405421197414398
1773257940105638000,5.482637939453125,0.0048925853334367275,0.0005987314507365227,0.013854295015335083
1773257940115664600,5.49266455078125,0.0008243077900260687,0.0011389055289328098,0.00794265791773796
1773257940125690600,5.502690673828125,0.001824324717745185,0.00036419183015823364,0.005503468215465546
1773257940135717600,5.512717529296875,0.005570282228291035,-0.004540573339909315,0.010987469926476479
1773257940145744000,5.522743896484375,0.0015158855821937323,-0.007441821042448282,0.01514732837677002
1773257940155769900,5.532769775390625,-0.0020843264646828175,-0.0023357151076197624,0.0038327788934111595
1773257940165796900,5.542796875,-0.0050199287943542,-0.00040226010605692863,-0.009841488674283028
1773257940175822800,5.55282275390625,-0.0031013847328722477,-0.00346353929489851,-0.010294480249285698
1773257940185849600,5.562849609375,-0.0073840138502418995,0.003497431054711342,-0.016714029014110565
1773257940195875600,5.57287548828125,-0.017024165019392967,0.0032392556313425303,-0.019401930272579193
1773257940205902800,5.58290283203125,-0.026284242048859596,-0.003145939204841852,0.026904050260782242
1773257940215928800,5.5929287109375,-0.030444825068116188,-0.03739548474550247,0.07920444756746292
1773257940225956000,5.6029560546875,-0.018441960215568542,-0.042595840990543365,0.06988392025232315
1773257940235982000,5.612982177734375,-0.020379064604640007,-0.02714158035814762,0.01904970034956932
1773257940246009000,5.623009033203125,-0.00965797621756792,0.015088964253664017,-0.014934364706277847
1773257940256035000,5.63303515625,0.0012268953723832965,0.018429366871714592,-0.007843964733183384
1773257940266062300,5.643062255859375,0.005648275371640921,-0.004962774459272623,0.017882172018289566
1773257940276088300,5.65308837890625,-0.005148330703377724,-0.013430800288915634,0.020487429574131966
1773257940286115000,5.663114990234375,-0.008632011711597443,-0.004514271859079599,0.0060046277940273285
1773257940296141000,5.67314111328125,-0.007669238839298487,0.005890281405299902,-0.00010762270539999008
1773257940306168000,5.68316796875,-0.0018156104488298297,-0.0028765788301825523,0.0023217126727104187
1773257940316194000,5.693194091796875,-0.001206774264574051,-0.006274149287492037,0.012893890962004662
1773257940326221300,5.70322119140625,-0.003934916574507952,-0.002646924462169409,0.007676491513848305
1773257940336247300,5.713247314453125,-0.005333038978278637,-0.0006332187913358212,0.006978169083595276
1773257940346273300,5.723273193359375,-0.0038299509324133396,-0.0061105419881641865,0.006016768515110016
1773257940356300000,5.733300048828125,-0.0026929709129035473,-0.004113112576305866,0.0038555385544896126
1773257940366326000,5.743325927734375,-0.0006809526821598411,-0.0008017378859221935,0.005330929532647133
1773257940376353300,5.753353271484375,-0.001715741935186088,0.0008752825669944286,0.0056306906044483185
1773257940386379300,5.763379150390625,-0.004232961684465408,-0.0049836719408631325,0.008751383051276207
1773257940396406300,5.77340625,-0.004441532306373119,-0.0023024138063192368,0.0074400464072823524
1773257940406432300,5.783432373046875,-0.0014904839918017387,-0.0021735168993473053,0.006416593678295612
1773257940416459000,5.793458984375,0.0002777039771899581,-0.00525237200781703,0.005845239385962486
1773257940426485000,5.803485107421875,-0.0018360470421612263,-0.003153801430016756,0.0063403211534023285
1773257940436512300,5.81351220703125,-0.001582051278091967,-0.0016118432395160198,0.004679675213992596
1773257940446538200,5.823538330078125,-0.004669720306992531,-0.00011514686048030853,0.00524692889302969
1773257940456565200,5.833565185546875,-0.001462593674659729,-0.0044827829115092754,0.0020355209708213806
1773257940466591200,5.84359130859375,-0.00202478701248765,-0.001362889539450407,0.006360228173434734
1773257940476618000,5.853617919921875,0.000653253635391593,0.001086619682610035,0.005749084986746311
1773257940486644200,5.863644287109375,0.0012295616324990988,-0.0012255366891622543,0.004637481644749641
1773257940496671200,5.873671142578125,-0.0016048472607508302,-0.004024031106382608,0.004988458007574081
1773257940506697200,5.883697265625,0.00629515340551734,-0.13237935304641724,0.026536360383033752
1773257940516724200,5.89372412109375,0.16257111728191376,-2.406756639480591,0.7223566770553589
1773257940526750200,5.903750244140625,-0.008938046172261238,-1.8450816869735718,1.5478483438491821
1773257940536776200,5.913776123046875,-0.31351974606513977,-1.680987000465393,1.5182695388793945
1773257940546803200,5.92380322265625,-0.3202599287033081,-0.9893558025360107,1.0137277841567993
1773257940556829200,5.9338291015625,-0.14752201735973358,-0.41597238183021545,0.2683960795402527
1773257940566856200,5.943856201171875,0.09795351326465607,-0.012679246254265308,-0.2017461508512497
1773257940576882200,5.953882080078125,0.1546480506658554,0.31783464550971985,-0.18394064903259277
1773257940586909000,5.963908935546875,0.00846981443464756,0.28830018639564514,-0.08204969763755798
1773257940596935200,5.97393505859375,-0.066102534532547,0.07175535708665848,-0.009429162368178368
1773257940606962200,5.983962158203125,-0.03498749062418938,-0.12542642652988434,0.03346823900938034
1773257940616988200,5.99398828125,-0.0429411344230175,-0.021371664479374886,0.07737642526626587
1773257940627015200,6.00401513671875,-0.06500329822301865,0.1061391532421112,0.07656416296958923
1773257940637041200,6.014041259765625,-0.05543208494782448,0.07426289469003677,0.1385427713394165
1773257940647068200,6.024068115234375,-0.03439364582300186,-0.013802248984575272,0.20548053085803986
1773257940657094100,6.03409423828125,-0.007204830180853605,0.14491485059261322,0.17343752086162567
1773257940667121200,6.04412109375,-0.03673475980758667,0.5568326711654663,-0.1623910814523697
1773257940677147100,6.054147216796875,0.02240329049527645,0.6642675399780273,-0.4343968629837036
1773257940687174100,6.064174072265625,0.08774341642856598,0.638744056224823,-0.10651114583015442
1773257940697200000,6.0742001953125,-0.11872599273920059,0.8666208386421204,-0.3157905042171478
1773257940707227100,6.08422705078125,-0.10147589445114136,0.7877457141876221,-0.4474220275878906
1773257940717253000,6.094253173828125,0.2859847843647003,-0.35861101746559143,0.19431906938552856
1773257940727280000,6.104280029296875,0.4923555254936218,-1.2391316890716553,0.7793982028961182
1773257940737306000,6.11430615234375,0.5142665505409241,-1.0585743188858032,0.7758526802062988
1773257940747333000,6.1243330078125,0.5309445858001709,-0.24146698415279388,0.36476099491119385
1773257940757359400,6.134359375,0.5047332644462585,0.26014283299446106,-0.11822781711816788
1773257940767386000,6.14438623046875,0.4299336075782776,0.5395179986953735,-0.4493063986301422
1773257940777412000,6.154412109375,0.43471968173980713,0.40742817521095276,-0.6669057011604309
1773257940787438000,6.16443798828125,0.49540433287620544,0.2589774429798126,-0.8296104669570923
1773257940797465000,6.174465087890625,0.5454769730567932,0.10821042209863663,-1.092673897743225
1773257940807491000,6.184490966796875,0.6534479260444641,-0.17185771465301514,-1.3544721603393555
1773257940817518300,6.194518310546875,0.7728613615036011,-0.5056630969047546,-1.5235965251922607
1773257940827544300,6.20454443359375,0.7649312615394592,-0.7347657680511475,-1.6719084978103638
1773257940837571000,6.214571044921875,0.678674042224884,-0.8081265687942505,-1.846381425857544
1773257940847597000,6.22459716796875,0.5942294597625732,-0.7066894173622131,-1.9762288331985474
1773257940857624000,6.2346240234375,0.5130516886711121,-0.5128278732299805,-2.075822591781616
1773257940867650300,6.244650390625,0.43713855743408203,-0.753599226474762,-2.2213921546936035
1773257940877677300,6.25467724609375,0.41532188653945923,-0.8353721499443054,-2.3398585319519043
1773257940887703300,6.264703369140625,0.5296780467033386,-0.5968850255012512,-2.353848934173584
1773257940897730000,6.27472998046875,0.6553840041160583,-0.8504427671432495,-2.334507942199707
1773257940907756000,6.284756103515625,0.7529308199882507,-1.4271061420440674,-2.3281102180480957
1773257940917783300,6.294783203125,0.7871676087379456,-1.4186124801635742,-2.296445369720459
1773257940927809300,6.304809326171875,0.7738044261932373,-1.2077683210372925,-2.237314462661743
1773257940937836300,6.314836181640625,0.8634563684463501,-1.0643972158432007,-2.1008880138397217
1773257940947862300,6.3248623046875,0.9332237243652344,-1.0785828828811646,-1.8996472358703613
1773257940957889000,6.334888916015625,0.8504747152328491,-1.2523137331008911,-1.530185341835022
1773257940967915000,6.3449150390625,0.6497322916984558,-1.3280657529830933,-1.0257823467254639
1773257940977942300,6.3549423828125,0.4720427691936493,-1.3082468509674072,-0.4240431785583496
1773257940987968300,6.36496826171875,0.3663325905799866,-1.0348472595214844,0.127836212515831
1773257940997995300,6.374995361328125,0.48274460434913635,-0.5892511010169983,0.4830377399921417
1773257941008021000,6.38502099609375,0.6726617813110352,-0.35664424300193787,0.5284843444824219
1773257941018048000,6.395048095703125,0.82744300365448,-0.5568137764930725,0.3721766173839569
1773257941028074200,6.40507421875,0.9944069385528564,-1.1965093612670898,0.12413087487220764
1773257941038101200,6.415101318359375,1.2684377431869507,-1.9897825717926025,-0.14957624673843384
1773257941048127200,6.425127197265625,1.6194183826446533,-2.837623119354248,-0.41795897483825684
1773257941058154000,6.435154052734375,1.914539098739624,-3.626648187637329,-0.6267991065979004
1773257941068180000,6.445179931640625,1.9888966083526611,-4.101494789123535,-0.6859066486358643
1773257941078207200,6.455207275390625,1.8823107481002808,-4.152652740478516,-0.5627619624137878
1773257941088233200,6.465233154296875,1.709850549697876,-3.8395140171051025,-0.2549003064632416
1773257941098260200,6.47526025390625,1.543605923652649,-3.305417776107788,0.2018473744392395
1773257941108286200,6.4852861328125,1.4701732397079468,-2.7679929733276367,0.7788057923316956
1773257941118313000,6.49531298828125,1.5507330894470215,-2.3513312339782715,1.4298375844955444
1773257941128339000,6.5053388671875,1.7017418146133423,-2.0116279125213623,2.056532382965088
1773257941138366200,6.5153662109375,1.7147434949874878,-2.0770230293273926,2.6903364658355713
1773257941148392200,6.52539208984375,1.5294958353042603,-2.1580891609191895,3.163750410079956
1773257941158419200,6.535419189453125,1.2523711919784546,-2.104166269302368,3.350576639175415
1773257941168445200,6.545445068359375,0.8714457154273987,-1.9700593948364258,3.3018057346343994
1773257941178471200,6.55547119140625,0.3931103050708771,-1.5915495157241821,3.1841483116149902
1773257941188498200,6.565498291015625,-0.11593431234359741,-1.0037556886672974,3.1593563556671143
1773257941198524200,6.575524169921875,-0.5458846688270569,-0.6538963317871094,3.302644729614258
1773257941208551200,6.58555126953125,-0.8976938724517822,-0.6235471963882446,3.6175248622894287
1773257941218577200,6.5955771484375,-1.051391363143921,-0.8350032567977905,3.850883960723877
1773257941228604700,6.605604736328125,-0.9901557564735413,-1.690398097038269,3.481557846069336
1773257941238630700,6.615630615234375,-0.7290120720863342,-2.8717031478881836,2.401965856552124
1773257941248657700,6.62565771484375,-0.24308428168296814,-4.1117939949035645,1.1677764654159546
1773257941258683600,6.63568359375,0.25741660594940186,-4.926446914672852,0.035430483520030975
1773257941268711000,6.6457109375,0.506955087184906,-5.18210506439209,-0.9649079442024231
1773257941278737000,6.65573681640625,0.3540472984313965,-4.878744602203369,-1.6267602443695068
1773257941288763600,6.665763671875,-0.2477610558271408,-4.184630393981934,-1.706264615058899
1773257941298789600,6.67578955078125,-1.1928343772888184,-3.435415029525757,-1.2715122699737549
1773257941308816600,6.685816650390625,-2.1814117431640625,-3.0577497482299805,-0.5395557880401611
1773257941318843000,6.6958427734375,-2.9779319763183594,-3.2282400131225586,0.1661301553249359
1773257941328870000,6.705869873046875,-3.3782758712768555,-3.730299234390259,0.5421589016914368
1773257941338896000,6.715895751953125,-3.3130810260772705,-4.1947340965271,0.5667924284934998
1773257941348922600,6.725922607421875,-2.96893572807312,-3.9563355445861816,0.3796800374984741
1773257941358948600,6.735948486328125,-2.3890466690063477,-2.8926520347595215,0.28383129835128784
1773257941368976000,6.745975830078125,-1.689329981803894,-2.3465871810913086,0.25487157702445984
1773257941379001900,6.756001953125,-1.634084939956665,-2.5762388706207275,-0.09357304126024246
1773257941389028900,6.76602880859375,-1.9226850271224976,-2.780139446258545,-0.4060467779636383
1773257941399054800,6.776054931640625,-2.1026015281677246,-2.801887035369873,-0.45678070187568665
1773257941409081600,6.78608154296875,-2.1841275691986084,-2.6315722465515137,-0.4935099482536316
1773257941419107600,6.796107666015625,-2.1222434043884277,-2.3416085243225098,-0.551982581615448
1773257941429134800,6.806134765625,-1.9323135614395142,-1.8095810413360596,-0.5813489556312561
1773257941439160800,6.816160888671875,-1.7731367349624634,-1.255218267440796,-0.6017160415649414
1773257941449187800,6.826187744140625,-1.7295186519622803,-0.8000948429107666,-0.5355154275894165
1773257941459213800,6.8362138671875,-1.7275675535202026,-0.4251384139060974,-0.29569631814956665
1773257941469240800,6.84624072265625,-1.6823636293411255,0.01546081155538559,0.017492219805717468
1773257941479266800,6.856266845703125,-1.7793351411819458,0.2781277894973755,0.3359357714653015
1773257941489293800,6.8662939453125,-2.1352200508117676,0.32851532101631165,0.5168554782867432
1773257941499319800,6.87631982421875,-2.611891269683838,-0.42402759194374084,0.532696545124054
1773257941509346800,6.886346923828125,-2.930523157119751,-1.4282857179641724,0.32057633996009827
1773257941519372800,6.896372802734375,-2.970578908920288,-1.915360450744629,-0.15300457179546356
1773257941529399800,6.90639990234375,-2.942535638809204,-2.4037046432495117,-0.5729919672012329
1773257941539425800,6.91642578125,-3.009364604949951,-2.890134572982788,-0.8567236661911011
1773257941549452800,6.926452880859375,-3.0697178840637207,-2.606968879699707,-1.2045828104019165
1773257941559478800,6.936478759765625,-3.1027262210845947,-1.9977720975875854,-1.5215270519256592
1773257941569505800,6.946505859375,-3.0226707458496094,-1.9826018810272217,-1.1963624954223633
1773257941579531800,6.95653173828125,-2.7619857788085938,-1.7014708518981934,-0.4812681972980499
1773257941589558800,6.966558837890625,-2.445134162902832,-0.8534626364707947,0.21163196861743927
1773257941599584800,6.976584716796875,-2.1181046962738037,0.14782124757766724,0.709990918636322
1773257941609611800,6.98661181640625,-1.8642014265060425,0.9632156491279602,0.999677836894989
1773257941619637800,6.9966376953125,-1.6756906509399414,1.6878446340560913,1.1101281642913818
1773257941629665000,7.0066650390625,-1.5032371282577515,2.2832887172698975,1.1832356452941895
1773257941639690800,7.016690673828125,-1.2704429626464844,2.7363486289978027,1.3611514568328857
1773257941649717800,7.0267177734375,-0.918256402015686,3.060861587524414,1.6504218578338623
1773257941659743700,7.03674365234375,-0.4707435965538025,3.4094138145446777,1.9023603200912476
1773257941669770800,7.046770751953125,0.033394377678632736,3.8984320163726807,1.9565649032592773
1773257941679796700,7.056796630859375,0.5501353740692139,4.517860412597656,1.7072243690490723
1773257941689823700,7.06682373046875,1.0052517652511597,5.300186634063721,1.1669347286224365
1773257941699849700,7.076849609375,1.3269050121307373,6.159269332885742,0.4351177215576172
1773257941709875700,7.086875732421875,1.5741521120071411,7.0276007652282715,-0.4089573323726654
1773257941719902700,7.09690283203125,1.74253249168396,8.020645141601562,-1.2996495962142944
1773257941729928700,7.1069287109375,1.7971906661987305,8.862537384033203,-2.0814290046691895
1773257941739956000,7.1169560546875,1.7791986465454102,9.24821662902832,-2.7735724449157715
1773257941749982000,7.12698193359375,1.732500672340393,8.734692573547363,-3.4271633625030518
1773257941760008700,7.1370087890625,1.6589760780334473,7.017275810241699,-4.010143756866455
1773257941770034700,7.14703466796875,1.5430811643600464,4.136528968811035,-4.3953471183776855
1773257941780061700,7.157061767578125,1.4433791637420654,0.9654195308685303,-4.390157222747803
1773257941790087700,7.167087646484375,1.3637775182724,-1.1000360250473022,-3.943053722381592
1773257941800115000,7.177114990234375,1.2580593824386597,-1.7680124044418335,-3.127105474472046
1773257941810141000,7.187140869140625,1.0785754919052124,-1.6135298013687134,-1.9118022918701172
1773257941820167700,7.197167724609375,0.8459675312042236,-1.494866132736206,-0.4874074161052704
1773257941830193700,7.207193603515625,0.6462022066116333,-1.4696558713912964,0.8694276213645935
1773257941840220700,7.217220703125,0.4546503722667694,-1.2385283708572388,1.8779940605163574
1773257941850246700,7.22724658203125,0.20811596512794495,-0.7895239591598511,2.47619366645813
1773257941860274000,7.23727392578125,-0.0757334753870964,-0.21689215302467346,2.7411043643951416
1773257941870300000,7.2472998046875,-0.3523474931716919,0.4133073687553406,2.787203550338745
1773257941880326700,7.25732666015625,-0.617495596408844,0.8910278081893921,2.67505145072937
1773257941890352600,7.2673525390625,-0.8310874700546265,1.0838654041290283,2.455984354019165
1773257941900380000,7.2773798828125,-0.9824051856994629,1.0004267692565918,2.1579384803771973
1773257941910406000,7.287406005859375,-1.0812397003173828,0.7713768482208252,1.8072792291641235
1773257941920433000,7.297432861328125,-1.1267110109329224,0.47246232628822327,1.409596562385559
1773257941930459000,7.307458984375,-1.0946297645568848,0.14902779459953308,0.9832351207733154
1773257941940485600,7.317485595703125,-0.988673746585846,-0.04867435246706009,0.5485020279884338
1773257941950511600,7.32751171875,-0.8241896033287048,0.0482950396835804,0.17322467267513275
1773257941960539000,7.337538818359375,-0.6231034994125366,0.38422006368637085,-0.11279972642660141
1773257941970564900,7.34756494140625,-0.32852354645729065,0.6983641982078552,-0.26016175746917725
1773257941980591900,7.357591796875,0.05299973487854004,0.8049920201301575,-0.23774421215057373
1773257941990617900,7.367617919921875,0.42718425393104553,0.727544903755188,-0.07188412547111511
1773257942000644600,7.37764453125,0.714868426322937,0.6099774837493896,0.1564638614654541
1773257942010670800,7.3876708984375,0.8997381329536438,0.5220284461975098,0.36558377742767334
1773257942020696800,7.39769677734375,1.014968991279602,0.4391482174396515,0.5075349807739258
1773257942030722800,7.407722900390625,1.0865519046783447,0.4782330393791199,0.5417011976242065
1773257942040749800,7.417749755859375,1.141722321510315,0.6308412551879883,0.4965253174304962
1773257942050775800,7.42777587890625,1.1778762340545654,0.8531049489974976,0.35821643471717834
1773257942060802800,7.437802734375,1.171958565711975,1.0583393573760986,0.18753516674041748
1773257942070828800,7.447828857421875,1.1161730289459229,1.1721415519714355,0.03007870353758335
1773257942080855800,7.457855712890625,0.9871931672096252,1.1526820659637451,-0.109757199883461
1773257942090881800,7.4678818359375,0.8188891410827637,1.0507954359054565,-0.2183891236782074
1773257942100908800,7.47790869140625,0.6515514850616455,0.916396975517273,-0.29363691806793213
1773257942110934800,7.487934814453125,0.5164538621902466,0.7503576874732971,-0.3142518997192383
1773257942120961800,7.4979619140625,0.4149320721626282,0.6447716951370239,-0.2890952527523041
1773257942130987800,7.50798779296875,0.35045212507247925,0.49084359407424927,-0.22468723356723785
1773257942141014800,7.518014892578125,0.32246652245521545,0.24086353182792664,-0.14877694845199585
1773257942151040800,7.528040771484375,0.34906908869743347,0.02104089967906475,-0.0830802246928215
1773257942161067800,7.53806787109375,0.42672520875930786,-0.0723959282040596,-0.06256026029586792
1773257942171093800,7.54809375,0.5302827954292297,0.026200950145721436,-0.09034954756498337
1773257942181120800,7.558120849609375,0.6458372473716736,0.3423752188682556,-0.13287270069122314
1773257942191146800,7.568146728515625,0.757443368434906,0.7931405305862427,-0.13535423576831818
1773257942201173800,7.578173828125,0.8530827164649963,1.2466027736663818,-0.06799240410327911
1773257942211199700,7.58819970703125,0.9374091029167175,1.6234427690505981,0.043435316532850266
1773257942221226800,7.598226806640625,1.0301783084869385,1.8158451318740845,0.1469913125038147
1773257942231252200,7.608252197265625,1.1309409141540527,1.8019565343856812,0.219350203871727
1773257942241279200,7.618279296875,1.207423210144043,1.720104694366455,0.2621448040008545
1773257942251305200,7.62830517578125,1.2444736957550049,1.686963438987732,0.2668447494506836
1773257942261332200,7.638332275390625,1.2358739376068115,1.7739121913909912,0.23989205062389374
1773257942271358200,7.648358154296875,1.2319886684417725,1.97856867313385,0.17835117876529694
1773257942281385200,7.65838525390625,1.2819091081619263,2.181114912033081,0.08391706645488739
1773257942291411200,7.6684111328125,1.3697001934051514,2.0334861278533936,-0.017128318548202515
1773257942301438200,7.678438232421875,1.4623456001281738,1.0366628170013428,-0.01264444924890995
1773257942311464200,7.688464111328125,1.588019609451294,0.2085951864719391,0.07607636600732803
1773257942321491200,7.6984912109375,1.618686556816101,-0.5603837966918945,0.2849673926830292
1773257942331517200,7.70851708984375,1.4851508140563965,-1.1011877059936523,0.563931405544281
1773257942341544200,7.718544189453125,1.1672773361206055,-1.3938305377960205,0.8496041297912598
1773257942351570200,7.728570068359375,0.7137285470962524,-1.2707536220550537,1.1347053050994873
1773257942361596400,7.738596435546875,0.22303582727909088,-0.5900038480758667,1.420159935951233
1773257942371623200,7.748623046875,-0.1760851889848709,0.4748784005641937,1.67979896068573
1773257942381649200,7.758649169921875,-0.4214453399181366,1.4557945728302002,1.8833255767822266
1773257942391676200,7.76867626953125,-0.5340840220451355,2.2705154418945312,1.961464285850525
1773257942401702100,7.7787021484375,-0.5556550025939941,2.779585838317871,1.862006425857544
1773257942411729400,7.7887294921875,-0.531395435333252,2.786792039871216,1.5936881303787231
1773257942421755400,7.79875537109375,-0.4422704577445984,2.496351957321167,1.1477330923080444
1773257942431782100,7.8087822265625,-0.34580597281455994,1.9643752574920654,0.6763144731521606
1773257942441808100,7.81880810546875,-0.2988583743572235,1.3769315481185913,0.23632818460464478
1773257942451835100,7.828835205078125,-0.3129664659500122,0.7774808406829834,-0.16506612300872803
1773257942461861000,7.838861083984375,-0.4256556034088135,0.3680470287799835,-0.4713901877403259
1773257942471888400,7.848888427734375,-0.6750398874282837,0.48918092250823975,-0.6507492661476135
1773257942481914400,7.858914306640625,-1.0122953653335571,0.8938620686531067,-0.5795398950576782
1773257942491941000,7.868941162109375,-1.3081624507904053,1.0010188817977905,-0.21360209584236145
1773257942501967000,7.878967041015625,-1.5040223598480225,0.9898183941841125,0.316978394985199
1773257942511994400,7.888994384765625,-1.5732529163360596,1.1608576774597168,0.8616805672645569
1773257942522020400,7.899020263671875,-1.5192838907241821,1.4396096467971802,1.3060803413391113
1773257942532047400,7.90904736328125,-1.315923810005188,1.6766160726547241,1.4881103038787842
1773257942542073300,7.9190732421875,-0.9666895866394043,2.0032413005828857,1.27938711643219
1773257942552100000,7.92910009765625,-0.5782448649406433,2.2591726779937744,0.827197790145874
1773257942562126000,7.9391259765625,-0.28660228848457336,2.3443703651428223,0.299788236618042
1773257942572153300,7.9491533203125,-0.11625161021947861,2.450927495956421,-0.24146917462348938
1773257942582179300,7.959179443359375,-0.03810134157538414,2.280945062637329,-0.6857364773750305
1773257942592206300,7.969206298828125,0.0076767983846366405,1.7889238595962524,-0.9987492561340332
1773257942602232300,7.979232421875,0.05854466184973717,0.9670877456665039,-1.1712324619293213
1773257942612259000,7.989259033203125,0.12913841009140015,-1.0124350786209106,-1.6138279438018799
1773257942622285000,7.99928515625,0.00009973184205591679,-1.7912068367004395,-1.6971657276153564
1773257942632312300,8.009312255859374,-0.11233306676149368,-1.9116181135177612,-1.6823358535766602
1773257942642338300,8.01933837890625,-0.1284562647342682,-1.5897760391235352,-1.6603318452835083
1773257942652365300,8.029365234375,-0.1326504796743393,-0.7885881066322327,-1.6344094276428223
1773257942662391300,8.039391357421875,-0.34270158410072327,0.11060348153114319,-1.6474058628082275
1773257942672418300,8.049418212890625,-0.7048576474189758,0.6168868541717529,-1.455620527267456
1773257942682444300,8.0594443359375,-0.9482961297035217,0.7602810263633728,-1.076785683631897
1773257942692470300,8.06947021484375,-0.978017270565033,0.5769562125205994,-0.522480845451355
1773257942702497300,8.079497314453125,-0.7467324733734131,0.5857018232345581,0.06420060992240906
1773257942712523300,8.089523193359375,-0.35751232504844666,0.7719148397445679,0.6197847723960876
1773257942722550300,8.09955029296875,0.0396394208073616,0.8645721077919006,1.0996085405349731
1773257942732576300,8.109576171875,0.33086833357810974,0.7733990550041199,1.4791054725646973
1773257942742603300,8.119603271484374,0.4990714192390442,0.7604082822799683,1.6977592706680298
1773257942752629200,8.129629150390626,0.5415517687797546,0.8898424506187439,1.6921921968460083
1773257942762656300,8.13965625,0.4492824375629425,0.9417102932929993,1.4842276573181152
1773257942772682200,8.14968212890625,0.1503220945596695,0.019166508689522743,1.3798373937606812
1773257942782709200,8.159709228515625,-0.24308903515338898,-0.2012828290462494,1.0727589130401611
1773257942792735200,8.1697353515625,-0.4370774030685425,-0.13688945770263672,0.7329301834106445
1773257942802762200,8.17976220703125,-0.39571020007133484,0.011035852134227753,0.4323905110359192
1773257942812788200,8.189788330078125,-0.12514926493167877,0.13946999609470367,0.29664865136146545
1773257942822815200,8.199815185546875,0.22390224039554596,0.15013620257377625,0.310062974691391
1773257942832841200,8.20984130859375,0.5439502596855164,0.20322418212890625,0.39423325657844543
1773257942842868200,8.2198681640625,0.8658101558685303,0.30262795090675354,0.45982521772384644
1773257942852894200,8.229894287109374,1.159642219543457,0.44718512892723083,0.4223460257053375
1773257942862921200,8.239921142578124,1.3342151641845703,0.708734393119812,0.27137672901153564
1773257942872947200,8.249947265625,1.3511466979980469,0.942606508731842,0.10590332746505737
1773257942882974200,8.25997412109375,1.0721861124038696,1.1450594663619995,0.00507795624434948
1773257942893000200,8.270000244140626,0.5414975881576538,1.1995803117752075,0.03512320667505264
1773257942903027200,8.280027099609375,0.20988012850284576,0.9874641299247742,0.1823870688676834
1773257942913053200,8.29005322265625,0.1255391538143158,0.6999047994613647,0.3644689917564392
1773257942923080200,8.300080078125,0.11742088198661804,0.5706031322479248,0.5518909692764282
1773257942933106200,8.310106201171875,0.11118162423372269,0.6323099136352539,0.6796388030052185
1773257942943133400,8.320133544921875,0.14262686669826508,0.7710580229759216,0.7428146004676819
1773257942953159400,8.330159423828125,0.2863968014717102,0.8950819969177246,0.7266441583633423
1773257942963186200,8.340186279296875,0.4696906507015228,1.0238815546035767,0.646692156791687
1773257942973212200,8.350212158203124,0.5957074165344238,1.1852816343307495,0.5386967062950134
1773257942983238100,8.360238037109376,0.6019420623779297,1.2835872173309326,0.4084051251411438
1773257942993265200,8.37026513671875,0.5264102816581726,1.2363781929016113,0.2519838213920593
1773257943003291100,8.380291015625,0.4773782193660736,1.0609099864959717,0.0684388279914856
1773257943013318400,8.390318359375,0.4891517758369446,0.8275179862976074,-0.09645744413137436
1773257943023344400,8.400344482421875,0.46804681420326233,0.5869764089584351,-0.19461411237716675
1773257943033371100,8.41037109375,0.3928074538707733,0.31401094794273376,-0.21793940663337708
1773257943043397000,8.420397216796875,0.3056398034095764,0.18828335404396057,-0.22555768489837646
1773257943053424400,8.43042431640625,0.2289450466632843,0.21947988867759705,-0.20885539054870605
1773257943063450400,8.440450439453125,0.08840425312519073,0.5318138599395752,-0.0946812778711319
1773257943073477400,8.450477294921875,0.13545644283294678,0.8661090135574341,0.13824518024921417
1773257943083503400,8.46050341796875,0.33500656485557556,0.8588966727256775,0.484365850687027
1773257943093530000,8.470530029296874,0.4557763934135437,0.7348514199256897,0.7528218030929565
1773257943103556000,8.48055615234375,0.42185351252555847,0.43367230892181396,0.8349207639694214
1773257943113583400,8.490583251953124,0.2764691412448883,-0.016775278374552727,0.7459035515785217
1773257943123609300,8.500609375,0.10507005453109741,-0.47001978754997253,0.5298015475273132
1773257943133636400,8.51063623046875,-0.05824004486203194,-0.8102051019668579,0.2973136901855469
1773257943143662300,8.520662353515625,-0.19500920176506042,-1.098070502281189,0.17040646076202393
1773257943153689000,8.530689208984375,-0.3612591624259949,-0.6862598657608032,0.07334010303020477
1773257943163715000,8.540715087890625,-0.29189568758010864,0.3180980980396271,0.00462749321013689
1773257943173742300,8.550742431640625,0.011259401217103004,0.851025402545929,0.0807797834277153
1773257943183768300,8.560768310546875,0.1606735736131668,0.7752642631530762,0.19023682177066803
1773257943193795300,8.57079541015625,0.09884242713451385,0.41339874267578125,0.3001460134983063
1773257943203821000,8.580821044921874,-0.06618209183216095,0.04193278029561043,0.44038212299346924
1773257943213848300,8.590848388671875,-0.1905471831560135,-0.239278644323349,0.6177246570587158
1773257943223874300,8.600874267578124,-0.2987002432346344,-0.4149032533168793,0.851576566696167
1773257943233900300,8.610900390625,-0.4350660741329193,-0.4022079408168793,1.053788423538208
1773257943243927300,8.62092724609375,-0.5020630359649658,-0.4322996437549591,1.1695435047149658
1773257943253953300,8.630953369140625,-0.5042505860328674,-0.6039974093437195,1.163038969039917
1773257943263980300,8.640980224609375,-0.5864441394805908,-0.7439590692520142,1.0631417036056519
1773257943274006300,8.65100634765625,-0.8111741542816162,-0.8654682040214539,0.9058395028114319
1773257943284033300,8.661033203125,-1.0910745859146118,-0.9056376218795776,0.7168906331062317
1773257943294059300,8.671059326171875,-1.3378233909606934,-0.8545824289321899,0.5208303332328796
1773257943304086300,8.681086181640625,-1.5350793600082397,-0.7386984825134277,0.3082295358181
1773257943314112300,8.6911123046875,-1.668810486793518,-0.6359803676605225,0.09080266952514648
1773257943324139300,8.70113916015625,-1.620055079460144,-0.5003862977027893,-0.04482796788215637
1773257943334165200,8.711165283203124,-1.3608099222183228,-0.42305177450180054,-0.04415019229054451
1773257943344192300,8.721192138671874,-1.0607435703277588,-0.8210872411727905,0.187662735581398
1773257943354218200,8.73121826171875,-0.8667988181114197,-0.9846375584602356,0.43430259823799133
1773257943364245200,8.741245361328126,-0.9587831497192383,-1.2107717990875244,0.6303864121437073
1773257943374271500,8.751271484375,-1.2435860633850098,-1.328932523727417,0.7227605581283569
1773257943384298200,8.76129833984375,-1.6643526554107666,-1.1719788312911987,0.605478823184967
1773257943394324200,8.77132421875,-2.129051685333252,-0.681364893913269,0.23678097128868103
1773257943404351200,8.781351318359375,-2.423407554626465,-0.12501730024814606,-0.32306066155433655
1773257943414377200,8.791377197265625,-2.461362838745117,0.3493601381778717,-0.9578977823257446
1773257943424404500,8.801404541015625,-2.265796422958374,0.900441586971283,-1.4950013160705566
1773257943434430500,8.811430419921875,-1.8219234943389893,1.1083166599273682,-1.713811993598938
1773257943444456400,8.82145654296875,-1.262851357460022,0.993633508682251,-1.6827113628387451
1773257943454483200,8.831483154296874,-0.7695591449737549,0.6997965574264526,-1.425139307975769
1773257943464509200,8.84150927734375,-0.4621484875679016,-0.13914282619953156,-0.9450345635414124
1773257943474536200,8.8515361328125,-0.6179900169372559,-1.0608704090118408,-0.669200599193573
1773257943484562400,8.8615625,-0.8255723714828491,-1.6463780403137207,-0.6694534420967102
1773257943494589400,8.87158935546875,-1.1263718605041504,-2.1185433864593506,-1.0221796035766602
1773257943504615400,8.881615478515625,-1.1001019477844238,-1.6521023511886597,-1.3928942680358887
1773257943514642200,8.89164208984375,-0.7641226053237915,-0.7051712274551392,-1.5144832134246826
1773257943524668200,8.901668212890625,-0.24258027970790863,0.35449710488319397,-1.1516048908233643
1773257943534695400,8.9116953125,0.29448288679122925,0.9786022305488586,-0.31694579124450684
1773257943544721400,8.921721435546875,0.6840157508850098,0.8863433599472046,0.7123627662658691
1773257943554748400,8.93174853515625,0.6939743757247925,0.11126074194908142,1.5076367855072021
1773257943564774400,8.9417744140625,0.43245866894721985,-0.9370567202568054,1.744239091873169
1773257943574801200,8.95180126953125,0.005061238072812557,-1.8770692348480225,1.3795114755630493
1773257943584827100,8.9618271484375,-0.5928320288658142,-2.6315839290618896,0.5818186402320862
1773257943594854400,8.9718544921875,-1.1302374601364136,-3.127378463745117,-0.6048944592475891
1773257943604880400,8.98188037109375,-1.4476423263549805,-3.1117818355560303,-1.9279468059539795
1773257943614907400,8.991907470703126,-1.5432729721069336,-2.9353365898132324,-2.8388161659240723
1773257943624933000,9.00193310546875,-1.463780403137207,-2.716902256011963,-3.031527042388916
1773257943634960100,9.011960205078125,-1.3396762609481812,-2.731870174407959,-2.6197705268859863
1773257943644986400,9.021986328125,-1.1590927839279175,-2.7340028285980225,-1.906796932220459
1773257943655013400,9.032013427734375,-0.9672229886054993,-2.535071611404419,-1.2198553085327148
1773257943665039400,9.042039306640625,-0.7912742495536804,-2.093234062194824,-0.7725338339805603
1773257943675065300,9.0520654296875,-0.6269992589950562,-1.5692981481552124,-0.5682268142700195
1773257943685092000,9.062092041015624,-0.5788459777832031,-1.3071907758712769,-0.4912421405315399
1773257943695118000,9.0721181640625,-0.6541186571121216,-1.61941659450531,-0.40848731994628906
1773257943705145300,9.082145263671874,-0.7405107617378235,-2.20444917678833,-0.43338286876678467
1773257943715171300,9.09217138671875,-0.754823625087738,-2.4301412105560303,-0.7554144263267517
1773257943725198300,9.1021982421875,-0.77964848279953,-2.1965346336364746,-1.2495800256729126
1773257943735224300,9.112224365234376,-0.8759641051292419,-1.8491711616516113,-1.681196689605713
1773257943745251000,9.1222509765625,-0.7836672067642212,-1.1028894186019897,-0.43653884530067444
1773257943755277300,9.13227734375,-1.3852968215942383,-1.86424720287323,-0.37104612588882446
1773257943765304300,9.14230419921875,-1.2403640747070312,-0.5009229183197021,-0.5372072458267212
1773257943775330300,9.152330322265625,-1.2059929370880127,0.3625854551792145,-0.6690694093704224
1773257943785357300,9.162357421875,-0.7547698020935059,1.1508498191833496,-0.5634216666221619
1773257943795383300,9.17238330078125,-0.09545950591564178,1.1954580545425415,-0.1332998126745224
1773257943805410300,9.182410400390625,0.6037718057632446,1.7861566543579102,0.041329242289066315
1773257943815436300,9.192436279296874,1.2835116386413574,2.5926198959350586,0.28062599897384644
1773257943825463300,9.20246337890625,1.7765319347381592,2.6714272499084473,0.6526108384132385
1773257943835489300,9.2124892578125,2.0967447757720947,2.2998201847076416,1.0696128606796265
1773257943845516300,9.222516357421876,2.2084412574768066,1.8640990257263184,1.398935317993164
1773257943855542300,9.232542236328126,2.1572582721710205,1.4052456617355347,1.6022181510925293
1773257943865568500,9.242568603515625,2.0250349044799805,0.9788556694984436,1.7030688524246216
1773257943875595300,9.25259521484375,1.8126485347747803,0.6947041153907776,1.6341060400009155
1773257943885621200,9.262621337890625,1.5739471912384033,0.5326981544494629,1.3590131998062134
1773257943895648300,9.272648193359375,1.316633939743042,0.5519594550132751,0.8896185755729675
1773257943905674200,9.28267431640625,1.0851085186004639,0.6439052224159241,0.3420206904411316
1773257943915701500,9.292701416015625,0.9562424421310425,0.731265127658844,-0.11521770805120468
1773257943925727500,9.3027275390625,1.02328360080719,0.8044706583023071,-0.3765186667442322
1773257943935754200,9.312754150390624,1.2343477010726929,0.6661452651023865,-0.3851765990257263
1773257943945780200,9.3227802734375,1.5108917951583862,0.4739239811897278,-0.2788792848587036
1773257943955807200,9.33280712890625,1.8414790630340576,0.4586203992366791,-0.2103329598903656
1773257943965833200,9.342833251953126,2.142112970352173,0.5584276914596558,-0.16313627362251282
1773257943975860500,9.352860595703126,2.386174201965332,0.6293125152587891,-0.08817227929830551
1773257943985886200,9.36288623046875,2.5081489086151123,0.6900010108947754,0.0389457531273365
1773257943995913200,9.372913330078125,2.467097520828247,0.7667331099510193,0.22574439644813538
1773257944005939200,9.382939208984375,2.250775098800659,0.9223620891571045,0.4423711597919464
1773257944015966200,9.39296630859375,1.9070624113082886,1.0646350383758545,0.6934649348258972
1773257944025992400,9.402992431640625,1.525140404701233,1.2098225355148315,0.9506377577781677
1773257944036019200,9.413019287109375,1.179053544998169,1.4228780269622803,1.2239207029342651
1773257944046045200,9.423045166015624,0.8783353567123413,1.4915940761566162,1.4371402263641357
1773257944056071200,9.4330712890625,0.5980336666107178,1.4562063217163086,1.4724409580230713
1773257944066098200,9.44309814453125,0.38133347034454346,1.452707290649414,1.3276530504226685
1773257944076124200,9.453124267578126,0.2666652202606201,1.5689356327056885,1.0689674615859985
1773257944086151400,9.4631513671875,-0.5964816212654114,2.4569716453552246,0.8581218123435974
1773257944096177400,9.473177490234375,-0.42984598875045776,1.7474628686904907,1.028930902481079
1773257944106204200,9.4832041015625,-0.05296698585152626,1.7568072080612183,1.002381682395935
1773257944116230100,9.493230224609375,0.4771842360496521,2.0627269744873047,0.8624449968338013
1773257944126257200,9.503257080078125,1.1178725957870483,2.1187050342559814,0.703697144985199
1773257944136283400,9.513283447265625,1.4070473909378052,2.085482358932495,0.5518996119499207
1773257944146310400,9.523310302734375,1.4737720489501953,2.20147967338562,0.4706844985485077
1773257944156336400,9.53333642578125,1.5321615934371948,2.1982181072235107,0.5252814292907715
1773257944166363100,9.543363037109375,1.6176847219467163,1.6512340307235718,0.6529739499092102
1773257944176389000,9.55338916015625,1.7637311220169067,0.9006417393684387,0.5883022546768188
1773257944186416400,9.56341650390625,1.8532179594039917,0.9932736158370972,0.17875216901302338
1773257944196442400,9.5734423828125,1.6700435876846313,1.01980721950531,-0.2383960634469986
1773257944206469400,9.583469482421876,0.7233985066413879,0.9173536896705627,-0.6104631423950195
1773257944216495400,9.593495361328126,-0.24931040406227112,0.3075638711452484,-0.9990086555480957
1773257944226521300,9.603521240234375,-1.2298599481582642,-0.35325199365615845,-1.5551971197128296
1773257944236547800,9.6135478515625,-1.941171407699585,-1.2775436639785767,-2.22910213470459
1773257944246573800,9.62357373046875,-2.313235282897949,-2.4075729846954346,-2.861314535140991
1773257944256600800,9.633600830078125,-2.3176534175872803,-4.039579391479492,-3.0477592945098877
1773257944266626800,9.643626708984375,-2.071270227432251,-5.628109455108643,-2.749147653579712
1773257944276654000,9.653654052734375,-2.002761125564575,-7.1402411460876465,-2.4827687740325928
1773257944286680000,9.66368017578125,-1.640970230102539,-6.857806205749512,-2.115504741668701
1773257944296706800,9.673706787109374,-1.1333309412002563,-6.04490327835083,-1.1338610649108887
1773257944306732800,9.68373291015625,-0.8319583535194397,-5.130716800689697,0.35177189111709595
1773257944316759800,9.693759765625,0.019451560452580452,-2.7876603603363037,1.4502110481262207
1773257944326785800,9.703785888671876,0.6855188608169556,-0.9625086188316345,2.311544895172119
1773257944336813000,9.71381298828125,0.5922563076019287,0.8344875574111938,2.9858217239379883
1773257944346839000,9.723839111328125,0.5881600379943848,1.7338318824768066,3.7172305583953857
1773257944356865800,9.73386572265625,0.15480303764343262,-0.6818311810493469,4.451565742492676
1773257944366891800,9.743891845703125,-0.3099522590637207,-0.5844740867614746,4.8277587890625
1773257944376918800,9.753918701171875,-0.8098813891410828,-0.2664780616760254,4.068577289581299
1773257944386945000,9.763945068359375,-1.796143651008606,0.22000674903392792,1.8498542308807373
1773257944396972000,9.773971923828125,-2.6281392574310303,0.16073143482208252,-1.1334784030914307
1773257944406998000,9.783998046875,-2.796499013900757,0.6649452447891235,-3.1873130798339844
1773257944417024000,9.79402392578125,-2.6363916397094727,1.9782897233963013,-4.530015468597412
1773257944427050800,9.80405078125,-2.8030123710632324,3.535400390625,-5.209924221038818
1773257944437076700,9.81407666015625,-3.1342239379882812,5.01217794418335,-5.059271812438965
1773257944447104000,9.82410400390625,-3.466238021850586,5.835482597351074,-4.569097995758057
1773257944457130000,9.8341298828125,-3.7205934524536133,5.3194780349731445,-3.895324230194092
1773257944467157000,9.844156982421875,-3.7861311435699463,3.472524881362915,-3.1915183067321777
1773257944477183000,9.854182861328125,-3.470736026763916,2.3496999740600586,-3.0164456367492676
1773257944487209700,9.864209716796875,-2.349458694458008,0.9959253668785095,-2.889852523803711
1773257944497236000,9.874236083984375,-0.8514507412910461,0.5782801508903503,-2.729633092880249
1773257944507263000,9.884262939453125,0.2700076103210449,-0.4829005300998688,-2.493471384048462
1773257944517289000,9.8942890625,1.0529654026031494,-2.5126829147338867,-2.176954507827759
1773257944527316000,9.90431591796875,1.5401675701141357,-1.2377382516860962,-2.0704762935638428
1773257944537342000,9.914342041015624,1.5953212976455688,-0.6886930465698242,-1.3978103399276733
1773257944547369000,9.924368896484374,1.4372913837432861,-0.004478616174310446,-0.16809315979480743
1773257944557395000,9.93439501953125,1.0709136724472046,1.0815714597702026,1.0371675491333008
1773257944567422000,9.944421875,0.7354796528816223,0.6144222617149353,2.10996150970459
1773257944577448000,9.954447998046875,0.4881041646003723,-0.14536237716674805,2.9708991050720215
1773257944587475000,9.964474853515625,0.4595412313938141,-0.8709946870803833,3.7499876022338867
1773257944597501000,9.9745009765625,0.6010400652885437,-2.2039737701416016,4.529178619384766
1773257944607527000,9.98452685546875,0.7978171706199646,-3.752514123916626,5.355282783508301
1773257944617554000,9.994553955078125,1.0364385843276978,-5.069325923919678,6.189242839813232
1773257944627580000,10.004579833984375,1.3581148386001587,-5.485662937164307,6.955526351928711
1773257944637607000,10.01460693359375,1.8356637954711914,-5.341675281524658,7.467734336853027
1773257944647633000,10.0246328125,2.4439051151275635,-5.085071086883545,7.582026481628418
1773257944657660000,10.034659912109374,3.111445426940918,-4.7366437911987305,6.942407608032227
1773257944667686000,10.044685791015626,3.7146503925323486,-4.784404754638672,6.044701099395752
1773257944677713000,10.054712890625,4.212832927703857,-4.839511394500732,5.161054611206055
1773257944687739000,10.06473876953125,4.733944892883301,-5.007776260375977,4.3411455154418945
1773257944697766000,10.074765869140625,5.242495536804199,-4.936360836029053,3.513540267944336
1773257944707792000,10.0847919921875,5.642246246337891,-4.633134841918945,2.6394033432006836
1773257944717819000,10.09481884765625,6.041985034942627,-4.47054386138916,1.698907732963562
1773257944727844900,10.104844970703125,6.581706523895264,-4.497583866119385,0.8125607371330261
1773257944737872000,10.114871826171875,7.234403133392334,-4.448393821716309,0.229092538356781
1773257944747897900,10.12489794921875,7.531624794006348,-3.9277074337005615,-0.1323065161705017
1773257944757923800,10.134923828125,7.3528571128845215,-3.3011558055877686,-0.43160349130630493
1773257944767951000,10.144951171875,7.188027381896973,-2.910661458969116,-0.5732946991920471
1773257944777977000,10.15497705078125,7.122880458831787,-2.1900880336761475,-0.6475606560707092
1773257944788003800,10.16500390625,7.048281192779541,-1.311647653579712,-0.8355725407600403
1773257944798029800,10.17502978515625,6.8891191482543945,-0.34517398476600647,-1.284727931022644
1773257944808056800,10.185056884765626,6.689144134521484,0.7376433610916138,-1.868524193763733
1773257944818082800,10.195082763671875,6.6758599281311035,1.7452986240386963,-2.416696786880493
1773257944828110000,10.205110107421875,6.941583156585693,2.218372106552124,-2.8579695224761963
1773257944838136000,10.215135986328125,7.233119487762451,2.271034002304077,-3.1258089542388916
1773257944848162800,10.225162841796875,7.48914098739624,2.1526432037353516,-3.4950010776519775
1773257944858188800,10.235188720703125,8.013455390930176,2.0988407135009766,-4.136318206787109
1773257944868215800,10.2452158203125,7.9001383781433105,2.774183988571167,-4.8262248039245605
1773257944878242000,10.255241943359374,6.768669128417969,3.432781219482422,-5.586709022521973
1773257944888269000,10.26526904296875,4.303882598876953,3.5346169471740723,-6.559518814086914
1773257944898295000,10.275294921875,3.96659517288208,4.204161167144775,-5.3100385665893555
1773257944908321800,10.28532177734375,4.44964075088501,4.971301555633545,-3.1004607677459717
1773257944918347800,10.29534765625,3.871793746948242,4.9136834144592285,-1.2241588830947876
1773257944928373800,10.305373779296875,2.7106473445892334,3.8103394508361816,0.025794003158807755
1773257944938401000,10.315401123046875,1.8328254222869873,2.112151861190796,0.9958993792533875
1773257944948427000,10.325427001953125,1.4323148727416992,0.7624441385269165,1.783068299293518
1773257944958454000,10.3354541015625,1.4046062231063843,-0.005522837396711111,2.3884053230285645
1773257944968479700,10.345479736328125,1.506022572517395,-0.32157912850379944,2.6953704357147217
1773257944978506800,10.3555068359375,1.5642321109771729,-0.6523666381835938,2.5814976692199707
1773257944988533000,10.365532958984375,1.2252475023269653,-1.454667568206787,2.1135361194610596
1773257944998560000,10.37556005859375,0.3683275580406189,-1.6499407291412354,0.42195412516593933
1773257945008586000,10.3855859375,-0.5206516981124878,-1.4149720668792725,-1.2033644914627075
1773257945018612700,10.39561279296875,-1.4130239486694336,-1.416373372077942,-2.1020936965942383
1773257945028638700,10.405638671875,-2.4334347248077393,-1.8418773412704468,-2.2306950092315674
1773257945038666000,10.415666015625,-2.98533296585083,-2.547403335571289,-1.6264829635620117
1773257945048692000,10.42569189453125,-2.6738264560699463,-3.212606191635132,-0.8212251663208008
1773257945058719000,10.435718994140625,-2.254241943359375,-3.8091931343078613,-0.12298024445772171
1773257945068745000,10.445744873046875,-2.251183032989502,-4.814474105834961,0.4558423161506653
1773257945078771700,10.455771728515625,-2.4059629440307617,-5.401409149169922,1.026885747909546
1773257945088797700,10.465797607421875,-2.3634235858917236,-5.371135711669922,1.5034295320510864
1773257945098824000,10.475823974609375,-2.056609630584717,-5.096263885498047,1.767745018005371
1773257945108851000,10.485850830078125,-1.7004432678222656,-4.797825336456299,1.8467577695846558
1773257945118877000,10.495876953125,-1.4449920654296875,-4.4815192222595215,1.6886786222457886
1773257945128904000,10.505904052734374,-1.3609941005706787,-4.071951389312744,1.4249205589294434
1773257945138930000,10.515929931640626,-1.3353502750396729,-3.6927504539489746,1.1105191707611084
1773257945148957000,10.52595703125,-1.1880559921264648,-3.1214535236358643,0.7396113872528076
1773257945158983000,10.53598291015625,-0.8349807262420654,-2.101134777069092,0.41086843609809875
1773257945169010000,10.546010009765626,-0.37529850006103516,-0.8650068044662476,0.10589616000652313
1773257945179036000,10.556035888671875,0.014574968256056309,0.054351288825273514,-0.16380828619003296
1773257945189063000,10.56606298828125,0.22396264970302582,0.44509294629096985,-0.47184157371520996
1773257945199089000,10.5760888671875,0.2981937527656555,0.4712393283843994,-0.7296451926231384
1773257945209116000,10.586115966796875,0.7620423436164856,0.6104670763015747,-0.5318953394889832
1773257945219142000,10.596141845703125,0.8762967586517334,1.0253708362579346,-0.37671715021133423
1773257945229169000,10.6061689453125,0.9661107659339905,1.3632314205169678,-0.3125842809677124
1773257945239195000,10.61619482421875,1.1002830266952515,1.4617390632629395,-0.2915838956832886
1773257945249222000,10.626221923828124,1.3841582536697388,1.347676396369934,-0.21045857667922974
1773257945259247900,10.636247802734376,1.600070834159851,1.3987810611724854,-0.1519542634487152
1773257945269275000,10.64627490234375,1.7501308917999268,1.312534213066101,-0.006883007939904928
1773257945279300900,10.65630078125,1.932931900024414,0.9522848725318909,0.25241193175315857
1773257945289327900,10.666327880859376,1.9460293054580688,0.4869879186153412,0.5042150616645813
1773257945299353900,10.676353759765625,1.7551767826080322,0.10124554485082626,0.544209361076355
1773257945309380900,10.686380859375,1.511885166168213,-0.08470453321933746,0.5093737840652466
1773257945319407000,10.696406982421875,1.2382171154022217,-0.1412820667028427,0.5733602046966553
1773257945329433000,10.70643310546875,0.8752483129501343,-0.4949047565460205,0.6712126135826111
1773257945339459800,10.7164599609375,0.584090530872345,-1.0760748386383057,0.9449344277381897
1773257945349485800,10.72648583984375,0.4211353063583374,-1.1233352422714233,1.2242802381515503
1773257945359512800,10.736512939453124,0.4418776035308838,-0.6900799870491028,1.435834288597107
1773257945369538800,10.746538818359374,0.7391099333763123,-0.3421003818511963,1.5491033792495728
1773257945379566000,10.756566162109374,1.1733673810958862,-0.3641124665737152,1.7765799760818481
1773257945389591800,10.766591796875,1.4419922828674316,-0.6636745929718018,2.4684057235717773
1773257945399618800,10.776618896484376,1.7335946559906006,-2.133666753768921,4.768611907958984
1773257945409644800,10.786644775390625,2.014774799346924,-2.6942648887634277,7.7255072593688965
1773257945419671800,10.796671875,2.2605693340301514,-2.3149890899658203,9.045306205749512
1773257945429697800,10.80669775390625,2.7741377353668213,-2.0960681438446045,9.205702781677246
1773257945439724800,10.816724853515625,3.069336175918579,-1.6469732522964478,8.690092086791992
1773257945449750800,10.826750732421875,2.933790683746338,-1.3104307651519775,7.838431358337402
1773257945459777800,10.83677783203125,2.2519118785858154,-0.8198289275169373,6.480763912200928
1773257945469803800,10.8468037109375,1.181003451347351,-1.2952131032943726,4.867665767669678
1773257945479831000,10.8568310546875,0.046713877469301224,-2.113471508026123,3.318765640258789
1773257945489857000,10.86685693359375,-0.9679912328720093,-2.739683151245117,1.8893593549728394
1773257945499883800,10.8768837890625,-1.748907446861267,-2.5410356521606445,0.5338757634162903
1773257945509909800,10.88690966796875,-2.22540283203125,-1.9432851076126099,-0.7706631422042847
1773257945519936800,10.896936767578126,-2.512632131576538,-1.2046915292739868,-1.986302375793457
1773257945529962800,10.906962646484375,-2.6989493370056152,-0.5191032290458679,-3.054633378982544
1773257945539988700,10.91698876953125,-2.7225325107574463,-0.11518853157758713,-3.892662763595581
1773257945550016000,10.92701611328125,-2.546389579772949,0.19058610498905182,-4.436775207519531
1773257945560042000,10.9370419921875,-2.2246108055114746,0.5542535185813904,-4.694477558135986
1773257945570068700,10.94706884765625,-1.8866024017333984,0.9383611679077148,-4.643467903137207
1773257945580094700,10.9570947265625,-1.571702241897583,1.2713299989700317,-4.295716762542725
1773257945590122000,10.9671220703125,-1.256421685218811,1.6437429189682007,-3.710500955581665
1773257945600148000,10.97714794921875,-1.034814476966858,2.08329701423645,-2.6719610691070557
1773257945610175000,10.987175048828124,-0.8924026489257812,2.151535987854004,-1.6204814910888672
1773257945620201000,10.997200927734376,-0.9394137859344482,1.4950814247131348,-0.6461628675460815
1773257945630227700,11.007227783203126,-0.9738747477531433,0.6108976006507874,0.13994987308979034
1773257945640253700,11.017253662109376,-0.7607611417770386,-0.09672266989946365,0.663361132144928
1773257945650281000,11.027281005859376,-0.5745541453361511,-0.5985329747200012,1.0880136489868164
1773257945660307000,11.037306884765625,-0.6611316800117493,-0.7801272869110107,1.4390435218811035
1773257945670334000,11.047333984375,-1.1042976379394531,-0.912918210029602,1.5912951231002808
1773257945680360000,11.05735986328125,-1.7113734483718872,-1.1143391132354736,1.4894992113113403
1773257945690386700,11.06738671875,-2.134920597076416,-1.3636021614074707,1.2698156833648682
1773257945700412700,11.07741259765625,-2.142657995223999,-1.5325520038604736,1.151684284210205
1773257945710439000,11.08743896484375,-2.015254497528076,-1.6400631666183472,1.110266923904419
1773257945720466000,11.0974658203125,-1.9748008251190186,-2.008589267730713,1.0999101400375366
1773257945730492000,11.107491943359374,-2.085847854614258,-2.474311351776123,1.0878396034240723
1773257945740519000,11.117518798828126,-2.178562879562378,-2.9193146228790283,1.1236542463302612
1773257945750545000,11.127544921875,-2.073270797729492,-3.1780295372009277,1.2119241952896118
1773257945760572000,11.137572021484376,-1.7264260053634644,-3.356288433074951,1.3296228647232056
1773257945770598000,11.147597900390625,-1.207962155342102,-3.4651873111724854,1.4043160676956177
1773257945780625000,11.157625,-0.581017017364502,-3.350693702697754,1.373018503189087
1773257945790651000,11.16765087890625,-0.013228815980255604,-2.994353771209717,1.2270289659500122
1773257945800678000,11.177677978515625,0.2984395921230316,-2.7160420417785645,1.065584659576416
1773257945810704000,11.187703857421875,0.34011346101760864,-2.6323485374450684,0.9943788647651672
1773257945820731000,11.19773095703125,0.26522988080978394,-2.6643784046173096,0.9715682864189148
1773257945830756900,11.2077568359375,0.12612420320510864,-2.715221405029297,0.9587584733963013
1773257945840784000,11.217783935546874,-0.02577478066086769,-2.636479139328003,0.961309552192688
1773257945850809900,11.227809814453124,-0.11152566969394684,-2.4258501529693604,1.001452922821045
1773257945860836900,11.2378369140625,-0.12592406570911407,-2.2473459243774414,1.067474126815796
1773257945870862800,11.24786279296875,-0.1284143477678299,-2.2097933292388916,1.1296221017837524
1773257945880889900,11.257889892578126,-0.1497097760438919,-2.2969248294830322,1.1579190492630005
1773257945890915800,11.267915771484375,-0.1876712441444397,-2.3895082473754883,1.1584486961364746
1773257945900942800,11.27794287109375,-0.3445516526699066,-2.261378765106201,1.1678086519241333
1773257945910968800,11.28796875,-0.5578591823577881,-1.9304436445236206,1.1284173727035522
1773257945920994800,11.297994873046875,-0.609046220779419,-1.7948650121688843,1.0450036525726318
1773257945931021800,11.308021728515625,-0.33424416184425354,-1.9870891571044922,0.9536941647529602
1773257945941047800,11.3180478515625,0.15026739239692688,-2.18975830078125,0.9247807860374451
1773257945951074800,11.32807470703125,0.45453187823295593,-1.9488564729690552,1.0888835191726685
1773257945961100800,11.338100830078124,0.6554996371269226,-1.3497374057769775,1.2213059663772583
1773257945971128000,11.348128173828124,0.9533673524856567,-1.0126045942306519,1.086495041847229
1773257945981154000,11.358154052734376,1.283614993095398,-0.6812245845794678,0.9873362183570862
1773257945991180800,11.368180908203126,1.548834204673767,-0.2584843337535858,0.9971314072608948
1773257946001206800,11.378206787109375,1.699096918106079,0.1444050520658493,1.0393410921096802
1773257946011233800,11.38823388671875,1.6715266704559326,0.47613704204559326,1.1315813064575195
1773257946021259800,11.398259765625,1.5753817558288574,0.7451967597007751,1.1924742460250854
1773257946031287000,11.408287109375,1.419392466545105,0.9153451323509216,1.0890451669692993
1773257946041313000,11.41831298828125,1.311647891998291,0.9844355583190918,0.8340681791305542
1773257946051339800,11.42833984375,1.0808770656585693,0.6409958004951477,0.586715042591095
1773257946061365800,11.43836572265625,0.7343961000442505,0.02687700092792511,0.4871504306793213
1773257946071392800,11.448392822265625,0.4588816463947296,-0.24116303026676178,0.5810354351997375
1773257946081418800,11.458418701171874,0.43919238448143005,-0.2856721580028534,0.8225987553596497
1773257946091446000,11.468446044921874,0.5741152763366699,-0.19203081727027893,1.0872550010681152
1773257946101472000,11.478471923828126,0.6842278838157654,0.040801096707582474,1.2086323499679565
1773257946111498000,11.488498046875,0.4821193516254425,0.26475808024406433,1.124712586402893
1773257946121524700,11.498524658203126,-0.08630523830652237,0.4948993921279907,0.8263034820556641
1773257946131550700,11.50855078125,-0.8397701382637024,0.6223759055137634,0.29172417521476746
1773257946141578000,11.518577880859375,-1.4219235181808472,0.3560928404331207,-0.4370562434196472
1773257946151604000,11.52860400390625,-1.5565814971923828,0.09652689099311829,-1.1317191123962402
1773257946161631000,11.538630859375,-1.4010621309280396,-0.02892397902905941,-1.5906521081924438
1773257946171657000,11.548656982421875,-1.1257086992263794,-0.10193859040737152,-1.7492315769195557
1773257946181683700,11.55868359375,-0.7284774780273438,-0.0394083671271801,-1.7392621040344238
1773257946191709700,11.568709716796874,-0.31514930725097656,0.08421741425991058,-1.5857598781585693
1773257946201737000,11.578737060546874,-0.021329129114747047,0.21061210334300995,-1.215552568435669
1773257946211763000,11.588762939453124,0.10305860638618469,0.33876633644104004,-0.7182052731513977
1773257946221790000,11.5987900390625,-0.02471240609884262,0.16845294833183289,-0.3199801743030548
1773257946231816200,11.608816162109376,-0.2536277770996094,-0.1687551736831665,-0.07190284132957458
1773257946241843200,11.61884326171875,-0.44548001885414124,-0.4256625771522522,0.05549079552292824
1773257946251869200,11.628869140625,-0.5131863951683044,-0.47183752059936523,0.10266950726509094
1773257946261896200,11.638896240234375,-0.43623724579811096,-0.39672785997390747,0.08651529997587204
1773257946271922400,11.64892236328125,-0.2833608090877533,-0.24148525297641754,0.07160072028636932
1773257946281949200,11.65894921875,-0.14507059752941132,-0.09153515845537186,0.0586356520652771
1773257946291975200,11.66897509765625,-0.012372531928122044,-0.017762288451194763,0.06499483436346054
1773257946302001200,11.679001220703125,0.1549445539712906,-0.055607669055461884,0.1341315656900406
1773257946312028200,11.689028076171875,0.3784421980381012,-0.14685703814029694,0.26636457443237305
1773257946322054100,11.69905419921875,0.5165910124778748,-0.18880555033683777,0.43495118618011475
1773257946332081400,11.709081298828124,0.639006495475769,-0.1268002986907959,0.5926469564437866
1773257946342107400,11.719107421875,0.8234341740608215,-0.10148376226425171,0.7561594843864441
1773257946352134100,11.729134033203126,1.0549534559249878,-0.09337709099054337,0.9857818484306335
1773257946362160000,11.73916015625,1.302685022354126,-0.0541953407227993,1.2766833305358887
1773257946372187100,11.749187255859376,1.4551920890808105,0.08838341385126114,1.556733250617981
1773257946382213400,11.75921337890625,1.4888368844985962,0.3577416241168976,1.7353218793869019
1773257946392240400,11.769240478515625,1.3578053712844849,0.7564052939414978,1.6387231349945068
1773257946402266400,11.779266357421875,1.0779635906219482,0.78844153881073,1.0169442892074585
1773257946412293000,11.789293212890625,1.0894410610198975,0.5323713421821594,0.33422040939331055
1773257946422319000,11.799319091796875,1.1491979360580444,0.5734958648681641,0.48793888092041016
1773257946432346400,11.809346435546875,1.0089752674102783,0.23949159681797028,0.6717418432235718
1773257946442372400,11.819372314453124,0.8314304947853088,-0.32805919647216797,0.6966458559036255
1773257946452399400,11.8293994140625,0.789665162563324,-0.6932799220085144,0.7543278336524963
1773257946462425300,11.83942529296875,0.8396574854850769,-0.8622420430183411,0.7247158885002136
1773257946472452000,11.8494521484375,0.8212748765945435,-0.7445425391197205,0.5469580292701721
1773257946482478000,11.85947802734375,0.6326112151145935,-0.3820796608924866,0.5272018909454346
1773257946492505300,11.86950537109375,0.30294162034988403,-0.15089468657970428,0.6636216044425964
1773257946502531300,11.87953125,0.045301299542188644,-0.22676174342632294,0.7007993459701538
1773257946512557300,11.889557373046875,-0.05501803755760193,-0.49485278129577637,0.5183115005493164
1773257946522584300,11.899584228515625,0.2069869339466095,-0.7492185235023499,-0.08810386806726456
1773257946532610300,11.9096103515625,0.8380135893821716,-0.6394590139389038,-1.0565376281738281
1773257946542637300,11.91963720703125,1.1931688785552979,-0.07075185328722,-1.795442819595337
1773257946552663300,11.929663330078125,1.0373600721359253,0.636228621006012,-1.7658569812774658
1773257946562690300,11.939690185546874,0.787035346031189,0.8937810659408569,-1.1884969472885132
1773257946572716300,11.94971630859375,0.6771095991134644,0.5851668119430542,-0.6145105957984924
1773257946582743000,11.959742919921876,0.727122962474823,0.22352342307567596,-0.2886344790458679
1773257946592769000,11.96976904296875,0.9666525721549988,-0.1346691995859146,-0.11574964970350266
1773257946602796300,11.97979638671875,1.2424269914627075,-0.30679091811180115,-0.09373170137405396
1773257946612822300,11.989822265625,1.3547765016555786,-0.2557235360145569,-0.2962716817855835
1773257946622849300,11.999849365234375,1.4245021343231201,-0.08579202741384506,-0.673780620098114
1773257946632875300,12.009875244140625,1.5996087789535522,0.10122843086719513,-0.981001615524292
1773257946642902000,12.019902099609375,1.7508821487426758,0.3570578098297119,-1.1350188255310059
1773257946652928300,12.02992822265625,1.8024883270263672,0.46657469868659973,-1.175443410873413
1773257946662955300,12.039955322265625,1.7570836544036865,0.1832876205444336,-1.1114280223846436
1773257946672981200,12.049981201171875,1.557021141052246,-0.28312021493911743,-0.9993298053741455
1773257946683008300,12.06000830078125,1.096840500831604,-0.7174397110939026,-0.7758282423019409
1773257946693034200,12.0700341796875,0.24173720180988312,-0.7072199583053589,-0.3704650104045868
1773257946703060200,12.080060302734376,-0.43600213527679443,-0.4080446660518646,0.022249534726142883
1773257946713087200,12.090087158203126,-0.4059266746044159,-0.20485834777355194,0.25653329491615295
1773257946723113200,12.10011328125,-0.24733063578605652,-0.01302446611225605,0.36349382996559143
1773257946733140200,12.11014013671875,0.06649671494960785,0.2763887941837311,0.47758904099464417
1773257946743166200,12.120166259765625,0.3863722085952759,0.7379792928695679,0.7230212092399597
1773257946753193200,12.130193115234375,0.7582880258560181,1.2250041961669922,1.014955997467041
1773257946763219500,12.140219482421875,1.0326271057128906,1.7694871425628662,1.4088788032531738
1773257946773246200,12.15024609375,1.1575928926467896,2.0782787799835205,2.0389864444732666
1773257946783272200,12.160272216796875,1.1874277591705322,2.0473906993865967,3.0719542503356934
1773257946793299200,12.17029931640625,1.5456823110580444,1.0935953855514526,3.524559497833252
1773257946803325200,12.1803251953125,2.207841634750366,0.37001267075538635,3.6654930114746094
1773257946813352400,12.1903525390625,2.4614596366882324,-0.08927510678768158,3.5800390243530273
1773257946823378400,12.20037841796875,2.1478569507598877,-0.1106773391366005,3.5176949501037598
1773257946833405200,12.2104052734375,1.6092212200164795,0.08239641785621643,3.2085962295532227
1773257946843431200,12.22043115234375,1.0227428674697876,-0.07512956112623215,2.0563700199127197
1773257946853458200,12.230458251953126,0.48145726323127747,-0.5840886831283569,0.5056765079498291
1773257946863484200,12.240484130859375,0.16204945743083954,-0.9426950812339783,-0.39915165305137634
1773257946873510400,12.250510498046875,0.14279334247112274,-0.7295638918876648,-0.47208356857299805
1773257946883537400,12.260537353515625,0.16323868930339813,-0.2870227098464966,-0.09897123277187347
1773257946893563400,12.2705634765625,0.012479213066399097,-0.009308794513344765,0.7079631686210632
1773257946903590100,12.280590087890625,-0.12197846174240112,-0.01812199130654335,1.7531729936599731
1773257946913616100,12.2906162109375,-0.3242332637310028,0.10199356079101562,2.0443520545959473
1773257946923643400,12.300643310546874,-0.39881134033203125,0.6429281830787659,1.697991967201233
1773257946933669400,12.31066943359375,-0.41840195655822754,1.032120704650879,1.1084092855453491
1773257946943696400,12.3206962890625,-0.5336624979972839,1.1028987169265747,0.6533889770507812
1773257946953722000,12.33072216796875,-0.6920835375785828,0.9748153686523438,0.35811683535575867
1773257946963749000,12.3407490234375,-0.7241051197052002,0.981751561164856,0.22188256680965424
1773257946973775000,12.350775146484375,-0.6287564039230347,1.1569247245788574,0.10324132442474365
1773257946983802400,12.36080224609375,-0.5223293304443359,1.0679205656051636,-0.19027790427207947
1773257946993828400,12.370828369140625,-0.5029005408287048,0.938400387763977,-0.44166985154151917
1773257947003855000,12.380855224609375,-0.3667568266391754,0.5806843042373657,-0.5387964248657227
1773257947013881000,12.390881103515625,0.007208625786006451,0.13917139172554016,-0.47493550181388855
1773257947023908000,12.400908203125,0.2206825613975525,0.030739467591047287,-0.3648894131183624
1773257947033934300,12.410934326171875,0.3265412449836731,0.31025633215904236,-0.10730065405368805
1773257947043961300,12.42096142578125,0.45552265644073486,0.5478765964508057,0.006537232547998428
1773257947053987300,12.4309873046875,0.406501442193985,1.125831961631775,-0.3616041839122772
1773257947064014000,12.44101416015625,0.43032529950141907,1.2432432174682617,-0.6616199612617493
1773257947074040000,12.4510400390625,0.34978464245796204,0.9184951782226562,-0.11744529008865356
1773257947084067300,12.4610673828125,0.3262023329734802,0.7538577914237976,0.42632535099983215
1773257947094093300,12.47109326171875,0.46639907360076904,0.5575453042984009,0.7757923007011414
1773257947104120300,12.481120361328125,0.5290789604187012,0.3668227195739746,0.9584904313087463
1773257947114146300,12.491146240234375,0.5738457441329956,0.06468115746974945,0.9315026998519897
1773257947124173000,12.501173095703125,0.6446661353111267,-0.1865558624267578,0.8935965895652771
1773257947134199000,12.511198974609375,0.7695983648300171,-0.39439448714256287,0.869902491569519
1773257947144225300,12.521225341796875,0.8090791702270508,-0.5913211107254028,0.6524274349212646
1773257947154252300,12.531252197265625,0.7387399077415466,-0.8121948838233948,0.3268921673297882
1773257947164278300,12.5412783203125,0.6594399809837341,-1.183321237564087,-0.0007381457835435867
