time,seconds_elapsed,z,y,x
1774470973801426700,0.0634267578125,-0.9562530517578125,-0.36376953125,0.2006683349609375
1774470973811439900,0.07343994140625,-0.91558837890625,-0.3837127685546875,0.199951171875
1774470973821452500,0.08345263671875,-0.88092041015625,-0.39990234375,0.2085113525390625
1774470973831465700,0.0934658203125,-0.864776611328125,-0.4184417724609375,0.22100830078125
1774470973841478700,0.103478759765625,-0.860809326171875,-0.4271240234375,0.226898193359375
1774470973851491600,0.11349169921875,-0.8644561767578125,-0.427001953125,0.234619140625
1774470973861504500,0.12350439453125,-0.8646240234375,-0.4248046875,0.2451019287109375
1774470973871516700,0.1335166015625,-0.8560028076171875,-0.4212799072265625,0.25335693359375
1774470973881529600,0.143529541015625,-0.8564300537109375,-0.422027587890625,0.258026123046875
1774470973891542800,0.153542724609375,-0.8772735595703125,-0.420806884765625,0.2532958984375
1774470973901555500,0.163555419921875,-0.90850830078125,-0.417022705078125,0.240203857421875
1774470973911568600,0.173568603515625,-0.9304351806640625,-0.4105987548828125,0.2288360595703125
1774470973921581800,0.183581787109375,-0.9489593505859375,-0.416351318359375,0.2225189208984375
1774470973931593700,0.19359375,-0.95068359375,-0.4249420166015625,0.2091217041015625
1774470973941606700,0.203606689453125,-0.917266845703125,-0.4356536865234375,0.1849212646484375
1774470973951619600,0.21361962890625,-0.8533935546875,-0.4525909423828125,0.171630859375
1774470973961632800,0.2236328125,-0.7978973388671875,-0.4700775146484375,0.177764892578125
1774470973971645700,0.233645751953125,-0.7831268310546875,-0.4795989990234375,0.1811065673828125
1774470973981658600,0.24365869140625,-0.8159942626953125,-0.471343994140625,0.174652099609375
1774470973991671600,0.253671630859375,-0.8668365478515625,-0.4538726806640625,0.1718902587890625
1774470974001684700,0.263684814453125,-0.9108428955078125,-0.437164306640625,0.186614990234375
1774470974011696600,0.273696533203125,-0.936798095703125,-0.42791748046875,0.21563720703125
1774470974021709600,0.28370947265625,-0.931304931640625,-0.436614990234375,0.2405853271484375
1774470974031722500,0.293722412109375,-0.8929595947265625,-0.472442626953125,0.235809326171875
1774470974041735700,0.303735595703125,-0.8444366455078125,-0.530670166015625,0.20123291015625
1774470974051748900,0.313748779296875,-0.8258056640625,-0.5951080322265625,0.18841552734375
1774470974061761500,0.323761474609375,-0.83978271484375,-0.64410400390625,0.18597412109375
1774470974071774700,0.333774658203125,-0.845916748046875,-0.6564483642578125,0.1841583251953125
1774470974081786600,0.34378662109375,-0.8220062255859375,-0.6199951171875,0.2291259765625
1774470974091799800,0.3537998046875,-0.7869873046875,-0.568023681640625,0.32781982421875
1774470974101812500,0.3638125,-0.755645751953125,-0.598968505859375,0.384521484375
1774470974111825700,0.37382568359375,-0.7315673828125,-0.57843017578125,0.4268798828125
1774470974121838600,0.383838623046875,-0.672698974609375,-0.52008056640625,0.444122314453125
1774470974131851800,0.393851806640625,-0.6204071044921875,-0.4962615966796875,0.4273223876953125
1774470974141864400,0.403864501953125,-0.613494873046875,-0.4931640625,0.369720458984375
1774470974151876600,0.413876708984375,-0.6650390625,-0.5435028076171875,0.3859100341796875
1774470974161889500,0.4238896484375,-0.7332305908203125,-0.576171875,0.39715576171875
1774470974171902700,0.43390283203125,-0.8189697265625,-0.5547332763671875,0.36163330078125
1774470974181915600,0.44391552734375,-0.9057159423828125,-0.518829345703125,0.328704833984375
1774470974191928600,0.453928466796875,-0.968048095703125,-0.4915008544921875,0.3035888671875
1774470974201941800,0.463941650390625,-0.9995269775390625,-0.4654998779296875,0.2793426513671875
1774470974211954700,0.47395458984375,-0.9777984619140625,-0.416290283203125,0.2946929931640625
1774470974221966800,0.483966796875,-0.881134033203125,-0.333343505859375,0.3238983154296875
1774470974231979500,0.4939794921875,-0.8153228759765625,-0.3083038330078125,0.3051605224609375
1774470974241992700,0.50399267578125,-0.7681427001953125,-0.3185272216796875,0.2810821533203125
1774470974252005600,0.514005615234375,-0.7360687255859375,-0.3097991943359375,0.2891693115234375
1774470974262018600,0.5240185546875,-0.71868896484375,-0.265350341796875,0.335052490234375
1774470974272031500,0.534031494140625,-0.7256317138671875,-0.2288970947265625,0.380950927734375
1774470974282044700,0.544044677734375,-0.7596435546875,-0.2190399169921875,0.3662109375
1774470974292056600,0.554056640625,-0.7707366943359375,-0.1543731689453125,0.264129638671875
1774470974302069800,0.56406982421875,-0.7655792236328125,-0.21142578125,0.1215667724609375
1774470974312082400,0.57408251953125,-0.781097412109375,-0.28338623046875,0.044952392578125
1774470974322095600,0.584095703125,-0.7967376708984375,-0.26593017578125,0.062591552734375
1774470974332108800,0.59410888671875,-0.8205718994140625,-0.160064697265625,0.147064208984375
1774470974342121700,0.604121826171875,-0.85028076171875,-0.0635528564453125,0.1787109375
1774470974352134700,0.614134765625,-0.9105987548828125,-0.01617431640625,0.2044677734375
1774470974362146600,0.624146484375,-0.981292724609375,0.006805419921875,0.24053955078125
1774470974372159700,0.63415966796875,-1.06964111328125,-0.0154571533203125,0.2720947265625
1774470974382172700,0.644172607421875,-1.17144775390625,-0.06622314453125,0.2755279541015625
1774470974392185600,0.654185546875,-1.2701568603515625,-0.100982666015625,0.2459869384765625
1774470974402198500,0.664198486328125,-1.306243896484375,-0.125946044921875,0.2147979736328125
1774470974412211700,0.674211669921875,-1.2689361572265625,-0.204925537109375,0.1864166259765625
1774470974422224600,0.684224609375,-1.18218994140625,-0.3150787353515625,0.156951904296875
1774470974432236500,0.694236572265625,-1.0697784423828125,-0.3922119140625,0.150482177734375
1774470974442249700,0.704249755859375,-0.950653076171875,-0.4219818115234375,0.166839599609375
1774470974452262700,0.7142626953125,-0.8609619140625,-0.4352874755859375,0.2049713134765625
1774470974462275800,0.72427587890625,-0.8195037841796875,-0.474456787109375,0.231842041015625
1774470974472288500,0.73428857421875,-0.8094635009765625,-0.5321197509765625,0.2480010986328125
1774470974482301700,0.7443017578125,-0.811187744140625,-0.5835418701171875,0.2705535888671875
1774470974492314600,0.754314697265625,-0.817840576171875,-0.6092681884765625,0.2549285888671875
1774470974502326800,0.764326904296875,-0.817779541015625,-0.5939483642578125,0.2324371337890625
1774470974512339700,0.774339599609375,-0.8071746826171875,-0.5780029296875,0.2642669677734375
1774470974522352600,0.7843525390625,-0.7789764404296875,-0.534210205078125,0.302825927734375
1774470974532365800,0.79436572265625,-0.775634765625,-0.5096588134765625,0.3380126953125
1774470974542378800,0.804378662109375,-0.798095703125,-0.5046539306640625,0.33990478515625
1774470974552391700,0.8143916015625,-0.8372344970703125,-0.481353759765625,0.336334228515625
1774470974562404600,0.824404541015625,-0.86688232421875,-0.4407806396484375,0.3504180908203125
1774470974572417800,0.834417724609375,-0.886993408203125,-0.4065704345703125,0.3800201416015625
1774470974582429700,0.8444296875,-0.90716552734375,-0.390106201171875,0.3954010009765625
1774470974592442600,0.854442626953125,-0.9195098876953125,-0.379608154296875,0.3853912353515625
1774470974602455600,0.86445556640625,-0.9359283447265625,-0.3730926513671875,0.37005615234375
1774470974612468700,0.87446875,-0.958831787109375,-0.358367919921875,0.3594818115234375
1774470974622481700,0.884481689453125,-0.9715118408203125,-0.3345947265625,0.381011962890625
1774470974632494600,0.89449462890625,-0.9744415283203125,-0.313385009765625,0.4143524169921875
1774470974642507800,0.9045078125,-0.9541015625,-0.2929534912109375,0.4207916259765625
1774470974652519700,0.914519775390625,-0.9046173095703125,-0.2917022705078125,0.4118194580078125
1774470974662532600,0.92453271484375,-0.8612060546875,-0.299957275390625,0.4078826904296875
1774470974672545800,0.9345458984375,-0.8232574462890625,-0.298553466796875,0.4090728759765625
1774470974682558700,0.944558837890625,-0.8244476318359375,-0.2771453857421875,0.439239501953125
1774470974692571600,0.954571533203125,-0.8458404541015625,-0.2314300537109375,0.4691619873046875
1774470974702584800,0.964584716796875,-0.87432861328125,-0.1801605224609375,0.500579833984375
1774470974712597500,0.974597412109375,-0.88507080078125,-0.1607208251953125,0.5159759521484375
1774470974722609700,0.984609619140625,-0.88604736328125,-0.178375244140625,0.491363525390625
1774470974732622600,0.99462255859375,-0.916595458984375,-0.2067413330078125,0.435699462890625
1774470974742635800,1.0046357421875,-0.9571685791015625,-0.2384185791015625,0.364013671875
1774470974752648700,1.014648681640625,-0.99200439453125,-0.2698516845703125,0.309783935546875
1774470974762661600,1.02466162109375,-0.9991912841796875,-0.2918701171875,0.2759857177734375
1774470974772674800,1.0346748046875,-0.9646453857421875,-0.286163330078125,0.27276611328125
1774470974782687700,1.044687744140625,-0.93878173828125,-0.24847412109375,0.2931976318359375
1774470974792699600,1.05469970703125,-0.9156036376953125,-0.206329345703125,0.3087005615234375
1774470974802712600,1.064712646484375,-0.9008026123046875,-0.1841583251953125,0.341644287109375
1774470974812725800,1.074725830078125,-0.8966827392578125,-0.175994873046875,0.3632049560546875
1774470974822738700,1.08473876953125,-0.879180908203125,-0.170196533203125,0.3366851806640625
1774470974832751900,1.094751953125,-0.8704376220703125,-0.1230926513671875,0.3082275390625
1774470974842764500,1.1047646484375,-0.875457763671875,-0.1098480224609375,0.3096466064453125
1774470974852777700,1.11477783203125,-0.87652587890625,-0.122955322265625,0.2613677978515625
1774470974862789600,1.12478955078125,-0.884918212890625,-0.153778076171875,0.1597900390625
1774470974872802800,1.134802734375,-0.843994140625,-0.154510498046875,0.1310577392578125
1774470974882815500,1.1448154296875,-0.767242431640625,-0.0932769775390625,0.0695037841796875
1774470974892828700,1.15482861328125,-0.73577880859375,-0.0582122802734375,0.074798583984375
1774470974902841600,1.164841552734375,-0.76251220703125,-0.042236328125,0.0771942138671875
1774470974912854800,1.174854736328125,-0.889190673828125,-0.0280303955078125,0.0494537353515625
1774470974922867700,1.18486767578125,-1.1787261962890625,-0.0243072509765625,0.0819091796875
1774470974932879600,1.194879638671875,-1.4422607421875,-0.0374603271484375,0.0973968505859375
1774470974942892800,1.204892822265625,-1.507293701171875,-0.005615234375,0.0653076171875
1774470974952905700,1.21490576171875,-1.459930419921875,0.130859375,-0.0297393798828125
1774470974962918700,1.224918701171875,-1.3332366943359375,0.1668701171875,0.0149688720703125
1774470974972931600,1.234931640625,-1.1902923583984375,0.17852783203125,0.0701141357421875
1774470974982944800,1.24494482421875,-1.1230010986328125,0.1310272216796875,0.1128082275390625
1774470974992957700,1.254957763671875,-1.1718292236328125,0.0263671875,0.1121063232421875
1774470975002969900,1.264969970703125,-1.1781463623046875,-0.047210693359375,0.0885162353515625
1774470975012982500,1.274982421875,-1.138916015625,-0.0873565673828125,0.0242462158203125
1774470975022995700,1.28499560546875,-1.0677947998046875,-0.01031494140625,0.1560211181640625
1774470975033008600,1.295008544921875,-0.9584503173828125,0.0948944091796875,0.35614013671875
1774470975043021600,1.305021484375,-0.762603759765625,0.0082855224609375,0.589599609375
1774470975053034800,1.31503466796875,-0.3370361328125,-0.4397125244140625,1.3113555908203125
1774470975063047700,1.325047607421875,-0.078338623046875,-0.5085906982421875,1.10235595703125
1774470975073059800,1.335059814453125,-0.145263671875,-0.145477294921875,0.526824951171875
1774470975083072800,1.34507275390625,-0.313751220703125,-0.1356964111328125,0.47802734375
1774470975093085700,1.355085693359375,-0.5037689208984375,-0.19622802734375,0.58270263671875
1774470975103098600,1.3650986328125,-0.7024688720703125,-0.212890625,0.614959716796875
1774470975113111800,1.37511181640625,-0.8575286865234375,-0.1815032958984375,0.5627899169921875
1774470975123124500,1.38512451171875,-0.98553466796875,-0.134429931640625,0.500091552734375
1774470975133137700,1.3951376953125,-1.05926513671875,-0.0840301513671875,0.4835662841796875
1774470975143149600,1.405149658203125,-1.1448822021484375,-0.03662109375,0.5287933349609375
1774470975153162800,1.415162841796875,-1.2771453857421875,-0.0245819091796875,0.545257568359375
1774470975163175700,1.42517578125,-1.282867431640625,-0.0312042236328125,0.508026123046875
1774470975173188600,1.435188720703125,-1.166290283203125,-0.056488037109375,0.481536865234375
1774470975183201800,1.445201904296875,-1.0484161376953125,-0.088348388671875,0.4754486083984375
1774470975193214700,1.455214599609375,-0.9972076416015625,-0.1282806396484375,0.4564971923828125
1774470975203227600,1.4652275390625,-0.9751434326171875,-0.134796142578125,0.42169189453125
1774470975213239600,1.475239501953125,-0.939178466796875,-0.108612060546875,0.4232177734375
1774470975223252700,1.485252685546875,-0.88330078125,-0.08013916015625,0.4783935546875
1774470975233265700,1.495265625,-0.8476409912109375,-0.069549560546875,0.53076171875
1774470975243278800,1.50527880859375,-0.813934326171875,-0.05511474609375,0.5559234619140625
1774470975253291500,1.51529150390625,-0.7850799560546875,-0.067779541015625,0.5821990966796875
1774470975263304700,1.5253046875,-0.8310546875,-0.07568359375,0.5952606201171875
1774470975273317600,1.535317626953125,-0.8882904052734375,-0.1025543212890625,0.5347747802734375
1774470975283329800,1.545329833984375,-0.8846282958984375,-0.0950775146484375,0.4885406494140625
1774470975293342500,1.555342529296875,-0.8910675048828125,-0.109771728515625,0.4379425048828125
1774470975303355600,1.565355712890625,-0.9033203125,-0.12786865234375,0.3330841064453125
1774470975313368800,1.575368896484375,-0.828338623046875,-0.1439971923828125,0.2621002197265625
1774470975323381800,1.5853818359375,-0.785430908203125,-0.2000885009765625,0.2893524169921875
1774470975333394700,1.595394775390625,-0.8149871826171875,-0.3217010498046875,0.6119384765625
1774470975343407600,1.60540771484375,-0.8161163330078125,-0.25946044921875,0.704010009765625
1774470975353419800,1.615419677734375,-0.77764892578125,-0.150787353515625,0.4567718505859375
1774470975363432700,1.6254326171875,-0.833892822265625,-0.1878204345703125,0.3582916259765625
1774470975373445600,1.635445556640625,-0.9688568115234375,-0.2532806396484375,0.34033203125
1774470975383458600,1.64545849609375,-1.0774993896484375,-0.2868499755859375,0.291351318359375
1774470975393471700,1.6554716796875,-1.0659637451171875,-0.267730712890625,0.2656097412109375
1774470975403484700,1.665484619140625,-0.9953460693359375,-0.2812042236328125,0.2931060791015625
1774470975413497600,1.67549755859375,-0.903106689453125,-0.285491943359375,0.313507080078125
1774470975423510000,1.685510009765625,-0.853363037109375,-0.3003082275390625,0.3133544921875
1774470975433523000,1.69552294921875,-0.8262481689453125,-0.314361572265625,0.289276123046875
1774470975443536100,1.7055361328125,-0.8039398193359375,-0.2174072265625,0.3124237060546875
1774470975453548800,1.715548828125,-0.7508087158203125,-0.2882080078125,0.36529541015625
1774470975463562000,1.72556201171875,-0.69940185546875,-0.290740966796875,0.3465728759765625
1774470975473575200,1.7355751953125,-0.789093017578125,-0.2261199951171875,0.290863037109375
1774470975483588000,1.745588134765625,-0.9258270263671875,-0.1860809326171875,0.259033203125
1774470975493600300,1.755600341796875,-1.0209503173828125,-0.1818084716796875,0.193450927734375
1774470975503613000,1.765613037109375,-1.122833251953125,-0.176727294921875,0.181976318359375
1774470975513626000,1.775626220703125,-1.16650390625,-0.192779541015625,0.205780029296875
1774470975523639000,1.78563916015625,-1.1273193359375,-0.2273406982421875,0.2461090087890625
1774470975533652000,1.79565185546875,-1.0399169921875,-0.2134552001953125,0.2874755859375
1774470975543665000,1.805664794921875,-0.94573974609375,-0.1567230224609375,0.2893524169921875
1774470975553678000,1.815677978515625,-0.88385009765625,-0.130767822265625,0.2956390380859375
1774470975563690000,1.82568994140625,-0.8440399169921875,-0.1259307861328125,0.30352783203125
1774470975573703200,1.835703125,-0.8198089599609375,-0.0974884033203125,0.287139892578125
1774470975583715800,1.8457158203125,-0.833221435546875,-0.055206298828125,0.25506591796875
1774470975593729000,1.85572900390625,-0.8645172119140625,-0.0567779541015625,0.1992645263671875
1774470975603742200,1.8657421875,-0.8978118896484375,-0.1163482666015625,0.159881591796875
1774470975613755000,1.8757548828125,-0.961273193359375,-0.20867919921875,0.1934356689453125
1774470975623768000,1.88576806640625,-1.037841796875,-0.3059234619140625,0.22027587890625
1774470975633780000,1.895780029296875,-1.087982177734375,-0.3445587158203125,0.1932373046875
1774470975643793200,1.905793212890625,-1.0555572509765625,-0.312286376953125,0.1712646484375
1774470975653806000,1.91580615234375,-1.002349853515625,-0.2588043212890625,0.1553192138671875
1774470975663819000,1.925819091796875,-0.94464111328125,-0.21795654296875,0.133514404296875
1774470975673832000,1.93583203125,-0.834930419921875,-0.2193450927734375,0.13238525390625
1774470975683845000,1.94584521484375,-0.7359466552734375,-0.2690582275390625,0.135955810546875
1774470975693857800,1.95585791015625,-0.7192230224609375,-0.3150482177734375,0.1483612060546875
1774470975703870000,1.965869873046875,-0.768035888671875,-0.3227691650390625,0.1477203369140625
1774470975713883000,1.9758828125,-0.8255157470703125,-0.3032073974609375,0.1389923095703125
1774470975723896000,1.98589599609375,-0.878570556640625,-0.2784271240234375,0.160308837890625
1774470975733909200,1.9959091796875,-0.9276580810546875,-0.28271484375,0.19427490234375
1774470975743922000,2.005921875,-0.9792938232421875,-0.314422607421875,0.182342529296875
1774470975753935000,2.01593505859375,-0.9853057861328125,-0.3310546875,0.1593475341796875
1774470975763948000,2.025947998046875,-0.9810028076171875,-0.34271240234375,0.1414031982421875
1774470975773960200,2.035960205078125,-1.0076751708984375,-0.355255126953125,0.1336669921875
1774470975783972900,2.045972900390625,-1.01080322265625,-0.3683013916015625,0.1060028076171875
1774470975793986000,2.055986083984375,-0.9597320556640625,-0.3775787353515625,0.0623016357421875
1774470975803999000,2.0659990234375,-0.865966796875,-0.379638671875,0.078857421875
1774470975814012200,2.07601220703125,-0.8223724365234375,-0.400299072265625,0.135406494140625
1774470975824024800,2.08602490234375,-0.8170318603515625,-0.415802001953125,0.178985595703125
1774470975834038000,2.0960380859375,-0.775848388671875,-0.41888427734375,0.1983489990234375
1774470975844050000,2.1060498046875,-0.7766571044921875,-0.4432220458984375,0.193206787109375
1774470975854063000,2.11606298828125,-0.844757080078125,-0.475189208984375,0.1634063720703125
1774470975864075800,2.12607568359375,-0.900848388671875,-0.4875946044921875,0.125701904296875
1774470975874089000,2.1360888671875,-0.94000244140625,-0.4754791259765625,0.10528564453125
1774470975884102100,2.14610205078125,-0.980133056640625,-0.4593048095703125,0.10687255859375
1774470975894115000,2.156114990234375,-1.0047607421875,-0.436004638671875,0.1136474609375
1774470975904128000,2.1661279296875,-1.0140228271484375,-0.42047119140625,0.1518707275390625
1774470975914140000,2.176139892578125,-0.99664306640625,-0.4096527099609375,0.181610107421875
1774470975924153000,2.186153076171875,-0.9559478759765625,-0.4102630615234375,0.1990203857421875
1774470975934166000,2.196166015625,-0.875946044921875,-0.4207000732421875,0.2443084716796875
1774470975944179000,2.206178955078125,-0.8240203857421875,-0.44482421875,0.272705078125
1774470975954192000,2.21619189453125,-0.8148193359375,-0.4540557861328125,0.26092529296875
1774470975964205000,2.226205078125,-0.7637481689453125,-0.4243621826171875,0.2615509033203125
1774470975974218200,2.23621826171875,-0.7186126708984375,-0.4166412353515625,0.314422607421875
1774470975984230100,2.246230224609375,-0.6915435791015625,-0.4476470947265625,0.364013671875
1774470975994242800,2.256242919921875,-0.664154052734375,-0.5035858154296875,0.349853515625
1774470976004256000,2.266256103515625,-0.57342529296875,-0.54730224609375,0.3441009521484375
1774470976014269200,2.276269287109375,-0.45684814453125,-0.5876007080078125,0.405487060546875
1774470976024281900,2.28628173828125,-0.3672943115234375,-0.6629791259765625,0.4642333984375
1774470976034295000,2.296294921875,-0.250396728515625,-0.869354248046875,0.467681884765625
1774470976044308000,2.306307861328125,-0.1319732666015625,-0.9554901123046875,0.4642486572265625
1774470976054320000,2.316320068359375,-0.19744873046875,-0.8110809326171875,0.4987030029296875
1774470976064333000,2.3263330078125,-0.36334228515625,-0.7653961181640625,0.559844970703125
1774470976074346000,2.336345947265625,-0.4592742919921875,-0.751556396484375,0.629486083984375
1774470976084359000,2.34635888671875,-0.4644927978515625,-0.7306060791015625,0.6264495849609375
1774470976094372000,2.3563720703125,-0.4608001708984375,-0.7517242431640625,0.5571441650390625
1774470976104385000,2.366385009765625,-0.446990966796875,-0.777679443359375,0.4984588623046875
1774470976114397000,2.37639697265625,-0.444610595703125,-0.7794189453125,0.438232421875
1774470976124409900,2.386409912109375,-0.4638214111328125,-0.8028717041015625,0.352294921875
1774470976134423000,2.396423095703125,-0.5023193359375,-0.8111724853515625,0.3081207275390625
1774470976144436200,2.406436279296875,-0.5181427001953125,-0.79339599609375,0.288818359375
1774470976154449000,2.416448974609375,-0.5035858154296875,-0.7869415283203125,0.2952117919921875
1774470976164462000,2.426462158203125,-0.5014495849609375,-0.80145263671875,0.335479736328125
1774470976174475000,2.43647509765625,-0.497344970703125,-0.7823944091796875,0.3426971435546875
1774470976184487200,2.446487060546875,-0.50384521484375,-0.749755859375,0.3271331787109375
1774470976194500000,2.4565,-0.5088043212890625,-0.7386322021484375,0.35626220703125
1774470976204513000,2.466512939453125,-0.4847259521484375,-0.7313079833984375,0.423553466796875
1774470976214526000,2.47652587890625,-0.426971435546875,-0.766021728515625,0.4705047607421875
1774470976224539100,2.4865390625,-0.40228271484375,-0.770172119140625,0.4827728271484375
1774470976234551800,2.4965517578125,-0.4454803466796875,-0.76605224609375,0.4375457763671875
1774470976244565000,2.50656494140625,-0.4945831298828125,-0.80047607421875,0.3872222900390625
1774470976254577000,2.516576904296875,-0.5174102783203125,-0.776153564453125,0.34564208984375
1774470976264590000,2.526590087890625,-0.53765869140625,-0.781585693359375,0.29412841796875
1774470976274603000,2.53660302734375,-0.5107269287109375,-0.820465087890625,0.2332611083984375
1774470976284616000,2.546615966796875,-0.461669921875,-0.859954833984375,0.22259521484375
1774470976294629000,2.556629150390625,-0.473785400390625,-0.898590087890625,0.229705810546875
1774470976304642000,2.56664208984375,-0.5644989013671875,-0.8860015869140625,0.2643890380859375
1774470976314655000,2.576655029296875,-0.59088134765625,-0.8387908935546875,0.322174072265625
1774470976324667000,2.5866669921875,-0.5912322998046875,-0.7861175537109375,0.3725433349609375
1774470976334680000,2.59668017578125,-0.615447998046875,-0.7604827880859375,0.3752288818359375
1774470976344693000,2.60669287109375,-0.616943359375,-0.7615203857421875,0.3607940673828125
1774470976354706200,2.6167060546875,-0.5501861572265625,-0.779693603515625,0.3849334716796875
1774470976364718800,2.62671875,-0.4846954345703125,-0.804290771484375,0.4512786865234375
1774470976374732000,2.63673193359375,-0.4218292236328125,-0.7854461669921875,0.47021484375
1774470976384745200,2.6467451171875,-0.3961029052734375,-0.7783966064453125,0.4654083251953125
1774470976394757000,2.656757080078125,-0.400634765625,-0.7742767333984375,0.4326171875
1774470976404769800,2.666769775390625,-0.4055023193359375,-0.75189208984375,0.4017486572265625
1774470976414783000,2.676782958984375,-0.4342193603515625,-0.7378387451171875,0.368438720703125
1774470976424795600,2.686795654296875,-0.470611572265625,-0.716217041015625,0.3509979248046875
1774470976434808600,2.69680859375,-0.4692535400390625,-0.702545166015625,0.3281707763671875
1774470976444821500,2.706821533203125,-0.4305877685546875,-0.8172149658203125,0.2091064453125
1774470976454834400,2.71683447265625,-0.435699462890625,-0.887176513671875,0.193603515625
1774470976464846600,2.7268466796875,-0.4455718994140625,-0.8272705078125,0.2750091552734375
1774470976474859500,2.736859619140625,-0.437103271484375,-0.7896881103515625,0.32281494140625
1774470976484872700,2.746872802734375,-0.4190521240234375,-0.7799530029296875,0.2974090576171875
1774470976494885400,2.756885498046875,-0.44976806640625,-0.772064208984375,0.288787841796875
1774470976504898600,2.766898681640625,-0.521026611328125,-0.774169921875,0.3044586181640625
1774470976514911500,2.776911376953125,-0.5538330078125,-0.771697998046875,0.255462646484375
1774470976524923600,2.786923583984375,-0.6030120849609375,-0.7761383056640625,0.2478179931640625
1774470976534936300,2.796936279296875,-0.6743011474609375,-0.7735443115234375,0.291351318359375
1774470976544949500,2.806949462890625,-0.6542205810546875,-0.7766876220703125,0.32025146484375
1774470976554962700,2.816962646484375,-0.6144866943359375,-0.7907867431640625,0.3818817138671875
1774470976564975600,2.8269755859375,-0.5913238525390625,-0.7789154052734375,0.4107513427734375
1774470976574988500,2.836988525390625,-0.5880584716796875,-0.7502288818359375,0.3923492431640625
1774470976585001500,2.84700146484375,-0.582794189453125,-0.7199859619140625,0.3872222900390625
1774470976595013600,2.857013671875,-0.5593109130859375,-0.70050048828125,0.3940887451171875
1774470976605026600,2.867026611328125,-0.5701446533203125,-0.7027740478515625,0.380096435546875
1774470976615039500,2.87703955078125,-0.572662353515625,-0.727569580078125,0.4038543701171875
1774470976625052400,2.887052490234375,-0.5261993408203125,-0.7044525146484375,0.4346466064453125
1774470976635065600,2.897065673828125,-0.5238189697265625,-0.6735076904296875,0.4156951904296875
1774470976645078500,2.90707861328125,-0.6025390625,-0.6385040283203125,0.4077911376953125
1774470976655091500,2.917091552734375,-0.6819000244140625,-0.5912322998046875,0.430206298828125
1774470976665103400,2.927103271484375,-0.7181396484375,-0.5689697265625,0.4310455322265625
1774470976675116500,2.937116455078125,-0.73834228515625,-0.5931243896484375,0.3992156982421875
1774470976685129500,2.94712939453125,-0.7321319580078125,-0.6174163818359375,0.415374755859375
1774470976695142400,2.957142333984375,-0.57830810546875,-0.670928955078125,0.4952850341796875
1774470976705155600,2.967155517578125,-0.3889923095703125,-0.844757080078125,0.5189666748046875
1774470976715168500,2.97716845703125,-0.261688232421875,-0.9026031494140625,0.5195770263671875
1774470976725181700,2.987181640625,-0.2486724853515625,-0.8346405029296875,0.412445068359375
1774470976735193600,2.997193603515625,-0.380462646484375,-0.834320068359375,0.378448486328125
1774470976745206500,3.00720654296875,-0.4736480712890625,-0.842803955078125,0.31732177734375
1774470976755219500,3.017219482421875,-0.498016357421875,-0.8576507568359375,0.2524871826171875
1774470976765232600,3.027232666015625,-0.5641021728515625,-0.839385986328125,0.2723388671875
1774470976775245300,3.037245361328125,-0.50933837890625,-0.786285400390625,0.3162078857421875
1774470976785258500,3.047258544921875,-0.306976318359375,-0.7643585205078125,0.33782958984375
1774470976795271700,3.057271728515625,-0.1927337646484375,-0.75567626953125,0.3980255126953125
1774470976805283600,3.06728369140625,-0.1429290771484375,-0.716217041015625,0.497528076171875
1774470976815296500,3.077296630859375,-0.0736846923828125,-0.763671875,0.5704193115234375
1774470976825309400,3.087309326171875,0.0466461181640625,-0.8470611572265625,0.5391082763671875
1774470976835322600,3.097322509765625,0.093475341796875,-0.890350341796875,0.4420623779296875
1774470976845335600,3.10733544921875,0.0028533935546875,-0.858001708984375,0.365081787109375
1774470976855348500,3.117348388671875,-0.1458587646484375,-0.834808349609375,0.333282470703125
1774470976865361400,3.127361328125,-0.258056640625,-0.8116607666015625,0.3271026611328125
1774470976875373600,3.13737353515625,-0.3175201416015625,-0.7700653076171875,0.326629638671875
1774470976885386500,3.147386474609375,-0.3759765625,-0.7340087890625,0.308807373046875
1774470976895399700,3.157399658203125,-0.4193572998046875,-0.6919708251953125,0.3873291015625
1774470976905412400,3.167412353515625,-0.462188720703125,-0.6542510986328125,0.488189697265625
1774470976915425500,3.177425537109375,-0.5535430908203125,-0.62469482421875,0.5180206298828125
1774470976925438500,3.1874384765625,-0.6364593505859375,-0.5810394287109375,0.4725341796875
1774470976935451400,3.197451416015625,-0.6014556884765625,-0.5240936279296875,0.4694061279296875
1774470976945463300,3.20746337890625,-0.5933685302734375,-0.50677490234375,0.4761810302734375
1774470976955476500,3.2174765625,-0.68463134765625,-0.504364013671875,0.3731689453125
1774470976965489700,3.22748974609375,-0.785797119140625,-0.4630126953125,0.26849365234375
1774470976975502600,3.237502685546875,-0.8935394287109375,-0.514404296875,0.2776641845703125
1774470976985515500,3.247515625,-0.96685791015625,-0.5830078125,0.2884368896484375
1774470976995528400,3.257528564453125,-1.0615386962890625,-0.5927886962890625,0.293609619140625
1774470977005540600,3.26754052734375,-1.124542236328125,-0.52740478515625,0.329254150390625
1774470977015553500,3.277553466796875,-1.14947509765625,-0.4991302490234375,0.407623291015625
1774470977025566500,3.28756640625,-1.1405029296875,-0.282989501953125,0.544769287109375
1774470977035579400,3.297579345703125,-1.0372161865234375,-0.1041259765625,0.5804290771484375
1774470977045592600,3.307592529296875,-0.9443817138671875,-0.05126953125,0.5497894287109375
1774470977055605500,3.31760546875,-0.8474884033203125,-0.081085205078125,0.4828033447265625
1774470977065618400,3.327618408203125,-0.7743377685546875,-0.1902923583984375,0.391021728515625
1774470977075630300,3.33763037109375,-0.7260894775390625,-0.2816314697265625,0.38519287109375
1774470977085643500,3.3476435546875,-0.5943450927734375,-0.426422119140625,0.5137786865234375
1774470977095656700,3.35765673828125,-0.4084320068359375,-0.8621368408203125,0.3515625
1774470977105669400,3.36766943359375,-0.49041748046875,-1.0207672119140625,0.1428070068359375
1774470977115682600,3.3776826171875,-0.4480743408203125,-1.10906982421875,0.0701751708984375
1774470977125695500,3.387695556640625,-0.31005859375,-1.18658447265625,-0.209075927734375
1774470977135708700,3.397708740234375,-0.3093719482421875,-1.4189453125,-0.425018310546875
1774470977145721300,3.407721435546875,-0.3739471435546875,-1.5293731689453125,-0.4207916259765625
1774470977155733500,3.4177333984375,-0.5579681396484375,-1.6312408447265625,-0.363128662109375
1774470977165746400,3.427746337890625,-0.7843170166015625,-1.3495025634765625,-0.5070648193359375
1774470977175759600,3.437759521484375,-0.75439453125,-0.9760284423828125,-0.4269866943359375
1774470977185772500,3.4477724609375,-0.57415771484375,-0.8819427490234375,-0.148284912109375
1774470977195785500,3.457785400390625,-0.3423309326171875,-0.822052001953125,0.132568359375
1774470977205798700,3.467798583984375,-0.359039306640625,-0.758270263671875,0.5321502685546875
1774470977215811600,3.4778115234375,-0.455535888671875,-0.8501129150390625,0.7476806640625
1774470977225823500,3.487823486328125,-0.0899658203125,-0.7132415771484375,0.5314788818359375
1774470977235836400,3.49783642578125,-0.7419586181640625,-1.0387115478515625,0.7394256591796875
1774470977245849600,3.507849609375,-0.750213623046875,-1.0265655517578125,0.639739990234375
1774470977255862500,3.517862548828125,-0.358795166015625,-0.840484619140625,0.119781494140625
1774470977265875500,3.52787548828125,-0.2257080078125,-0.815399169921875,0.0567626953125
1774470977275888400,3.537888427734375,-0.1645050048828125,-0.7953033447265625,0.1475830078125
1774470977285901600,3.547901611328125,-0.3798828125,-0.8284759521484375,0.262115478515625
1774470977295914500,3.55791455078125,-0.2168731689453125,-0.7939910888671875,0.233673095703125
1774470977305926700,3.5679267578125,-0.2332763671875,-0.77545166015625,0.3180389404296875
1774470977315939300,3.577939208984375,-0.86761474609375,-0.728240966796875,0.6728515625
1774470977325952500,3.587952392578125,-0.6857147216796875,-0.69427490234375,0.7903900146484375
1774470977335965700,3.597965576171875,-0.5131683349609375,-0.6793060302734375,0.535919189453125
1774470977345978600,3.607978515625,-0.257720947265625,-0.7037506103515625,0.1497344970703125
1774470977355991600,3.617991455078125,-0.0281829833984375,-0.6148834228515625,0.075042724609375
1774470977366004500,3.62800439453125,-0.175201416015625,-0.3806915283203125,0.106170654296875
1774470977376017700,3.638017578125,-0.4542999267578125,-0.30828857421875,0.1894683837890625
1774470977386029600,3.648029541015625,-0.5040740966796875,-0.2466278076171875,0.4096832275390625
1774470977396042500,3.65804248046875,-0.506439208984375,-0.22491455078125,0.449554443359375
1774470977406055400,3.668055419921875,-0.3736419677734375,-0.1094818115234375,0.3196563720703125
1774470977416068600,3.678068603515625,-0.2716064453125,-0.139801025390625,0.1496734619140625
1774470977426081500,3.68808154296875,-0.4054718017578125,-0.175048828125,0.2047119140625
1774470977436094700,3.6980947265625,-0.524505615234375,-0.6393585205078125,0.2789306640625
1774470977446107600,3.708107666015625,-0.416656494140625,-0.783477783203125,-0.367706298828125
1774470977456120800,3.718120849609375,-0.47027587890625,-1.2357635498046875,-0.046539306640625
1774470977466133500,3.728133544921875,-0.3037261962890625,-1.9564666748046875,0.4559783935546875
1774470977476145700,3.738145751953125,0.10211181640625,-2.2310791015625,0.851715087890625
1774470977486158600,3.74815869140625,0.4662017822265625,-1.53271484375,0.5575103759765625
1774470977496171800,3.758171875,-0.0515594482421875,-1.3359527587890625,-0.1195220947265625
1774470977506184700,3.768184814453125,-0.171630859375,-1.364349365234375,0.2938232421875
1774470977516197600,3.77819775390625,-0.1300201416015625,-1.2714691162109375,0.5348052978515625
1774470977526210800,3.7882109375,-0.0899505615234375,-1.18035888671875,0.306732177734375
1774470977536223700,3.7982236328125,-0.10400390625,-1.1002197265625,0.2901611328125
1774470977546236700,3.808236572265625,-0.07867431640625,-1.0848541259765625,0.254119873046875
1774470977556249600,3.81824951171875,-0.0557708740234375,-1.076812744140625,0.2351837158203125
1774470977566262800,3.8282626953125,-0.1053009033203125,-1.01080322265625,0.26275634765625
1774470977576275700,3.838275634765625,-0.1660919189453125,-0.912261962890625,0.3240203857421875
1774470977586287600,3.84828759765625,-0.2181243896484375,-0.859893798828125,0.3592681884765625
1774470977596300500,3.858300537109375,-0.2197265625,-0.8883819580078125,0.2648773193359375
1774470977606313700,3.868313720703125,-0.1658935546875,-0.9691925048828125,0.2629547119140625
1774470977616326700,3.87832666015625,-0.0986175537109375,-1.0416259765625,0.2783966064453125
1774470977626339600,3.888339599609375,-0.0999908447265625,-1.062652587890625,0.3200836181640625
1774470977636352800,3.898352783203125,-0.1474761962890625,-1.0817108154296875,0.3306732177734375
1774470977646365700,3.90836572265625,-0.1888885498046875,-1.0797271728515625,0.368438720703125
1774470977656378600,3.918378662109375,-0.1119842529296875,-1.0483551025390625,0.333404541015625
1774470977666391600,3.9283916015625,-0.047637939453125,-1.0359649658203125,0.2345428466796875
1774470977676404700,3.93840478515625,-0.10040283203125,-1.07415771484375,0.2788543701171875
1774470977686417700,3.948417724609375,-0.1338348388671875,-1.144439697265625,0.3347625732421875
1774470977696430600,3.9584306640625,-0.1201171875,-1.1405487060546875,0.3340606689453125
1774470977706442500,3.9684423828125,-0.1026458740234375,-1.103515625,0.3014678955078125
1774470977716455700,3.97845556640625,-0.0756683349609375,-1.0636444091796875,0.335784912109375
1774470977726468900,3.98846875,-0.1201629638671875,-1.019317626953125,0.385162353515625
1774470977736481800,3.998481689453125,-0.166473388671875,-0.9657745361328125,0.3725738525390625
1774470977746494700,4.00849462890625,-0.1710662841796875,-0.9064178466796875,0.3236236572265625
1774470977756507600,4.018507568359375,-0.1382293701171875,-0.8656005859375,0.2755126953125
1774470977766520800,4.028520751953125,-0.0685577392578125,-0.849609375,0.2277374267578125
1774470977776533500,4.038533447265625,-0.0335693359375,-0.88775634765625,0.2484130859375
1774470977786546700,4.048546630859375,-0.0522308349609375,-0.842498779296875,0.1703338623046875
1774470977796559600,4.0585595703125,-0.1655426025390625,-0.830413818359375,0.28692626953125
1774470977806572800,4.06857275390625,-0.3370819091796875,-0.7796173095703125,0.3542327880859375
1774470977816585700,4.078585693359375,-0.2827301025390625,-0.7788848876953125,0.3554534912109375
1774470977826598700,4.0885986328125,-0.1171417236328125,-0.8166046142578125,0.2869415283203125
1774470977836611800,4.09861181640625,-0.0477142333984375,-0.8755035400390625,0.1928863525390625
1774470977846623700,4.108623779296875,0.0190277099609375,-0.9450836181640625,0.1993560791015625
1774470977856636700,4.11863671875,0.051300048828125,-0.94500732421875,0.213531494140625
1774470977866649600,4.128649658203125,0.030242919921875,-0.9072265625,0.180511474609375
1774470977876662800,4.138662841796875,-0.0106201171875,-0.893585205078125,0.2081756591796875
1774470977886675700,4.14867578125,0.0102081298828125,-0.9172821044921875,0.223419189453125
1774470977896688600,4.158688720703125,0.1805267333984375,-0.9326324462890625,0.255645751953125
1774470977906701600,4.16870166015625,0.1880340576171875,-0.972412109375,0.2691192626953125
1774470977916714800,4.17871484375,0.10125732421875,-0.9814910888671875,0.1866912841796875
1774470977926727700,4.188727783203125,0.04345703125,-1.00848388671875,0.2303009033203125
1774470977936740600,4.19874072265625,-0.081207275390625,-1.06488037109375,0.3097381591796875
1774470977946753800,4.20875390625,-0.07720947265625,-1.04559326171875,0.297119140625
1774470977956766700,4.2187666015625,-0.0865936279296875,-1.0430145263671875,0.2565155029296875
1774470977966779600,4.228779541015625,-0.0147857666015625,-1.03607177734375,0.185394287109375
1774470977976792600,4.23879248046875,0.01654052734375,-1.029296875,0.1657867431640625
1774470977986805800,4.2488056640625,-0.0208740234375,-1.07427978515625,0.1875
1774470977996817700,4.258817626953125,-0.051055908203125,-1.117095947265625,0.1954498291015625
1774470978006830600,4.26883056640625,-0.083740234375,-1.14593505859375,0.1749267578125
1774470978016843800,4.27884375,-0.119232177734375,-1.1505584716796875,0.15142822265625
1774470978026856700,4.288856689453125,-0.1228790283203125,-1.1363677978515625,0.120941162109375
1774470978036870000,4.298869873046875,-0.1089324951171875,-1.1077880859375,0.0928192138671875
1774470978046882600,4.308882568359375,-0.0974273681640625,-1.052703857421875,0.0533599853515625
1774470978056895700,4.318895751953125,-0.1075439453125,-0.9933624267578125,0.0499420166015625
1774470978066908700,4.32890869140625,-0.160491943359375,-0.9759674072265625,0.0868988037109375
1774470978076921600,4.338921630859375,-0.12298583984375,-0.935211181640625,0.2075347900390625
1774470978086934500,4.3489345703125,-0.108642578125,-1.0128021240234375,0.0760040283203125
1774470978096947700,4.35894775390625,-0.1986236572265625,-1.0673980712890625,-0.0122528076171875
1774470978106961000,4.3689609375,-0.2404327392578125,-1.0303802490234375,0.0510406494140625
1774470978116973600,4.3789736328125,-0.25958251953125,-1.0487823486328125,0.0758209228515625
1774470978126986800,4.38898681640625,-0.246612548828125,-1.060028076171875,0.01116943359375
1774470978136999700,4.398999755859375,-0.2226715087890625,-1.0335235595703125,-0.0625
1774470978147012600,4.4090126953125,-0.2351837158203125,-0.9928436279296875,-0.0501556396484375
1774470978157024500,4.4190244140625,-0.2711944580078125,-0.9561920166015625,-0.04156494140625
1774470978167037700,4.42903759765625,-0.3173980712890625,-0.94677734375,-0.0790557861328125
1774470978177050600,4.439050537109375,-0.3392333984375,-0.9366912841796875,-0.094970703125
1774470978187063800,4.449063720703125,-0.3885040283203125,-0.9362030029296875,-0.0753326416015625
1774470978197076700,4.45907666015625,-0.399749755859375,-0.9647369384765625,-0.0576324462890625
1774470978207089700,4.469089599609375,-0.3788604736328125,-0.97076416015625,-0.06585693359375
1774470978217102800,4.479102783203125,-0.348236083984375,-0.987030029296875,-0.0899658203125
1774470978227115500,4.489115478515625,-0.3730010986328125,-1.005645751953125,-0.1748504638671875
1774470978237128700,4.499128662109375,-0.3881072998046875,-1.0065765380859375,-0.20758056640625
1774470978247141600,4.5091416015625,-0.4254150390625,-1.0391387939453125,-0.2176971435546875
1774470978257154800,4.51915478515625,-0.45318603515625,-1.022796630859375,-0.2157135009765625
1774470978267167500,4.52916748046875,-0.457366943359375,-0.9480438232421875,-0.221405029296875
1774470978277180700,4.5391806640625,-0.507293701171875,-0.9208526611328125,-0.17034912109375
1774470978287193900,4.54919384765625,-0.549407958984375,-0.909576416015625,-0.1466217041015625
1774470978297206500,4.55920654296875,-0.5589447021484375,-0.884033203125,-0.143341064453125
1774470978307219700,4.5692197265625,-0.5579681396484375,-0.885589599609375,-0.1808929443359375
1774470978317231600,4.579231689453125,-0.515716552734375,-0.9230194091796875,-0.2141876220703125
1774470978327244800,4.589244873046875,-0.527862548828125,-0.96405029296875,-0.20196533203125
1774470978337257700,4.5992578125,-0.4732208251953125,-0.982452392578125,-0.220306396484375
1774470978347270700,4.609270751953125,-0.431243896484375,-0.9883575439453125,-0.24371337890625
1774470978357283600,4.61928369140625,-0.372802734375,-0.96307373046875,-0.2203521728515625
1774470978367296800,4.629296875,-0.300872802734375,-0.9423980712890625,-0.188873291015625
1774470978377309700,4.639309814453125,-0.2726593017578125,-0.92620849609375,-0.1919708251953125
1774470978387322600,4.649322509765625,-0.27154541015625,-0.91204833984375,-0.1433868408203125
1774470978397335800,4.659335693359375,-0.2713165283203125,-0.890350341796875,-0.1077880859375
1774470978407348700,4.6693486328125,-0.29071044921875,-0.8953704833984375,-0.107177734375
1774470978417361700,4.679361572265625,-0.3320465087890625,-0.9022064208984375,-0.1170654296875
1774470978427374600,4.68937451171875,-0.363983154296875,-0.910064697265625,-0.130401611328125
1774470978437387800,4.6993876953125,-0.4242706298828125,-0.93701171875,-0.185760498046875
1774470978447400400,4.709400390625,-0.5249786376953125,-0.9881439208984375,-0.2000732421875
1774470978457413600,4.71941357421875,-0.54644775390625,-1.0244598388671875,-0.204132080078125
1774470978467426800,4.7294267578125,-0.4208984375,-0.9879302978515625,-0.1629486083984375
1774470978477439700,4.739439697265625,-0.36981201171875,-1.0106048583984375,-0.151702880859375
1774470978487452000,4.749451904296875,-0.3363494873046875,-1.0579833984375,-0.133636474609375
1774470978497464600,4.759464599609375,-0.3047332763671875,-1.0467987060546875,-0.112335205078125
1774470978507477800,4.769477783203125,-0.313018798828125,-1.0171966552734375,-0.083160400390625
1774470978517490700,4.77949072265625,-0.33123779296875,-0.9788970947265625,-0.0556793212890625
1774470978527503600,4.789503662109375,-0.3499603271484375,-0.929901123046875,-0.0165557861328125
1774470978537516500,4.7995166015625,-0.3627471923828125,-0.9014129638671875,0.0202789306640625
1774470978547529700,4.80952978515625,-0.359466552734375,-0.8800811767578125,0.0688934326171875
1774470978557543000,4.81954296875,-0.3447723388671875,-0.8535919189453125,0.1150970458984375
1774470978567555600,4.8295556640625,-0.342498779296875,-0.8390960693359375,0.1279296875
1774470978577568800,4.83956884765625,-0.351837158203125,-0.8299407958984375,0.1399078369140625
1774470978587581700,4.849581787109375,-0.396575927734375,-0.80303955078125,0.204864501953125
1774470978597594600,4.8595947265625,-0.436981201171875,-0.773223876953125,0.2811279296875
1774470978607607600,4.869607666015625,-0.447509765625,-0.750579833984375,0.3594207763671875
1774470978617620700,4.879620849609375,-0.4615020751953125,-0.732177734375,0.421630859375
1774470978627633700,4.889633544921875,-0.492889404296875,-0.714111328125,0.466522216796875
1774470978637646600,4.899646484375,-0.48712158203125,-0.7113037109375,0.4888763427734375
1774470978647659800,4.90965966796875,-0.444610595703125,-0.709564208984375,0.5205230712890625
1774470978657671700,4.919671630859375,-0.416412353515625,-0.69671630859375,0.566802978515625
1774470978667684900,4.929684814453125,-0.4055633544921875,-0.680450439453125,0.5902862548828125
1774470978677697500,4.939697509765625,-0.4040679931640625,-0.667205810546875,0.596343994140625
1774470978687710700,4.949710693359375,-0.401153564453125,-0.6526641845703125,0.630096435546875
1774470978697723600,4.9597236328125,-0.3952484130859375,-0.625732421875,0.65997314453125
1774470978707736800,4.96973681640625,-0.3702545166015625,-0.6096038818359375,0.6590118408203125
1774470978717749500,4.97974951171875,-0.3298492431640625,-0.61956787109375,0.6273193359375
1774470978727762700,4.9897626953125,-0.3074798583984375,-0.65673828125,0.5684356689453125
1774470978737775600,4.999775634765625,-0.300323486328125,-0.70379638671875,0.5059967041015625
1774470978747788500,5.00978857421875,-0.2977142333984375,-0.7317657470703125,0.467498779296875
1774470978757801700,5.0198017578125,-0.308074951171875,-0.7603912353515625,0.444122314453125
1774470978767814700,5.029814697265625,-0.345947265625,-0.7913818359375,0.3754425048828125
1774470978777827800,5.039827880859375,-0.3926849365234375,-0.8311004638671875,0.2773895263671875
1774470978787840500,5.049840576171875,-0.394775390625,-0.8556060791015625,0.212921142578125
1774470978797853700,5.059853759765625,-0.3610992431640625,-0.8602447509765625,0.189208984375
1774470978807866600,5.06986669921875,-0.341766357421875,-0.8485107421875,0.16778564453125
1774470978817878800,5.079878662109375,-0.34625244140625,-0.831787109375,0.1369171142578125
1774470978827891700,5.0898916015625,-0.3433990478515625,-0.82501220703125,0.1055908203125
1774470978837904600,5.099904541015625,-0.3247222900390625,-0.818878173828125,0.081298828125
1774470978847917800,5.109917724609375,-0.2980194091796875,-0.8197784423828125,0.06231689453125
1774470978857930800,5.1199306640625,-0.2790374755859375,-0.8212738037109375,0.0514984130859375
1774470978867943700,5.129943603515625,-0.2747955322265625,-0.8307647705078125,0.0475006103515625
1774470978877956600,5.13995654296875,-0.2661285400390625,-0.8533172607421875,0.049652099609375
1774470978887969800,5.1499697265625,-0.2875518798828125,-0.8724365234375,0.081085205078125
1774470978897982700,5.159982666015625,-0.3225250244140625,-0.87371826171875,0.1128997802734375
1774470978907995600,5.16999560546875,-0.3564910888671875,-0.8772430419921875,0.134063720703125
1774470978918008600,5.180008544921875,-0.375152587890625,-0.8871917724609375,0.165740966796875
1774470978928021800,5.190021728515625,-0.38201904296875,-0.891387939453125,0.197784423828125
1774470978938034700,5.20003466796875,-0.407501220703125,-0.89501953125,0.216888427734375
1774470978948047600,5.210047607421875,-0.43548583984375,-0.8926849365234375,0.227294921875
1774470978958060800,5.220060791015625,-0.472869873046875,-0.8940277099609375,0.2245330810546875
1774470978968072700,5.23007275390625,-0.4981536865234375,-0.9020538330078125,0.2139129638671875
1774470978978085600,5.240085693359375,-0.499542236328125,-0.914886474609375,0.22064208984375
1774470978988098600,5.2500986328125,-0.5019073486328125,-0.9237213134765625,0.236846923828125
1774470978998111700,5.26011181640625,-0.522064208984375,-0.922271728515625,0.2586212158203125
1774470979008124700,5.270124755859375,-0.5556640625,-0.9054718017578125,0.2772674560546875
1774470979018137600,5.2801376953125,-0.5808868408203125,-0.880340576171875,0.2892913818359375
1774470979028150800,5.29015087890625,-0.5864105224609375,-0.859405517578125,0.2932586669921875
1774470979038163700,5.300163818359375,-0.5783233642578125,-0.842620849609375,0.297698974609375
1774470979048176600,5.3101767578125,-0.56390380859375,-0.8209075927734375,0.3262176513671875
1774470979058189600,5.320189453125,-0.555145263671875,-0.791168212890625,0.3599090576171875
1774470979068202800,5.33020263671875,-0.5236663818359375,-0.7717132568359375,0.3822021484375
1774470979078215700,5.340215576171875,-0.4857177734375,-0.75848388671875,0.402374267578125
1774470979088228600,5.350228515625,-0.469940185546875,-0.748931884765625,0.41259765625
1774470979098240500,5.360240478515625,-0.481231689453125,-0.755126953125,0.424407958984375
1774470979108253700,5.370253662109375,-0.4729156494140625,-0.7687530517578125,0.4518585205078125
1774470979118266600,5.3802666015625,-0.4361114501953125,-0.771881103515625,0.50146484375
1774470979128279800,5.39027978515625,-0.41461181640625,-0.773223876953125,0.5427398681640625
1774470979138292700,5.400292724609375,-0.4250946044921875,-0.7627105712890625,0.57000732421875
1774470979148305700,5.4103056640625,-0.43170166015625,-0.7459869384765625,0.596954345703125
1774470979158318800,5.42031884765625,-0.410919189453125,-0.7137908935546875,0.6430511474609375
1774470979168331500,5.43033154296875,-0.390899658203125,-0.65838623046875,0.707977294921875
1774470979178344700,5.4403447265625,-0.3843841552734375,-0.597137451171875,0.7885589599609375
1774470979188357600,5.450357666015625,-0.3757171630859375,-0.555633544921875,0.851837158203125
1774470979198370800,5.460370849609375,-0.3374786376953125,-0.55029296875,0.8858642578125
1774470979208383700,5.4703837890625,-0.2639007568359375,-0.5655975341796875,0.896270751953125
1774470979218396700,5.480396728515625,-0.20916748046875,-0.603546142578125,0.8709869384765625
1774470979228409900,5.490409912109375,-0.211151123046875,-0.6570281982421875,0.8205718994140625
1774470979238421800,5.500421875,-0.243682861328125,-0.694244384765625,0.785736083984375
1774470979248434700,5.5104345703125,-0.2710113525390625,-0.715606689453125,0.7598419189453125
1774470979258447600,5.520447509765625,-0.28436279296875,-0.7281951904296875,0.73211669921875
1774470979268460800,5.530460693359375,-0.2770233154296875,-0.7376251220703125,0.7007904052734375
1774470979278473700,5.5404736328125,-0.2733612060546875,-0.73968505859375,0.6821441650390625
1774470979288486700,5.550486572265625,-0.2641143798828125,-0.73358154296875,0.67449951171875
1774470979298499600,5.56049951171875,-0.2388153076171875,-0.720306396484375,0.674285888671875
1774470979308512800,5.5705126953125,-0.214324951171875,-0.7044525146484375,0.6667327880859375
1774470979318525700,5.580525634765625,-0.22491455078125,-0.6886444091796875,0.6435394287109375
1774470979328538600,5.59053857421875,-0.256561279296875,-0.6747589111328125,0.6258697509765625
1774470979338551800,5.6005517578125,-0.2586517333984375,-0.66180419921875,0.6138916015625
1774470979348564700,5.610564697265625,-0.248748779296875,-0.6493682861328125,0.5968475341796875
1774470979358577000,5.620576904296875,-0.2738037109375,-0.6428680419921875,0.5766448974609375
1774470979368589600,5.630589599609375,-0.29559326171875,-0.63482666015625,0.55340576171875
1774470979378602800,5.640602783203125,-0.311920166015625,-0.632720947265625,0.5218048095703125
1774470979388615700,5.65061572265625,-0.3548583984375,-0.640594482421875,0.479400634765625
1774470979398628600,5.660628662109375,-0.4364013671875,-0.647491455078125,0.4661865234375
1774470979408641500,5.6706416015625,-0.5165557861328125,-0.6318359375,0.5210113525390625
1774470979418654700,5.68065478515625,-0.557952880859375,-0.5958404541015625,0.5786895751953125
1774470979428667400,5.69066748046875,-0.57940673828125,-0.5542144775390625,0.5947265625
1774470979438680300,5.700680419921875,-0.5735626220703125,-0.5362548828125,0.577117919921875
1774470979448693200,5.710693359375,-0.5478057861328125,-0.545318603515625,0.5290679931640625
1774470979458706400,5.72070654296875,-0.5390777587890625,-0.5621490478515625,0.459136962890625
1774470979468719400,5.73071923828125,-0.53472900390625,-0.5804901123046875,0.424072265625
1774470979478731500,5.7407314453125,-0.5163421630859375,-0.6175537109375,0.387603759765625
1774470979488744400,5.750744384765625,-0.5500335693359375,-0.692413330078125,0.3122711181640625
1774470979498757400,5.76075732421875,-0.621795654296875,-0.7605133056640625,0.2511138916015625
1774470979508770600,5.7707705078125,-0.6849517822265625,-0.7919769287109375,0.2194976806640625
1774470979518783200,5.780783203125,-0.718719482421875,-0.7978973388671875,0.2128143310546875
1774470979528796400,5.79079638671875,-0.7833251953125,-0.7936248779296875,0.211883544921875
1774470979538809300,5.800809326171875,-0.8391265869140625,-0.775634765625,0.2685546875
1774470979548822500,5.810822509765625,-0.8831329345703125,-0.7235107421875,0.3437347412109375
1774470979558835500,5.82083544921875,-0.9049072265625,-0.7022247314453125,0.37451171875
1774470979568848400,5.830848388671875,-0.943450927734375,-0.6705780029296875,0.3316802978515625
1774470979578861600,5.840861572265625,-0.9362030029296875,-0.6431121826171875,0.3227386474609375
1774470979588874200,5.850874267578125,-0.8727874755859375,-0.68170166015625,0.31103515625
1774470979598886400,5.860886474609375,-0.749298095703125,-0.7322998046875,0.3116455078125
1774470979608899300,5.8708994140625,-0.5874786376953125,-0.815521240234375,0.345977783203125
1774470979618912500,5.88091259765625,-0.4518890380859375,-0.8259124755859375,0.3828887939453125
1774470979628925400,5.890925537109375,-0.3327789306640625,-0.7784423828125,0.426605224609375
1774470979638938400,5.9009384765625,-0.2702178955078125,-0.697174072265625,0.4340057373046875
1774470979648951300,5.910951416015625,-0.308349609375,-0.6000213623046875,0.4351959228515625
1774470979658964500,5.920964599609375,-0.39483642578125,-0.524566650390625,0.4022064208984375
1774470979668977400,5.930977294921875,-0.46136474609375,-0.4715728759765625,0.4019775390625
1774470979678990300,5.940990234375,-0.4765472412109375,-0.4258575439453125,0.4079437255859375
1774470979689003500,5.95100341796875,-0.4654541015625,-0.3751220703125,0.363189697265625
1774470979699016400,5.961016357421875,-0.43267822265625,-0.3403778076171875,0.261749267578125
1774470979709029400,5.971029296875,-0.393218994140625,-0.3363800048828125,0.130096435546875
1774470979719041300,5.981041259765625,-0.35784912109375,-0.3336181640625,0.0024261474609375
1774470979729054500,5.991054443359375,-0.4108734130859375,-0.3418426513671875,-0.0770111083984375
1774470979739067400,6.0010673828125,-0.550018310546875,-0.3427734375,-0.1171112060546875
1774470979749080300,6.011080322265625,-0.6357421875,-0.300537109375,-0.1592559814453125
1774470979759093200,6.02109326171875,-0.64300537109375,-0.3154754638671875,-0.261871337890625
1774470979769106400,6.0311064453125,-0.62677001953125,-0.4613189697265625,-0.47406005859375
1774470979779119600,6.04111962890625,-0.659423828125,-0.503997802734375,-0.509857177734375
1774470979789132300,6.05113232421875,-0.69305419921875,-0.5068511962890625,-0.4876861572265625
1774470979799145500,6.0611455078125,-0.9181365966796875,-0.45135498046875,-0.636077880859375
1774470979809158400,6.071158447265625,-1.584686279296875,-0.4456787109375,-1.255828857421875
1774470979819170600,6.081170654296875,-1.729522705078125,-0.536651611328125,-1.5322265625
1774470979829183200,6.091183349609375,-1.27581787109375,-0.599609375,-1.3542633056640625
1774470979839196400,6.101196533203125,-0.7112579345703125,-0.768035888671875,-1.1183319091796875
1774470979849209300,6.111209228515625,-0.42498779296875,-1.0118408203125,-0.6704864501953125
1774470979859222500,6.121222412109375,-0.489837646484375,-1.089324951171875,-0.2405853271484375
1774470979869235200,6.131235107421875,-0.717254638671875,-1.0465850830078125,-0.3722991943359375
1774470979879248400,6.141248291015625,-0.828948974609375,-1.03302001953125,-0.5450592041015625
1774470979889261600,6.151261474609375,-0.87939453125,-0.924835205078125,-0.450439453125
1774470979899274200,6.161274169921875,-0.9231414794921875,-0.713134765625,-0.2565765380859375
1774470979909287400,6.171287353515625,-0.927947998046875,-0.6267242431640625,-0.1909332275390625
1774470979919300400,6.18130029296875,-0.956512451171875,-0.6143035888671875,-0.082061767578125
1774470979929312500,6.1913125,-0.941131591796875,-0.58197021484375,0.00018310546875
1774470979939325400,6.201325439453125,-0.88763427734375,-0.5212554931640625,-0.0047149658203125
1774470979949338400,6.21133837890625,-0.8618927001953125,-0.4680023193359375,-0.0123138427734375
1774470979959351300,6.221351318359375,-0.9209747314453125,-0.5094146728515625,0.067626953125
1774470979969364500,6.231364501953125,-0.9577178955078125,-0.5533294677734375,0.1262054443359375
1774470979979377400,6.24137744140625,-0.92047119140625,-0.55633544921875,0.0926513671875
1774470979989390300,6.251390380859375,-0.852142333984375,-0.6161041259765625,0.07684326171875
1774470979999403500,6.261403564453125,-0.792205810546875,-0.6245880126953125,0.0517578125
1774470980009416400,6.27141650390625,-0.786773681640625,-0.596221923828125,-0.0210418701171875
1774470980019429400,6.281429443359375,-0.7900238037109375,-0.5682830810546875,-0.0892181396484375
1774470980029442300,6.2914423828125,-0.7862701416015625,-0.5573883056640625,-0.1578826904296875
1774470980039454500,6.301454345703125,-0.7646484375,-0.55914306640625,-0.2192840576171875
1774470980049467400,6.31146728515625,-0.7480621337890625,-0.55596923828125,-0.270416259765625
1774470980059480300,6.321480224609375,-0.745391845703125,-0.545745849609375,-0.2979278564453125
1774470980069493200,6.3314931640625,-0.7494354248046875,-0.5509490966796875,-0.2910614013671875
1774470980079506400,6.34150634765625,-0.75384521484375,-0.5662841796875,-0.263275146484375
1774470980089519600,6.35151953125,-0.748260498046875,-0.564971923828125,-0.2333526611328125
1774470980099532300,6.3615322265625,-0.7335968017578125,-0.5635986328125,-0.1987457275390625
1774470980109545500,6.37154541015625,-0.7327880859375,-0.5578765869140625,-0.190582275390625
1774470980119558400,6.381558349609375,-0.7430877685546875,-0.5809478759765625,-0.143829345703125
1774470980129571300,6.3915712890625,-0.7705230712890625,-0.60693359375,-0.0662384033203125
1774470980139583200,6.401583251953125,-0.7457427978515625,-0.6048736572265625,-0.0027923583984375
1774470980149596400,6.411596435546875,-0.6915283203125,-0.566162109375,0.016510009765625
1774470980159609300,6.421609375,-0.6577911376953125,-0.522369384765625,0.012969970703125
1774470980169622500,6.43162255859375,-0.6753997802734375,-0.49737548828125,-0.005615234375
1774470980179635200,6.44163525390625,-0.709930419921875,-0.465667724609375,-0.00738525390625
1774470980189648400,6.4516484375,-0.867889404296875,-0.44000244140625,0.013427734375
1774470980199661600,6.46166162109375,-1.076507568359375,-0.4048309326171875,0.0188140869140625
1774470980213429500,6.475429443359375,-1.322113037109375,-0.3708038330078125,-0.000885009765625
1774470980223442400,6.4854423828125,-1.441009521484375,-0.35626220703125,-0.0289764404296875
1774470980233455400,6.495455322265625,-1.3674774169921875,-0.3611907958984375,-0.0292205810546875
1774470980243468300,6.50546826171875,-1.1652679443359375,-0.3966827392578125,-0.0201873779296875
1774470980253480400,6.51548046875,-0.97039794921875,-0.4376983642578125,-0.01904296875
1774470980263493400,6.525493408203125,-0.834503173828125,-0.4813079833984375,-0.0228271484375
1774470980273506300,6.53550634765625,-0.765960693359375,-0.515655517578125,-0.0321807861328125
1774470980283519500,6.54551953125,-0.7583160400390625,-0.5334320068359375,-0.0447235107421875
1774470980293532400,6.555532470703125,-0.7952728271484375,-0.5373992919921875,-0.0626678466796875
1774470980303545600,6.565545654296875,-0.850982666015625,-0.5252685546875,-0.0787506103515625
1774470980313558300,6.575558349609375,-0.900390625,-0.5069427490234375,-0.0924224853515625
1774470980323571500,6.585571533203125,-0.9279937744140625,-0.487701416015625,-0.104705810546875
1774470980333584400,6.59558447265625,-0.9273681640625,-0.4637908935546875,-0.111968994140625
1774470980343597300,6.605597412109375,-0.9136505126953125,-0.4420928955078125,-0.1162872314453125
1774470980353609200,6.615609130859375,-0.89190673828125,-0.4273223876953125,-0.119354248046875
1774470980363622400,6.625622314453125,-0.8743438720703125,-0.42236328125,-0.1183319091796875
1774470980373635300,6.63563525390625,-0.8750457763671875,-0.427001953125,-0.1157073974609375
1774470980383648500,6.6456484375,-0.8947906494140625,-0.4354095458984375,-0.110260009765625
1774470980393661400,6.655661376953125,-0.92437744140625,-0.4456024169921875,-0.1043701171875
1774470980403674400,6.66567431640625,-0.95379638671875,-0.4583892822265625,-0.095733642578125
1774470980413687600,6.6756875,-0.9759368896484375,-0.46954345703125,-0.0806732177734375
1774470980423700200,6.6857001953125,-0.9801483154296875,-0.4804229736328125,-0.059722900390625
1774470980433713200,6.695713134765625,-0.9667205810546875,-0.49652099609375,-0.04571533203125
1774470980443726000,6.70572607421875,-0.9320068359375,-0.5188751220703125,-0.033355712890625
1774470980453738200,6.71573828125,-0.8794403076171875,-0.54052734375,-0.0201416015625
1774470980463751200,6.725751220703125,-0.823638916015625,-0.5550384521484375,-0.0106964111328125
1774470980473764000,6.73576416015625,-0.7845306396484375,-0.5582122802734375,0.0023956298828125
1774470980483777000,6.745777099609375,-0.7485504150390625,-0.5484161376953125,0.0002593994140625
1774470980493790200,6.755790283203125,-0.72381591796875,-0.5250396728515625,-0.007720947265625
1774470980503803100,6.76580322265625,-0.707061767578125,-0.498565673828125,-0.0118255615234375
1774470980513816000,6.775816162109375,-0.6931915283203125,-0.4667816162109375,-0.0189361572265625
1774470980523829200,6.785829345703125,-0.6973419189453125,-0.44964599609375,-0.0221405029296875
1774470980533842200,6.79584228515625,-0.7050323486328125,-0.45135498046875,-0.0318756103515625
1774470980543855000,6.805855224609375,-0.7191009521484375,-0.4695281982421875,-0.0609130859375
1774470980553867000,6.815866943359375,-0.74749755859375,-0.5026092529296875,-0.0760650634765625
1774470980563880200,6.825880126953125,-0.7822418212890625,-0.5388031005859375,-0.0814666748046875
1774470980573893000,6.83589306640625,-0.815643310546875,-0.56182861328125,-0.0948028564453125
1774470980583906000,6.845906005859375,-0.84197998046875,-0.5689544677734375,-0.108978271484375
1774470980593919000,6.8559189453125,-0.857574462890625,-0.5625762939453125,-0.1272430419921875
1774470980603932200,6.86593212890625,-0.8610382080078125,-0.5509490966796875,-0.13824462890625
1774470980613945300,6.8759453125,-0.8555145263671875,-0.5470733642578125,-0.1415252685546875
1774470980623958000,6.8859580078125,-0.860504150390625,-0.55029296875,-0.13372802734375
1774470980633971200,6.89597119140625,-0.8784942626953125,-0.5585479736328125,-0.122344970703125
1774470980643984100,6.905984130859375,-0.90069580078125,-0.5671234130859375,-0.11199951171875
1774470980653996300,6.915996337890625,-0.9176788330078125,-0.57147216796875,-0.0997314453125
1774470980664009200,6.92600927734375,-0.9160919189453125,-0.572357177734375,-0.0895538330078125
1774470980674022100,6.936022216796875,-0.89593505859375,-0.57318115234375,-0.0819854736328125
1774470980684035000,6.94603515625,-0.8703765869140625,-0.574371337890625,-0.067779541015625
1774470980694048300,6.95604833984375,-0.84051513671875,-0.574951171875,-0.0626983642578125
1774470980704061000,6.96606103515625,-0.81085205078125,-0.5723724365234375,-0.0676727294921875
1774470980714074000,6.97607421875,-0.799896240234375,-0.571624755859375,-0.0685882568359375
1774470980724087300,6.98608740234375,-0.8028717041015625,-0.5669097900390625,-0.0801239013671875
1774470980734100200,6.996100341796875,-0.8167572021484375,-0.558929443359375,-0.101470947265625
1774470980744113200,7.006113037109375,-0.8303680419921875,-0.5509185791015625,-0.1288909912109375
1774470980754125000,7.016125,-0.8325042724609375,-0.54583740234375,-0.14459228515625
1774470980764138200,7.02613818359375,-0.825927734375,-0.54376220703125,-0.1468963623046875
1774470980774151200,7.036151123046875,-0.8095550537109375,-0.547210693359375,-0.1421661376953125
1774470980784164000,7.0461640625,-0.78350830078125,-0.546844482421875,-0.132080078125
1774470980794177000,7.056177001953125,-0.761749267578125,-0.5458221435546875,-0.1219024658203125
1774470980804190200,7.066190185546875,-0.753936767578125,-0.545989990234375,-0.1053924560546875
1774470980814203100,7.076203125,-0.75445556640625,-0.54656982421875,-0.090362548828125
1774470980824216000,7.086216064453125,-0.763702392578125,-0.5506744384765625,-0.0784759521484375
1774470980834229200,7.096229248046875,-0.78271484375,-0.5532989501953125,-0.0751190185546875
1774470980844242200,7.1062421875,-0.8041229248046875,-0.5562286376953125,-0.0734710693359375
1774470980854255000,7.116255126953125,-0.8321990966796875,-0.5584716796875,-0.0611572265625
1774470980864268000,7.12626806640625,-0.8650665283203125,-0.5616912841796875,-0.047576904296875
1774470980874280200,7.1362802734375,-0.8770294189453125,-0.558258056640625,-0.048187255859375
1774470980884293000,7.146293212890625,-0.87310791015625,-0.5543670654296875,-0.04571533203125
1774470980894306300,7.156306396484375,-0.85968017578125,-0.5519256591796875,-0.0386962890625
1774470980904319000,7.166319091796875,-0.839996337890625,-0.5524444580078125,-0.0359954833984375
1774470980914332200,7.176332275390625,-0.824554443359375,-0.5491485595703125,-0.034576416015625
1774470980924345300,7.186345458984375,-0.81597900390625,-0.5437774658203125,-0.0335540771484375
1774470980934358000,7.19635791015625,-0.8190765380859375,-0.5376434326171875,-0.0347442626953125
1774470980944371200,7.20637109375,-0.8378753662109375,-0.5315704345703125,-0.041778564453125
1774470980954384100,7.216384033203125,-0.8618927001953125,-0.52325439453125,-0.053314208984375
1774470980964397300,7.226397216796875,-0.8785400390625,-0.5210113525390625,-0.0645751953125
1774470980974410000,7.236409912109375,-0.890106201171875,-0.5299224853515625,-0.067169189453125
1774470980984423200,7.246423095703125,-0.8852996826171875,-0.5466461181640625,-0.0632171630859375
1774470980994435000,7.25643505859375,-0.87615966796875,-0.5623931884765625,-0.058502197265625
1774470981004448300,7.2664482421875,-0.8625640869140625,-0.570159912109375,-0.054046630859375
1774470981014461000,7.2764609375,-0.8400421142578125,-0.56646728515625,-0.050506591796875
1774470981024474000,7.28647412109375,-0.8255767822265625,-0.5540924072265625,-0.04681396484375
1774470981034487300,7.2964873046875,-0.824798583984375,-0.5395965576171875,-0.0404205322265625
1774470981044500200,7.306500244140625,-0.837127685546875,-0.528564453125,-0.035858154296875
1774470981054513200,7.31651318359375,-0.858428955078125,-0.5233306884765625,-0.0289154052734375
1774470981064526000,7.326526123046875,-0.87298583984375,-0.521881103515625,-0.0400848388671875
1774470981074539300,7.336539306640625,-0.8808135986328125,-0.5279388427734375,-0.047088623046875
1774470981084552000,7.346552001953125,-0.8803863525390625,-0.5374908447265625,-0.04364013671875
1774470981094565000,7.356565185546875,-0.87506103515625,-0.5402984619140625,-0.036346435546875
1774470981104578300,7.366578369140625,-0.8630828857421875,-0.5357208251953125,-0.03277587890625
1774470981114591200,7.37659130859375,-0.852996826171875,-0.530029296875,-0.03009033203125
1774470981124604200,7.386604248046875,-0.8532562255859375,-0.52850341796875,-0.0287322998046875
1774470981134617000,7.3966171875,-0.8592529296875,-0.533203125,-0.023712158203125
1774470981144630300,7.40663037109375,-0.8585968017578125,-0.5403594970703125,-0.024932861328125
1774470981154642200,7.41664208984375,-0.8446197509765625,-0.548583984375,-0.0343170166015625
1774470981164655000,7.426655029296875,-0.8175048828125,-0.555816650390625,-0.040802001953125
1774470981174668000,7.43666796875,-0.7870330810546875,-0.5587158203125,-0.04681396484375
1774470981184681200,7.44668115234375,-0.769134521484375,-0.55859375,-0.048736572265625
1774470981194694100,7.456694091796875,-0.7684783935546875,-0.55877685546875,-0.0523223876953125
1774470981204707000,7.46670703125,-0.7884063720703125,-0.55560302734375,-0.051544189453125
1774470981214720300,7.47672021484375,-0.8208465576171875,-0.5493316650390625,-0.0501861572265625
1774470981224733200,7.486733154296875,-0.8640594482421875,-0.5431976318359375,-0.0478363037109375
1774470981234746000,7.49674609375,-0.9027557373046875,-0.540618896484375,-0.041595458984375
1774470981244759000,7.506759033203125,-0.9228363037109375,-0.548126220703125,-0.036865234375
1774470981254772200,7.516772216796875,-0.90740966796875,-0.5680999755859375,-0.0208892822265625
1774470981264785200,7.52678515625,-0.8596954345703125,-0.594146728515625,0.007965087890625
1774470981274798000,7.536798095703125,-0.8187255859375,-0.6088104248046875,0.042724609375
1774470981284811300,7.546811279296875,-0.7895965576171875,-0.607391357421875,0.06494140625
1774470981294824200,7.55682421875,-0.7693939208984375,-0.595794677734375,0.0632476806640625
1774470981304837000,7.566837158203125,-0.7714080810546875,-0.5871429443359375,0.048797607421875
1774470981314850000,7.57685009765625,-0.7862701416015625,-0.579071044921875,0.0312957763671875
1774470981324863200,7.58686328125,-0.8025970458984375,-0.57220458984375,0.0103607177734375
1774470981334876200,7.596876220703125,-0.8204498291015625,-0.56536865234375,-0.0157470703125
1774470981344889000,7.60688916015625,-0.8368988037109375,-0.561248779296875,-0.0346832275390625
1774470981354902000,7.616902099609375,-0.841552734375,-0.5551910400390625,-0.056549072265625
1774470981364915200,7.626915283203125,-0.8366851806640625,-0.5515289306640625,-0.0652618408203125
1774470981374927000,7.636927001953125,-0.8262939453125,-0.5472412109375,-0.0668792724609375
1774470981384940000,7.64693994140625,-0.8154296875,-0.5438232421875,-0.0579071044921875
1774470981394953200,7.656953125,-0.828216552734375,-0.552520751953125,-0.0431365966796875
1774470981404966100,7.666966064453125,-0.84808349609375,-0.5665283203125,-0.041656494140625
1774470981414979300,7.676979248046875,-0.89935302734375,-0.588958740234375,-0.0284576416015625
1774470981424992000,7.686991943359375,-0.9450836181640625,-0.5958404541015625,-0.0211181640625
1774470981435005400,7.69700537109375,-0.948883056640625,-0.5771636962890625,-0.0319366455078125
1774470981445018400,7.707018310546875,-0.932586669921875,-0.563873291015625,-0.038299560546875
1774470981455031300,7.71703125,-0.9019927978515625,-0.5640869140625,-0.03955078125
1774470981465044500,7.72704443359375,-0.8643035888671875,-0.572601318359375,-0.03985595703125
1774470981475057400,7.737057373046875,-0.8268890380859375,-0.5801544189453125,-0.044677734375
1774470981485070600,7.747070556640625,-0.8005218505859375,-0.5946044921875,-0.0487518310546875
1774470981495083300,7.757083251953125,-0.799407958984375,-0.60845947265625,-0.0479583740234375
1774470981505096400,7.767096435546875,-0.8114471435546875,-0.6176605224609375,-0.04791259765625
1774470981515109400,7.777109375,-0.8292999267578125,-0.6272125244140625,-0.043365478515625
1774470981525122300,7.787122314453125,-0.8590545654296875,-0.635009765625,-0.0354461669921875
1774470981535135500,7.797135498046875,-0.865234375,-0.6295166015625,-0.0303497314453125
1774470981545148400,7.8071484375,-0.830810546875,-0.61279296875,-0.035186767578125
1774470981555161600,7.81716162109375,-0.787506103515625,-0.5986175537109375,-0.0365447998046875
1774470981565174300,7.82717431640625,-0.755401611328125,-0.5973358154296875,-0.0380706787109375
1774470981575187500,7.8371875,-0.7325439453125,-0.6118927001953125,-0.0349578857421875
1774470981585200400,7.847200439453125,-0.7233123779296875,-0.634735107421875,-0.029541015625
1774470981595213300,7.85721337890625,-0.7130889892578125,-0.6481475830078125,-0.010528564453125
1774470981605226200,7.867226318359375,-0.7020111083984375,-0.64532470703125,0.0011138916015625
1774470981615239400,7.877239501953125,-0.7008056640625,-0.6393280029296875,0.0281982421875
1774470981625252600,7.887252685546875,-0.711669921875,-0.6259918212890625,0.0704803466796875
1774470981635265300,7.897265380859375,-0.7227630615234375,-0.612548828125,0.0933074951171875
1774470981645278500,7.907278564453125,-0.7221527099609375,-0.6105499267578125,0.0990447998046875
1774470981655291400,7.91729150390625,-0.7021636962890625,-0.6073150634765625,0.0901947021484375
1774470981665304300,7.92730419921875,-0.6679840087890625,-0.5995330810546875,0.074981689453125
1774470981675317200,7.937317138671875,-0.6074066162109375,-0.5834197998046875,0.0545196533203125
1774470981685330400,7.947330322265625,-0.5510101318359375,-0.58648681640625,0.0518646240234375
1774470981695343600,7.957343505859375,-0.532806396484375,-0.6143951416015625,0.073150634765625
1774470981705356300,7.967356201171875,-0.541656494140625,-0.6408538818359375,0.1013641357421875
1774470981715369500,7.977369384765625,-0.565338134765625,-0.6505889892578125,0.118621826171875
1774470981725382400,7.98738232421875,-0.6129608154296875,-0.651580810546875,0.1355743408203125
1774470981735395300,7.997395263671875,-0.6832733154296875,-0.64996337890625,0.155181884765625
1774470981745408300,8.007408203125,-0.75885009765625,-0.647186279296875,0.1571197509765625
1774470981755421400,8.01742138671875,-0.8215789794921875,-0.640228271484375,0.13311767578125
1774470981765434600,8.0274345703125,-0.8762359619140625,-0.6322784423828125,0.09735107421875
1774470981775447300,8.037447265625,-0.9024505615234375,-0.6301116943359375,0.04412841796875
1774470981785460500,8.04746044921875,-0.8853607177734375,-0.624053955078125,-0.0134124755859375
1774470981795473400,8.057473388671875,-0.84417724609375,-0.614837646484375,-0.0457916259765625
1774470981805486300,8.067486328125,-0.8232421875,-0.6176910400390625,-0.054656982421875
1774470981815499300,8.077499267578125,-0.8123626708984375,-0.609619140625,-0.0656585693359375
1774470981825512400,8.087512451171875,-0.804962158203125,-0.597991943359375,-0.0780487060546875
1774470981835525400,8.097525390625,-0.786773681640625,-0.576934814453125,-0.0794677734375
1774470981845538300,8.107538330078125,-0.773834228515625,-0.564666748046875,-0.070648193359375
1774470981855551500,8.117551513671875,-0.7917938232421875,-0.5778045654296875,-0.0455780029296875
1774470981865564400,8.127564453125,-0.8341217041015625,-0.6103668212890625,-0.012237548828125
1774470981875577300,8.137577392578125,-0.8711700439453125,-0.6243438720703125,0.0028228759765625
1774470981885590300,8.14759033203125,-0.889312744140625,-0.6241607666015625,0.0098419189453125
1774470981895603500,8.157603515625,-0.8618316650390625,-0.605926513671875,-0.0071868896484375
1774470981905616400,8.167616455078125,-0.820159912109375,-0.6025390625,-0.006317138671875
1774470981915629300,8.17762939453125,-0.788787841796875,-0.613311767578125,-0.000274658203125
1774470981925643500,8.1876435546875,-0.760711669921875,-0.616485595703125,0.0026092529296875
1774470981935656200,8.19765625,-0.74053955078125,-0.616455078125,-0.0041656494140625
1774470981945669400,8.20766943359375,-0.7368011474609375,-0.611419677734375,-0.020233154296875
1774470981955682300,8.217682373046875,-0.7581787109375,-0.60784912109375,-0.02423095703125
1774470981965695500,8.227695556640626,-0.7950897216796875,-0.595855712890625,-0.03363037109375
1774470981975708400,8.23770849609375,-0.833038330078125,-0.5794830322265625,-0.0467681884765625
1774470981985721300,8.247721435546875,-0.862548828125,-0.56842041015625,-0.0491943359375
1774470981995734500,8.257734619140624,-0.8948516845703125,-0.5847320556640625,-0.052490234375
1774470982005747200,8.267747314453125,-0.9062347412109375,-0.5985870361328125,-0.0701751708984375
1774470982015760400,8.277760498046876,-0.9028778076171875,-0.6039276123046875,-0.0755615234375
1774470982025773300,8.287773193359374,-0.885498046875,-0.591766357421875,-0.077911376953125
1774470982035786500,8.297786376953125,-0.84967041015625,-0.5982818603515625,-0.079071044921875
1774470982045799400,8.30779931640625,-0.808685302734375,-0.61346435546875,-0.081939697265625
1774470982055812400,8.317812255859375,-0.787261962890625,-0.5966339111328125,-0.070068359375
1774470982065825500,8.327825439453125,-0.7900238037109375,-0.571258544921875,-0.0462799072265625
1774470982075838200,8.337838134765626,-0.815826416015625,-0.558929443359375,-0.005096435546875
1774470982085851400,8.347851318359375,-0.8391571044921875,-0.5411376953125,0.02496337890625
1774470982095864300,8.3578642578125,-0.8652801513671875,-0.526947021484375,0.0363922119140625
1774470982105877500,8.36787744140625,-0.8843536376953125,-0.545928955078125,0.0546417236328125
1774470982115890400,8.377890380859375,-0.90203857421875,-0.5662384033203125,0.054473876953125
1774470982125903400,8.3879033203125,-0.9334259033203125,-0.60052490234375,0.07769775390625
1774470982135916500,8.39791650390625,-0.960052490234375,-0.627838134765625,0.0882568359375
1774470982145930200,8.40793017578125,-0.9365081787109375,-0.618743896484375,0.0455322265625
1774470982155943400,8.417943359375,-0.899078369140625,-0.6226959228515625,-0.0136871337890625
1774470982165956600,8.42795654296875,-0.8704681396484375,-0.617279052734375,-0.0827789306640625
1774470982175969300,8.43796923828125,-0.8378753662109375,-0.6161346435546875,-0.1330108642578125
1774470982185982500,8.447982421875,-0.7786712646484375,-0.6148834228515625,-0.1689910888671875
1774470982195995400,8.457995361328125,-0.751220703125,-0.61737060546875,-0.163116455078125
1774470982206008300,8.46800830078125,-0.753662109375,-0.6200103759765625,-0.1278533935546875
1774470982216021200,8.478021240234375,-0.764923095703125,-0.6327667236328125,-0.0740966796875
1774470982226034400,8.488034423828125,-0.7568511962890625,-0.62969970703125,-0.022491455078125
1774470982236047600,8.498047607421874,-0.750579833984375,-0.608184814453125,0.01702880859375
1774470982246060300,8.508060302734375,-0.723480224609375,-0.58197021484375,0.035125732421875
1774470982256073500,8.518073486328126,-0.690460205078125,-0.59088134765625,0.0630035400390625
1774470982266086400,8.52808642578125,-0.6565704345703125,-0.6228485107421875,0.083282470703125
1774470982276099300,8.538099365234375,-0.6378936767578125,-0.6496124267578125,0.1161956787109375
1774470982286112300,8.5481123046875,-0.6418304443359375,-0.6789703369140625,0.1415863037109375
1774470982296125400,8.55812548828125,-0.6609954833984375,-0.69354248046875,0.152801513671875
1774470982306138400,8.568138427734375,-0.6886138916015625,-0.6913299560546875,0.1510467529296875
1774470982316152300,8.57815234375,-0.7126312255859375,-0.6774444580078125,0.13336181640625
1774470982326165500,8.58816552734375,-0.7401885986328125,-0.6399383544921875,0.0828704833984375
1774470982336178200,8.59817822265625,-0.79461669921875,-0.60418701171875,0.023223876953125
1774470982346191400,8.60819140625,-0.8448486328125,-0.59332275390625,-0.0181884765625
1774470982356204500,8.61820458984375,-0.8471832275390625,-0.5973968505859375,-0.0347137451171875
1774470982366217500,8.628217529296874,-0.806396484375,-0.614471435546875,-0.0431060791015625
1774470982376230400,8.63823046875,-0.754180908203125,-0.653778076171875,-0.0124969482421875
1774470982386243300,8.648243408203125,-0.7075347900390625,-0.6898956298828125,0.032440185546875
1774470982396256500,8.658256591796874,-0.689544677734375,-0.7126617431640625,0.0930023193359375
1774470982406269200,8.668269287109375,-0.7009124755859375,-0.7253265380859375,0.1604461669921875
1774470982416282400,8.678282470703126,-0.705474853515625,-0.7208099365234375,0.1992950439453125
1774470982426295300,8.68829541015625,-0.698577880859375,-0.7147216796875,0.207855224609375
1774470982436309000,8.69830908203125,-0.676025390625,-0.706817626953125,0.197540283203125
1774470982446322200,8.708322265625,-0.640289306640625,-0.681396484375,0.186431884765625
1774470982456335000,8.718335205078125,-0.6070098876953125,-0.663330078125,0.163970947265625
1774470982466348300,8.728348388671876,-0.57232666015625,-0.64495849609375,0.107208251953125
1774470982476362200,8.7383623046875,-0.594085693359375,-0.641876220703125,0.0587158203125
1774470982486375200,8.748375244140625,-0.6725006103515625,-0.6455535888671875,0.031219482421875
1774470982496388000,8.75838818359375,-0.7659759521484375,-0.640350341796875,0.017669677734375
1774470982506401000,8.768401123046875,-0.84942626953125,-0.628631591796875,0.0171051025390625
1774470982516414200,8.778414306640625,-0.9079132080078125,-0.6255035400390625,0.0283660888671875
1774470982526427100,8.78842724609375,-0.932464599609375,-0.634002685546875,0.0479583740234375
1774470982536440000,8.798440185546875,-0.927459716796875,-0.6466217041015625,0.0574951171875
1774470982546453200,8.808453369140626,-0.8989715576171875,-0.6609344482421875,0.051849365234375
1774470982556466200,8.818466064453125,-0.844085693359375,-0.6722412109375,0.0458221435546875
1774470982566479000,8.82847900390625,-0.7723846435546875,-0.6773529052734375,0.04705810546875
1774470982576492000,8.838491943359376,-0.715667724609375,-0.6779937744140625,0.058837890625
1774470982586505200,8.848505126953125,-0.6890411376953125,-0.675689697265625,0.0801239013671875
1774470982596518100,8.85851806640625,-0.6865997314453125,-0.671234130859375,0.102081298828125
1774470982606531000,8.868531005859374,-0.69921875,-0.6670989990234375,0.1202392578125
1774470982616544300,8.878544189453125,-0.7206878662109375,-0.66790771484375,0.121002197265625
1774470982626558000,8.888557861328126,-0.7545166015625,-0.6768341064453125,0.102203369140625
1774470982636571100,8.898571044921875,-0.7790069580078125,-0.6901092529296875,0.0657806396484375
1774470982646584000,8.908583984375,-0.786376953125,-0.7002410888671875,0.030029296875
1774470982656597200,8.91859716796875,-0.7769775390625,-0.6986083984375,0.0097503662109375
1774470982666610200,8.928610107421875,-0.7412261962890625,-0.686065673828125,0.0030364990234375
1774470982676623000,8.938623046875,-0.69140625,-0.67034912109375,0.0166168212890625
1774470982686636300,8.94863623046875,-0.6548004150390625,-0.6641998291015625,0.048431396484375
1774470982696649000,8.95864892578125,-0.6255645751953125,-0.6742401123046875,0.0818023681640625
1774470982706662100,8.968662109375,-0.6170806884765625,-0.692108154296875,0.1070404052734375
1774470982716675000,8.978675048828125,-0.64483642578125,-0.7095489501953125,0.1421051025390625
1774470982726688300,8.988688232421875,-0.69970703125,-0.7050933837890625,0.181396484375
1774470982736701200,8.998701171875,-0.754119873046875,-0.6797027587890625,0.197235107421875
1774470982746714000,9.008714111328125,-0.8093414306640625,-0.66571044921875,0.1844024658203125
1774470982756728000,9.01872802734375,-0.837799072265625,-0.6626739501953125,0.134002685546875
1774470982766741000,9.028740966796875,-0.8341064453125,-0.665679931640625,0.04693603515625
1774470982776754200,9.038754150390625,-0.8277435302734375,-0.6827392578125,-0.0261077880859375
1774470982786767400,9.048767333984374,-0.797210693359375,-0.690582275390625,-0.0746612548828125
1774470982796780000,9.058780029296875,-0.7331695556640625,-0.6885223388671875,-0.0790863037109375
1774470982806793200,9.068793212890625,-0.67041015625,-0.6860504150390625,-0.041046142578125
1774470982816806100,9.07880615234375,-0.6236114501953125,-0.6815948486328125,0.0099945068359375
1774470982826819000,9.088819091796875,-0.6067352294921875,-0.6729736328125,0.0457611083984375
1774470982836832000,9.09883203125,-0.5983734130859375,-0.676025390625,0.072265625
1774470982846845200,9.10884521484375,-0.5886688232421875,-0.689300537109375,0.0969696044921875
1774470982856858400,9.1188583984375,-0.5878753662109375,-0.7050628662109375,0.1165771484375
1774470982866871000,9.12887109375,-0.6013336181640625,-0.711669921875,0.132659912109375
1774470982876885200,9.13888525390625,-0.634002685546875,-0.702117919921875,0.146484375
1774470982886898000,9.14889794921875,-0.666473388671875,-0.68951416015625,0.1429290771484375
1774470982896911000,9.1589111328125,-0.6896514892578125,-0.6853485107421875,0.1217041015625
1774470982906924300,9.16892431640625,-0.7086181640625,-0.6855926513671875,0.0990447998046875
1774470982916937200,9.178937255859376,-0.7225799560546875,-0.689605712890625,0.0823211669921875
1774470982926950100,9.1889501953125,-0.7383575439453125,-0.6937713623046875,0.0705108642578125
1774470982936963000,9.198963134765625,-0.74932861328125,-0.69354248046875,0.057586669921875
1774470982946976300,9.208976318359374,-0.7553253173828125,-0.6934814453125,0.05487060546875
1774470982956989000,9.218989013671875,-0.75494384765625,-0.6942291259765625,0.065765380859375
1774470982967002000,9.229002197265626,-0.7646636962890625,-0.7003936767578125,0.0850830078125
1774470982977015300,9.239015380859374,-0.76898193359375,-0.706756591796875,0.091796875
1774470982987028200,9.2490283203125,-0.762054443359375,-0.71331787109375,0.099456787109375
1774470982997041200,9.259041259765626,-0.7508087158203125,-0.712158203125,0.1061553955078125
1774470983007055000,9.26905517578125,-0.7275848388671875,-0.7038116455078125,0.1008758544921875
1774470983017068000,9.279068115234375,-0.70263671875,-0.6975860595703125,0.0899200439453125
1774470983027081200,9.289081298828124,-0.696136474609375,-0.6956024169921875,0.0832977294921875
1774470983037094100,9.29909423828125,-0.7050933837890625,-0.695281982421875,0.073516845703125
1774470983047107300,9.309107421875,-0.7249298095703125,-0.6950836181640625,0.0611419677734375
1774470983057120000,9.3191201171875,-0.7308197021484375,-0.7049102783203125,0.0584564208984375
1774470983067133200,9.32913330078125,-0.724639892578125,-0.7148895263671875,0.0638885498046875
1774470983077146000,9.33914599609375,-0.717742919921875,-0.722381591796875,0.076019287109375
1774470983087159000,9.349158935546875,-0.712066650390625,-0.7227935791015625,0.085906982421875
1774470983097172200,9.359172119140625,-0.6988677978515625,-0.7197418212890625,0.0893096923828125
1774470983107185200,9.36918505859375,-0.6657562255859375,-0.7188720703125,0.082061767578125
1774470983117198300,9.3791982421875,-0.6425323486328125,-0.7214202880859375,0.0721435546875
1774470983127212000,9.3892119140625,-0.642181396484375,-0.717254638671875,0.07415771484375
1774470983137225200,9.39922509765625,-0.6615447998046875,-0.7082061767578125,0.0959930419921875
1774470983147238100,9.409238037109375,-0.6846771240234375,-0.6944732666015625,0.08154296875
1774470983157251000,9.4192509765625,-0.7340545654296875,-0.670623779296875,0.0428466796875
1774470983167264300,9.42926416015625,-0.781280517578125,-0.681427001953125,0.0198974609375
1774470983177277200,9.439277099609376,-0.792999267578125,-0.7034912109375,0.0141754150390625
1774470983187290000,9.4492900390625,-0.7833709716796875,-0.7095489501953125,0.0233306884765625
1774470983197303000,9.459302978515625,-0.7537078857421875,-0.709259033203125,0.0490570068359375
1774470983207316200,9.469316162109376,-0.7133636474609375,-0.709747314453125,0.082489013671875
1774470983217329200,9.4793291015625,-0.68121337890625,-0.7033843994140625,0.10406494140625
1774470983227342000,9.489342041015625,-0.6521148681640625,-0.696868896484375,0.125701904296875
1774470983237355300,9.499355224609374,-0.6177825927734375,-0.696136474609375,0.1466522216796875
1774470983247369000,9.509368896484375,-0.5985107421875,-0.677490234375,0.158416748046875
1774470983257382100,9.519382080078126,-0.6430206298828125,-0.67474365234375,0.1689605712890625
1774470983267395300,9.529395263671875,-0.72357177734375,-0.70269775390625,0.1622161865234375
1774470983277408000,9.539407958984375,-0.7897796630859375,-0.7226409912109375,0.1300506591796875
1774470983287421200,9.549421142578124,-0.8166351318359375,-0.7276458740234375,0.0947265625
1774470983297434000,9.55943408203125,-0.8142547607421875,-0.73736572265625,0.0866241455078125
1774470983307447300,9.569447265625,-0.7964630126953125,-0.7415008544921875,0.1087188720703125
1774470983317460000,9.5794599609375,-0.757476806640625,-0.7286376953125,0.1357879638671875
1774470983327473200,9.58947314453125,-0.7133026123046875,-0.7032012939453125,0.155059814453125
1774470983337486000,9.599486083984376,-0.6732635498046875,-0.67999267578125,0.162841796875
1774470983347499000,9.6094990234375,-0.655609130859375,-0.6614990234375,0.1493377685546875
1774470983357512200,9.61951220703125,-0.672515869140625,-0.6568450927734375,0.1208648681640625
1774470983367526100,9.629526123046874,-0.7016754150390625,-0.6616363525390625,0.0870819091796875
1774470983377539000,9.6395390625,-0.7207794189453125,-0.6744232177734375,0.0567474365234375
1774470983387552000,9.649552001953126,-0.7385101318359375,-0.6973419189453125,0.037384033203125
1774470983397565200,9.659565185546874,-0.757293701171875,-0.7094879150390625,0.0286102294921875
1774470983407578000,9.669578125,-0.7809600830078125,-0.6926727294921875,0.01434326171875
1774470983417591000,9.679591064453126,-0.7893524169921875,-0.6669769287109375,-0.0170440673828125
1774470983427604200,9.689604248046875,-0.7746429443359375,-0.66522216796875,-0.0314788818359375
1774470983437616400,9.699616455078125,-0.742706298828125,-0.6861419677734375,-0.0145111083984375
1774470983447629300,9.70962939453125,-0.7052764892578125,-0.7090606689453125,0.02618408203125
1774470983457642200,9.719642333984375,-0.67047119140625,-0.7223052978515625,0.07635498046875
1774470983467655200,9.7296552734375,-0.6257781982421875,-0.729278564453125,0.126251220703125
1774470983477668400,9.73966845703125,-0.5821990966796875,-0.737640380859375,0.167327880859375
1774470983487682300,9.749682373046875,-0.5523681640625,-0.7532806396484375,0.1962432861328125
1774470983497695200,9.7596953125,-0.54876708984375,-0.7702484130859375,0.20654296875
1774470983507708400,9.76970849609375,-0.5757293701171875,-0.771942138671875,0.20111083984375
1774470983517721000,9.77972119140625,-0.6293182373046875,-0.743377685546875,0.164215087890625
1774470983527734300,9.789734375,-0.6974029541015625,-0.7136077880859375,0.115478515625
1774470983537747500,9.79974755859375,-0.7489471435546875,-0.700347900390625,0.102569580078125
1774470983547760000,9.809760009765625,-0.78582763671875,-0.698638916015625,0.119476318359375
1774470983557773300,9.819773193359374,-0.790252685546875,-0.7167205810546875,0.1486663818359375
1774470983567786200,9.8297861328125,-0.7672882080078125,-0.744537353515625,0.1949310302734375
1774470983577799400,9.83979931640625,-0.750701904296875,-0.759124755859375,0.249176025390625
1774470983587812000,9.84981201171875,-0.756317138671875,-0.7514495849609375,0.2716064453125
1774470983597825300,9.8598251953125,-0.755096435546875,-0.7408599853515625,0.2452239990234375
1774470983607839200,9.869839111328124,-0.7456817626953125,-0.75457763671875,0.235107421875
1774470983617852200,9.87985205078125,-0.708953857421875,-0.7847137451171875,0.251800537109375
1774470983627865300,9.889865234375,-0.6500091552734375,-0.8010101318359375,0.2482147216796875
1774470983637878300,9.899878173828125,-0.608917236328125,-0.8157806396484375,0.269622802734375
1774470983647891200,9.90989111328125,-0.56170654296875,-0.8045501708984375,0.2861785888671875
1774470983657904000,9.919904052734376,-0.5196380615234375,-0.77740478515625,0.293609619140625
1774470983667917300,9.929917236328125,-0.49090576171875,-0.7583465576171875,0.305145263671875
1774470983677930200,9.93993017578125,-0.4731292724609375,-0.7337188720703125,0.282745361328125
1774470983687943200,9.949943115234374,-0.468292236328125,-0.7604522705078125,0.240386962890625
1774470983697956400,9.959956298828125,-0.4541015625,-0.766448974609375,0.190582275390625
1774470983707969300,9.96996923828125,-0.4440460205078125,-0.7952880859375,0.1623382568359375
1774470983717982200,9.979982177734374,-0.42852783203125,-0.815765380859375,0.1418914794921875
1774470983727996400,9.989996337890625,-0.4176788330078125,-0.7988128662109375,0.1259765625
1774470983738009000,10.000009033203124,-0.4207611083984375,-0.79620361328125,0.1307525634765625
1774470983748022300,10.010022216796875,-0.4135589599609375,-0.8033599853515625,0.145233154296875
1774470983758035200,10.02003515625,-0.40771484375,-0.8162689208984375,0.1747283935546875
1774470983768048400,10.03004833984375,-0.414581298828125,-0.8074951171875,0.1902313232421875
1774470983778061000,10.04006103515625,-0.454254150390625,-0.8288421630859375,0.2020416259765625
1774470983788074200,10.05007421875,-0.5062103271484375,-0.841522216796875,0.2016754150390625
1774470983798087400,10.06008740234375,-0.55078125,-0.8406219482421875,0.17767333984375
1774470983808100000,10.07010009765625,-0.6004180908203125,-0.8361968994140625,0.15020751953125
1774470983818113300,10.08011328125,-0.658599853515625,-0.83203125,0.12298583984375
1774470983828126200,10.090126220703125,-0.7025299072265625,-0.8300933837890625,0.10113525390625
1774470983838139400,10.100139404296876,-0.694732666015625,-0.8202667236328125,0.0879974365234375
1774470983848153300,10.1101533203125,-0.6244659423828125,-0.80426025390625,0.0894317626953125
1774470983858166300,10.120166259765625,-0.5322113037109375,-0.788177490234375,0.1125946044921875
1774470983868179200,10.13017919921875,-0.455535888671875,-0.78179931640625,0.154693603515625
1774470983878192000,10.140192138671875,-0.4171142578125,-0.776519775390625,0.208465576171875
1774470983888205300,10.150205322265625,-0.4246368408203125,-0.76715087890625,0.26165771484375
1774470983898218200,10.16021826171875,-0.4597625732421875,-0.757720947265625,0.312225341796875
1774470983908231200,10.170231201171875,-0.50384521484375,-0.7588653564453125,0.350921630859375
1774470983918244400,10.180244384765626,-0.5491790771484375,-0.7610931396484375,0.3563690185546875
1774470983928257300,10.19025732421875,-0.5664215087890625,-0.7663726806640625,0.318115234375
1774470983938270200,10.200270263671875,-0.5469818115234375,-0.7936248779296875,0.277313232421875
1774470983948283100,10.210283203125,-0.5167236328125,-0.8274078369140625,0.2617645263671875
1774470983958296300,10.22029638671875,-0.5052642822265625,-0.8419342041015625,0.246368408203125
1774470983968309200,10.230309326171875,-0.500030517578125,-0.8405914306640625,0.214996337890625
1774470983978323200,10.2403232421875,-0.5065155029296875,-0.83367919921875,0.19171142578125
1774470983988336400,10.25033642578125,-0.5410919189453125,-0.811981201171875,0.197784423828125
1774470983998349300,10.260349365234376,-0.60040283203125,-0.7838287353515625,0.2232513427734375
1774470984008362200,10.2703623046875,-0.6590118408203125,-0.7595977783203125,0.238006591796875
1774470984018375200,10.280375244140625,-0.6905517578125,-0.7454071044921875,0.233612060546875
1774470984028388400,10.290388427734374,-0.691619873046875,-0.7443695068359375,0.22271728515625
1774470984038401300,10.3004013671875,-0.6727752685546875,-0.751739501953125,0.218658447265625
1774470984048414200,10.310414306640626,-0.6536865234375,-0.76220703125,0.2274169921875
1774470984058427400,10.320427490234374,-0.64373779296875,-0.7716064453125,0.2430877685546875
1774470984068440300,10.3304404296875,-0.645050048828125,-0.7737884521484375,0.258026123046875
1774470984078453200,10.340453369140626,-0.666168212890625,-0.771148681640625,0.2684478759765625
1774470984088466200,10.350466064453125,-0.6987457275390625,-0.7705078125,0.279449462890625
1774470984098480000,10.360480224609375,-0.7119140625,-0.7589874267578125,0.2783203125
1774470984108493300,10.370493408203124,-0.6506805419921875,-0.7239990234375,0.223724365234375
1774470984118506200,10.38050634765625,-0.553497314453125,-0.7034912109375,0.1725006103515625
1774470984128519400,10.39051953125,-0.510589599609375,-0.7188720703125,0.1756591796875
1774470984138532000,10.400531982421874,-0.5137481689453125,-0.7476806640625,0.179443359375
1774470984148545300,10.410545166015625,-0.52191162109375,-0.7733001708984375,0.1655731201171875
1774470984158558500,10.420558349609376,-0.5205230712890625,-0.793975830078125,0.154876708984375
1774470984168571100,10.430571044921875,-0.519866943359375,-0.8063507080078125,0.15985107421875
1774470984178584300,10.440584228515625,-0.5488433837890625,-0.8071746826171875,0.1707916259765625
1774470984188597200,10.45059716796875,-0.6048583984375,-0.8011322021484375,0.1732025146484375
1774470984198610400,10.4606103515625,-0.6566162109375,-0.79266357421875,0.166290283203125
1774470984208623000,10.470623046875,-0.70123291015625,-0.790283203125,0.1800689697265625
1774470984218636300,10.48063623046875,-0.7144012451171875,-0.781494140625,0.1897735595703125
1774470984228649500,10.4906494140625,-0.691864013671875,-0.7611541748046875,0.1872100830078125
1774470984238663200,10.5006630859375,-0.65911865234375,-0.746917724609375,0.1884002685546875
1774470984248676400,10.51067626953125,-0.612640380859375,-0.75347900390625,0.187652587890625
1774470984258689300,10.520689208984376,-0.5622711181640625,-0.770904541015625,0.1805877685546875
1774470984268702200,10.5307021484375,-0.5075531005859375,-0.787139892578125,0.172943115234375
1774470984278715400,10.54071533203125,-0.4581146240234375,-0.7963409423828125,0.18896484375
1774470984288728300,10.550728271484376,-0.4251861572265625,-0.7845916748046875,0.2462921142578125
1774470984298741200,10.5607412109375,-0.450958251953125,-0.7525482177734375,0.3262481689453125
1774470984308754200,10.570754150390625,-0.5156707763671875,-0.721954345703125,0.374725341796875
1774470984318767400,10.580767333984374,-0.6119537353515625,-0.7098846435546875,0.3896942138671875
1774470984328780300,10.5907802734375,-0.738494873046875,-0.69952392578125,0.3764801025390625
1774470984338793200,10.600793212890625,-0.8475189208984375,-0.7158966064453125,0.316986083984375
1774470984348806400,10.610806396484374,-0.9284820556640625,-0.77545166015625,0.2573394775390625
1774470984358819300,10.6208193359375,-0.919036865234375,-0.8245849609375,0.22454833984375
1774470984368832300,10.630832275390626,-0.7857666015625,-0.825531005859375,0.2270660400390625
1774470984378845200,10.64084521484375,-0.6324462890625,-0.79364013671875,0.2497100830078125
1774470984388859400,10.650859375,-0.5196380615234375,-0.801116943359375,0.249603271484375
1774470984398872300,10.660872314453124,-0.427093505859375,-0.8362884521484375,0.23480224609375
1774470984408885200,10.67088525390625,-0.363189697265625,-0.8185577392578125,0.236846923828125
1774470984418898400,10.6808984375,-0.320556640625,-0.8010406494140625,0.231903076171875
1774470984428911000,10.6909111328125,-0.347076416015625,-0.810577392578125,0.250518798828125
1774470984438924800,10.7009248046875,-0.4459381103515625,-0.8343505859375,0.27606201171875
1774470984448938000,10.71093798828125,-0.5689239501953125,-0.8465728759765625,0.28192138671875
1774470984458950700,10.72095068359375,-0.6661834716796875,-0.83258056640625,0.2702789306640625
1774470984468963800,10.7309638671875,-0.705474853515625,-0.80755615234375,0.2414703369140625
1774470984478976800,10.740976806640624,-0.6884307861328125,-0.7737579345703125,0.2013092041015625
1774470984488990000,10.750989990234375,-0.650115966796875,-0.744781494140625,0.1641845703125
1774470984499002600,10.761002685546876,-0.6190032958984375,-0.7230377197265625,0.14453125
1774470984509015800,10.771015869140625,-0.6061248779296875,-0.7044677734375,0.1558074951171875
1774470984519029000,10.781029052734375,-0.6055908203125,-0.6970977783203125,0.177581787109375
1774470984529041700,10.791041748046876,-0.60272216796875,-0.6998138427734375,0.2022705078125
1774470984539054800,10.801054931640625,-0.5918731689453125,-0.710052490234375,0.225067138671875
1774470984549067800,10.81106787109375,-0.587158203125,-0.7289276123046875,0.239959716796875
1774470984559081700,10.821081787109375,-0.587646484375,-0.7410888671875,0.2436981201171875
1774470984569095000,10.831094970703125,-0.5674591064453125,-0.7410430908203125,0.2352447509765625
1774470984579107800,10.84110791015625,-0.528717041015625,-0.7516632080078125,0.21319580078125
1774470984589120800,10.851120849609375,-0.49853515625,-0.7765655517578125,0.19403076171875
1774470984599133700,10.8611337890625,-0.495849609375,-0.7994384765625,0.1749267578125
1774470984609147000,10.87114697265625,-0.5090179443359375,-0.8197174072265625,0.1461639404296875
1774470984619159800,10.881159912109375,-0.5182342529296875,-0.82763671875,0.1217498779296875
1774470984629172700,10.8911728515625,-0.5229034423828125,-0.83575439453125,0.114654541015625
1774470984639186000,10.90118603515625,-0.5228424072265625,-0.8427276611328125,0.1356658935546875
1774470984649198800,10.91119873046875,-0.517425537109375,-0.860443115234375,0.1808624267578125
1774470984659211800,10.921211669921876,-0.495574951171875,-0.8759765625,0.2173614501953125
1774470984669224700,10.931224609375,-0.4557647705078125,-0.8957061767578125,0.246246337890625
1774470984679238000,10.94123779296875,-0.40576171875,-0.9231719970703125,0.2846832275390625
1774470984689250800,10.951250732421874,-0.3731536865234375,-0.9485626220703125,0.3236083984375
1774470984699263700,10.961263671875,-0.368560791015625,-0.9568023681640625,0.338165283203125
1774470984709277000,10.97127685546875,-0.386627197265625,-0.9423980712890625,0.3246917724609375
1774470984719289900,10.981289794921874,-0.424713134765625,-0.9199371337890625,0.2947235107421875
1774470984729302800,10.991302734375,-0.480865478515625,-0.898468017578125,0.2605438232421875
1774470984739315700,11.001315673828126,-0.54925537109375,-0.88970947265625,0.232940673828125
1774470984749329000,11.011328857421875,-0.61602783203125,-0.89581298828125,0.2057647705078125
1774470984759341800,11.021341796875,-0.6740264892578125,-0.90093994140625,0.1770477294921875
1774470984769355800,11.031355712890624,-0.73260498046875,-0.904449462890625,0.14532470703125
1774470984779369000,11.041368896484375,-0.7513885498046875,-0.90338134765625,0.1019744873046875
1774470984789381600,11.051381591796876,-0.7103118896484375,-0.890716552734375,0.07049560546875
1774470984799394800,11.061394775390625,-0.6548614501953125,-0.8792572021484375,0.0768280029296875
1774470984809407700,11.07140771484375,-0.6113739013671875,-0.8701934814453125,0.09442138671875
1774470984819421000,11.0814208984375,-0.5467376708984375,-0.82855224609375,0.06793212890625
1774470984829433900,11.091433837890625,-0.4510345458984375,-0.77105712890625,0.0059051513671875
1774470984839446800,11.10144677734375,-0.38348388671875,-0.7902984619140625,0.0483856201171875
1774470984849460000,11.1114599609375,-0.349609375,-0.810791015625,0.1172637939453125
1774470984859472600,11.12147265625,-0.2989959716796875,-0.8117523193359375,0.166778564453125
1774470984869485800,11.13148583984375,-0.29595947265625,-0.8363037109375,0.236083984375
1774470984879498800,11.141498779296874,-0.2928314208984375,-0.8568267822265625,0.28497314453125
1774470984889512000,11.151511962890625,-0.283111572265625,-0.8829803466796875,0.31329345703125
1774470984899524600,11.161524658203126,-0.28558349609375,-0.90863037109375,0.343292236328125
1774470984909537800,11.171537841796875,-0.296630859375,-0.89404296875,0.34075927734375
1774470984919551000,11.181551025390625,-0.26116943359375,-0.8663787841796875,0.3220367431640625
1774470984929563600,11.191563720703124,-0.253204345703125,-0.8501129150390625,0.29449462890625
1774470984939576800,11.201576904296875,-0.273040771484375,-0.854278564453125,0.27508544921875
1774470984949589800,11.21158984375,-0.21441650390625,-0.868072509765625,0.2959442138671875
1774470984959603000,11.22160302734375,-0.15234375,-0.89508056640625,0.313140869140625
1774470984969615600,11.23161572265625,-0.1025543212890625,-0.92132568359375,0.369232177734375
1774470984979628800,11.24162890625,-0.0630340576171875,-0.9415740966796875,0.4434356689453125
1774470984989642000,11.25164208984375,-0.02001953125,-0.9980316162109375,0.5496673583984375
1774470984999654700,11.261654541015625,-0.0562896728515625,-0.9999237060546875,0.5920257568359375
1774470985009667800,11.271667724609374,-0.12786865234375,-0.90289306640625,0.47222900390625
1774470985019680800,11.2816806640625,-0.1989288330078125,-0.8208465576171875,0.343597412109375
1774470985029694000,11.29169384765625,-0.2214813232421875,-0.7788238525390625,0.2844085693359375
1774470985039706600,11.30170654296875,-0.1978759765625,-0.774566650390625,0.2353973388671875
1774470985049719800,11.3117197265625,-0.1648712158203125,-0.795440673828125,0.191925048828125
1774470985059733000,11.32173291015625,-0.165985107421875,-0.82366943359375,0.1629638671875
1774470985069746700,11.33174658203125,-0.1907958984375,-0.82977294921875,0.1476287841796875
1774470985079760000,11.341759765625,-0.22467041015625,-0.818389892578125,0.152191162109375
1774470985089772800,11.351772705078124,-0.25634765625,-0.845367431640625,0.1568603515625
1774470985099785700,11.36178564453125,-0.26702880859375,-0.898956298828125,0.1421356201171875
1774470985109799000,11.371798828125,-0.26080322265625,-0.9369354248046875,0.1567840576171875
1774470985119811800,11.381811767578125,-0.2360687255859375,-0.9470672607421875,0.20452880859375
1774470985129824800,11.39182470703125,-0.20428466796875,-0.9652252197265625,0.220794677734375
1774470985139837700,11.401837646484376,-0.1367034912109375,-0.985076904296875,0.2158660888671875
1774470985149851000,11.411850830078125,-0.0741729736328125,-0.9942169189453125,0.196685791015625
1774470985159863800,11.42186376953125,-0.118011474609375,-1.02850341796875,0.180877685546875
1774470985169876700,11.431876708984374,-0.2161407470703125,-1.0546722412109375,0.1911773681640625
1774470985179890000,11.441889892578125,-0.2771148681640625,-1.0503387451171875,0.1952972412109375
1774470985189902800,11.45190283203125,-0.30157470703125,-1.0538177490234375,0.20074462890625
1774470985199915800,11.461915771484374,-0.29180908203125,-1.033477783203125,0.232269287109375
1774470985209928700,11.4719287109375,-0.2999114990234375,-1.001617431640625,0.2793731689453125
1774470985219942000,11.48194189453125,-0.3011932373046875,-0.9831390380859375,0.3114471435546875
1774470985229954800,11.491954833984375,-0.25714111328125,-0.9545440673828125,0.2769927978515625
1774470985239967700,11.5019677734375,-0.2273406982421875,-0.95404052734375,0.2492828369140625
1774470985249981000,11.51198095703125,-0.2129364013671875,-0.9615936279296875,0.241455078125
1774470985259993900,11.521993896484375,-0.2064361572265625,-0.958038330078125,0.2328948974609375
1774470985270006800,11.5320068359375,-0.18524169921875,-0.94927978515625,0.2180938720703125
1774470985280019700,11.542019775390624,-0.1564178466796875,-0.9440765380859375,0.2061767578125
1774470985290033000,11.552032958984375,-0.1446075439453125,-0.9412841796875,0.1904144287109375
1774470985300045800,11.5620458984375,-0.1475677490234375,-0.9416656494140625,0.175872802734375
1774470985310058800,11.572058837890625,-0.1623382568359375,-0.9333648681640625,0.1719970703125
1774470985320071700,11.58207177734375,-0.1813201904296875,-0.92401123046875,0.182098388671875
1774470985330084900,11.5920849609375,-0.1920166015625,-0.9151611328125,0.189056396484375
1774470985340097800,11.602097900390625,-0.2019805908203125,-0.909088134765625,0.2032470703125
1774470985350110700,11.61211083984375,-0.20672607421875,-0.907989501953125,0.2230987548828125
1774470985360124000,11.6221240234375,-0.2125396728515625,-0.912078857421875,0.241424560546875
1774470985370136800,11.63213671875,-0.21929931640625,-0.923919677734375,0.254547119140625
1774470985380149800,11.642149658203126,-0.2183685302734375,-0.9407958984375,0.265472412109375
1774470985390162700,11.65216259765625,-0.2287750244140625,-0.96563720703125,0.270751953125
1774470985400175900,11.66217578125,-0.2328033447265625,-0.9804229736328125,0.2712860107421875
1774470985410188800,11.672188720703126,-0.2291107177734375,-0.9875335693359375,0.2648468017578125
1774470985420201700,11.68220166015625,-0.2364959716796875,-0.985137939453125,0.2721099853515625
1774470985430214400,11.69221435546875,-0.2440948486328125,-0.96295166015625,0.278350830078125
1774470985440227600,11.7022275390625,-0.2477569580078125,-0.9417266845703125,0.2680511474609375
1774470985450240300,11.712240234375,-0.2464599609375,-0.917510986328125,0.2577972412109375
1774470985460253400,11.72225341796875,-0.246856689453125,-0.891632080078125,0.2667388916015625
1774470985470266400,11.732266357421874,-0.256561279296875,-0.8878021240234375,0.272186279296875
1774470985480279600,11.742279541015625,-0.2635040283203125,-0.88714599609375,0.2617340087890625
1774470985490292200,11.752292236328126,-0.275238037109375,-0.8936920166015625,0.2565460205078125
1774470985500305400,11.762305419921875,-0.2866363525390625,-0.9129486083984375,0.253326416015625
1774470985510319400,11.7723193359375,-0.29400634765625,-0.92864990234375,0.25970458984375
1774470985520331300,11.782331298828124,-0.2959136962890625,-0.939300537109375,0.2716827392578125
1774470985530345500,11.792345458984375,-0.291351318359375,-0.94647216796875,0.2822113037109375
1774470985540358400,11.8023583984375,-0.286773681640625,-0.946685791015625,0.2839813232421875
1774470985550371300,11.812371337890625,-0.279815673828125,-0.9375457763671875,0.2712860107421875
1774470985560384300,11.82238427734375,-0.27325439453125,-0.92791748046875,0.264373779296875
1774470985570397400,11.8323974609375,-0.269134521484375,-0.92095947265625,0.26837158203125
1774470985580410400,11.842410400390625,-0.2727508544921875,-0.920654296875,0.262176513671875
1774470985590423300,11.85242333984375,-0.289886474609375,-0.930877685546875,0.2443695068359375
1774470985600436500,11.8624365234375,-0.2969207763671875,-0.94683837890625,0.213958740234375
1774470985610449400,11.872449462890625,-0.29522705078125,-0.9510345458984375,0.2102508544921875
1774470985620462300,11.88246240234375,-0.2946319580078125,-0.93896484375,0.22039794921875
1774470985630475300,11.892475341796874,-0.2982025146484375,-0.9316864013671875,0.2452545166015625
1774470985640488400,11.902488525390625,-0.2957916259765625,-0.92877197265625,0.268798828125
1774470985650501400,11.91250146484375,-0.2814178466796875,-0.934356689453125,0.268402099609375
1774470985660514300,11.922514404296875,-0.2604217529296875,-0.947235107421875,0.253021240234375
1774470985670527500,11.932527587890625,-0.23406982421875,-0.9556732177734375,0.2386016845703125
1774470985680540400,11.94254052734375,-0.2101593017578125,-0.9579620361328125,0.2313079833984375
1774470985690553300,11.95255322265625,-0.1895294189453125,-0.9411163330078125,0.2343902587890625
1774470985700566300,11.962566162109376,-0.19097900390625,-0.926544189453125,0.2516937255859375
1774470985710579500,11.972579345703124,-0.2116851806640625,-0.911163330078125,0.2722625732421875
1774470985720592400,11.98259228515625,-0.22735595703125,-0.9037933349609375,0.271453857421875
1774470985730605300,11.992605224609376,-0.23583984375,-0.9107208251953125,0.25091552734375
1774470985740618500,12.002618408203125,-0.240447998046875,-0.9246978759765625,0.2322845458984375
1774470985750631400,12.01263134765625,-0.241607666015625,-0.946746826171875,0.2198638916015625
1774470985760644400,12.022644287109374,-0.255828857421875,-0.966827392578125,0.211029052734375
1774470985770657300,12.0326572265625,-0.27935791015625,-0.972381591796875,0.20233154296875
1774470985780670500,12.04267041015625,-0.3076629638671875,-0.969635009765625,0.190826416015625
1774470985790683400,12.052683349609374,-0.34332275390625,-0.9481964111328125,0.1772918701171875
1774470985800696300,12.0626962890625,-0.384552001953125,-0.915252685546875,0.182159423828125
1774470985810709500,12.07270947265625,-0.427581787109375,-0.8848114013671875,0.1934661865234375
1774470985820722400,12.082722412109375,-0.46136474609375,-0.8697967529296875,0.1946563720703125
1774470985830735400,12.0927353515625,-0.47711181640625,-0.8714599609375,0.204833984375
1774470985840748300,12.102748291015626,-0.459381103515625,-0.8732147216796875,0.2173309326171875
1774470985850761500,12.112761474609375,-0.41778564453125,-0.874847412109375,0.218505859375
1774470985860774400,12.1227744140625,-0.3805389404296875,-0.89111328125,0.228240966796875
1774470985870787300,12.132787353515624,-0.35357666015625,-0.9145965576171875,0.2449493408203125
1774470985880800500,12.142800537109375,-0.331512451171875,-0.9305267333984375,0.244781494140625
1774470985890813400,12.1528134765625,-0.311553955078125,-0.9427032470703125,0.22918701171875
1774470985900826400,12.162826416015625,-0.290008544921875,-0.9547119140625,0.2051239013671875
1774470985910839300,12.17283935546875,-0.2724761962890625,-0.96197509765625,0.1886444091796875
1774470985920852500,12.1828525390625,-0.2617950439453125,-0.9563751220703125,0.172119140625
1774470985930865400,12.192865478515625,-0.251190185546875,-0.939117431640625,0.142425537109375
1774470985940878300,12.20287841796875,-0.252471923828125,-0.93218994140625,0.1153411865234375
1774470985950891500,12.2128916015625,-0.2615814208984375,-0.933319091796875,0.09515380859375
1774470985960904400,12.222904541015625,-0.268218994140625,-0.929534912109375,0.0662841796875
1774470985970917400,12.23291748046875,-0.2798614501953125,-0.92572021484375,0.046783447265625
1774470985980930300,12.242930419921874,-0.29736328125,-0.9156341552734375,0.03985595703125
1774470985990943500,12.252943603515625,-0.3152923583984375,-0.9154052734375,0.0536956787109375
1774470986000956400,12.262956298828126,-0.3370819091796875,-0.925079345703125,0.08837890625
1774470986010969300,12.27296923828125,-0.358856201171875,-0.9328765869140625,0.1283111572265625
1774470986020982500,12.282982421875,-0.3763427734375,-0.9408416748046875,0.155181884765625
1774470986030995500,12.292995361328124,-0.3862152099609375,-0.9438018798828125,0.1732025146484375
1774470986041008400,12.30300830078125,-0.38262939453125,-0.9392852783203125,0.1852874755859375
1774470986051021300,12.313021240234375,-0.3660736083984375,-0.9297027587890625,0.196441650390625
1774470986061034500,12.323034423828124,-0.3496856689453125,-0.9274139404296875,0.21075439453125
1774470986071047400,12.33304736328125,-0.3436431884765625,-0.9336090087890625,0.233978271484375
1774470986081060400,12.343060302734376,-0.3522186279296875,-0.9335479736328125,0.2539520263671875
1774470986091073300,12.3530732421875,-0.368743896484375,-0.9393463134765625,0.2570648193359375
1774470986101086500,12.36308642578125,-0.3954315185546875,-0.9478607177734375,0.23675537109375
1774470986111099400,12.373099365234374,-0.4236297607421875,-0.9486541748046875,0.2006072998046875
1774470986121112300,12.3831123046875,-0.4440155029296875,-0.943511962890625,0.1611328125
1774470986131125500,12.39312548828125,-0.4569091796875,-0.9372406005859375,0.1257476806640625
1774470986141138400,12.403138427734374,-0.4523773193359375,-0.9229278564453125,0.0933837890625
1774470986151151400,12.4131513671875,-0.4256744384765625,-0.9011383056640625,0.072265625
1774470986161164300,12.423164306640626,-0.3819427490234375,-0.884185791015625,0.0684051513671875
1774470986171177500,12.433177490234375,-0.3412628173828125,-0.876251220703125,0.0815887451171875
1774470986181190400,12.4431904296875,-0.3183135986328125,-0.8819580078125,0.106597900390625
1774470986191203300,12.453203369140626,-0.30865478515625,-0.892730712890625,0.1346893310546875
1774470986201216500,12.463216552734375,-0.2965850830078125,-0.897674560546875,0.1522979736328125
1774470986211229400,12.4732294921875,-0.29400634765625,-0.8931732177734375,0.167572021484375
1774470986221242400,12.483242431640624,-0.2932586669921875,-0.90423583984375,0.1772613525390625
1774470986231255300,12.49325537109375,-0.290740966796875,-0.9343719482421875,0.1799774169921875
1774470986241268500,12.5032685546875,-0.294219970703125,-0.9502105712890625,0.1642913818359375
1774470986251281400,12.513281494140625,-0.2927093505859375,-0.9530029296875,0.139434814453125
1774470986261294300,12.52329443359375,-0.2866058349609375,-0.949188232421875,0.1162261962890625
1774470986271307500,12.5333076171875,-0.283416748046875,-0.946319580078125,0.1014556884765625
1774470986281320400,12.543320556640625,-0.2745513916015625,-0.9493865966796875,0.0918426513671875
1774470986291333400,12.55333349609375,-0.2688446044921875,-0.951812744140625,0.0882568359375
1774470986301346300,12.56334619140625,-0.2695465087890625,-0.9482879638671875,0.0854644775390625
1774470986311359500,12.573359375,-0.2760162353515625,-0.93707275390625,0.08758544921875
1774470986321372400,12.583372314453126,-0.2940673828125,-0.9331207275390625,0.0987091064453125
1774470986331385300,12.59338525390625,-0.32421875,-0.9356536865234375,0.1204376220703125
1774470986341398500,12.6033984375,-0.35107421875,-0.9347991943359375,0.136688232421875
1774470986351411500,12.613411376953126,-0.3692474365234375,-0.9293060302734375,0.1440582275390625
1774470986361424400,12.62342431640625,-0.383209228515625,-0.927215576171875,0.1423492431640625
1774470986371437300,12.633437255859375,-0.3872222900390625,-0.9245147705078125,0.1309967041015625
1774470986381450500,12.643450439453124,-0.3885498046875,-0.9227447509765625,0.1151275634765625
1774470986391463200,12.653463134765625,-0.3853759765625,-0.9232330322265625,0.1006317138671875
1774470986401476400,12.663476318359375,-0.3830718994140625,-0.9278106689453125,0.083526611328125
1774470986411489500,12.673489501953124,-0.3902740478515625,-0.930419921875,0.0596771240234375
1774470986421502500,12.68350244140625,-0.39642333984375,-0.934356689453125,0.0367431640625
1774470986431516000,12.693515869140626,-0.4020233154296875,-0.9312896728515625,0.023834228515625
1774470986441529000,12.703529052734375,-0.3873291015625,-0.9210662841796875,0.03021240234375
1774470986451542000,12.7135419921875,-0.3616943359375,-0.9109039306640625,0.0503997802734375
1774470986461555000,12.723554931640624,-0.3451385498046875,-0.90228271484375,0.0768585205078125
1774470986471568000,12.73356787109375,-0.3383331298828125,-0.9031524658203125,0.104522705078125
1774470986481581000,12.7435810546875,-0.3358154296875,-0.9124908447265625,0.12939453125
1774470986491593700,12.75359375,-0.328948974609375,-0.9233245849609375,0.1465911865234375
1774470986501607000,12.76360693359375,-0.3163299560546875,-0.9365386962890625,0.156829833984375
1774470986511620000,12.7736201171875,-0.3018646240234375,-0.9524383544921875,0.1554107666015625
1774470986521633000,12.783633056640625,-0.29949951171875,-0.970184326171875,0.1432342529296875
1774470986531646000,12.79364599609375,-0.3021697998046875,-0.9774932861328125,0.1242218017578125
1774470986541659000,12.803658935546874,-0.30908203125,-0.9661712646484375,0.0971527099609375
1774470986551672000,12.813672119140625,-0.3237762451171875,-0.9447784423828125,0.0759124755859375
1774470986561684700,12.823684814453125,-0.3517303466796875,-0.9238739013671875,0.0627593994140625
1774470986571698000,12.833697998046874,-0.386444091796875,-0.9106292724609375,0.0501861572265625
1774470986581710800,12.8437109375,-0.4160919189453125,-0.9017486572265625,0.0400238037109375
1774470986591724000,12.85372412109375,-0.4329681396484375,-0.8948974609375,0.037139892578125
1774470986601737000,12.863737060546875,-0.4357452392578125,-0.8945159912109375,0.0406951904296875
1774470986611750000,12.87375,-0.4308624267578125,-0.9011993408203125,0.049285888671875
1774470986621763000,12.88376318359375,-0.4117279052734375,-0.9112701416015625,0.0579681396484375
1774470986631775700,12.893775634765625,-0.38720703125,-0.927825927734375,0.066436767578125
1774470986641789000,12.903788818359375,-0.364471435546875,-0.947998046875,0.0770416259765625
1774470986651801900,12.9138017578125,-0.3475341796875,-0.96331787109375,0.0833740234375
1774470986661815000,12.92381494140625,-0.338592529296875,-0.9672698974609375,0.0814208984375
