time,seconds_elapsed,z,y,x
1774470682292325000,0.0533251953125,0.2718600034713745,-0.14158375561237335,-0.14134247601032257
1774470682302341000,0.063341064453125,0.29590463638305664,-0.044138964265584946,-0.1926565319299698
1774470682312357000,0.073357177734375,0.3056502044200897,0.043165046721696854,-0.21475385129451752
1774470682322373000,0.083373046875,0.30742812156677246,0.07584336400032043,-0.19721665978431702
1774470682332389000,0.09338916015625,0.3070707321166992,0.06596836447715759,-0.14128601551055908
1774470682342405000,0.103405029296875,0.31126919388771057,0.03767387568950653,-0.06537261605262756
1774470682352422100,0.113422119140625,0.31889596581459045,0.012341887690126896,0.009228652343153954
1774470682362438100,0.123438232421875,0.3286884129047394,0.00017710021347738802,0.0776258185505867
1774470682372454100,0.1334541015625,0.34198877215385437,0.012774384580552578,0.12293604016304016
1774470682382470100,0.14347021484375,0.32879412174224854,0.02791019342839718,0.13344141840934753
1774470682392486100,0.153486083984375,0.2610071003437042,-0.03700249269604683,0.0939781591296196
1774470682402502100,0.163502197265625,0.15102173388004303,-0.17283809185028076,0.0012026835465803742
1774470682412519200,0.173519287109375,0.11114516109228134,-0.17538593709468842,-0.11724619567394257
1774470682422535200,0.18353515625,0.10833179950714111,0.022775087505578995,-0.23145879805088043
1774470682432551200,0.19355126953125,0.09027902781963348,0.260130375623703,-0.33172228932380676
1774470682442567200,0.203567138671875,0.04464789479970932,0.396261602640152,-0.40468090772628784
1774470682452583200,0.213583251953125,-0.020973725244402885,0.450363427400589,-0.4390218257904053
1774470682462599000,0.223598876953125,-0.07743141055107117,0.4664776921272278,-0.4320978820323944
1774470682472616200,0.2336162109375,-0.11834768205881119,0.4418490529060364,-0.40258046984672546
1774470682482632200,0.243632080078125,-0.14305248856544495,0.3700140118598938,-0.3699799180030823
1774470682492648200,0.253648193359375,-0.1646541953086853,0.26485270261764526,-0.3368067741394043
1774470682502664400,0.26366455078125,-0.18368300795555115,0.14503096044063568,-0.31430625915527344
1774470682512680200,0.27368017578125,-0.19645047187805176,0.10266565531492233,-0.3023494780063629
1774470682522696200,0.2836962890625,-0.1991594433784485,0.16145546734333038,-0.318036824464798
1774470682532712200,0.293712158203125,-0.19452154636383057,0.30501264333724976,-0.36004820466041565
1774470682542729200,0.303729248046875,-0.2021019607782364,0.45299890637397766,-0.41992083191871643
1774470682552745200,0.3137451171875,-0.20725944638252258,0.5632508397102356,-0.4752453565597534
1774470682562761200,0.32376123046875,-0.1881917417049408,0.6573120951652527,-0.49976322054862976
1774470682572777200,0.333777099609375,-0.13273487985134125,0.6833087801933289,-0.49229809641838074
1774470682582793200,0.343793212890625,-0.0542168989777565,0.5835252404212952,-0.47398436069488525
1774470682592809200,0.353809326171875,0.019047727808356285,0.40064674615859985,-0.4677272439002991
1774470682602826200,0.363826171875,0.06738942861557007,0.2023317962884903,-0.48390674591064453
1774470682612842200,0.37384228515625,0.09990342706441879,0.03820997104048729,-0.5025044083595276
1774470682622858200,0.383858154296875,0.1479034423828125,-0.00926194153726101,-0.47770291566848755
1774470682632874200,0.393874267578125,0.20033283531665802,0.08666165918111801,-0.3866046965122223
1774470682642890200,0.40389013671875,0.24981649219989777,0.1387893110513687,-0.2539249658584595
1774470682652906200,0.41390625,0.2971736192703247,0.08236091583967209,-0.13119158148765564
1774470682662923300,0.42392333984375,0.2973416745662689,0.042630549520254135,-0.04247022792696953
1774470682672939300,0.433939208984375,0.23113228380680084,-0.10488194227218628,-0.02510189078748226
1774470682682955300,0.443955322265625,0.12004837393760681,-0.33946356177330017,-0.08573407679796219
1774470682692971300,0.45397119140625,-0.019045064225792885,-0.5170668363571167,-0.22035127878189087
1774470682702987300,0.4639873046875,-0.1508060246706009,-0.5697353482246399,-0.39960625767707825
1774470682713003300,0.474003173828125,-0.22829122841358185,-0.4534092843532562,-0.5947933197021484
1774470682723020300,0.484020263671875,-0.24677357077598572,-0.30304375290870667,-0.7804819345474243
1774470682733036300,0.494036376953125,-0.22594843804836273,-0.15999339520931244,-0.9204784631729126
1774470682743052300,0.50405224609375,-0.1886143833398819,-0.04741039127111435,-0.9923574924468994
1774470682753068300,0.514068359375,-0.13010632991790771,0.010173008777201176,-1.0132797956466675
1774470682763084300,0.524084228515625,-0.08388158679008484,0.035221636295318604,-0.9680414795875549
1774470682773100000,0.53410009765625,-0.04139377921819687,-0.05179741606116295,-0.8710963129997253
1774470682783117300,0.544117431640625,-0.01667431741952896,-0.1384124755859375,-0.7338140606880188
1774470682793133300,0.55413330078125,0.0016237293602898717,-0.16821111738681793,-0.5656447410583496
1774470682803149300,0.5641494140625,0.01678936555981636,-0.1422671228647232,-0.3835655152797699
1774470682813165300,0.574165283203125,0.03116990439593792,-0.027907265350222588,-0.21223609149456024
1774470682823181000,0.58418115234375,0.02942793071269989,0.11051026731729507,-0.0677364394068718
1774470682833197300,0.594197265625,0.01691373623907566,0.28243276476860046,0.04397597908973694
1774470682843214300,0.60421435546875,0.011546401306986809,0.4180470407009125,0.12659096717834473
1774470682853230300,0.614230224609375,0.01660667359828949,0.44635406136512756,0.16924628615379333
1774470682863246000,0.62424609375,0.04647376015782356,0.377731055021286,0.18111678957939148
1774470682873262000,0.634261962890625,0.09007956087589264,0.25572019815444946,0.16892004013061523
1774470682883278000,0.644278076171875,0.13645876944065094,0.13289067149162292,0.14630953967571259
1774470682893294300,0.65429443359375,0.17454251646995544,0.03323571756482124,0.12222364544868469
1774470682903311400,0.664311279296875,0.18030612170696259,-0.002965962514281273,0.09733401238918304
1774470682913327000,0.6743271484375,0.16043175756931305,-0.008331432938575745,0.0802847221493721
1774470682923343000,0.684343017578125,0.1253051906824112,0.012267052195966244,0.06471827626228333
1774470682933359000,0.694359130859375,0.07895686477422714,0.03629382699728012,0.048527322709560394
1774470682943375400,0.704375244140625,0.04533153027296066,0.05114494264125824,0.02075587771832943
1774470682953391400,0.714391357421875,0.026443058624863625,0.06661577522754669,-0.012057728134095669
1774470682963408100,0.724408203125,0.013645770959556103,0.09131287038326263,-0.04140176996588707
1774470682973424000,0.734424072265625,0.016880713403224945,0.09935561567544937,-0.05525127053260803
1774470682983440100,0.744440185546875,0.04078657925128937,0.07051757723093033,-0.05071297660470009
1774470682993456400,0.754456298828125,0.06807492673397064,0.019400063902139664,-0.0366288498044014
1774470683003472400,0.764472412109375,0.07822848856449127,0.013189305551350117,-0.00962919183075428
1774470683013488400,0.77448828125,0.08473885804414749,0.06800515204668045,0.021870411932468414
1774470683023505200,0.784505126953125,0.08333616703748703,0.1461108773946762,0.044262535870075226
1774470683033521200,0.794521240234375,0.06658461689949036,0.21346060931682587,0.058456651866436005
1774470683043537200,0.804537109375,0.05491890758275986,0.26954013109207153,0.06785628199577332
1774470683053553400,0.814553466796875,0.05729072168469429,0.2892778813838959,0.07292933762073517
1774470683063569400,0.8245693359375,0.06211237236857414,0.2426118403673172,0.062245797365903854
1774470683073585200,0.834585205078125,0.07472404092550278,0.17945417761802673,0.044297955930233
1774470683083602200,0.844602294921875,0.10176551342010498,0.15074023604393005,0.02238280326128006
1774470683093618200,0.8546181640625,0.13315220177173615,0.13204991817474365,-0.007893077097833157
1774470683103634400,0.864634521484375,0.16498735547065735,0.10140678286552429,-0.04267209768295288
1774470683113650400,0.874650390625,0.1884591281414032,0.0837383046746254,-0.07863275706768036
1774470683123666200,0.884666259765625,0.19375082850456238,0.05432555451989174,-0.10422547161579132
1774470683133682200,0.89468212890625,0.1755174994468689,0.031019434332847595,-0.12924747169017792
1774470683143699200,0.90469921875,0.15173226594924927,0.03406449407339096,-0.14662326872348785
1774470683153715200,0.914715087890625,0.13068105280399323,0.04909217730164528,-0.1517740786075592
1774470683163731500,0.9247314453125,0.1230257898569107,0.0716898962855339,-0.1417534053325653
1774470683173747200,0.934747314453125,0.1314336508512497,0.05886438116431236,-0.11450847238302231
1774470683183763200,0.94476318359375,0.1554843932390213,0.0035950010642409325,-0.0833476185798645
1774470683193779200,0.954779296875,0.18786416947841644,-0.046541936695575714,-0.042879290878772736
1774470683203796200,0.964796142578125,0.21859252452850342,-0.09313500672578812,-0.008230498991906643
1774470683213812200,0.974812255859375,0.24477113783359528,-0.13045760989189148,0.016348080709576607
1774470683223828200,0.984828125,0.26110216975212097,-0.13931182026863098,0.033662620931863785
1774470683233844200,0.99484423828125,0.2642236649990082,-0.13499723374843597,0.04324867203831673
1774470683243860200,1.004860107421875,0.259715735912323,-0.14652472734451294,0.039500270038843155
1774470683253876200,1.014876220703125,0.26677072048187256,-0.15847086906433105,0.031987760215997696
1774470683263893200,1.024893310546875,0.28009557723999023,-0.16742627322673798,0.03356168791651726
1774470683273909200,1.0349091796875,0.2957940995693207,-0.1651516705751419,0.040889643132686615
1774470683283925200,1.04492529296875,0.29835474491119385,-0.16051457822322845,0.03922570124268532
1774470683293941200,1.054941162109375,0.28288203477859497,-0.14172624051570892,0.030759776011109352
1774470683303957200,1.064957275390625,0.2780550420284271,-0.0917285904288292,0.025556491687893867
1774470683313974000,1.07497412109375,0.2805387079715729,-0.0390709713101387,0.026559438556432724
1774470683323990300,1.084990234375,0.2737143635749817,0.00038163099088706076,0.04532993212342262
1774470683334006300,1.09500634765625,0.24693335592746735,-0.013903032056987286,0.0941038653254509
1774470683344022300,1.105022216796875,0.21448805928230286,-0.07491552084684372,0.17438006401062012
1774470683354038300,1.115038330078125,0.19116276502609253,-0.14596866071224213,0.26427558064460754
1774470683364054300,1.12505419921875,0.19405388832092285,-0.17203034460544586,0.34183377027511597
1774470683374071300,1.1350712890625,0.22028736770153046,-0.16792401671409607,0.3942037522792816
1774470683384087300,1.14508740234375,0.24312876164913177,-0.15136554837226868,0.4124208390712738
1774470683394103300,1.155103271484375,0.2569305896759033,-0.11959537118673325,0.40652862191200256
1774470683404119300,1.165119384765625,0.24940796196460724,-0.07702314853668213,0.3755033016204834
1774470683414135300,1.17513525390625,0.2224636971950531,-0.03554308041930199,0.3257722556591034
1774470683424151300,1.1851513671875,0.18684977293014526,0.006198507267981768,0.2646380364894867
1774470683434168300,1.195168212890625,0.15358184278011322,0.0530291311442852,0.1963796317577362
1774470683444184300,1.205184326171875,0.13851048052310944,0.08040935546159744,0.13049675524234772
1774470683454200300,1.215200439453125,0.13185229897499084,0.08764809370040894,0.08085916191339493
1774470683464216300,1.22521630859375,0.11318780481815338,0.09442610293626785,0.04458584263920784
1774470683474232300,1.235232421875,0.08339662104845047,0.3790205419063568,-0.0857095792889595
1774470683484248000,1.245248046875,0.09873589873313904,-0.015360314399003983,-0.13422492146492004
1774470683494265300,1.255265380859375,0.1357482373714447,-0.10517702251672745,-0.06503891944885254
1774470683504280800,1.26528076171875,0.13576582074165344,-0.15407025814056396,0.027149595320224762
1774470683514297000,1.275297119140625,0.10401614755392075,-0.18052849173545837,0.0961262658238411
1774470683524313000,1.28531298828125,0.09803468734025955,-0.11105994135141373,0.13327762484550476
1774470683534328800,1.295328857421875,0.07247419655323029,-0.11155795305967331,0.13379748165607452
1774470683544344800,1.3053447265625,0.010979946702718735,0.0911932960152626,0.15057753026485443
1774470683554361900,1.31536181640625,-0.05193616822361946,0.26796433329582214,0.18545986711978912
1774470683564378000,1.325378173828125,-0.07860959321260452,0.3211228847503662,0.2090381681919098
1774470683574394000,1.33539404296875,-0.05796609818935394,0.30767127871513367,0.23965413868427277
1774470683584409900,1.345409912109375,-0.019629627466201782,0.26144999265670776,0.2596030831336975
1774470683594425900,1.35542578125,0.030427414923906326,0.14788000285625458,0.23875904083251953
1774470683604441900,1.36544189453125,0.0762644112110138,-0.03497849032282829,0.18095886707305908
1774470683614459000,1.375458984375,0.07510513812303543,-0.15539012849330902,0.1373850256204605
1774470683624475000,1.385474853515625,0.007063235621899366,-0.2251415103673935,0.1255296915769577
1774470683634491000,1.395490966796875,-0.11751890927553177,-0.27507925033569336,0.12785197794437408
1774470683644507000,1.4055068359375,-0.25893354415893555,-0.3436545729637146,0.14485731720924377
1774470683654523000,1.41552294921875,-0.3518376648426056,-0.39952901005744934,0.1805061250925064
1774470683664540000,1.425539794921875,-0.3820776045322418,-0.47029373049736023,0.23632891476154327
1774470683674556000,1.435555908203125,-0.37323641777038574,-0.5420318245887756,0.29975876212120056
1774470683684572000,1.445572021484375,-0.36777055263519287,-0.4179719388484955,0.38877785205841064
1774470683694588000,1.455587890625,-0.3042709529399872,-0.5698847770690918,0.4441415071487427
1774470683704604000,1.46560400390625,-0.24229305982589722,-0.5742771029472351,0.5263972282409668
1774470683714620000,1.475619873046875,-0.1890263855457306,-0.5503851175308228,0.6180890798568726
1774470683724637000,1.485636962890625,-0.15991616249084473,-0.5456324219703674,0.662589430809021
1774470683734653000,1.49565283203125,-0.14175793528556824,-0.5527949929237366,0.66058349609375
1774470683744669000,1.5056689453125,-0.11823343485593796,-0.607668936252594,0.6206635236740112
1774470683754685000,1.515684814453125,-0.08724835515022278,-0.674629807472229,0.5324782729148865
1774470683764701000,1.525700927734375,-0.0733375996351242,-0.70696622133255,0.39990586042404175
1774470683774717000,1.535717041015625,-0.08727391809225082,-0.6971694827079773,0.23575367033481598
1774470683784734000,1.54573388671875,-0.10144885629415512,-0.7046068906784058,0.06487646698951721
1774470683794750000,1.55575,-0.08857434242963791,-0.8217822909355164,-0.06827040016651154
1774470683804766000,1.565765869140625,-0.07083635777235031,-0.8996139168739319,-0.13313515484333038
1774470683814782000,1.575781982421875,-0.036743100732564926,-0.9047426581382751,-0.13249199092388153
1774470683824798000,1.5857978515625,0.021167069673538208,-0.8774968981742859,-0.10569527000188828
1774470683834815000,1.59581494140625,0.030521690845489502,-0.9514334797859192,-0.05750323832035065
1774470683844831000,1.6058310546875,-0.04301884025335312,-1.0628396272659302,0.037521008402109146
1774470683854847000,1.615846923828125,-0.17020821571350098,-1.1556200981140137,0.17748397588729858
1774470683864863000,1.625863037109375,-0.19383151829242706,-1.2497074604034424,0.3470333218574524
1774470683874879000,1.63587890625,-0.20361118018627167,-1.1880779266357422,0.5420345067977905
1774470683884894700,1.645894775390625,-0.2488175481557846,-1.0723897218704224,0.6828938722610474
1774470683894912000,1.655912109375,-0.36933621764183044,-1.0280781984329224,0.784229040145874
1774470683904928000,1.665927978515625,-0.6247555017471313,-1.087266445159912,0.9028971195220947
1774470683914944000,1.675944091796875,-1.0027906894683838,-1.1894526481628418,1.0577678680419922
1774470683924960000,1.6859599609375,-1.4465696811676025,-1.2953053712844849,1.275043249130249
1774470683934975700,1.695975830078125,-1.8566488027572632,-1.46982741355896,1.497801423072815
1774470683944991700,1.70599169921875,-2.167151927947998,-1.67509126663208,1.7116378545761108
1774470683955009000,1.716009033203125,-2.660038709640503,-1.7836931943893433,1.9407624006271362
1774470683965025000,1.72602490234375,-3.176342248916626,-1.9116703271865845,2.1286866664886475
1774470683975041000,1.736041015625,-3.2953433990478516,-1.9451392889022827,2.2085676193237305
1774470683985056800,1.746056884765625,-3.2369072437286377,-1.8227864503860474,2.1494812965393066
1774470683995072800,1.75607275390625,-3.306359052658081,-1.6814378499984741,1.9923120737075806
1774470684005090000,1.766090087890625,-3.3865091800689697,-1.5286238193511963,1.8499441146850586
1774470684015106000,1.77610595703125,-3.4119410514831543,-1.2699477672576904,1.7504518032073975
1774470684025122000,1.7861220703125,-3.3064987659454346,-0.7289170622825623,1.672011375427246
1774470684035137800,1.7961376953125,-3.1713380813598633,-0.23390570282936096,1.5936204195022583
1774470684045153800,1.80615380859375,-3.1531195640563965,-0.17148040235042572,1.524367332458496
1774470684055169800,1.816169677734375,-3.147299289703369,-0.23615793883800507,1.4842731952667236
1774470684065187000,1.82618701171875,-3.0934298038482666,-0.17200744152069092,1.4446148872375488
1774470684075202800,1.836202880859375,-3.05914568901062,0.01870764046907425,1.436292052268982
1774470684085218800,1.84621875,-3.118631362915039,0.1730298399925232,1.533872365951538
1774470684095234800,1.85623486328125,-3.241746664047241,0.2615692913532257,1.6316050291061401
1774470684105250800,1.866250732421875,-3.369837760925293,0.35674694180488586,1.6955305337905884
1774470684115266800,1.876266845703125,-3.4156811237335205,0.4511496126651764,1.6947706937789917
1774470684125283800,1.886283935546875,-3.409881830215454,0.5840938091278076,1.62882661819458
1774470684135299800,1.8962998046875,-3.4274284839630127,0.6299569010734558,1.5227187871932983
1774470684145315800,1.90631591796875,-3.5490896701812744,0.44444510340690613,1.4123296737670898
1774470684155331800,1.916331787109375,-3.6924233436584473,0.33468931913375854,1.2738876342773438
1774470684165347800,1.926347900390625,-3.8302159309387207,0.37668576836586,1.086143136024475
1774470684175364900,1.93636474609375,-3.9563422203063965,0.516886830329895,0.8549764156341553
1774470684185380900,1.946380859375,-3.9045939445495605,0.7759950757026672,0.5970186591148376
1774470684195396900,1.95639697265625,-3.7784628868103027,1.0048778057098389,0.3596774935722351
1774470684205412900,1.966412841796875,-3.733489513397217,1.0042463541030884,0.1765420138835907
1774470684215428900,1.976428955078125,-3.676335334777832,0.8766167759895325,0.025846511125564575
1774470684225445000,1.986445068359375,-3.502366781234741,0.7744267582893372,-0.13679859042167664
1774470684235462000,1.9964619140625,-3.3268887996673584,0.686062753200531,-0.30532822012901306
1774470684245478000,2.006477783203125,-3.162285566329956,0.603577733039856,-0.4525405764579773
1774470684255494000,2.016493896484375,-2.952110767364502,0.5088544487953186,-0.6234769225120544
1774470684265510000,2.026510009765625,-2.782177448272705,0.3816014230251312,-0.6965857148170471
1774470684275526000,2.03652587890625,-2.7191989421844482,0.3287501931190491,-0.6666560769081116
1774470684285542000,2.0465419921875,-2.6305339336395264,0.3065663278102875,-0.571073591709137
1774470684295559000,2.056558837890625,-2.4522249698638916,0.5344015955924988,-0.43620872497558594
1774470684305575000,2.066574951171875,-2.3068315982818604,0.7844961285591125,-0.30413058400154114
1774470684315591000,2.0765908203125,-2.2776098251342773,0.7878820896148682,-0.19594953954219818
1774470684325607000,2.08660693359375,-2.2340333461761475,0.7807621359825134,-0.08443605154752731
1774470684335623000,2.096622802734375,-2.1542255878448486,0.8350653052330017,0.035652268677949905
1774470684345640000,2.106639892578125,-2.0074448585510254,0.8390507102012634,0.07344865053892136
1774470684355656000,2.116656005859375,-1.8812122344970703,0.7871944308280945,0.037950579077005386
1774470684365672000,2.126671875,-1.777899980545044,0.6902942657470703,-0.0675678551197052
1774470684375688000,2.13668798828125,-1.6154199838638306,0.6277638077735901,-0.20440320670604706
1774470684385703700,2.14670361328125,-1.4099345207214355,0.5681643486022949,-0.2985251843929291
1774470684395720000,2.156719970703125,-1.177253007888794,0.5112273097038269,-0.30033451318740845
1774470684405737000,2.166737060546875,-0.9179370403289795,0.526604950428009,-0.19695354998111725
1774470684415753000,2.1767529296875,-0.6765441298484802,0.5526719689369202,0.0009558085002936423
1774470684425769000,2.18676904296875,-0.501958429813385,0.5517579913139343,0.24665212631225586
1774470684435784700,2.19678466796875,-0.4057703912258148,0.587729811668396,0.5218741297721863
1774470684445801000,2.206801025390625,-0.43505585193634033,0.5281362533569336,0.7425122261047363
1774470684455817000,2.21681689453125,-0.5427253246307373,0.4987831711769104,0.8609919548034668
1774470684465834000,2.226833984375,-0.6462687849998474,0.4108216166496277,0.7944720983505249
1774470684475850000,2.23685009765625,-0.6931779384613037,0.3976741433143616,0.5449756979942322
1774470684485865700,2.24686572265625,-0.6763662099838257,0.45334669947624207,0.2516724467277527
1774470684495882000,2.256882080078125,-0.648764431476593,0.5259058475494385,-0.017657823860645294
1774470684505898200,2.266898193359375,-0.654005229473114,0.4144754707813263,-0.25130972266197205
1774470684515915300,2.276915283203125,-0.6847224235534668,0.27437084913253784,-0.4114517271518707
1774470684525931000,2.286930908203125,-0.8543761372566223,0.30857542157173157,-0.5129421353340149
1774470684535947000,2.296947021484375,-1.0813392400741577,0.26424577832221985,-0.5840514898300171
1774470684545963000,2.306962890625,-1.1313995122909546,0.36093929409980774,-0.6762067079544067
1774470684555979300,2.316979248046875,-1.1249253749847412,0.6003345847129822,-0.6716114282608032
1774470684565995300,2.326995361328125,-1.071233868598938,0.7573803663253784,-0.5164164900779724
1774470684576012000,2.337011962890625,-1.0224418640136719,0.9153864979743958,-0.22208499908447266
1774470684586028000,2.347028076171875,-1.0039997100830078,1.1285814046859741,0.13224725425243378
1774470684596044000,2.3570439453125,-0.9971786141395569,1.1981875896453857,0.35471653938293457
1774470684606060300,2.367060302734375,-0.9854047298431396,1.197721242904663,0.3672485947608948
1774470684616076300,2.377076171875,-0.8572704792022705,1.2021695375442505,0.34786850214004517
1774470684626092300,2.38709228515625,-0.6454338431358337,1.2376279830932617,0.3657843768596649
1774470684636109000,2.397109130859375,-0.35177773237228394,1.179571270942688,0.4587148427963257
1774470684646125000,2.407125,-0.049490053206682205,1.116417646408081,0.5978836417198181
1774470684656141300,2.417141357421875,0.15511953830718994,1.0028849840164185,0.7293897271156311
1774470684666157300,2.4271572265625,0.22235797345638275,0.7476153373718262,0.7672063708305359
1774470684676173300,2.43717333984375,0.26233893632888794,0.5607980489730835,0.7823293805122375
1774470684686189000,2.44718896484375,0.3197154104709625,0.5719761848449707,0.8474442362785339
1774470684696206000,2.4572060546875,0.3512538969516754,0.6341047883033752,0.9355804920196533
1774470684706222000,2.46722216796875,0.2437191903591156,0.5236520171165466,0.9600173830986023
1774470684716238300,2.47723828125,0.004002198576927185,0.35957786440849304,0.8870059847831726
1774470684726254300,2.48725439453125,-0.21444864571094513,0.2603820562362671,0.7399837970733643
1774470684736270000,2.49727001953125,-0.33948859572410583,0.27667102217674255,0.5850557684898376
1774470684746287000,2.507287109375,-0.3774612843990326,0.37320661544799805,0.49286189675331116
1774470684756303000,2.51730322265625,-0.39394596219062805,0.47058480978012085,0.48771214485168457
1774470684766319400,2.5273193359375,-0.41880765557289124,0.5408949255943298,0.5289456248283386
1774470684776335400,2.53733544921875,-0.44164106249809265,0.5744057297706604,0.5819464921951294
1774470684786351000,2.54735107421875,-0.4551760256290436,0.6128833889961243,0.6387109756469727
1774470684796367000,2.5573671875,-0.46742552518844604,0.6251744031906128,0.6862580180168152
1774470684806384000,2.567384033203125,-0.49900022149086,0.6220877766609192,0.7088639736175537
1774470684816400100,2.577400146484375,-0.5514386296272278,0.5334692597389221,0.7080730199813843
1774470684826416000,2.587416015625,-0.5897336006164551,0.33109110593795776,0.6825628280639648
1774470684836432100,2.59743212890625,-0.5157597661018372,0.14447994530200958,0.6161899566650391
1774470684846448000,2.6074482421875,-0.3011587858200073,0.053077332675457,0.5147101879119873
1774470684856464100,2.617464111328125,-0.02310372143983841,-0.03081623651087284,0.38862258195877075
1774470684866481200,2.627481201171875,0.2562006115913391,-0.1047367975115776,0.2786462903022766
1774470684876497200,2.6374970703125,0.48885995149612427,-0.10722046345472336,0.2251577526330948
1774470684886513200,2.64751318359375,0.6432799100875854,-0.09740964323282242,0.22228792309761047
1774470684896529200,2.657529052734375,0.6929885745048523,-0.027097398415207863,0.2281721830368042
1774470684906545200,2.667545166015625,0.6559557318687439,0.007269364316016436,0.19722971320152283
1774470684916561200,2.67756103515625,0.5748369097709656,-0.08110177516937256,0.12221432477235794
1774470684926578200,2.687578125,0.5157648324966431,-0.19602623581886292,-0.02377483807504177
1774470684936594200,2.69759423828125,0.5167030692100525,-0.14808747172355652,-0.26143985986709595
1774470684946610200,2.707610107421875,0.5480902791023254,-0.02353755012154579,-0.5419977307319641
1774470684956626200,2.717626220703125,0.5676535964012146,-0.029259085655212402,-0.7437180876731873
1774470684966642200,2.72764208984375,0.532511830329895,0.00700757559388876,-0.7478430867195129
1774470684976659000,2.737658935546875,0.47351589798927307,0.02557753212749958,-0.5877689719200134
1774470684986675200,2.74767529296875,0.4447233974933624,-0.0660884752869606,-0.35356125235557556
1774470684996691200,2.757691162109375,0.4398452937602997,-0.06761925667524338,-0.10452694445848465
1774470685006707200,2.767707275390625,0.4838106036186218,-0.07261614501476288,-0.03670235350728035
1774470685016723200,2.77772314453125,0.5399982333183289,-0.08746673166751862,-0.12539361417293549
1774470685026739200,2.7877392578125,0.563063383102417,-0.05889634042978287,-0.19205066561698914
1774470685036756200,2.797756103515625,0.5629741549491882,-0.013337376527488232,-0.13955949246883392
1774470685046772200,2.807772216796875,0.5887972116470337,-0.06216749921441078,0.08751333504915237
1774470685056788200,2.817788330078125,0.6423773765563965,-0.245613232254982,0.49968066811561584
1774470685066804200,2.82780419921875,0.792523205280304,-0.5128510594367981,0.9350818991661072
1774470685076820200,2.8378203125,1.114925503730774,-0.6502856016159058,1.183979868888855
1774470685086836200,2.847836181640625,1.5028116703033447,-0.6744905710220337,1.1802568435668945
1774470685096853200,2.857853271484375,1.7716894149780273,-0.6684534549713135,1.0457820892333984
1774470685106869200,2.867869140625,1.8257169723510742,-0.6177798509597778,0.9524403810501099
1774470685116885200,2.87788525390625,1.672194004058838,-0.5416752696037292,0.9605411887168884
1774470685126901200,2.8879013671875,1.3597759008407593,-0.42411187291145325,1.023923635482788
1774470685136917000,2.8979169921875,0.8752667903900146,-0.3681841492652893,1.0344798564910889
1774470685146934300,2.907934326171875,0.2837371826171875,-0.3125893175601959,0.9334923028945923
1774470685156950300,2.9179501953125,-0.32676801085472107,-0.08840656280517578,0.7922105193138123
1774470685166966300,2.92796630859375,-0.9126288294792175,0.12456749379634857,0.6484568119049072
1774470685176982300,2.937982177734375,-1.4520092010498047,0.3211127817630768,0.4752804934978485
1774470685186998000,2.947998046875,-1.9245277643203735,0.5111455917358398,0.22459448873996735
1774470685197014000,2.958013916015625,-2.306405782699585,0.7559952735900879,-0.09578458219766617
1774470685207031300,2.96803125,-2.639160394668579,0.7785916328430176,-0.4127747714519501
1774470685217047300,2.97804736328125,-2.9261369705200195,0.9500107765197754,-0.6083773374557495
1774470685227063300,2.988063232421875,-3.1838221549987793,0.825698733329773,-0.7618702054023743
1774470685237079000,2.9980791015625,-3.333357572555542,0.6852920651435852,-0.9062033891677856
1774470685247095000,3.008094970703125,-3.380741596221924,0.6508358120918274,-0.9579928517341614
1774470685257111000,3.018111083984375,-3.3945562839508057,0.661252498626709,-0.8280265927314758
1774470685267128300,3.02812841796875,-3.29166841506958,0.40283745527267456,-0.6884676218032837
1774470685277144300,3.038144287109375,-2.976011037826538,0.1038864478468895,-0.6031713485717773
1774470685287160000,3.04816015625,-2.460015296936035,0.003629888640716672,-0.5599921941757202
1774470685297176000,3.058176025390625,-1.8132438659667969,0.0716898962855339,-0.5937623977661133
1774470685307192000,3.068192138671875,-1.205944299697876,0.19240432977676392,-0.6734633445739746
1774470685317208000,3.0782080078125,-0.7145535349845886,0.11640437692403793,-0.8695939779281616
1774470685327225000,3.08822509765625,-0.26798537373542786,0.012926717288792133,-1.0654289722442627
1774470685337241000,3.098240966796875,0.07754432410001755,-0.09215549379587173,-1.088128685951233
1774470685347257000,3.108257080078125,0.4275752902030945,-0.126610666513443,-1.0806604623794556
1774470685357273000,3.118273193359375,0.8359886407852173,-0.17051954567432404,-1.2312198877334595
1774470685367289000,3.1282890625,1.1986278295516968,-0.20252195000648499,-1.4245378971099854
1774470685377306000,3.13830615234375,1.4087480306625366,-0.05473887920379639,-1.5059704780578613
1774470685387322000,3.148322021484375,1.4378007650375366,0.2119647115468979,-1.5253963470458984
1774470685397338000,3.158338134765625,1.3376202583312988,0.5404224991798401,-1.4361662864685059
1774470685407354000,3.16835400390625,1.1616610288619995,2.9223132133483887,-1.343866229057312
1774470685417370000,3.1783701171875,0.9648962616920471,3.2257351875305176,-0.7003293633460999
1774470685427386400,3.188386474609375,1.0752853155136108,2.8286004066467285,0.08998101949691772
1774470685437403100,3.198403076171875,1.0666016340255737,2.3910226821899414,0.4343152344226837
1774470685447419100,3.208419189453125,0.9349445104598999,1.6310633420944214,0.6495457887649536
1774470685457435100,3.21843505859375,0.900719404220581,0.9479649662971497,0.6934266686439514
1774470685467451100,3.228451171875,1.0167256593704224,0.9222598671913147,0.7185895442962646
1774470685477467100,3.238467041015625,1.1751494407653809,1.2365487813949585,0.9545461535453796
1774470685487483100,3.248483154296875,1.4244939088821411,1.3517518043518066,1.2161154747009277
1774470685497500000,3.2585,1.7429574728012085,1.4540315866470337,1.3401044607162476
1774470685507516200,3.26851611328125,2.0276777744293213,1.5965520143508911,1.3588060140609741
1774470685517532200,3.2785322265625,2.271078586578369,1.5948158502578735,1.2127758264541626
1774470685527548200,3.288548095703125,2.3875088691711426,1.4023457765579224,0.8739038109779358
1774470685537564200,3.298564208984375,2.3604326248168945,1.0482561588287354,0.498961865901947
1774470685547580000,3.308579833984375,2.255823850631714,0.7125585675239563,0.3174256384372711
1774470685557597200,3.31859716796875,2.176570415496826,0.6762530207633972,0.2645842432975769
1774470685567613200,3.32861328125,2.109584331512451,0.8548624515533447,0.3804440200328827
1774470685577629200,3.338629150390625,2.0722413063049316,0.8555812239646912,0.6333465576171875
1774470685587645000,3.34864501953125,2.1129820346832275,1.0337659120559692,0.9086228609085083
1774470685597661000,3.358660888671875,2.3784780502319336,1.2471271753311157,1.1633257865905762
1774470685607678000,3.368677978515625,2.792327880859375,1.4273449182510376,1.2217371463775635
1774470685617694200,3.378694091796875,3.15037202835083,1.5250352621078491,1.099256992340088
1774470685627710200,3.388710205078125,3.28690242767334,1.3654836416244507,0.83936607837677
1774470685637726000,3.398725830078125,3.1005306243896484,0.8292332291603088,0.5256299376487732
1774470685647742000,3.408741943359375,2.5616395473480225,0.2808939814567566,0.1818334460258484
1774470685657758000,3.418758056640625,1.9342626333236694,0.11360219866037369,-0.1321346014738083
1774470685667775200,3.428775146484375,1.388257384300232,0.3333457410335541,-0.3457147777080536
1774470685677791200,3.438791259765625,0.8612303137779236,0.7823658585548401,-0.7406248450279236
1774470685687807000,3.448806884765625,0.49621322751045227,1.299267292022705,-1.3122656345367432
1774470685697823000,3.458822998046875,0.3196057081222534,1.4879426956176758,-1.6858981847763062
1774470685707839000,3.4688388671875,0.2296672761440277,0.8848315477371216,-1.9166717529296875
1774470685717855000,3.47885498046875,0.25217151641845703,0.3224819004535675,-1.9530843496322632
1774470685727872300,3.488872314453125,0.510626494884491,0.13948571681976318,-2.031494617462158
1774470685737888000,3.498887939453125,1.086609959602356,-0.21714510023593903,-2.4319465160369873
1774470685747904000,3.508904052734375,1.701159954071045,-0.5695071220397949,-2.657586097717285
1774470685757920000,3.518919921875,1.961708664894104,-0.7039639949798584,-2.512096643447876
1774470685767936000,3.52893603515625,2.0526371002197266,-0.5204522609710693,-2.2792129516601562
1774470685777953000,3.538953125,2.0971457958221436,-0.197816401720047,-2.2014095783233643
1774470685787969000,3.548968994140625,1.923153281211853,0.383038192987442,-2.13015079498291
1774470685797985000,3.558985107421875,1.5391994714736938,0.6684763431549072,-2.4259238243103027
1774470685808001000,3.5690009765625,1.108507513999939,0.5281761884689331,-2.9603190422058105
1774470685818017000,3.57901708984375,0.826897919178009,0.2418813407421112,-3.052565574645996
1774470685828033000,3.589032958984375,0.6864113807678223,0.1317519098520279,-2.6200315952301025
1774470685838050000,3.599050048828125,0.5429913997650146,0.6288583278656006,-1.8516074419021606
1774470685848066000,3.609066162109375,0.18459434807300568,0.32199826836586,-1.0006442070007324
1774470685858082000,3.61908203125,-0.039929840713739395,0.5545313954353333,-0.36886218190193176
1774470685868098000,3.62909814453125,-0.274888813495636,0.8011115789413452,-0.05410105362534523
1774470685878114000,3.639114013671875,-0.4021943211555481,1.1213767528533936,-0.17092114686965942
1774470685888131000,3.649131103515625,-0.42303353548049927,1.2722580432891846,-0.5433005690574646
1774470685898147000,3.65914697265625,-0.5170900225639343,1.0307104587554932,-1.1156506538391113
1774470685908163000,3.6691630859375,-0.7947226762771606,0.5444529056549072,-1.7875254154205322
1774470685918179000,3.679178955078125,-1.1675969362258911,-0.22281204164028168,-2.409932851791382
1774470685928195000,3.689195068359375,-1.242030382156372,-1.654624104499817,-2.451934337615967
1774470685938211000,3.699211181640625,-0.5514200329780579,-3.1918768882751465,-2.039062261581421
1774470685948228000,3.70922802734375,0.44124558568000793,-3.5290215015411377,-1.5484577417373657
1774470685958244000,3.719244140625,0.9668667316436768,-3.4229955673217773,-1.3265132904052734
1774470685968260000,3.729260009765625,0.8424981832504272,-3.0557234287261963,-0.8010077476501465
1774470685978276000,3.739276123046875,0.26023292541503906,-2.676332950592041,-0.020771058276295662
1774470685988292000,3.7492919921875,-0.28598514199256897,-2.421959161758423,0.10957762598991394
1774470685998309000,3.75930908203125,-0.4965410530567169,-2.033280372619629,-0.242850199341774
1774470686008325000,3.7693251953125,-0.6445523500442505,-1.614332914352417,-0.6464887261390686
1774470686018341000,3.779341064453125,-1.0262632369995117,-1.318395733833313,-0.8860983848571777
1774470686028357000,3.789357177734375,-1.3982716798782349,-1.0853475332260132,-0.9991748929023743
1774470686038373000,3.799373046875,-1.6107474565505981,-0.9675362706184387,-1.0627552270889282
1774470686048390100,3.80939013671875,-1.5796966552734375,-1.0015698671340942,-1.0218207836151123
1774470686058406100,3.81940625,-1.1446309089660645,-1.3690320253372192,-0.8208842277526855
1774470686068422100,3.829422119140625,-0.5563697814941406,-1.8243106603622437,-0.6443326473236084
1774470686078438100,3.839438232421875,-0.13160276412963867,-2.0919973850250244,-0.6706931591033936
1774470686088454000,3.849453857421875,0.13044323027133942,-2.160659074783325,-0.7688186764717102
1774470686098470000,3.859469970703125,0.15882080793380737,-2.0382113456726074,-0.9205370545387268
1774470686108487200,3.869487060546875,-0.029438050463795662,-1.759232759475708,-1.069711685180664
1774470686118503200,3.879503173828125,-0.2965344488620758,-1.4398361444473267,-0.998680591583252
1774470686128519200,3.889519287109375,-0.3781193494796753,-1.5294361114501953,-0.9495477080345154
1774470686138535000,3.899534912109375,-0.2864837050437927,-1.2097193002700806,-1.1374949216842651
1774470686148551000,3.909551025390625,-0.22827976942062378,-1.1731027364730835,-1.3323755264282227
1774470686158568200,3.919568115234375,-0.1402476578950882,-1.3895570039749146,-1.4345394372940063
1774470686168584200,3.929584228515625,0.04787884280085564,-1.7261161804199219,-1.289833664894104
1774470686178600200,3.93960009765625,0.14603257179260254,-2.0312883853912354,-1.0089342594146729
1774470686188616000,3.949615966796875,0.20935454964637756,-2.163496971130371,-0.7545041441917419
1774470686198632000,3.9596318359375,0.34424924850463867,-2.298966646194458,-0.4651418626308441
1774470686208649200,3.969649169921875,0.571209192276001,-2.348489761352539,-0.2181539088487625
1774470686218665200,3.979665283203125,0.7395449280738831,-2.310786247253418,-0.07835259288549423
1774470686228681000,3.989680908203125,0.8578342795372009,-2.267392635345459,0.009679791517555714
1774470686238697000,3.999697021484375,0.9257185459136963,-1.977335810661316,0.012591958045959473
1774470686248713000,4.009712890625,0.7850466370582581,-1.3557889461517334,-0.09319998323917389
1774470686258730000,4.01972998046875,0.4709009528160095,-0.8568994998931885,-0.2510250210762024
1774470686268746200,4.029746337890625,0.17807546257972717,-0.3982506990432739,-0.3147403597831726
1774470686278762000,4.039761962890625,0.09807330369949341,-0.2016012966632843,-0.3704611659049988
1774470686288778000,4.049778076171875,0.0772753432393074,-0.06581283360719681,-0.4901596009731293
1774470686298794000,4.0597939453125,0.08588774502277374,-0.12614408135414124,-0.7440840005874634
1774470686308811000,4.06981103515625,0.07052449882030487,-0.39277976751327515,-1.0289220809936523
1774470686318827300,4.0798271484375,-0.13609765470027924,-0.4481423497200012,-1.1913315057754517
1774470686328843000,4.089843017578125,-0.18507824838161469,-0.4579281508922577,-1.225370168685913
1774470686338859000,4.09985888671875,-0.30704355239868164,-0.5184838771820068,-1.124487280845642
1774470686348875000,4.109875,-0.4205504059791565,-0.7929362058639526,-0.9173023700714111
1774470686358892000,4.11989208984375,-0.48981285095214844,-1.0022317171096802,-0.5812215805053711
1774470686368908000,4.129907958984375,-0.579879879951477,-0.6867738366127014,-0.19974559545516968
1774470686378924000,4.139924072265625,-0.8686906695365906,-0.2479591965675354,-0.15272216498851776
1774470686388940000,4.14993994140625,-1.3063467741012573,-0.036428313702344894,-0.24379003047943115
1774470686398956000,4.1599560546875,-1.6607238054275513,-0.02997201308608055,-0.3039822578430176
1774470686408973000,4.16997314453125,-1.79940664768219,0.14258430898189545,-0.4530034363269806
1774470686418989000,4.179989013671875,-1.605002522468567,0.041725076735019684,-0.5853137969970703
1774470686429005000,4.190005126953125,-1.2893710136413574,-0.5002782940864563,-0.6329295039176941
1774470686439021000,4.20002099609375,-0.9665200114250183,-0.9088170528411865,-0.5974767208099365
1774470686449037000,4.210037109375,-0.8528344631195068,-0.7272544503211975,-0.6596493124961853
1774470686459054000,4.22005419921875,-1.0442545413970947,-0.8196879625320435,-1.0580425262451172
1774470686469070000,4.230070068359375,-1.2155746221542358,-0.9751760959625244,-1.852014422416687
1774470686479086000,4.240086181640625,-1.1977663040161133,-1.2610597610473633,-2.516771078109741
1774470686489102000,4.25010205078125,-1.267371416091919,-1.7216638326644897,-2.4268593788146973
1774470686499118000,4.2601181640625,-1.585046648979187,-2.0024194717407227,-1.9533162117004395
1774470686509135000,4.270135009765625,-2.00812029838562,-2.457960605621338,-1.6258732080459595
1774470686519151000,4.280151123046875,-2.4489080905914307,-2.9066195487976074,-1.375685453414917
1774470686529167000,4.2901669921875,-2.5514070987701416,-2.777641773223877,-1.4041423797607422
1774470686539183000,4.30018310546875,-2.526519298553467,-2.144423007965088,-1.9066129922866821
1774470686549200100,4.3102001953125,-2.400991201400757,-1.5888477563858032,-2.6037518978118896
1774470686559216000,4.320216064453125,-2.142657518386841,-1.1445640325546265,-3.0585949420928955
1774470686569232100,4.330232177734375,-1.8344980478286743,-0.879578173160553,-3.1320908069610596
1774470686579248000,4.340248046875,-1.6212117671966553,-0.7105990052223206,-2.878153085708618
1774470686589264100,4.35026416015625,-1.5878351926803589,-0.7196087837219238,-2.6004629135131836
1774470686599281200,4.36028125,-1.8049771785736084,-1.0778872966766357,-2.4321765899658203
1774470686609297200,4.370297119140625,-1.8845558166503906,-1.547467827796936,-2.04233717918396
1774470686619313200,4.380313232421875,-1.834993839263916,-1.9818192720413208,-1.5770893096923828
1774470686629329200,4.3903291015625,-1.9423291683197021,-1.8503494262695312,-1.2991455793380737
1774470686639345200,4.40034521484375,-2.0782175064086914,-1.432403564453125,-1.0052719116210938
1774470686649362200,4.410362060546875,-2.111698865890503,-1.1452703475952148,-0.8131999373435974
1774470686659378200,4.420378173828125,-2.021834135055542,-1.1672965288162231,-0.6168863773345947
1774470686669394000,4.430393798828125,-1.8851795196533203,-1.1822330951690674,-0.46292585134506226
1774470686679410200,4.44041015625,-1.6488447189331055,-1.104315996170044,-0.25059041380882263
1774470686689426200,4.45042626953125,-1.3883886337280273,-0.9834028482437134,-0.03296088054776192
1774470686699443200,4.460443115234375,-1.1528408527374268,-0.6837490200996399,0.09257441014051437
1774470686709459000,4.470458984375,-0.9879946708679199,-0.17824296653270721,0.15364494919776917
1774470686719475000,4.480474853515625,-0.8665319085121155,0.2725364565849304,0.21792113780975342
1774470686729491200,4.4904912109375,-0.7743564248085022,0.47995781898498535,0.3367764353752136
1774470686739507200,4.500507080078125,-0.7319509387016296,0.44780173897743225,0.45177093148231506
1774470686749524200,4.510524169921875,-0.7300475239753723,0.29036977887153625,0.5404350161552429
1774470686759540000,4.5205400390625,-0.7289071679115295,0.08424670249223709,0.6059802174568176
1774470686769556000,4.530555908203125,-0.7089715600013733,-0.0419280081987381,0.6548939347267151
1774470686779572000,4.540572021484375,-0.7799413204193115,0.2948811650276184,0.317024827003479
1774470686789588200,4.550588134765625,-0.6341865062713623,1.9852204322814941,-1.020408272743225
1774470686799605200,4.560605224609375,-0.4464549720287323,1.6606884002685547,-1.0159912109375
1774470686809621000,4.57062109375,-0.3221343755722046,0.8838757276535034,-0.3832744061946869
1774470686819637000,4.580636962890625,-0.44258034229278564,0.3333697021007538,0.09710843861103058
1774470686829653000,4.590653076171875,-0.6987553834915161,0.13126108050346375,0.2773841917514801
1774470686839669200,4.600669189453125,-1.0039616823196411,0.014818094670772552,0.3806131184101105
1774470686849686300,4.610686279296875,-1.1877237558364868,-0.030297718942165375,0.4733307957649231
1774470686859702000,4.620701904296875,-1.2161415815353394,0.056295230984687805,0.5238597393035889
1774470686869718000,4.630718017578125,-1.1839606761932373,0.23252299427986145,0.41842415928840637
1774470686879734000,4.640734130859375,-1.1634583473205566,0.4686063528060913,0.20007210969924927
1774470686889750300,4.650750244140625,-1.0851258039474487,0.5697755813598633,0.10327046364545822
1774470686899767000,4.66076708984375,-0.9930903911590576,0.5626524090766907,-0.047502271831035614
1774470686909783000,4.670782958984375,-0.8757458925247192,0.7858151793479919,-0.36245009303092957
1774470686919799000,4.680799072265625,-0.7008950114250183,0.744860053062439,-0.7237057685852051
1774470686929815000,4.69081494140625,-0.5437602400779724,0.6665383577346802,-0.9847392439842224
1774470686939832300,4.700832275390625,-0.5924167037010193,0.7311775088310242,-1.1039303541183472
1774470686949848000,4.71084814453125,-0.6831213235855103,0.7191328406333923,-0.9177016019821167
1774470686959864000,4.720864013671875,-0.6409040689468384,0.29072797298431396,-0.5737748742103577
1774470686969880000,4.730880126953125,-0.5700938105583191,-0.6249600052833557,-0.171346977353096
1774470686979896000,4.74089599609375,-0.5872677564620972,-1.3563474416732788,0.06748636811971664
1774470686989913300,4.750913330078125,-0.6882007718086243,-1.8944505453109741,0.1311364471912384
1774470686999929000,4.76092919921875,-0.6224102973937988,-2.220858573913574,0.17813751101493835
1774470687009945000,4.770945068359375,-0.48616352677345276,-2.31192684173584,0.38414525985717773
1774470687019961000,4.780961181640625,-0.34744423627853394,-2.06219482421875,0.5442110896110535
1774470687029977000,4.79097705078125,-0.2650489807128906,-1.525638461112976,0.46484464406967163
1774470687039994000,4.800994140625,-0.34678298234939575,-0.7503600120544434,0.1608501374721527
1774470687050010000,4.811010009765625,-0.47671833634376526,-0.29022276401519775,-0.05354365333914757
1774470687060026000,4.821026123046875,-0.5083209872245789,-0.3558334708213806,-0.01642477884888649
1774470687070042000,4.8310419921875,-0.5463972687721252,-0.8565484881401062,0.19781453907489777
1774470687080058000,4.84105810546875,-0.6319806575775146,-1.2960124015808105,0.48574432730674744
1774470687090075100,4.8510751953125,-0.6671921610832214,-1.5138970613479614,0.6921217441558838
1774470687100091100,4.861091064453125,-0.6355388760566711,-1.4375059604644775,0.6886820197105408
1774470687110107100,4.871107177734375,-0.5767232179641724,-1.234479308128357,0.5986780524253845
1774470687120123100,4.881123046875,-0.5040192008018494,-1.2057701349258423,0.5003443360328674
1774470687130139100,4.89113916015625,-0.38945695757865906,-1.252576231956482,0.42043671011924744
1774470687140156000,4.901156005859375,-0.3488120436668396,-1.208854079246521,0.4011298418045044
1774470687150172200,4.911172119140625,-0.30902841687202454,-1.0857244729995728,0.3569272458553314
1774470687160188200,4.921188232421875,-0.3187904953956604,-0.9207570552825928,0.6349327564239502
1774470687170204200,4.9312041015625,-0.35687318444252014,-0.8085596561431885,0.7241880893707275
1774470687180220200,4.94122021484375,-0.4841429889202118,-0.5849435925483704,0.5152910351753235
1774470687190237000,4.95123681640625,-0.6773267984390259,-0.24029302597045898,0.715124785900116
1774470687200253000,4.9612529296875,-0.6535391807556152,-0.2674969434738159,0.39742007851600647
1774470687210269200,4.971269287109375,-0.771528422832489,0.22079256176948547,0.4130994379520416
1774470687220285200,4.98128515625,-0.7835108041763306,0.5361907482147217,0.1628296673297882
1774470687230301200,4.99130126953125,-0.8149922490119934,0.7085438370704651,0.359948068857193
1774470687240318000,5.00131787109375,-0.6815527081489563,0.6817439198493958,0.575918972492218
1774470687250334000,5.011333984375,-0.5013440847396851,0.34738487005233765,0.4683259427547455
1774470687260350200,5.02135009765625,-0.3535844385623932,0.20568658411502838,0.3599379360675812
1774470687270366200,5.0313662109375,-0.18736056983470917,-0.060213007032871246,0.06810928136110306
1774470687280382200,5.04138232421875,-0.21295034885406494,0.10220333188772202,0.13156680762767792
1774470687290399000,5.05139892578125,-0.06535423547029495,0.3918687105178833,0.4042276442050934
1774470687300415000,5.0614150390625,0.07747934758663177,0.7757567167282104,0.18542419373989105
1774470687310431200,5.07143115234375,0.09360585361719131,1.7071688175201416,-0.21249841153621674
1774470687320447200,5.081447265625,-0.006301038898527622,2.2075088024139404,-0.23306520283222198
1774470687330463200,5.091463134765625,-0.195368692278862,2.3008806705474854,-0.009111473336815834
1774470687340480000,5.10147998046875,-0.1837053894996643,2.180755376815796,0.139139786362648
1774470687350496000,5.11149609375,-0.15852972865104675,1.9751073122024536,0.1892671287059784
1774470687360512000,5.121511962890625,-0.18625882267951965,1.1106369495391846,-0.006661098450422287
1774470687370528300,5.1315283203125,-0.13843989372253418,0.5497808456420898,-0.15410354733467102
1774470687380544300,5.141544189453125,-0.16885906457901,0.38244858384132385,-0.12740616500377655
1774470687390561000,5.15156103515625,-0.20931939780712128,0.3198760151863098,0.036372121423482895
1774470687400577000,5.161576904296875,-0.23988209664821625,0.2485339194536209,0.06852073967456818
1774470687410593000,5.171593017578125,-0.2000659853219986,0.22877033054828644,0.026523219421505928
1774470687420609300,5.181609375,-0.08675433695316315,0.2846471667289734,-0.10626278817653656
1774470687430625300,5.191625244140625,0.09165428578853607,0.46953099966049194,-0.228953555226326
1774470687440642000,5.20164208984375,0.23384791612625122,0.7074604630470276,-0.3789784610271454
1774470687450658000,5.211657958984375,0.36144742369651794,1.0100728273391724,-0.4690961241722107
1774470687460674000,5.221674072265625,0.4081888198852539,1.304643988609314,-0.39154618978500366
1774470687470690000,5.23168994140625,0.4356497526168823,1.4949876070022583,-0.1830316036939621
1774470687480706300,5.241706298828125,0.5479446053504944,1.4230561256408691,0.017732657492160797
1774470687490723000,5.25172314453125,0.707270085811615,1.2596451044082642,0.21246911585330963
1774470687500739600,5.261739501953125,0.9143260717391968,1.38937246799469,0.5547870397567749
1774470687510755600,5.271755615234375,1.1447696685791016,1.564873218536377,0.989251434803009
1774470687520771600,5.281771484375,1.3832874298095703,1.7081190347671509,1.354332447052002
1774470687530787600,5.29178759765625,1.675925374031067,1.987707495689392,1.8792580366134644
1774470687540804400,5.301804443359375,1.9207854270935059,2.3242456912994385,2.5818755626678467
1774470687550820600,5.311820556640625,1.7566804885864258,1.5927213430404663,3.360335350036621
1774470687560836600,5.321836669921875,1.6394262313842773,0.9668406248092651,3.723609447479248
1774470687570852600,5.3318525390625,1.3296351432800293,0.14476384222507477,3.7805521488189697
1774470687580868600,5.34186865234375,0.8410321474075317,-0.8289933204650879,3.576658248901367
1774470687590885400,5.351885498046875,0.4778355360031128,-1.3679805994033813,2.9840266704559326
1774470687600901600,5.361901611328125,0.2984681725502014,-2.1379809379577637,2.4558091163635254
1774470687610917600,5.371917724609375,0.032094553112983704,-2.7834272384643555,2.0245630741119385
1774470687620933600,5.38193359375,-0.13654053211212158,-3.1728410720825195,1.540379524230957
1774470687630949400,5.391949462890625,-0.2732989192008972,-3.1865785121917725,0.6040827035903931
1774470687640965400,5.40196533203125,-0.488918274641037,-3.1990039348602295,-0.45436057448387146
1774470687650982700,5.411982666015625,-0.603193998336792,-3.1106820106506348,-1.1012072563171387
1774470687660998700,5.42199853515625,-0.8865652680397034,-3.0420470237731934,-1.4603958129882812
1774470687671014700,5.4320146484375,-1.1234688758850098,-3.1002860069274902,-1.5768473148345947
1774470687681030400,5.442030517578125,-1.3102680444717407,-3.0458197593688965,-1.6425775289535522
1774470687691046400,5.45204638671875,-1.4938207864761353,-2.8777949810028076,-1.6538405418395996
1774470687701063400,5.4620634765625,-1.7240183353424072,-3.058729648590088,-1.5892515182495117
1774470687711079700,5.47207958984375,-1.8376213312149048,-3.9229297637939453,-1.1822408437728882
1774470687721095700,5.482095703125,-1.9346938133239746,-5.228812217712402,-0.5750678181648254
1774470687731111400,5.492111328125,-1.7437853813171387,-5.136820316314697,-0.6602250337600708
1774470687741127400,5.50212744140625,-1.2746938467025757,-1.975311279296875,-1.7789108753204346
1774470687751144400,5.51214453125,-0.8757248520851135,-0.020546553656458855,-2.329775333404541
1774470687761160700,5.52216064453125,-0.4088338315486908,-1.0060738325119019,-1.5655922889709473
1774470687771176700,5.5321767578125,-0.10373757779598236,-1.5615154504776,-0.5654844641685486
1774470687781192400,5.5421923828125,0.02527659386396408,-0.9136927723884583,-0.05471384525299072
1774470687791208400,5.55220849609375,0.06946908682584763,0.03850744664669037,0.21328938007354736
1774470687801225500,5.5622255859375,0.16805505752563477,0.6949782371520996,0.3678339421749115
1774470687811241500,5.572241455078125,0.2804316580295563,1.1527525186538696,0.3764767050743103
1774470687821257500,5.582257568359375,0.28174540400505066,1.6529532670974731,0.24883511662483215
1774470687831273500,5.5922734375,0.17524132132530212,2.0560519695281982,0.07415145635604858
1774470687841289500,5.60228955078125,0.3022967576980591,1.9547806978225708,-0.11236569285392761
1774470687851306500,5.612306396484375,0.7143314480781555,1.1474109888076782,-0.3843812346458435
1774470687861322500,5.622322509765625,0.7896648049354553,0.8052565455436707,-0.7468438148498535
1774470687871338500,5.63233837890625,0.4438655972480774,1.441906213760376,-0.8451959490776062
1774470687881354500,5.6423544921875,-0.059726446866989136,1.5171964168548584,-1.047845482826233
1774470687891370500,5.65237060546875,-0.2275569885969162,1.5872235298156738,-1.1173909902572632
1774470687901387500,5.662387451171875,-0.355538934469223,1.9913142919540405,-1.0296087265014648
1774470687911403500,5.672403564453125,-0.24088211357593536,2.013467788696289,-0.7223467826843262
1774470687921419300,5.682419189453125,-0.14750929176807404,1.7419419288635254,-0.2789016664028168
1774470687931435500,5.692435546875,-0.24970144033432007,1.4615195989608765,0.16692587733268738
1774470687941451500,5.702451416015625,-0.32391974329948425,1.1834728717803955,0.5683475732803345
1774470687951468500,5.712468505859375,-0.3214086592197418,1.018180251121521,0.8623339533805847
1774470687961484500,5.722484619140625,-0.16340303421020508,1.0671840906143188,1.193973183631897
1774470687971500300,5.732500244140625,0.12733691930770874,1.1118433475494385,1.5067051649093628
1774470687981516500,5.7425166015625,0.6300463676452637,0.5609576106071472,1.2169370651245117
1774470687991532500,5.752532470703125,1.063891887664795,-0.22632448375225067,0.5795645713806152
1774470688001549600,5.762549560546875,1.1816956996917725,0.08339369297027588,0.3568095266819
1774470688011565600,5.772565673828125,1.1400028467178345,0.4279553294181824,0.055439289659261703
1774470688021581300,5.782581298828125,1.0479621887207031,0.6953684091567993,-0.2013954371213913
1774470688031597600,5.79259765625,0.9644933342933655,0.7708767652511597,-0.38528111577033997
1774470688041613600,5.802613525390625,0.9229453802108765,0.4142155647277832,-0.5481933355331421
1774470688051629600,5.812629638671875,0.7674082517623901,0.10999840497970581,-0.6536909937858582
1774470688061646300,5.822646240234375,0.4445854425430298,0.013085708022117615,-0.6692339777946472
1774470688071662300,5.832662353515625,0.17116323113441467,-0.06636810302734375,-0.5755066871643066
1774470688081678300,5.84267822265625,0.0002894856152124703,-0.2109828144311905,-0.4090849757194519
1774470688091694600,5.852694580078125,-0.14752501249313354,-0.36542245745658875,-0.12594275176525116
1774470688101710600,5.862710693359375,-0.3279200792312622,-0.5298933982849121,0.2359885573387146
1774470688111727400,5.872727294921875,-0.4537307322025299,-0.6011361479759216,0.38796159625053406
1774470688121743400,5.882743408203125,-0.488684743642807,-0.7749465703964233,0.5678319931030273
1774470688131759400,5.89275927734375,-0.5088011622428894,-1.1231460571289062,0.6433113217353821
1774470688141775600,5.902775634765625,-0.1370345503091812,-2.016052722930908,0.48736727237701416
1774470688151791600,5.91279150390625,0.11489702761173248,-2.290386438369751,0.36087989807128906
1774470688161808400,5.922808349609375,0.23374724388122559,-2.146440267562866,0.29822689294815063
1774470688171824400,5.932824462890625,0.23506498336791992,-1.6562161445617676,0.21823646128177643
1774470688181840400,5.94284033203125,0.16506777703762054,-0.9637175798416138,-0.025167405605316162
1774470688191856400,5.9528564453125,0.1467694640159607,-0.35374370217323303,-0.2304646372795105
1774470688201872600,5.96287255859375,0.2166641354560852,0.1100841611623764,-0.18186646699905396
1774470688211889400,5.972889404296875,0.2912331819534302,0.7495637536048889,-0.02117985300719738
1774470688221905400,5.982905517578125,0.21914993226528168,1.2987985610961914,-0.002834668615832925
1774470688231921400,5.99292138671875,0.051545750349760056,1.2424336671829224,-0.14821237325668335
1774470688241937400,6.0029375,-0.0019502328941598535,0.6896383166313171,-0.44585683941841125
1774470688251953700,6.01295361328125,-0.02021712064743042,0.29272347688674927,-0.5468630790710449
1774470688261970400,6.022970458984375,-0.06816573441028595,0.17309242486953735,-0.5228434801101685
1774470688271986400,6.032986328125,-0.09554462879896164,0.10870756953954697,-0.47689172625541687
1774470688282002400,6.04300244140625,-0.12109073996543884,0.07858002930879593,-0.412136971950531
1774470688292018400,6.053018310546875,-0.14418141543865204,0.15741892158985138,-0.33075740933418274
1774470688302034700,6.06303466796875,-0.08337558060884476,0.2928377389907837,-0.254188597202301
1774470688312050700,6.07305078125,0.007412376347929239,0.4764557480812073,-0.24919304251670837
1774470688322067500,6.0830673828125,0.05457296222448349,0.19734050333499908,-0.26315227150917053
1774470688332083500,6.09308349609375,0.21112555265426636,-0.20987306535243988,-0.25347673892974854
1774470688342099500,6.103099365234375,0.40718480944633484,-0.6919427514076233,-0.1791742742061615
1774470688352115500,6.113115478515625,0.40529128909111023,-0.7757465839385986,-0.17033977806568146
1774470688362131700,6.123131591796875,0.3563075065612793,-0.6131781935691833,-0.11308661103248596
1774470688372148500,6.1331484375,0.39666637778282166,-0.3799537122249603,-0.04123026132583618
1774470688382164500,6.14316455078125,0.47701317071914673,-0.17394569516181946,0.029678799211978912
1774470688392180500,6.153180419921875,0.48310381174087524,-0.0756063461303711,0.06623201817274094
1774470688402196500,6.163196533203125,0.4691224694252014,0.06591589748859406,0.08108952641487122
1774470688412212700,6.173212646484375,0.5179736614227295,0.22290419042110443,0.11770585924386978
1774470688422229500,6.1832294921875,0.5167976021766663,0.2237260341644287,0.15767139196395874
1774470688432245500,6.19324560546875,0.5338351726531982,0.17987816035747528,0.1703842580318451
1774470688442261500,6.203261474609375,0.4705880284309387,0.1426042914390564,0.10735654830932617
1774470688452277500,6.213277587890625,0.36829760670661926,-0.023122096434235573,-0.035846415907144547
1774470688462293500,6.22329345703125,0.15449689328670502,-0.4325285255908966,-0.08624913543462753
1774470688472310500,6.233310546875,0.10361960530281067,-0.4751976728439331,-0.20212726294994354
1774470688482326500,6.243326416015625,-0.0320037379860878,-0.3516664206981659,-0.14734497666358948
1774470688492342500,6.253342529296875,-0.15713022649288177,-0.2961709499359131,-0.22423256933689117
1774470688502358300,6.263358154296875,-0.2258799970149994,-0.1690148562192917,-0.28304848074913025
1774470688512374300,6.273374267578125,-0.21631339192390442,-0.030063094571232796,-0.24878212809562683
1774470688522391300,6.283391357421875,-0.21567849814891815,0.06293395906686783,-0.19816981256008148
1774470688532407300,6.2934072265625,-0.31603091955184937,0.11094462871551514,-0.2557782530784607
1774470688542423300,6.30342333984375,-0.3308168053627014,0.22645604610443115,-0.2732387185096741
1774470688552439300,6.313439208984375,-0.22030866146087646,0.40391606092453003,-0.2825680375099182
1774470688562455300,6.323455322265625,-0.08011481165885925,0.570547878742218,-0.15344202518463135
1774470688572472300,6.333472412109375,-0.07266035676002502,0.7675131559371948,-0.060015399008989334
1774470688582488300,6.34348828125,-0.08243442326784134,0.8668916821479797,0.0026841999497264624
1774470688592504300,6.35350439453125,-0.11952719837427139,0.973050057888031,0.001002680161036551
1774470688602520300,6.363520263671875,-0.12023479491472244,0.8252390623092651,-0.08434683829545975
1774470688612536000,6.3735361328125,-0.2128283828496933,0.632183313369751,-0.15530702471733093
1774470688622552000,6.383552001953125,-0.3051029145717621,0.1599193662405014,-0.02063923142850399
1774470688632569300,6.3935693359375,-0.13478390872478485,0.44941455125808716,0.27088209986686707
1774470688642585300,6.40358544921875,-0.06361652910709381,1.2687208652496338,0.7332353591918945
1774470688652601300,6.413601318359375,0.002213619416579604,1.808471441268921,0.8701851963996887
1774470688662617000,6.4236171875,0.06668023020029068,2.0578501224517822,0.7790478467941284
1774470688672633000,6.433633056640625,0.09448469430208206,1.8445143699645996,0.57585209608078
1774470688682650400,6.443650390625,0.18599703907966614,1.8591500520706177,0.4969240128993988
1774470688692666400,6.453666259765625,0.23188036680221558,1.6969553232192993,0.48817846179008484
1774470688702682400,6.463682373046875,0.2583354115486145,1.431148886680603,0.5188700556755066
1774470688712698000,6.473697998046875,0.3004618287086487,1.1842433214187622,0.5507933497428894
1774470688722714000,6.483714111328125,0.185505673289299,0.6736545562744141,0.4147319495677948
1774470688732731400,6.4937314453125,0.2033185064792633,0.3104971647262573,0.33403176069259644
1774470688742747400,6.503747314453125,0.29711076617240906,-0.16486512124538422,0.21816694736480713
1774470688752763400,6.513763427734375,0.4308057129383087,-0.7826641798019409,0.1355796605348587
1774470688762779100,6.523779052734375,0.517410933971405,-1.2829067707061768,0.05886225029826164
1774470688772795100,6.533795166015625,0.39909571409225464,-1.7776507139205933,-0.11835353821516037
1774470688782812400,6.5438125,0.29684364795684814,-1.9536837339401245,-0.3114013075828552
1774470688792828400,6.553828369140625,0.188437819480896,-1.7948070764541626,-0.47446346282958984
1774470688802844200,6.56384423828125,0.23197545111179352,-1.6669089794158936,-0.693230390548706
1774470688812860200,6.573860107421875,0.2760313153266907,-1.6180490255355835,-0.8378544449806213
1774470688822876200,6.583876220703125,0.28556010127067566,-1.6317797899246216,-0.8353545069694519
1774470688832892200,6.59389208984375,0.1275598257780075,-1.8245819807052612,-0.6400662660598755
1774470688842909400,6.603909423828125,-0.16204535961151123,-1.75203537940979,-0.4837597608566284
1774470688852925200,6.61392529296875,-0.3666866421699524,-1.2666531801223755,-0.3434511125087738
1774470688862941200,6.623941162109375,-0.3449997305870056,-0.8314839005470276,-0.32030558586120605
1774470688872957200,6.633957275390625,-0.4188140332698822,-0.8702587485313416,-0.3313385248184204
1774470688882973200,6.64397314453125,-0.5214868783950806,-0.9167953133583069,-0.1673399955034256
1774470688892990500,6.653990478515625,-0.5079761147499084,-0.8268968462944031,-0.11583872139453888
1774470688903006200,6.664006103515625,-0.5539523959159851,-0.8875026702880859,-0.23811642825603485
1774470688913022200,6.674022216796875,-0.5422672629356384,-1.1645992994308472,-0.504943311214447
1774470688923038200,6.6840380859375,-0.3873157501220703,-1.5438426733016968,-0.6509138345718384
1774470688933054200,6.69405419921875,-0.36163491010665894,-1.9891091585159302,-0.7420810461044312
1774470688943071500,6.704071533203125,-0.564339816570282,-2.5924527645111084,-0.7579883933067322
1774470688953087200,6.714087158203125,-0.8297699093818665,-2.752048969268799,-0.4526042342185974
1774470688963103200,6.724103271484375,-0.8378272652626038,-1.983074426651001,-0.30285361409187317
1774470688973119200,6.734119140625,-0.5216051340103149,-1.0997283458709717,-0.20524422824382782
1774470688983135200,6.74413525390625,-0.2847355902194977,-0.3720712959766388,0.7019045948982239
1774470688993152300,6.75415234375,-0.09824933856725693,1.103290319442749,0.07610488682985306
1774470689003168300,6.764168212890625,-0.0012274509062990546,0.9232180714607239,0.2048892378807068
1774470689013184300,6.774184326171875,0.08192948997020721,1.0160223245620728,0.26908817887306213
1774470689023200300,6.7842001953125,0.15700213611125946,1.0944582223892212,0.17429643869400024
1774470689033216300,6.79421630859375,0.209302619099617,0.6570002436637878,-0.07662659883499146
1774470689043232300,6.804232177734375,0.28061142563819885,-0.256617933511734,-0.3082619607448578
1774470689053249300,6.814249267578125,0.1945556402206421,-0.824141800403595,-0.3953116536140442
1774470689063265300,6.824265380859375,0.06874630600214005,-1.0344936847686768,-0.3343753218650818
1774470689073281300,6.83428125,-0.040529049932956696,-0.9562087655067444,-0.24692963063716888
1774470689083297300,6.84429736328125,-0.059416722506284714,-0.5296233892440796,-0.1278168112039566
1774470689093313300,6.854313232421875,0.09825333207845688,0.08687737584114075,0.01936757192015648
1774470689103330000,6.864330078125,0.19756340980529785,0.5938436388969421,0.09442450851202011
1774470689113346300,6.87434619140625,0.2548852860927582,0.7044796347618103,0.07742821425199509
1774470689123362300,6.8843623046875,0.30300620198249817,0.4718751311302185,0.06797479093074799
1774470689133378300,6.89437841796875,0.36058828234672546,0.16063308715820312,-0.011330951005220413
1774470689143394300,6.904394287109375,0.3869810104370117,-0.2559177875518799,-0.08567309379577637
1774470689153411000,6.9144111328125,0.37222549319267273,-0.6202715039253235,-0.16390344500541687
1774470689163427300,6.92442724609375,0.3645763695240021,-0.74651038646698,-0.21508194506168365
1774470689173443300,6.934443359375,0.38805320858955383,-0.5577120184898376,-0.3010953962802887
1774470689183459300,6.944459228515625,0.359576016664505,-0.20946480333805084,-0.3368086516857147
1774470689193475300,6.954475341796875,0.36551138758659363,0.06275978684425354,-0.48918965458869934
1774470689203492000,6.9644921875,0.32891184091567993,0.22692209482192993,-0.6121485829353333
1774470689213508400,6.97450830078125,0.40648573637008667,0.4965676963329315,-0.6224009990692139
1774470689223524400,6.9845244140625,0.4379781484603882,0.6486272811889648,-0.6291592717170715
1774470689233540400,6.994540283203125,0.49138250946998596,0.5924574732780457,-0.6389477252960205
1774470689243556400,7.004556396484375,0.4773569703102112,0.4177418351173401,-0.8318191766738892
1774470689253572400,7.014572265625,0.45199036598205566,0.3989894688129425,-0.844451904296875
1774470689263589000,7.024589111328125,0.4661749005317688,0.39412572979927063,-0.6674909591674805
1774470689273605400,7.03460546875,0.4376585781574249,0.36804381012916565,-0.29243186116218567
1774470689283621400,7.044621337890625,0.46408137679100037,0.2509840130805969,0.02142726071178913
1774470689293637400,7.054637451171875,0.47189509868621826,-0.04361379146575928,0.27720123529434204
1774470689303653000,7.064653076171875,0.4353935420513153,-0.14493721723556519,0.4551291763782501
1774470689313670100,7.074670166015625,0.40885087847709656,-0.06636251509189606,0.4823805093765259
1774470689323686400,7.084686279296875,0.3822632133960724,0.04981070011854172,0.3989567160606384
1774470689333702400,7.094702392578125,0.3074696660041809,0.07512377947568893,0.33639639616012573
1774470689343718400,7.104718505859375,0.37361273169517517,0.08075956255197525,0.2682591378688812
1774470689353734100,7.114734130859375,0.33122241497039795,0.0742473304271698,0.27617591619491577
1774470689363751200,7.124751220703125,0.37967249751091003,0.1928916871547699,0.3518714904785156
1774470689373767200,7.13476708984375,0.4579619765281677,0.6011942028999329,0.3337574601173401
1774470689383783400,7.144783447265625,0.5191073417663574,1.0181552171707153,0.32551977038383484
1774470689393799400,7.15479931640625,0.5940561890602112,1.2927730083465576,0.2799067497253418
1774470689403815200,7.164815185546875,0.6134591698646545,1.3808461427688599,0.2674817740917206
1774470689413832200,7.174832275390625,0.5732930898666382,1.275728464126587,0.31680113077163696
1774470689423848200,7.18484814453125,0.46108478307724,1.0848910808563232,0.4254237413406372
1774470689433864400,7.194864501953125,0.11529143899679184,1.0146316289901733,0.5517534613609314
1774470689443880200,7.204880126953125,-0.1662329137325287,0.9823370575904846,0.520263135433197
1774470689453896200,7.214896240234375,-0.23229315876960754,0.9729384779930115,0.4763984978199005
1774470689463912200,7.224912109375,-0.3136056065559387,0.7553704977035522,0.4107331931591034
1774470689473929200,7.23492919921875,-0.3826994299888611,0.3320309519767761,0.33606642484664917
1774470689483945200,7.2449453125,-0.5663182735443115,0.0717168003320694,0.3080395758152008
1774470689493961200,7.254961181640625,-0.6869519948959351,-0.3061668574810028,0.30287066102027893
1774470689503977000,7.26497705078125,-0.73858642578125,-0.7477620840072632,0.2668660581111908
1774470689513993200,7.2749931640625,-0.7033600211143494,-0.923886775970459,0.29649558663368225
1774470689524010200,7.28501025390625,-0.6956384181976318,-0.9796933531761169,0.2825416922569275
1774470689534026200,7.295026123046875,-0.8172599673271179,-0.9143151044845581,0.28985124826431274
1774470689544042000,7.3050419921875,-0.7242061495780945,-0.8858174681663513,0.1481039822101593
1774470689554058000,7.31505810546875,-0.556721568107605,-0.9563717842102051,0.055518120527267456
1774470689564074200,7.32507421875,-0.34472009539604187,-1.0004404783248901,-0.047580569982528687
1774470689574091300,7.33509130859375,-0.11898710578680038,-0.9179692268371582,-0.07774858921766281
1774470689584107300,7.345107177734375,-0.11576468497514725,-0.8790905475616455,-0.08483818918466568
1774470689594123000,7.355123046875,0.20191209018230438,-1.182332992553711,-0.042264364659786224
1774470689604139000,7.365138916015625,0.669607400894165,-1.5053153038024902,0.18095700442790985
1774470689614155000,7.375155029296875,0.8250377178192139,-1.8848594427108765,0.2615295946598053
1774470689624172300,7.38517236328125,0.9577339887619019,-2.0436344146728516,0.2654103636741638
1774470689634188300,7.395188232421875,1.329311728477478,-1.9923086166381836,0.2279932200908661
1774470689644204000,7.4052041015625,1.5236045122146606,-1.4830927848815918,0.13841593265533447
1774470689654220000,7.415219970703125,1.4411911964416504,-0.7923679351806641,0.13818956911563873
1774470689664236000,7.425236083984375,1.290810227394104,-0.4330097436904907,0.1835373342037201
1774470689674252300,7.435252197265625,1.2302237749099731,-0.4542253017425537,0.05386962369084358
1774470689684269300,7.445269287109375,1.1362049579620361,-0.4458025097846985,-0.018612831830978394
1774470689694285000,7.45528515625,1.0639818906784058,-0.3352741301059723,0.2090541422367096
1774470689704301000,7.465301025390625,1.1555410623550415,-0.2632547914981842,0.3449438214302063
1774470689714317000,7.475317138671875,1.2859959602355957,-0.2961437702178955,0.8778663277626038
1774470689724333000,7.4853330078125,1.3633427619934082,-0.5860690474510193,1.5849254131317139
1774470689734350000,7.49535009765625,1.4376741647720337,-0.8031891584396362,2.077725887298584
1774470689744366000,7.505365966796875,1.3639932870864868,-0.9084170460700989,2.435724973678589
1774470689754382000,7.515382080078125,1.165587306022644,-1.017049789428711,2.752514362335205
1774470689764398000,7.525398193359375,0.9243001341819763,-1.0763623714447021,3.0572738647460938
1774470689774414000,7.5354140625,0.6515034437179565,-1.0964505672454834,3.2493979930877686
1774470689784431000,7.54543115234375,0.4081198573112488,-0.9938443303108215,3.3441784381866455
1774470689794447000,7.555447021484375,0.17245405912399292,-0.8737594485282898,3.405000925064087
1774470689804463000,7.565463134765625,-0.032220788300037384,-0.806196391582489,3.4389259815216064
1774470689814479000,7.57547900390625,-0.17590205371379852,-0.7888613343238831,3.4527251720428467
1774470689824495000,7.5854951171875,-0.20688660442829132,-0.6925017833709717,3.413456916809082
1774470689834512100,7.59551220703125,-0.15839576721191406,-0.5285991430282593,3.4268033504486084
1774470689844528000,7.605528076171875,-0.09115414321422577,-0.39804404973983765,3.5833585262298584
1774470689854544100,7.615544189453125,-0.03346261754631996,-0.4271012544631958,3.8821818828582764
1774470689864560000,7.62556005859375,0.017361946403980255,-0.6156887412071228,4.013001918792725
1774470689874576100,7.635576171875,0.10139159858226776,-0.7903755903244019,4.052217483520508
1774470689884592000,7.645592041015625,0.2319677174091339,-0.9139620065689087,4.0947980880737305
1774470689894609200,7.655609130859375,0.34303298592567444,-0.9788134098052979,4.483165264129639
1774470689904625200,7.665625244140625,0.3954716920852661,-1.1405231952667236,5.107320785522461
1774470689914641200,7.67564111328125,0.336412638425827,-1.1220874786376953,5.667197227478027
1774470689924657200,7.6856572265625,0.13226217031478882,-0.9612631797790527,6.234494209289551
1774470689934673200,7.695673095703125,-0.05283764749765396,-0.6133108139038086,6.351052284240723
1774470689944690200,7.705690185546875,-0.41612157225608826,-0.5594534277915955,6.396740436553955
1774470689954706200,7.7157060546875,-0.7997941374778748,-0.8701626062393188,6.018277645111084
1774470689964722200,7.72572216796875,-0.9851208329200745,-0.8000324964523315,5.435468673706055
1774470689974738200,7.73573828125,-1.008620023727417,-0.251242071390152,4.856722831726074
1774470689984754200,7.745754150390625,-1.0258227586746216,0.36556997895240784,4.257096290588379
1774470689994771200,7.755771240234375,-1.1172232627868652,0.9057860970497131,3.8470208644866943
1774470690004787200,7.765787109375,-1.0018625259399414,1.3493683338165283,3.6186282634735107
1774470690014803200,7.77580322265625,-0.6388140320777893,1.4679216146469116,3.663818120956421
1774470690024819200,7.785819091796875,-0.10457248240709305,0.88211590051651,3.8759779930114746
1774470690034835200,7.795835205078125,0.4204891622066498,-0.2830609977245331,4.0797953605651855
1774470690044852200,7.805852294921875,0.8352456092834473,-1.6074424982070923,3.911895275115967
1774470690054868200,7.8158681640625,1.1288399696350098,-2.33613657951355,3.706702709197998
1774470690064884200,7.82588427734375,1.2468537092208862,-2.3490242958068848,3.19171404838562
1774470690078656300,7.83965625,1.1806548833847046,-1.731559157371521,2.249643564224243
1774470690088672300,7.84967236328125,1.1105732917785645,-1.1124868392944336,1.490774154663086
1774470690098689000,7.85968896484375,1.0541912317276,-0.64413982629776,0.7025056481361389
1774470690108705300,7.869705322265625,1.040300965309143,-0.3417845070362091,0.015044995583593845
1774470690118721300,7.87972119140625,1.0334422588348389,-0.22577720880508423,-0.5202921628952026
1774470690128737300,7.8897373046875,0.9982203841209412,-0.250642329454422,-0.8968410491943359
1774470690138753300,7.899753173828125,0.907433271408081,-0.32486969232559204,-1.0755844116210938
1774470690148770000,7.90977001953125,0.7811091542243958,-0.3411911427974701,-1.128603458404541
1774470690158786000,7.9197861328125,0.6625739932060242,-0.26191070675849915,-1.1291011571884155
1774470690168802300,7.92980224609375,0.591758131980896,-0.19466136395931244,-1.1459763050079346
1774470690178818300,7.939818359375,0.45548203587532043,-0.2145405262708664,-1.2018440961837769
1774470690188834300,7.949834228515625,0.03796256333589554,-0.1390010267496109,-1.2287037372589111
1774470690198851000,7.95985107421875,-0.26452353596687317,-0.026327477768063545,-1.2749183177947998
1774470690208867000,7.9698671875,-0.5100025534629822,-0.05543476343154907,-1.4256223440170288
1774470690218883300,7.97988330078125,-0.7028601169586182,0.11968059092760086,-1.488908052444458
1774470690228899300,7.9898994140625,-1.0072871446609497,0.2393002063035965,-1.4997618198394775
1774470690238915300,7.999915283203125,-1.425984263420105,0.3095807433128357,-1.4083349704742432
1774470690248931000,8.00993115234375,-1.8093748092651367,0.44983506202697754,-1.3436342477798462
1774470690258948000,8.019947998046876,-2.0098955631256104,0.5378903746604919,-1.2222838401794434
1774470690268964000,8.029964111328125,-2.0391509532928467,0.3626788556575775,-1.1269645690917969
1774470690278980400,8.03998046875,-1.9088022708892822,-0.14797082543373108,-1.2447731494903564
1774470690288996000,8.04999609375,-1.7262858152389526,-0.44952213764190674,-1.2970616817474365
1774470690299012000,8.06001220703125,-1.4340078830718994,-0.8780311346054077,-1.2877705097198486
1774470690309029000,8.070029052734375,-1.0474460124969482,-1.420533299446106,-1.2007557153701782
1774470690319045000,8.080045166015625,-0.6618325710296631,-1.712314248085022,-1.0274808406829834
1774470690329061400,8.090061279296876,-0.46381479501724243,-1.8010705709457397,-1.1102961301803589
1774470690339077000,8.1000771484375,-0.44389328360557556,-1.5073246955871582,-1.3392592668533325
1774470690349093000,8.110093017578125,-0.4673192501068115,-1.194056510925293,-1.6835098266601562
1774470690359110100,8.120110107421874,-0.4759193956851959,-0.9539429545402527,-1.988700032234192
1774470690369126100,8.130126220703126,-0.5190607309341431,-0.906994640827179,-2.2844648361206055
1774470690379142400,8.140142333984375,-0.5045111179351807,-0.7582653164863586,-2.4412105083465576
1774470690389158100,8.150158203125,-0.2934819459915161,-0.7526053190231323,-2.4041574001312256
1774470690399174100,8.160174072265624,-0.0630870908498764,-0.9373607635498047,-2.215583324432373
1774470690409191200,8.170191162109376,0.10785109549760818,-1.3400323390960693,-1.9351506233215332
1774470690419207200,8.180207275390625,0.2662138342857361,-2.0625452995300293,-1.7655011415481567
1774470690429223200,8.19022314453125,0.39474785327911377,-2.687633991241455,-1.7339063882827759
1774470690439239200,8.2002392578125,0.5693702697753906,-2.995479106903076,-1.8705193996429443
1774470690449255200,8.210255126953125,0.43900665640830994,-3.165848970413208,-1.9695053100585938
1774470690459272200,8.220272216796875,0.1016552522778511,-3.1062216758728027,-1.8801249265670776
1774470690469288200,8.2302880859375,-0.17189159989356995,-3.005807876586914,-1.4358025789260864
1774470690479304200,8.24030419921875,-0.3248225450515747,-3.1276800632476807,-0.9949391484260559
1774470690489320200,8.2503203125,-0.3298410177230835,-3.2762506008148193,-0.8154615163803101
1774470690499336200,8.260336181640625,-0.2902432680130005,-3.528907537460327,-0.9014086723327637
1774470690509352700,8.270352783203125,-0.37710732221603394,-3.2243552207946777,-0.9819080233573914
1774470690519369000,8.280368896484376,-0.5683910250663757,-1.9032241106033325,-1.0081404447555542
1774470690529385000,8.290385009765625,-0.7946838140487671,0.05440758168697357,-0.7408378720283508
1774470690539400700,8.300400634765625,-0.6871551871299744,1.5554099082946777,-0.7347701191902161
1774470690549416700,8.310416748046874,-0.47292280197143555,2.5447585582733154,-1.0965301990509033
1774470690559433700,8.320433837890626,-0.562322199344635,2.9258577823638916,-1.2906147241592407
1774470690569450000,8.330449951171875,-0.678580641746521,2.879627227783203,-1.2847163677215576
1774470690579466000,8.340466064453125,-0.6066113710403442,2.780395746231079,-1.1625875234603882
1774470690589481700,8.350481689453124,-0.5423948168754578,2.5352110862731934,-1.0363856554031372
1774470690599497700,8.360497802734375,-0.36581793427467346,2.027557373046875,-0.7448605895042419
1774470690609514800,8.3705146484375,-0.23203882575035095,1.154323697090149,-0.49880102276802063
1774470690619530800,8.38053076171875,-0.1822742074728012,0.023370835930109024,-0.5101165175437927
1774470690629547000,8.390547119140624,-0.1446615755558014,-0.9535384178161621,-0.6354472637176514
1774470690639562800,8.400562744140625,-0.25704190135002136,-1.4419044256210327,-0.7035536170005798
1774470690649578800,8.410578857421875,-0.24120329320430756,-1.3974183797836304,-0.6275755167007446
1774470690659595800,8.420595703125,-0.04571475833654404,-1.1108676195144653,-0.5699210166931152
1774470690669611800,8.43061181640625,0.11356277763843536,-0.5696581602096558,-0.7583428621292114
1774470690679627800,8.440627685546875,0.1393701434135437,0.22049562633037567,-1.0336830615997314
1774470690689643800,8.450643798828125,0.21074925363063812,1.1199018955230713,-1.2726753950119019
1774470690699659800,8.46065966796875,0.28775909543037415,1.9227300882339478,-1.5400519371032715
1774470690709676800,8.4706767578125,0.20974230766296387,2.2258317470550537,-1.7634613513946533
1774470690719692800,8.48069287109375,0.0851718857884407,2.027101755142212,-1.9023513793945312
1774470690729708800,8.490708740234375,-0.023678964003920555,1.3220291137695312,-1.515274167060852
1774470690739724800,8.500724853515624,-0.06426767259836197,0.3077879250049591,-1.0014175176620483
1774470690749741800,8.510741943359376,-0.11708534508943558,-0.5152332782745361,-0.4223496615886688
1774470690759757800,8.5207578125,-0.2975107729434967,-1.1559791564941406,0.07918190211057663
1774470690769773800,8.53077392578125,-0.47241413593292236,-1.4653109312057495,0.49470800161361694
1774470690779789600,8.54078955078125,-0.5338572859764099,-1.6319339275360107,0.797309398651123
1774470690789805800,8.550805908203126,-0.5302761197090149,-1.5486910343170166,0.943761944770813
1774470690799822800,8.56082275390625,-0.47276487946510315,-1.097354769706726,0.9839363098144531
1774470690809838800,8.5708388671875,-0.3558473289012909,-0.3854038715362549,0.924918532371521
1774470690819854800,8.580854736328124,-0.25540807843208313,0.34450438618659973,0.785796046257019
1774470690829870600,8.59087060546875,-0.24209465086460114,1.0310742855072021,0.5596843361854553
1774470690839886800,8.600886962890625,-0.26620638370513916,1.5598698854446411,0.3091900646686554
1774470690849903900,8.61090380859375,-0.2422483265399933,1.6933914422988892,0.10252424329519272
1774470690859920000,8.620919921875,-0.20382928848266602,1.4399679899215698,-0.028506742790341377
1774470690869935900,8.630935791015625,-0.20528870820999146,0.8906345367431641,-0.09365511685609818
1774470690879951600,8.64095166015625,-0.25210946798324585,0.116988405585289,-0.08851548284292221
1774470690889969000,8.650968994140625,-0.3514123558998108,-0.7623453140258789,-0.07090506702661514
1774470690899985000,8.66098486328125,-0.48254507780075073,-1.5357354879379272,-0.10671952366828918
1774470690910001000,8.6710009765625,-0.6061325073242188,-2.0070810317993164,-0.27900874614715576
1774470690920016600,8.6810166015625,-0.6886710524559021,-2.1899306774139404,-0.5544570684432983
1774470690930032600,8.69103271484375,-0.7072131037712097,-2.090221405029297,-0.8066301941871643
1774470690940050000,8.7010498046875,-0.6905560493469238,-1.8023799657821655,-0.978204607963562
1774470690950066000,8.71106591796875,-0.6910751461982727,-1.4294370412826538,-1.0532701015472412
1774470690960082000,8.72108203125,-0.7335013747215271,-1.0764073133468628,-1.0141091346740723
1774470690970097700,8.73109765625,-0.7535192966461182,-0.6974033117294312,-0.9357522130012512
1774470690980114700,8.74111474609375,-0.7613692283630371,-0.3316572904586792,-0.8401151895523071
1774470690990131000,8.751130859375,-0.7441319227218628,-0.11656629294157028,-0.7611716389656067
1774470691000147000,8.76114697265625,-0.7275111675262451,-0.12331048399209976,-0.7260922193527222
1774470691010163000,8.771162841796874,-0.7400120496749878,-0.21904872357845306,-0.7418615818023682
1774470691020178700,8.7811787109375,-0.7769841551780701,-0.36148789525032043,-0.8010572791099548
1774470691030195700,8.79119580078125,-0.8229109048843384,-0.5508143901824951,-0.8491257429122925
1774470691040211700,8.801211669921875,-0.8794593811035156,-0.683372437953949,-0.852005124092102
1774470691050228000,8.81122802734375,-0.9082383513450623,-0.7389076352119446,-0.8226163387298584
1774470691060244000,8.821243896484376,-0.9187892079353333,-0.7661808133125305,-0.76763916015625
1774470691070260700,8.8312607421875,-0.9117584824562073,-0.7806436419487,-0.68927001953125
1774470691080276700,8.84127685546875,-0.8870704770088196,-0.7351690530776978,-0.5807467699050903
1774470691090292700,8.851292724609374,-0.8467472791671753,-0.5988271832466125,-0.474229633808136
1774470691100309000,8.86130908203125,-0.8195502758026123,-0.45362260937690735,-0.3998962640762329
1774470691110325800,8.87132568359375,-0.7679909467697144,-0.3983638882637024,-0.3802573084831238
1774470691120341800,8.881341796875,-0.7171554565429688,-0.47362881898880005,-0.45664504170417786
1774470691130357800,8.891357666015624,-0.6622834205627441,-0.6125001311302185,-0.6274839043617249
1774470691140373800,8.901373779296875,-0.6244319081306458,-0.762259840965271,-0.818156898021698
1774470691150390800,8.911390869140625,-0.6312354803085327,-0.8149304986000061,-0.9279491901397705
1774470691160406800,8.92140673828125,-0.5885109305381775,-0.6839714050292969,-1.0076850652694702
1774470691170422800,8.9314228515625,-0.485213041305542,-0.432986855506897,-1.0639592409133911
1774470691180438800,8.941438720703125,-0.3818134069442749,-0.1971503496170044,-1.1151987314224243
1774470691190454800,8.951454833984375,-0.30431994795799255,0.04213946312665939,-1.15476655960083
1774470691200471800,8.961471923828125,-0.23306946456432343,0.2172691971063614,-1.1718641519546509
1774470691210487800,8.97148779296875,-0.1883147805929184,0.2348063886165619,-1.1953483819961548
1774470691220503800,8.98150390625,-0.16208450496196747,0.09259305149316788,-1.2288768291473389
1774470691230519800,8.991519775390625,-0.1491846889257431,-0.21937443315982819,-1.242985725402832
1774470691240536600,9.00153662109375,-0.15912947058677673,-0.5824599862098694,-1.2079938650131226
1774470691250552800,9.011552734375,-0.18985143303871155,-0.8949454426765442,-1.1753864288330078
1774470691260568800,9.02156884765625,-0.2618875503540039,-1.1716188192367554,-1.1345585584640503
1774470691270584800,9.031584716796875,-0.3135856091976166,-1.4450346231460571,-1.0443511009216309
1774470691280601900,9.041601806640625,-0.3094175159931183,-1.6351406574249268,-0.8925456404685974
1774470691290617600,9.05161767578125,-0.3119645416736603,-1.5801339149475098,-0.7903679013252258
1774470691300633900,9.0616337890625,-0.3575171232223511,-0.735514760017395,-0.45892682671546936
1774470691310649900,9.07164990234375,-0.35782763361930847,0.7662950158119202,0.37768152356147766
1774470691320667000,9.0816669921875,-0.36528369784355164,1.5468292236328125,1.4695698022842407
1774470691330683000,9.091682861328126,-0.3703775405883789,1.2753430604934692,2.3694088459014893
1774470691340698600,9.10169873046875,-0.47785526514053345,0.7800699472427368,2.706754684448242
1774470691350714600,9.111714599609375,-0.6953116655349731,0.367421418428421,2.519191026687622
1774470691360732000,9.12173193359375,-0.8424622416496277,0.2205643355846405,2.104867696762085
1774470691370748000,9.131747802734376,-0.863813579082489,0.4735119044780731,1.717659831047058
1774470691380763600,9.141763671875,-0.7155495882034302,0.8438369631767273,1.43002188205719
1774470691390779600,9.151779541015625,-0.6640232801437378,0.9452908635139465,1.2194478511810303
1774470691400797000,9.161796875,-0.6946826577186584,0.7637011408805847,1.0345333814620972
1774470691410813000,9.17181298828125,-0.6712912917137146,0.5986977815628052,0.8453482985496521
1774470691420829000,9.181828857421875,-0.3624279797077179,0.907963216304779,0.7595977187156677
1774470691430844700,9.1918447265625,-0.3752146363258362,0.6057335734367371,0.7542392015457153
1774470691440861700,9.20186181640625,-0.5997385382652283,0.22517506778240204,0.7552248239517212
1774470691450878000,9.2118779296875,-0.6855570673942566,0.25628745555877686,0.6098873019218445
1774470691460894000,9.22189404296875,-0.6572825312614441,0.37517547607421875,0.4771931767463684
1774470691470910000,9.231909912109375,-0.6169636249542236,0.23933029174804688,0.44317635893821716
1774470691480926700,9.2419267578125,-0.6326517462730408,0.09633053094148636,0.4348510503768921
1774470691490942700,9.251942626953126,-0.7989749312400818,0.11596442013978958,0.45481517910957336
1774470691500958700,9.261958740234375,-0.9022259712219238,0.11156035214662552,0.3413996696472168
1774470691510975000,9.27197509765625,-0.8167654275894165,-0.08927714824676514,0.13528431951999664
1774470691520992000,9.281991943359374,-0.5051689147949219,-0.40936940908432007,-0.16266535222530365
1774470691531008000,9.292008056640626,-0.2659757435321808,-0.8692752122879028,-0.7519121170043945
1774470691541024000,9.30202392578125,-0.0687154158949852,-1.5030723810195923,-1.2388484477996826
1774470691551040000,9.3120400390625,0.0853646993637085,-1.8464787006378174,-1.3304779529571533
1774470691561057000,9.32205712890625,0.018317488953471184,-1.6739333868026733,-1.1487313508987427
1774470691571073000,9.332072998046876,-0.08940045535564423,-1.122192144393921,-0.9900551438331604
1774470691581089000,9.342089111328125,-0.2142409235239029,-0.6647300720214844,-0.8163856267929077
1774470691591106000,9.35210595703125,-0.33399900794029236,-0.40178951621055603,-0.27680549025535583
1774470691601121800,9.362121826171874,-0.3904383182525635,-0.03431003540754318,0.172127828001976
1774470691611138000,9.372137939453125,-0.3989231586456299,0.348970502614975,0.3303565979003906
1774470691621154000,9.382154052734375,-0.3280218243598938,0.6343263387680054,0.5081567168235779
1774470691631171000,9.392171142578125,-0.22309966385364532,0.8706983923912048,0.7425324320793152
1774470691641187000,9.40218701171875,-0.30866995453834534,0.5947842597961426,0.5993459820747375
1774470691651202800,9.412202880859375,-0.3117277920246124,-0.21666546165943146,-0.06876974552869797
1774470691661218800,9.42221875,-0.11836179345846176,-0.6354864239692688,-0.38291674852371216
1774470691671236000,9.432236083984375,0.025013474747538567,-0.5607419013977051,-0.1643924117088318
1774470691681252000,9.442252197265624,-0.15381699800491333,-0.06274273991584778,0.3788596987724304
1774470691691267800,9.452267822265625,-0.3600631058216095,0.4180435836315155,0.7129415273666382
1774470691701283800,9.462283935546875,-0.3291568458080292,0.44758763909339905,0.5935389995574951
1774470691711301000,9.472301025390625,-0.09047263860702515,0.0790942832827568,0.29168298840522766
1774470691721317000,9.482317138671876,0.12797421216964722,-0.2942042052745819,0.01230247225612402
1774470691731333000,9.4923330078125,0.1762237697839737,-0.36479100584983826,-0.03904673457145691
1774470691741350000,9.502349853515625,0.10355968028306961,-0.2265854775905609,0.04079030826687813
1774470691751366000,9.512365966796875,0.02816346101462841,-0.039448339492082596,0.20136240124702454
1774470691761382100,9.522382080078126,-0.04169471561908722,0.11198139190673828,0.29928791522979736
1774470691771398100,9.532398193359375,-0.12746661901474,0.23470439016819,0.4484315812587738
1774470691781415000,9.542414794921875,-0.19253216683864594,0.37411394715309143,0.6446993350982666
1774470691791431000,9.552430908203124,-0.2425207644701004,0.5799323320388794,0.7912017107009888
1774470691801447000,9.562447021484376,-0.30154120922088623,0.7461029291152954,0.8357827663421631
1774470691811463200,9.572463134765625,-0.2544746398925781,0.6540917754173279,0.6600993871688843
1774470691821480000,9.58247998046875,-0.21011541783809662,0.40751931071281433,0.4562956392765045
1774470691831496000,9.592495849609374,-0.19344589114189148,0.31306150555610657,0.5732060074806213
1774470691841512000,9.602511962890626,-0.26454484462738037,0.4506577253341675,0.7678929567337036
1774470691851529000,9.612529052734375,-0.3247738182544708,0.6832022666931152,0.9340211749076843
1774470691861545000,9.622544921875,-0.2749181091785431,0.8355467915534973,0.9478946328163147
1774470691871561000,9.63256103515625,-0.2531166672706604,0.7136778831481934,0.7009815573692322
1774470691881577000,9.642576904296876,-0.20344926416873932,0.3632061779499054,0.4457399249076843
1774470691891594000,9.652593994140625,-0.09968451410531998,0.059967461973428726,0.39077839255332947
1774470691901610000,9.66260986328125,-0.11058776080608368,0.07062756270170212,0.5144414901733398
1774470691911626000,9.6726259765625,-0.24360333383083344,0.3984808027744293,0.7089648842811584
1774470691921642000,9.68264208984375,-0.3572918176651001,0.587435245513916,0.7220215797424316
1774470691931659000,9.692658935546875,-0.3369945287704468,0.5848541259765625,0.7074769735336304
1774470691941675000,9.702675048828125,-0.2159155160188675,0.3542901575565338,0.5276291966438293
1774470691951691000,9.71269091796875,-0.11408236622810364,0.06787971407175064,0.2882626950740814
1774470691961708000,9.7227080078125,-0.11093903332948685,-0.07210375368595123,0.19278809428215027
1774470691971724000,9.73272412109375,-0.0942458063364029,-0.07329525053501129,0.12972630560398102
1774470691981740000,9.742739990234375,-0.1608956754207611,-0.040656350553035736,0.14427275955677032
1774470691991756000,9.752756103515624,-0.3112409710884094,0.13957546651363373,0.281086266040802
1774470692001773000,9.76277294921875,-0.3213154375553131,0.29060545563697815,0.3063088059425354
1774470692011789000,9.7727890625,-0.27736741304397583,0.40231096744537354,0.46179690957069397
1774470692021805000,9.78280517578125,-0.27192819118499756,0.6272053122520447,0.7126941084861755
1774470692031822000,9.792822021484374,-0.36065033078193665,0.9831080436706543,0.9346869587898254
1774470692041837800,9.802837890625,-0.41098061203956604,1.2229909896850586,1.0436533689498901
1774470692051853800,9.812853759765625,-0.3874553143978119,1.2147735357284546,1.0302749872207642
1774470692061870000,9.8228701171875,-0.3318788707256317,1.1145983934402466,0.9653631448745728
1774470692071887000,9.83288720703125,-0.26248061656951904,1.011298656463623,0.8920548558235168
1774470692081903000,9.842903076171876,-0.2440643310546875,0.9821839332580566,0.932844340801239
1774470692091918800,9.8529189453125,-0.3126090466976166,1.026232361793518,0.9773558974266052
1774470692101936000,9.86293603515625,-0.36999082565307617,0.9920075535774231,0.9703145027160645
1774470692111952100,9.8729521484375,-0.37848711013793945,0.9772672057151794,1.00919508934021
1774470692121968000,9.882968017578126,-0.3451395630836487,0.8791427612304688,0.842657208442688
1774470692131984000,9.89298388671875,-0.30079978704452515,0.6965450048446655,0.6701557040214539
1774470692142001000,9.9030009765625,-0.20200049877166748,0.433133065700531,0.495003342628479
1774470692152017200,9.91301708984375,-0.0726023018360138,0.11031772196292877,0.2555643916130066
1774470692162033200,9.923033203125,-0.02515994757413864,0.0951606035232544,0.1701837182044983
1774470692172050000,9.9330498046875,-0.12194055318832397,0.12584687769412994,0.11133105307817459
1774470692182066000,9.94306591796875,-0.22499023377895355,0.04687349870800972,0.12656140327453613
1774470692192082000,9.95308203125,-0.24444276094436646,0.08089564740657806,0.2434166520833969
1774470692202098000,9.963097900390625,-0.2365345060825348,0.23254802823066711,0.32195165753364563
1774470692212115000,9.973114990234375,-0.19223494827747345,0.3300098776817322,0.3445107638835907
1774470692222131000,9.983130859375,-0.15214478969573975,0.3187446892261505,0.29305264353752136
1774470692232147000,9.99314697265625,-0.14087828993797302,0.23211978375911713,0.1703842580318451
1774470692242164000,10.0031640625,-0.15409502387046814,0.15577813982963562,0.13338123261928558
1774470692252180200,10.01318017578125,-0.15623700618743896,0.11289219558238983,0.19242270290851593
1774470692262196000,10.023196044921875,-0.15259966254234314,0.1601148396730423,0.21258017420768738
1774470692272212000,10.0332119140625,-0.21780475974082947,0.16123628616333008,0.09399334341287613
1774470692282229000,10.04322900390625,-0.2725319266319275,0.04802478477358818,-0.024595890194177628
1774470692292245000,10.053244873046875,-0.1965668499469757,-0.0720725953578949,-0.0699271559715271
1774470692302261000,10.063260986328125,-0.1524779498577118,-0.1848635971546173,-0.10050743073225021
1774470692312278000,10.073278076171874,-0.14298485219478607,-0.11484402418136597,-0.019767578691244125
1774470692322294000,10.0832939453125,-0.18107764422893524,0.044613275676965714,0.04884849861264229
1774470692332310000,10.09331005859375,-0.21457834541797638,0.19482861459255219,0.18129602074623108
1774470692342326000,10.103325927734375,-0.2231646478176117,0.321583092212677,0.32536372542381287
1774470692352343000,10.113343017578124,-0.21484225988388062,0.43176525831222534,0.42109957337379456
1774470692362359000,10.123359130859376,-0.21052607893943787,0.4842233955860138,0.41101524233818054
1774470692372375000,10.133375,-0.17663708329200745,0.4015679359436035,0.32091224193573
1774470692382391800,10.143391845703125,-0.1348789930343628,0.2195747047662735,0.21747639775276184
1774470692392407800,10.15340771484375,-0.09955215454101562,0.05499054864048958,0.13411732017993927
1774470692402424000,10.163424072265625,-0.10151544213294983,-0.034811243414878845,0.04189631715416908
1774470692412440000,10.173440185546875,-0.11281656473875046,-0.08506615459918976,-0.06471401453018188
1774470692422457000,10.18345703125,-0.10891503095626831,-0.15834836661815643,-0.20465460419654846
1774470692432472800,10.193472900390624,-0.07373520731925964,-0.3313369154930115,-0.31235525012016296
1774470692442488800,10.20348876953125,-0.016436496749520302,-0.45281702280044556,-0.3376970887184143
1774470692452506000,10.213506103515625,-0.008073639124631882,-0.4531562924385071,-0.3668578863143921
1774470692462522000,10.223522216796875,-0.022409435361623764,-0.3869839310646057,-0.3349977135658264
1774470692472538000,10.2335380859375,-0.02990729920566082,-0.26863837242126465,-0.24392931163311005
1774470692482553900,10.243553955078125,-0.04126674681901932,-0.12495418637990952,-0.16524408757686615
1774470692492571100,10.253571044921875,-0.044187434017658234,-0.027525367215275764,-0.09941820055246353
1774470692502587100,10.263587158203125,-0.05483182147145271,0.03441496565937996,-0.010804977267980576
1774470692512603000,10.273602783203126,-0.08821721374988556,0.11086313426494598,0.0833103358745575
1774470692522620000,10.283619873046876,-0.11639957875013351,0.20145614445209503,0.15638747811317444
1774470692532636000,10.293635986328125,-0.11945822089910507,0.27804359793663025,0.24056333303451538
1774470692542652000,10.30365185546875,-0.12361647933721542,0.33800947666168213,0.3314458429813385
1774470692552668000,10.31366796875,-0.13921435177326202,0.43259456753730774,0.35317644476890564
1774470692562684700,10.3236845703125,-0.17309269309043884,0.49339398741722107,0.29845699667930603
1774470692572701000,10.333700927734375,-0.1618456244468689,0.4120549261569977,0.24014122784137726
1774470692582717000,10.343717041015625,-0.16201527416706085,0.3124929368495941,0.21331919729709625
1774470692592734000,10.35373388671875,-0.18777921795845032,0.3062451481819153,0.21821941435337067
1774470692602750000,10.36375,-0.2173307240009308,0.3943345248699188,0.2929684817790985
1774470692612765700,10.373765625,-0.24700020253658295,0.5224440097808838,0.42808476090431213
1774470692622782000,10.383781982421874,-0.29345157742500305,0.6641470789909363,0.6080670356750488
1774470692632799000,10.393799072265624,-0.3367263674736023,0.8068273067474365,0.7231550216674805
1774470692642815000,10.40381494140625,-0.32903382182121277,0.8645060062408447,0.7663312554359436
1774470692652830700,10.413830810546875,-0.31088677048683167,0.8491023182868958,0.8199793100357056
1774470692662847700,10.42384765625,-0.2645488381385803,0.8405135869979858,0.893394410610199
1774470692672864000,10.433864013671876,-0.2625402808189392,0.8838229775428772,0.9417733550071716
1774470692682880000,10.4438798828125,-0.28396061062812805,0.9451451897621155,0.9055996537208557
1774470692692896800,10.453896728515625,-0.2550402879714966,0.9195287823677063,0.876057505607605
1774470692702912800,10.463912841796875,-0.2166430950164795,0.8411418199539185,0.8534608483314514
1774470692712928800,10.4739287109375,-0.21131224930286407,0.7725366950035095,0.8171467781066895
1774470692722945000,10.483945068359375,-0.22179365158081055,0.7240458726882935,0.7393755316734314
1774470692732961800,10.4939619140625,-0.20734412968158722,0.6145864725112915,0.4962984323501587
1774470692742977800,10.503977783203124,-0.11843902617692947,0.368994802236557,0.3393509089946747
1774470692752993800,10.513993896484376,-0.05182990804314613,0.16373540461063385,0.2631078064441681
1774470692763009800,10.524009765625,-0.05381396412849426,0.12659895420074463,0.22469834983348846
1774470692773026800,10.53402685546875,-0.0682099461555481,0.17281146347522736,0.20643998682498932
1774470692783042800,10.544042724609374,-0.057648915797472,0.1623750627040863,0.19646857678890228
1774470692793058800,10.554058837890626,-0.0485512912273407,0.11053796112537384,0.1576508730649948
1774470692803075800,10.564075927734375,-0.008213188499212265,-0.034577418118715286,0.09077517688274384
1774470692813092000,10.574092041015625,0.007619037292897701,-0.12419811636209488,0.021168667823076248
1774470692823107800,10.58410791015625,0.0027838023379445076,-0.11773914843797684,0.012528308667242527
1774470692833124900,10.594124755859376,-0.0039012646302580833,-0.043118443340063095,0.06947627663612366
1774470692843140900,10.604140869140625,-0.05494660511612892,0.08088206499814987,0.20358428359031677
1774470692853156900,10.614156982421875,-0.11372976005077362,0.21317565441131592,0.33649519085884094
1774470692863172900,10.6241728515625,-0.15262815356254578,0.3268630802631378,0.4182797968387604
1774470692873190000,10.63418994140625,-0.14959801733493805,0.38018861413002014,0.4239281117916107
1774470692883206000,10.644205810546875,-0.11934636533260345,0.35907721519470215,0.3960117995738983
1774470692893222000,10.654221923828125,-0.12186118960380554,0.264801025390625,0.3368520438671112
1774470692903238700,10.66423876953125,-0.08990006148815155,0.23138847947120667,0.2858983278274536
1774470692913255000,10.6742548828125,-0.015134744346141815,0.20797663927078247,0.2375028282403946
1774470692923271000,10.68427099609375,0.11938178539276123,0.06845149397850037,0.14155952632427216
1774470692933287000,10.694286865234375,0.36188390851020813,-0.1397075653076172,-0.014312094077467918
1774470692943304000,10.704303955078124,0.5950915813446045,-0.23784638941287994,-0.13548405468463898
1774470692953319700,10.714319580078126,0.7183522582054138,-0.25186100602149963,-0.1344616711139679
1774470692963336000,10.7243359375,0.7347480058670044,-0.17080210149288177,-0.04554165154695511
1774470692973353000,10.73435302734375,0.6745962500572205,0.06267030537128448,0.08608108758926392
1774470692983369000,10.744368896484374,0.5960985422134399,0.3032892942428589,0.2590866982936859
1774470692993385000,10.754385009765626,0.5752065777778625,0.46172767877578735,0.43543243408203125
1774470693003400700,10.764400634765625,0.6360350251197815,0.5594733953475952,0.601557195186615
1774470693013418000,10.77441796875,0.6325175166130066,0.5074073076248169,0.754709780216217
1774470693023434000,10.78443408203125,0.7768520712852478,0.7532016038894653,0.8875695466995239
1774470693033450000,10.794449951171876,1.0961190462112427,0.9971338510513306,1.0463943481445312
1774470693043466800,10.804466796875,1.4027870893478394,1.0510998964309692,1.2346230745315552
1774470693053482800,10.814482666015625,1.5818830728530884,1.107771635055542,1.4369029998779297
1774470693063499000,10.8244990234375,1.7043322324752808,1.2098006010055542,1.503739833831787
1774470693073515000,10.834514892578126,1.770058274269104,1.3951808214187622,1.7321146726608276
1774470693083531800,10.84453173828125,1.8757362365722656,1.6413860321044922,1.982569694519043
1774470693093547800,10.8545478515625,2.0184171199798584,1.8373321294784546,2.210379123687744
1774470693103563800,10.864563720703124,2.1558570861816406,1.789042592048645,2.385664463043213
1774470693113581000,10.8745810546875,2.3353755474090576,1.6608505249023438,2.545492649078369
1774470693123596800,10.8845966796875,2.4731860160827637,1.6022570133209229,2.6545662879943848
1774470693133612800,10.89461279296875,2.4749832153320312,1.5442537069320679,2.629704475402832
1774470693143628800,10.90462890625,1.0406222343444824,1.0955435037612915,0.9685648083686829
1774470693153646000,10.91464599609375,-0.9543017148971558,-0.011916580609977245,-1.7955883741378784
1774470693163662000,10.924662109375,-0.9888277053833008,-1.0905423164367676,-2.722548246383667
1774470693173677800,10.934677734375,0.17437580227851868,-2.870504379272461,-2.920835494995117
1774470693183694800,10.94469482421875,0.5564584732055664,-3.432267665863037,-2.221494674682617
1774470693193710800,10.9547109375,0.19256678223609924,-2.6378793716430664,-1.9981566667556763
1774470693203726800,10.964726806640625,0.013851633295416832,0.856855571269989,-2.0140135288238525
1774470693213742800,10.974742919921875,0.22783982753753662,0.8820253610610962,-1.5178241729736328
1774470693223760000,10.984759765625,0.32935604453086853,-0.07529155910015106,-1.2706899642944336
1774470693233775900,10.99477587890625,0.42096826434135437,-0.3710017800331116,-1.502654790878296
1774470693243792000,11.0047919921875,0.1851584017276764,-0.18795925378799438,-1.3757508993148804
1774470693253809000,11.014808837890625,0.12327107042074203,-0.38575807213783264,-0.9297284483909607
1774470693263825000,11.024824951171874,0.06101594865322113,-0.5500604510307312,-0.617316722869873
1774470693273841000,11.0348408203125,0.03068121336400509,-0.6454354524612427,-0.6519935131072998
1774470693283857000,11.04485693359375,0.22857218980789185,-0.8625579476356506,-0.7375704646110535
1774470693293873700,11.054873779296875,0.4170062839984894,-0.6234968900680542,-0.7172329425811768
1774470693303890000,11.064889892578124,0.4109225571155548,-0.32546570897102356,-0.6596857905387878
1774470693313906000,11.074906005859376,0.3695301115512848,-0.3010479807853699,-0.6778171062469482
1774470693323923000,11.0849228515625,0.26394322514533997,-0.2739551067352295,-0.7296491265296936
1774470693333939000,11.09493896484375,0.1524403989315033,-0.3137989342212677,-0.872541069984436
1774470693343954700,11.10495458984375,0.04163559526205063,-0.35913899540901184,-1.0638463497161865
1774470693353970700,11.114970703125,-0.10072341561317444,-0.34808847308158875,-1.1788051128387451
1774470693363988000,11.124988037109375,-0.28536781668663025,-0.4450019598007202,-1.0911988019943237
1774470693374004000,11.13500390625,-0.4827994108200073,-0.6707104444503784,-0.9221197962760925
1774470693384020000,11.14502001953125,-0.6290596723556519,-0.8062810897827148,-0.8046458959579468
1774470693394036700,11.15503662109375,-0.664380669593811,-0.7952497005462646,-0.6651838421821594
1774470693404053000,11.165052978515625,-0.587949275970459,-0.7997347712516785,-0.5371822118759155
1774470693414069000,11.175069091796875,-0.5063191056251526,-0.7916075587272644,-0.5342413187026978
1774470693424085000,11.1850849609375,-0.38153085112571716,-0.6148239970207214,-0.5537811517715454
1774470693434101800,11.195101806640626,-0.3492184579372406,-0.5580829977989197,-0.6454833745956421
1774470693444117800,11.20511767578125,-0.46993741393089294,-0.4912589490413666,-0.7112826704978943
1774470693454134000,11.215134033203125,-0.5898704528808594,-0.4820483922958374,-0.6933369636535645
1774470693464150800,11.22515087890625,-0.6318740844726562,-0.42883923649787903,-0.6381128430366516
1774470693474166800,11.235166748046876,-0.6068025827407837,-0.3453075885772705,-0.5968588590621948
1774470693484182800,11.245182861328125,-0.46628808975219727,-0.40865567326545715,-0.5889719128608704
1774470693494198800,11.25519873046875,-0.27585369348526,-0.5073524117469788,-0.5578435659408569
1774470693504216000,11.265216064453124,-0.21367260813713074,-0.465043306350708,-0.5397942662239075
1774470693514232300,11.275232421875,-0.17147400975227356,-0.35280492901802063,-0.5280390381813049
1774470693524248300,11.285248291015625,-0.09317628294229507,-0.26138606667518616,-0.48914679884910583
1774470693534264300,11.295264404296875,0.033548373728990555,-0.329806923866272,-0.4827847480773926
1774470693544281300,11.30528125,0.15173600614070892,-0.38664305210113525,-0.4996106028556824
1774470693554297000,11.315297119140626,0.1932176649570465,-0.40373656153678894,-0.5171584486961365
1774470693564313000,11.32531298828125,0.1292397379875183,-0.3543887138366699,-0.5239654779434204
1774470693574330400,11.335330322265625,-0.041485391557216644,-0.23543569445610046,-0.5385318994522095
1774470693584346400,11.345346435546874,-0.2240741103887558,-0.1865869164466858,-0.5670871138572693
1774470693594362400,11.3553623046875,-0.3778602182865143,-0.2042497992515564,-0.5939746499061584
1774470693604378000,11.365378173828125,-0.48627564311027527,-0.1946171522140503,-0.6398561596870422
1774470693614395400,11.3753955078125,-0.7122824192047119,-0.11068736761808395,-0.7048979997634888
1774470693624411400,11.385411376953124,-0.8578150868415833,-0.16841937601566315,-0.7801594734191895
1774470693634427400,11.395427490234376,-0.9519016742706299,-0.37636885046958923,-0.9417685866355896
1774470693644444200,11.405444091796875,-0.996650755405426,-0.5391572117805481,-1.1065106391906738
1774470693654460200,11.415460205078125,-1.0638830661773682,-0.4867638051509857,-1.2390937805175781
1774470693664476400,11.425476318359374,-1.2174710035324097,-0.36881956458091736,-1.2982089519500732
1774470693674492400,11.435492431640625,-1.386449933052063,-0.3079037666320801,-1.3367747068405151
1774470693684509200,11.44550927734375,-1.4313018321990967,-0.4894546568393707,-1.3342639207839966
1774470693694525200,11.455525146484375,-1.5560836791992188,-0.7168973684310913,-1.3697282075881958
1774470693704541200,11.465541259765626,-1.6987979412078857,-0.8286744952201843,-1.407753825187683
1774470693714558500,11.475558349609376,-1.7389209270477295,-1.0544991493225098,-1.2930762767791748
1774470693724574200,11.48557421875,-1.7283321619033813,-1.227820634841919,-0.9972051978111267
1774470693734590200,11.495590087890625,-1.7011271715164185,-1.1745941638946533,-0.6975255608558655
1774470693744606200,11.505606201171876,-1.6918628215789795,-0.652812123298645,-0.3937254548072815
1774470693754623200,11.515623291015626,-1.6889362335205078,-0.20134828984737396,-0.14866910874843597
1774470693764639500,11.525639404296875,-1.633555293083191,0.18891772627830505,0.030615700408816338
1774470693774655200,11.5356552734375,-1.5715601444244385,0.5592560768127441,0.1822105497121811
1774470693784672300,11.54567236328125,-1.3528796434402466,0.7517530918121338,0.4462587237358093
1774470693794688300,11.555688232421875,-0.9697267413139343,0.5545622706413269,0.7225837707519531
1774470693804704300,11.565704345703125,-0.6321113705635071,0.488132119178772,0.9850603938102722
1774470693814720500,11.575720458984375,-0.4452914595603943,0.7446944117546082,1.140128254890442
1774470693824737300,11.5857373046875,-0.38066744804382324,1.000992774963379,1.1793862581253052
1774470693834753300,11.595753173828125,-0.43879202008247375,1.2575896978378296,1.2230974435806274
1774470693844769300,11.605769287109375,-0.5673601031303406,1.7074193954467773,1.3959994316101074
1774470693854785300,11.615785400390624,-0.6640198230743408,2.6267318725585938,1.893262505531311
1774470693864802300,11.62580224609375,-0.5947158336639404,3.8886702060699463,2.752335786819458
1774470693874818300,11.635818359375,-0.271375834941864,4.9268693923950195,3.6883301734924316
1774470693884834300,11.645834228515625,0.19191963970661163,5.01759672164917,4.257730007171631
1774470693894851300,11.655851318359375,0.5633509755134583,4.1838507652282715,4.309925079345703
1774470693904867300,11.665867431640624,0.5793017148971558,3.413205146789551,4.121984958648682
1774470693914883300,11.67588330078125,0.25708693265914917,3.114776134490967,3.8306937217712402
1774470693924899300,11.6858994140625,-0.22754527628421783,2.9980506896972656,3.2983758449554443
1774470693934916400,11.695916259765625,-0.3759123682975769,2.54772686958313,2.496819496154785
1774470693944932000,11.70593212890625,-0.23877422511577606,1.853901743888855,1.685758352279663
1774470693954948000,11.715947998046875,-0.09825439751148224,1.3002657890319824,0.9487029314041138
1774470693964965400,11.72596533203125,-0.1499897688627243,0.8625978827476501,0.5534485578536987
1774470693974981400,11.7359814453125,-0.4152398109436035,0.9669492840766907,0.5235034227371216
1774470693984997400,11.745997314453126,-0.7263910174369812,1.4071738719940186,0.71623295545578
1774470693995013000,11.75601318359375,-0.7599090337753296,1.7148158550262451,0.9423720836639404
1774470694005030400,11.766030517578125,-0.444943904876709,1.4558460712432861,0.7426131367683411
1774470694015046400,11.77604638671875,0.05389785394072533,0.7860663533210754,0.3086260259151459
1774470694025062400,11.7860625,0.38511306047439575,0.20037810504436493,0.04442552104592323
1774470694035078400,11.796078369140625,0.5088075995445251,-0.04676990211009979,-0.0990205928683281
1774470694045095200,11.80609521484375,0.47888562083244324,-0.21810197830200195,-0.1497037410736084
1774470694055111400,11.816111328125,0.3772977590560913,-0.36480966210365295,-0.11228233575820923
1774470694065127400,11.82612744140625,0.29434746503829956,-0.4257931113243103,-0.05385151505470276
1774470694075144200,11.836144287109375,0.21360096335411072,-0.5132089853286743,0.012166917324066162
1774470694085160200,11.84616015625,0.13727477192878723,-0.6454184055328369,-0.020261062309145927
1774470694095176200,11.85617626953125,0.13538578152656555,-0.647943377494812,-0.13559378683567047
1774470694105192200,11.866192138671876,0.1843237727880478,-0.5699239373207092,-0.20217306911945343
1774470694115209200,11.876209228515625,0.2287820428609848,-0.5827862024307251,-0.2603681981563568
1774470694125225200,11.88622509765625,0.1902162730693817,-0.5748017430305481,-0.26657336950302124
1774470694135241200,11.8962412109375,0.0980067253112793,-0.42688900232315063,-0.21727532148361206
1774470694145258200,11.90625830078125,0.027689950540661812,-0.22803182899951935,-0.12875264883041382
1774470694155274500,11.9162744140625,0.022001439705491066,-0.1286919265985489,-0.07676907628774643
1774470694165290200,11.926290283203125,0.04965943098068237,-0.1501879096031189,-0.10047973692417145
1774470694175306200,11.93630615234375,0.126180037856102,-0.21812008321285248,-0.1836734265089035
1774470694185323300,11.9463232421875,0.18388009071350098,-0.14096644520759583,-0.2847702205181122
1774470694195339300,11.95633935546875,0.11128976941108704,-0.33141547441482544,-0.49107250571250916
1774470694205355500,11.96635546875,0.06538885831832886,-0.5452713370323181,-0.5861181020736694
1774470694215371300,11.976371337890624,-0.06291185319423676,-0.3346962332725525,-0.386700302362442
1774470694225388300,11.98638818359375,-0.17495156824588776,-0.0009089368977583945,-0.1023242399096489
1774470694235404300,11.996404296875,-0.15731744468212128,0.1801532655954361,0.08987156301736832
1774470694245420300,12.006420166015625,-0.05336521938443184,0.21876856684684753,0.17428365349769592
1774470694255437300,12.016437255859374,0.0816783532500267,0.22413776814937592,0.17801819741725922
1774470694265453300,12.026453369140626,0.13496661186218262,0.29458874464035034,0.1508030891418457
1774470694275469300,12.03646923828125,0.07786310464143753,0.30310314893722534,0.12352965772151947
1774470694285485300,12.0464853515625,0.003343332326039672,0.16197532415390015,0.04382471367716789
1774470694295502000,12.056502197265624,-0.047441016882658005,0.2024678885936737,0.06901102513074875
1774470694305518300,12.066518310546876,-0.09129049628973007,0.28874924778938293,0.15275998413562775
1774470694315534300,12.076534423828125,-0.032095883041620255,0.4129396378993988,0.15365932881832123
1774470694325550300,12.08655029296875,0.2085646539926529,0.3693940341472626,-0.04145636409521103
1774470694335567400,12.0965673828125,0.2966601550579071,-0.04682396352291107,-0.20264658331871033
1774470694345583000,12.1065830078125,0.1788826584815979,-0.17308282852172852,-0.2753828465938568
1774470694355599400,12.116599365234375,0.019710054621100426,-0.14383120834827423,-0.2345414012670517
1774470694365616400,12.126616455078125,-0.14386501908302307,-0.03513215482234955,-0.08550584316253662
1774470694375632400,12.13663232421875,-0.2114480584859848,-0.008349542506039143,0.095909483730793
1774470694385648000,12.146648193359376,-0.21449072659015656,0.02828703075647354,0.19538867473602295
1774470694395664100,12.1566640625,-0.15798723697662354,0.10357539355754852,0.09624318033456802
1774470694405681400,12.166681396484375,-0.06785281747579575,-0.09003482013940811,-0.10989347845315933
1774470694415697400,12.176697509765624,-0.00933091714978218,-0.35197561979293823,-0.28065934777259827
1774470694425713400,12.18671337890625,0.042932555079460144,-0.47002556920051575,-0.3193923830986023
1774470694435729200,12.196729248046875,0.058580223470926285,-0.6613864898681641,-0.40866953134536743
1774470694445746200,12.20674609375,-0.031256988644599915,-0.5956063866615295,-0.1487540602684021
1774470694455762400,12.216762451171874,-0.09080393612384796,-0.36469167470932007,0.04146381840109825
1774470694465778400,12.2267783203125,-0.04675126075744629,-0.25969600677490234,0.056358613073825836
1774470694475794400,12.23679443359375,0.062442339956760406,-0.21005016565322876,-0.02569790557026863
1774470694485811200,12.246811279296875,0.21258950233459473,-0.23038260638713837,-0.130850151181221
1774470694495827200,12.2568271484375,0.2574214041233063,-0.41690880060195923,-0.21391122043132782
1774470694505843500,12.266843505859375,0.20898251235485077,-0.48942989110946655,-0.29748281836509705
1774470694515859700,12.276859619140625,0.16770058870315552,-0.600139856338501,-0.4437715709209442
1774470694525875500,12.28687548828125,0.1877557784318924,-0.9638333916664124,-0.7885132431983948
1774470694535891500,12.296891357421876,0.2315211147069931,-1.3648096323013306,-1.2020601034164429
1774470694545907500,12.306907470703125,0.32217004895210266,-1.8672839403152466,-1.475153923034668
1774470694555924500,12.316924560546875,0.4280717074871063,-2.495331048965454,-1.5256378650665283
1774470694565940700,12.326940673828124,0.3213314116001129,-1.837143063545227,-0.7357549667358398
1774470694575956500,12.33695654296875,0.18969270586967468,-0.41176730394363403,0.20081166923046112
1774470694585972500,12.346972412109375,0.1587236076593399,0.16078221797943115,0.5300976634025574
1774470694595989500,12.356989501953125,0.17936016619205475,0.39953088760375977,0.553364098072052
1774470694606005500,12.367005615234374,0.14025644958019257,0.48704794049263,0.42282822728157043
1774470694616021500,12.377021484375,-0.04241057485342026,0.3498504161834717,0.20901580154895782
1774470694626037500,12.38703759765625,-0.3058382272720337,0.17040929198265076,0.017007213085889816
1774470694636054500,12.397054443359375,-0.4232521951198578,-0.0034975295420736074,-0.024460868909955025
1774470694646070500,12.407070556640624,-0.3126673698425293,-0.29609689116477966,-0.03555959090590477
1774470694656086500,12.41708642578125,-0.1749100238084793,-0.6048856377601624,-0.07435572147369385
1774470694666103600,12.427103515625,-0.13721857964992523,-0.6755896210670471,-0.06825708597898483
1774470694676119600,12.43711962890625,-0.08362965285778046,-0.5363795757293701,-0.004504204262048006
1774470694686135600,12.447135498046874,0.00598518829792738,-0.4243699312210083,0.020049607381224632
1774470694696151600,12.457151611328126,0.04680532217025757,-0.3427794575691223,-0.0850997120141983
1774470694706168300,12.467168212890625,0.18029707670211792,-0.5767104625701904,-0.3623954951763153
1774470694716184600,12.4771845703125,0.36247754096984863,-1.2901819944381714,-0.5862954258918762
