time,seconds_elapsed,z,y,x
1774470682298585000,0.059585205078125,0.28355181217193604,-0.08316519856452942,-0.17701710760593414
1774470682308601000,0.06960107421875,0.2997778058052063,0.01380735170096159,-0.20936565101146698
1774470682318617000,0.0796171875,0.3023616075515747,0.06914730370044708,-0.2062462866306305
1774470682328633000,0.089633056640625,0.30386030673980713,0.07174662500619888,-0.16375112533569336
1774470682338649000,0.099649169921875,0.30539852380752563,0.047635696828365326,-0.09253954142332077
1774470682348665300,0.109665283203125,0.31200361251831055,0.020798634737730026,-0.016057483851909637
1774470682358682000,0.11968212890625,0.3203635513782501,0.000708546896930784,0.056470513343811035
1774470682368698000,0.129697998046875,0.33575931191444397,0.005562430247664452,0.11181975901126862
1774470682378714000,0.139714111328125,0.3317706882953644,0.01734239235520363,0.13488353788852692
1774470682388730000,0.149730224609375,0.304334819316864,0.02963101491332054,0.12349053472280502
1774470682398746000,0.15974609375,0.18177160620689392,-0.13157226145267487,0.04337013512849808
1774470682408762000,0.16976220703125,0.1161935105919838,-0.1993696093559265,-0.06915705651044846
1774470682418779100,0.179779052734375,0.10367318987846375,-0.06810745596885681,-0.18880969285964966
1774470682428795100,0.189795166015625,0.09565310180187225,0.17660146951675415,-0.29285457730293274
1774470682438811100,0.19981103515625,0.061771832406520844,0.35994064807891846,-0.378351092338562
1774470682448827100,0.2098271484375,0.0010132689494639635,0.43438515067100525,-0.42910337448120117
1774470682458843100,0.219843017578125,-0.06110496446490288,0.46189719438552856,-0.43591707944869995
1774470682468859100,0.229859130859375,-0.10758259892463684,0.4586620628833771,-0.4143570363521576
1774470682478876200,0.239876220703125,-0.13879619538784027,0.39888930320739746,-0.38071146607398987
1774470682488892200,0.24989208984375,-0.15785132348537445,0.30877405405044556,-0.3451703190803528
1774470682498908200,0.259908203125,-0.1807451993227005,0.18530379235744476,-0.3204793632030487
1774470682508924200,0.269924072265625,-0.19618117809295654,0.10633455961942673,-0.3028734028339386
1774470682518940200,0.279940185546875,-0.20275147259235382,0.12770749628543854,-0.30543428659439087
1774470682528956200,0.2899560546875,-0.19869884848594666,0.2453492283821106,-0.33752283453941345
1774470682538973400,0.299973388671875,-0.20018541812896729,0.40294337272644043,-0.39651158452033997
1774470682548989200,0.3099892578125,-0.21198154985904694,0.5223413705825806,-0.45449209213256836
1774470682559005200,0.320005126953125,-0.2036983221769333,0.6244925260543823,-0.49482619762420654
1774470682569021200,0.330021240234375,-0.16173972189426422,0.6858021020889282,-0.49589863419532776
1774470682579037200,0.340037109375,-0.0904058888554573,0.6331647038459778,-0.47834068536758423
1774470682589053200,0.35005322265625,-0.009015018120408058,0.47126150131225586,-0.4658471345901489
1774470682599070200,0.3600703125,0.04911086708307266,0.27548959851264954,-0.4744539260864258
1774470682609086200,0.370086181640625,0.08289403468370438,0.09039795398712158,-0.4957316815853119
1774470682619102200,0.380102294921875,0.12543269991874695,-0.009761931374669075,-0.49309757351875305
1774470682629118200,0.3901181640625,0.17643356323242188,0.04580012336373329,-0.4272703230381012
1774470682639134200,0.40013427734375,0.22693561017513275,0.13202689588069916,-0.30394572019577026
1774470682649150200,0.410150146484375,0.27911078929901123,0.10633935779333115,-0.1702839732170105
1774470682659167200,0.420167236328125,0.30121636390686035,0.06135749816894531,-0.06611548364162445
1774470682669183200,0.430183349609375,0.2569772005081177,-0.03531697764992714,-0.020298903807997704
1774470682679199200,0.44019921875,0.16235162317752838,-0.25417235493659973,-0.05342702940106392
1774470682689215200,0.45021533203125,0.029196325689554214,-0.4623028337955475,-0.1614752858877182
1774470682699231200,0.460231201171875,-0.10877272486686707,-0.573981761932373,-0.3251560926437378
1774470682709247200,0.470247314453125,-0.211605504155159,-0.5096849203109741,-0.5179158449172974
1774470682719264300,0.48026416015625,-0.2519036531448364,-0.3593292534351349,-0.7137982845306396
1774470682729280300,0.4902802734375,-0.238560751080513,-0.2113470882177353,-0.8720802068710327
1774470682739296300,0.500296142578125,-0.20904280245304108,-0.08337129652500153,-0.9702895879745483
1774470682749312300,0.510312255859375,-0.15605589747428894,-0.014264938421547413,-1.012797236442566
1774470682759328300,0.520328369140625,-0.10508059710264206,0.0351412296295166,-0.990276575088501
1774470682769344300,0.53034423828125,-0.05988459289073944,-0.011178663931787014,-0.9109910130500793
1774470682779361300,0.540361328125,-0.02858738787472248,-0.11102110892534256,-0.7876589298248291
1774470682789377300,0.550377197265625,-0.007512686774134636,-0.16790664196014404,-0.6280504465103149
1774470682799393300,0.560393310546875,0.006081152707338333,-0.15888945758342743,-0.4490170478820801
1774470682809409000,0.570408935546875,0.021844472736120224,-0.08024340867996216,-0.2702263593673706
1774470682819425300,0.58042529296875,0.02910797856748104,0.056541070342063904,-0.11645754426717758
1774470682829441300,0.590441162109375,0.019578950479626656,0.2139047086238861,0.007836954668164253
1774470682839458300,0.600458251953125,0.008229088969528675,0.37842974066734314,0.10115278512239456
1774470682849474300,0.610474365234375,0.008338110521435738,0.4476034343242645,0.15871849656105042
1774470682859490000,0.620489990234375,0.02934405952692032,0.4108973741531372,0.18072019517421722
1774470682869506300,0.63050634765625,0.06985100358724594,0.30349794030189514,0.17743252217769623
1774470682879522300,0.640522216796875,0.11558599770069122,0.17471998929977417,0.15811075270175934
1774470682889538300,0.650538330078125,0.15709872543811798,0.0649028792977333,0.13303852081298828
1774470682899555300,0.660555419921875,0.1769919991493225,0.003165742615237832,0.10998966544866562
1774470682909571000,0.670571044921875,0.16473154723644257,-0.01146056316792965,0.08972173929214478
1774470682919587000,0.680587158203125,0.13739871978759766,0.0030267667025327682,0.07249028980731964
1774470682929603300,0.690603271484375,0.0906510204076767,0.027205940335989,0.05715811625123024
1774470682939619300,0.700619384765625,0.05251109227538109,0.04646432399749756,0.03405040130019188
1774470682949635300,0.71063525390625,0.0285495575517416,0.058991558849811554,0.0026152702048420906
1774470682959652000,0.720652099609375,0.01340762060135603,0.08063613623380661,-0.029958119615912437
1774470682969668000,0.730668212890625,0.00855114683508873,0.10010157525539398,-0.05006188154220581
1774470682979684400,0.740684326171875,0.02745186723768711,0.08646326512098312,-0.05134659260511398
1774470682989700400,0.750700439453125,0.0547918826341629,0.03708116337656975,-0.03934476152062416
1774470682999716400,0.76071630859375,0.07339512556791306,0.004161561373621225,-0.018257586285471916
1774470683009732400,0.770732421875,0.08060245215892792,0.04277766868472099,0.011246219277381897
1774470683019749000,0.7807490234375,0.0802687555551529,0.1146598532795906,0.04019078612327576
1774470683029765400,0.790765380859375,0.0704154521226883,0.18768300116062164,0.05724659934639931
1774470683039781400,0.800781494140625,0.0541672445833683,0.24856500327587128,0.06583183258771896
1774470683049797400,0.81079736328125,0.051071248948574066,0.2887634038925171,0.07389570772647858
1774470683059813400,0.8208134765625,0.05465346947312355,0.26742005348205566,0.06974117457866669
1774470683069829000,0.8308291015625,0.06565698236227036,0.19835984706878662,0.053231045603752136
1774470683079846100,0.84084619140625,0.08592869341373444,0.15624354779720306,0.03321366012096405
1774470683089862400,0.8508623046875,0.11620038002729416,0.13875585794448853,0.007809434086084366
1774470683099878400,0.86087841796875,0.14923369884490967,0.11236845701932907,-0.028558960184454918
1774470683109894400,0.870894287109375,0.17741593718528748,0.08853921294212341,-0.06500231474637985
1774470683119910100,0.88091015625,0.19314536452293396,0.06454332917928696,-0.09305685758590698
1774470683129926100,0.890926025390625,0.1827697604894638,0.03605269640684128,-0.11880013346672058
1774470683139943400,0.900943359375,0.15773925185203552,0.029660310596227646,-0.13832882046699524
1774470683149959400,0.91095947265625,0.13491711020469666,0.041909217834472656,-0.1496414989233017
1774470683159975200,0.92097509765625,0.12207907438278198,0.062175072729587555,-0.1438792198896408
1774470683169991200,0.9309912109375,0.12224915623664856,0.06851422786712646,-0.1256239414215088
1774470683180007200,0.941007080078125,0.1421022266149521,0.02487221360206604,-0.09303724765777588
1774470683190023200,0.951023193359375,0.1726616472005844,-0.03065412864089012,-0.05532679334282875
1774470683200040400,0.96104052734375,0.20374660193920135,-0.07579071074724197,-0.019228443503379822
1774470683210056200,0.97105615234375,0.2322373241186142,-0.11954239010810852,0.011429592035710812
1774470683220072200,0.981072265625,0.252374529838562,-0.14064553380012512,0.029965724796056747
1774470683230088200,0.991088134765625,0.26101449131965637,-0.1341686248779297,0.042535554617643356
1774470683240104200,1.001104248046875,0.2580546736717224,-0.14208726584911346,0.043200813233852386
1774470683250120200,1.0111201171875,0.25861451029777527,-0.1564793586730957,0.03567834571003914
1774470683260137200,1.02113720703125,0.2692141532897949,-0.16538256406784058,0.03442905843257904
1774470683270153200,1.0311533203125,0.28880977630615234,-0.1681637465953827,0.041267987340688705
1774470683280169200,1.041169189453125,0.29607486724853516,-0.1628725826740265,0.043744996190071106
1774470683290185200,1.051185302734375,0.28507956862449646,-0.15277352929115295,0.036963433027267456
1774470683300201200,1.061201171875,0.27483439445495605,-0.11344131082296371,0.02952735684812069
1774470683310217200,1.07121728515625,0.27651798725128174,-0.05841359496116638,0.02614971436560154
1774470683320234200,1.081234130859375,0.2765944302082062,-0.012954233214259148,0.03678904473781586
1774470683330250200,1.091250244140625,0.2557697296142578,-0.0018030100036412477,0.07465635985136032
1774470683340266200,1.101266357421875,0.2227228581905365,-0.05033139884471893,0.1429014503955841
1774470683350282200,1.1112822265625,0.19345638155937195,-0.12271962314844131,0.2316885143518448
1774470683360298200,1.12129833984375,0.18715506792068481,-0.16860215365886688,0.3186921179294586
1774470683370314200,1.131314208984375,0.20444980263710022,-0.17028269171714783,0.37884506583213806
1774470683380331300,1.141331298828125,0.2313826084136963,-0.16235151886940002,0.41077157855033875
1774470683390347300,1.15134716796875,0.24989694356918335,-0.13352757692337036,0.4133947193622589
1774470683400363300,1.16136328125,0.2532016634941101,-0.09402358531951904,0.39063000679016113
1774470683410379300,1.171379150390625,0.2295609563589096,-0.05246732383966446,0.35037297010421753
1774470683420395000,1.18139501953125,0.1961907595396042,-0.01118939183652401,0.28929924964904785
1774470683430411300,1.191411376953125,0.16123251616954803,0.036095838993787766,0.2227982133626938
1774470683440428300,1.20142822265625,0.14051657915115356,0.07102132588624954,0.154417023062706
1774470683450444300,1.2114443359375,0.13255566358566284,0.08629009127616882,0.09865545481443405
1774470683460460300,1.221460205078125,0.12020312249660492,0.07056519389152527,0.06165988743305206
1774470683470476000,1.23147607421875,0.08539815992116928,0.31451404094696045,-0.029724273830652237
1774470683480492300,1.2414921875,0.08464474976062775,0.1473415493965149,-0.13311484456062317
1774470683490509300,1.25150927734375,0.11856383830308914,-0.11813689023256302,-0.09527875483036041
1774470683500525000,1.261525146484375,0.13746827840805054,-0.10692045092582703,-0.007553962059319019
1774470683510541000,1.271541015625,0.11080499738454819,-0.19731958210468292,0.07485885918140411
1774470683520556800,1.281556884765625,0.093746118247509,-0.13401678204536438,0.12330735474824905
1774470683530572800,1.29157275390625,0.08463546633720398,-0.11565960943698883,0.13761037588119507
1774470683540588800,1.3015888671875,0.030561575666069984,-0.003198843216523528,0.14124345779418945
1774470683550606000,1.311606201171875,-0.03336229547858238,0.21821317076683044,0.17641718685626984
1774470683560622000,1.3216220703125,-0.07920994609594345,0.31196895241737366,0.20168845355510712
1774470683570637800,1.331637939453125,-0.0735553428530693,0.31585586071014404,0.23104722797870636
1774470683580653800,1.34165380859375,-0.039777934551239014,0.2813847064971924,0.25733768939971924
1774470683590669800,1.351669921875,0.006351928226649761,0.2002822756767273,0.25312307476997375
1774470683600685800,1.361685791015625,0.05795280635356903,0.03455697000026703,0.2051994800567627
1774470683610703000,1.371703125,0.07809154689311981,-0.12132655084133148,0.15173764526844025
1774470683620718800,1.38171875,0.03538482263684273,-0.20493195950984955,0.12970851361751556
1774470683630734800,1.39173486328125,-0.07139796018600464,-0.2568988502025604,0.12742634117603302
1774470683640750800,1.401750732421875,-0.2141452580690384,-0.31753554940223694,0.1366264969110489
1774470683650766800,1.411766845703125,-0.3291274309158325,-0.38057926297187805,0.16584183275699615
1774470683660782800,1.421782958984375,-0.3803165853023529,-0.4421904385089874,0.21646080911159515
1774470683670800000,1.4317998046875,-0.38240763545036316,-0.5267003774642944,0.27766841650009155
1774470683680815900,1.44181591796875,-0.37683019042015076,-0.44896993041038513,0.3535301685333252
1774470683690832000,1.451831787109375,-0.3332313001155853,-0.5246344804763794,0.43163326382637024
1774470683700847900,1.461847900390625,-0.26911675930023193,-0.57935631275177,0.49447718262672424
1774470683710864000,1.47186376953125,-0.20991010963916779,-0.565010130405426,0.5882046818733215
1774470683720881000,1.481880859375,-0.17284050583839417,-0.5440718531608582,0.6553802490234375
1774470683730897000,1.49189697265625,-0.1536712348461151,-0.550883948802948,0.6669345498085022
1774470683740913000,1.501912841796875,-0.1308056116104126,-0.5837324857711792,0.6420156359672546
1774470683750929000,1.511928955078125,-0.10173476487398148,-0.6516788005828857,0.574609637260437
1774470683760945000,1.52194482421875,-0.07762676477432251,-0.7023409008979797,0.45574715733528137
1774470683770961000,1.5319609375,-0.0833229273557663,-0.7053298354148865,0.3017479479312897
1774470683780978000,1.54197802734375,-0.10263165086507797,-0.6913972496986389,0.1284419298171997
1774470683790994000,1.551993896484375,-0.09718868136405945,-0.7731688022613525,-0.023453589528799057
1774470683801010000,1.562010009765625,-0.08105045557022095,-0.8836716413497925,-0.1147100031375885
1774470683811026000,1.57202587890625,-0.05564241111278534,-0.9089463949203491,-0.13654594123363495
1774470683821042000,1.5820419921875,-0.0002617125865072012,-0.8902302384376526,-0.11661139130592346
1774470683831058000,1.592057861328125,0.030897727236151695,-0.9204301238059998,-0.07721488177776337
1774470683841075000,1.602074951171875,-0.010757573880255222,-1.0216829776763916,-0.0013305069878697395
1774470683851091000,1.612091064453125,-0.12395508587360382,-1.125091791152954,0.12203148752450943
1774470683861107000,1.62210693359375,-0.19546815752983093,-1.2496901750564575,0.2859650254249573
1774470683871123000,1.632123046875,-0.20306169986724854,-1.2157689332962036,0.47287237644195557
1774470683881138700,1.642138671875,-0.22594279050827026,-1.1198440790176392,0.638106107711792
1774470683891155000,1.652155029296875,-0.314649373292923,-1.0305849313735962,0.7482215166091919
1774470683901172000,1.662171875,-0.5158730149269104,-1.0535948276519775,0.8564372062683105
1774470683911188000,1.67218798828125,-0.8505388498306274,-1.15778648853302,0.9949753284454346
1774470683921204000,1.682203857421875,-1.2834279537200928,-1.2481582164764404,1.1902424097061157
1774470683931219700,1.6922197265625,-1.7196648120880127,-1.393565058708191,1.4200358390808105
1774470683941236000,1.702236083984375,-2.0603220462799072,-1.6053005456924438,1.6260989904403687
1774470683951253000,1.7122529296875,-2.4097232818603516,-1.7560869455337524,1.8625940084457397
1774470683961269000,1.72226904296875,-3.02451491355896,-1.8687314987182617,2.073209762573242
1774470683971285000,1.732284912109375,-3.3029966354370117,-1.942185401916504,2.187917947769165
1774470683981300700,1.74230078125,-3.2174625396728516,-1.9203124046325684,2.2129125595092773
1774470683991317000,1.75231689453125,-3.280837059020996,-1.734995722770691,2.0515124797821045
1774470684001333000,1.7623330078125,-3.358640432357788,-1.5842450857162476,1.9008514881134033
1774470684011350000,1.77235009765625,-3.4205284118652344,-1.400400161743164,1.7862836122512817
1774470684021365800,1.78236572265625,-3.359609842300415,-0.9487723708152771,1.701106071472168
1774470684031381800,1.7923818359375,-3.225876569747925,-0.37941974401474,1.6236636638641357
1774470684041397800,1.802397705078125,-3.144502639770508,-0.14949651062488556,1.5483731031417847
1774470684051414000,1.8124140625,-3.1718697547912598,-0.2500936686992645,1.4975610971450806
1774470684061431000,1.82243115234375,-3.1154685020446777,-0.2146344780921936,1.4637517929077148
1774470684071446800,1.83244677734375,-3.0693604946136475,-0.05957040190696716,1.4327380657196045
1774470684081462800,1.842462890625,-3.090010166168213,0.12649214267730713,1.491582989692688
1774470684091478800,1.852478759765625,-3.1927056312561035,0.22806766629219055,1.599214792251587
1774470684101495000,1.8624951171875,-3.331632614135742,0.32109880447387695,1.6794376373291016
1774470684111511000,1.872510986328125,-3.413142442703247,0.4100727140903473,1.7041829824447632
1774470684121527800,1.88252783203125,-3.418255090713501,0.5312321782112122,1.662643313407898
1774470684131543800,1.892543701171875,-3.414104700088501,0.6445215940475464,1.5660862922668457
1774470684141559800,1.902559814453125,-3.496537923812866,0.5208544731140137,1.4561537504196167
1774470684151575800,1.912575927734375,-3.646256685256958,0.3510924279689789,1.3330148458480835
1774470684161592000,1.922592041015625,-3.7757205963134766,0.351833313703537,1.165037751197815
1774470684171608000,1.932608154296875,-3.9239540100097656,0.44476449489593506,0.9455069899559021
1774470684181624800,1.942624755859375,-3.946953773498535,0.6716972589492798,0.6969743967056274
1774470684191640800,1.952640869140625,-3.825380325317383,0.9391476511955261,0.4466813802719116
1774470684201656800,1.96265673828125,-3.7472269535064697,1.0265015363693237,0.24135085940361023
1774470684211673000,1.972673095703125,-3.710571765899658,0.9281795620918274,0.08194825053215027
1774470684221689000,1.982689208984375,-3.5872626304626465,0.8054754734039307,-0.07228446751832962
1774470684231705900,1.992705810546875,-3.372588872909546,0.6889691948890686,-0.24948537349700928
1774470684241721900,2.002721923828125,-3.240795850753784,0.6525587439537048,-0.38335874676704407
1774470684251737900,2.01273779296875,-3.036548137664795,0.5497275590896606,-0.5657371878623962
1774470684261754000,2.022754150390625,-2.8355114459991455,0.4198070764541626,-0.6775974035263062
1774470684271770000,2.03277001953125,-2.7423465251922607,0.3490445017814636,-0.6863003969192505
1774470684281785900,2.042785888671875,-2.680630922317505,0.2931343615055084,-0.611246645450592
1774470684291803000,2.052802978515625,-2.527740001678467,0.41936254501342773,-0.4868837594985962
1774470684301819000,2.06281884765625,-2.3508713245391846,0.7183077335357666,-0.34972110390663147
1774470684311835000,2.0728349609375,-2.288313865661621,0.8062207698822021,-0.23490169644355774
1774470684321851100,2.08285107421875,-2.259608030319214,0.7662574052810669,-0.1286170780658722
1774470684331867000,2.092866943359375,-2.1890709400177,0.8266963958740234,0.004367208108305931
1774470684341883000,2.1028828125,-2.071338653564453,0.8393189907073975,0.07116541266441345
1774470684351900000,2.11289990234375,-1.9275215864181519,0.8159440159797668,0.06075850874185562
1774470684361916000,2.122916015625,-1.8241595029830933,0.7240007519721985,-0.01995204947888851
1774470684371932000,2.132931884765625,-1.687401294708252,0.6479638814926147,-0.15219485759735107
1774470684381948000,2.142947998046875,-1.4943757057189941,0.5922753214836121,-0.270996630191803
1774470684391964000,2.1529638671875,-1.2730931043624878,0.5243209600448608,-0.31035691499710083
1774470684401980000,2.16297998046875,-1.0181065797805786,0.5143508911132812,-0.24439653754234314
1774470684411997000,2.172996826171875,-0.763710081577301,0.5446073412895203,-0.08032925426959991
1774470684422013000,2.183012939453125,-0.5629304051399231,0.5520535707473755,0.15424489974975586
1774470684432029000,2.19302880859375,-0.43540918827056885,0.5673305988311768,0.4212678074836731
1774470684442045000,2.203044921875,-0.4074625074863434,0.5556350350379944,0.6749445199966431
1774470684452061000,2.21306103515625,-0.5039467215538025,0.5162391066551208,0.8355070948600769
1774470684462078000,2.223077880859375,-0.6157541871070862,0.4404662847518921,0.8451735973358154
1774470684472093700,2.23309375,-0.6888627409934998,0.3897852301597595,0.6543648838996887
1774470684482110000,2.24310986328125,-0.6893881559371948,0.41811564564704895,0.36012741923332214
1774470684492126000,2.2531259765625,-0.6616686582565308,0.5199275612831116,0.08209742605686188
1774470684502142200,2.26314208984375,-0.6507720947265625,0.4726848900318146,-0.16697044670581818
1774470684512158200,2.273158203125,-0.6710270047187805,0.31113654375076294,-0.3590453267097473
1774470684522175000,2.283175048828125,-0.7762379050254822,0.29882100224494934,-0.47642892599105835
1774470684532191200,2.293191162109375,-1.0101791620254517,0.28818613290786743,-0.5589215755462646
1774470684542207200,2.303207275390625,-1.1269550323486328,0.31192928552627563,-0.6420896649360657
1774470684552223200,2.31322314453125,-1.1329244375228882,0.5083072185516357,-0.6906429529190063
1774470684562239200,2.3232392578125,-1.1002717018127441,0.7204168438911438,-0.5892958045005798
1774470684572255200,2.333255126953125,-1.0389763116836548,0.8397080302238464,-0.34470951557159424
1774470684582272000,2.34327197265625,-1.0118805170059204,1.054174780845642,0.0061755189672112465
1774470684592288300,2.353288330078125,-0.9999569058418274,1.19382905960083,0.2986797094345093
1774470684602304300,2.36330419921875,-1.0014243125915527,1.2023227214813232,0.379772424697876
1774470684612320300,2.3733203125,-0.9211075901985168,1.1922861337661743,0.34893274307250977
1774470684622336300,2.383336181640625,-0.7349246144294739,1.248587727546692,0.35923224687576294
1774470684632353000,2.39335302734375,-0.47466474771499634,1.1859489679336548,0.41594234108924866
1774470684642369300,2.403369384765625,-0.16120804846286774,1.1458276510238647,0.544995129108429
1774470684652385300,2.41338525390625,0.09179962426424026,1.0610624551773071,0.6903073787689209
1774470684662401300,2.4234013671875,0.20435786247253418,0.8473595380783081,0.7659398317337036
1774470684672417300,2.433417236328125,0.24090297520160675,0.604300320148468,0.7750607132911682
1774470684682433000,2.44343310546875,0.2928319573402405,0.5446830987930298,0.8175578713417053
1774470684692450300,2.4534501953125,0.3488701581954956,0.6222038865089417,0.9076614379882812
1774470684702466300,2.46346630859375,0.2985883355140686,0.5819696187973022,0.9616152048110962
1774470684712482300,2.473482421875,0.09648839384317398,0.4152330160140991,0.9282498955726624
1774470684722498300,2.483498291015625,-0.14608456194400787,0.28504544496536255,0.8027947545051575
1774470684732514000,2.49351416015625,-0.30804234743118286,0.254852294921875,0.639106810092926
1774470684742530000,2.503530029296875,-0.37360164523124695,0.3327322006225586,0.5196437835693359
1774470684752547300,2.51354736328125,-0.3910554051399231,0.43669527769088745,0.48416614532470703
1774470684762563300,2.523563232421875,-0.41266560554504395,0.5175490975379944,0.5134885907173157
1774470684772579000,2.5335791015625,-0.43753400444984436,0.5551952123641968,0.5633659362792969
1774470684782595000,2.543594970703125,-0.4551750421524048,0.6012668609619141,0.6212611794471741
1774470684792611000,2.553611083984375,-0.4640270471572876,0.6228582262992859,0.6719051599502563
1774470684802627000,2.563626953125,-0.4862034320831299,0.627041757106781,0.7056135535240173
1774470684812644400,2.573644287109375,-0.5332677960395813,0.5811449289321899,0.7138647437095642
1774470684822660000,2.58366015625,-0.5871864557266235,0.4101884067058563,0.6965717673301697
1774470684832676000,2.593676025390625,-0.5653989911079407,0.20199261605739594,0.648926854133606
1774470684842692000,2.603692138671875,-0.3974911868572235,0.08135860413312912,0.5585445165634155
1774470684852708000,2.6137080078125,-0.13184165954589844,0.001601198106072843,0.43908414244651794
1774470684862725400,2.623725341796875,0.15147288143634796,-0.08426763862371445,0.3160543441772461
1774470684872741000,2.6337412109375,0.40776339173316956,-0.11180853098630905,0.23916663229465485
1774470684882757000,2.643757080078125,0.5926656126976013,-0.10056759417057037,0.22314611077308655
1774470684892773000,2.653773193359375,0.6831204891204834,-0.06186380237340927,0.23271793127059937
1774470684902789000,2.6637890625,0.6719170808792114,0.009055381640791893,0.21189068257808685
1774470684912805000,2.67380517578125,0.6047148108482361,-0.03467235341668129,0.1603889763355255
1774470684922822100,2.683822265625,0.5295974612236023,-0.16522744297981262,0.041609857231378555
1774470684932838100,2.693838134765625,0.5047066807746887,-0.18471693992614746,-0.16135410964488983
1774470684942854100,2.703854248046875,0.531441867351532,-0.07714121788740158,-0.4342045485973358
1774470684952870100,2.7138701171875,0.5612727403640747,-0.025442443788051605,-0.6852431893348694
1774470684962886100,2.72388623046875,0.5473420023918152,-0.01401002611964941,-0.7686818838119507
1774470684972902100,2.733902099609375,0.4901762902736664,0.02873208187520504,-0.656641960144043
1774470684982919200,2.743919189453125,0.4460279941558838,-0.02663104236125946,-0.44554999470710754
1774470684992935200,2.75393505859375,0.43627989292144775,-0.08111416548490524,-0.18639181554317474
1774470685002951200,2.763951171875,0.4538272023200989,-0.06186271086335182,-0.032703179866075516
1774470685012967200,2.77396728515625,0.5207050442695618,-0.09155713021755219,-0.08258122205734253
1774470685022983200,2.783983154296875,0.5559930205345154,-0.07435097545385361,-0.18009953200817108
1774470685032999200,2.793999267578125,0.5607641339302063,-0.012785383500158787,-0.17219775915145874
1774470685043016200,2.80401611328125,0.5712303519248962,-0.037896331399679184,-0.022357923910021782
1774470685053032200,2.8140322265625,0.6145290732383728,-0.15817028284072876,0.33240842819213867
1774470685063048200,2.824048095703125,0.7121312618255615,-0.4234056770801544,0.7854142785072327
1774470685073064200,2.834064208984375,0.9745506644248962,-0.6138519644737244,1.1262503862380981
1774470685083080000,2.844079833984375,1.3586567640304565,-0.6745850443840027,1.2071294784545898
1774470685093097200,2.85409716796875,1.6889311075210571,-0.6646571755409241,1.1036550998687744
1774470685103113200,2.86411328125,1.829706072807312,-0.6423904895782471,0.9765328168869019
1774470685113129200,2.874129150390625,1.747577428817749,-0.5746771693229675,0.9487902522087097
1774470685123145200,2.884145263671875,1.4952539205551147,-0.46094363927841187,0.9995107054710388
1774470685133161000,2.894160888671875,1.071746587753296,-0.3804870843887329,1.0454387664794922
1774470685143177200,2.90417724609375,0.5105908513069153,-0.3382336497306824,0.9837207794189453
1774470685153194200,2.9141943359375,-0.10489823669195175,-0.18089187145233154,0.8470823168754578
1774470685163210200,2.924210205078125,-0.6990206837654114,0.050181563943624496,0.705113410949707
1774470685173226200,2.934226318359375,-1.2620983123779297,0.24391964077949524,0.5485175848007202
1774470685183242000,2.944241943359375,-1.7583999633789062,0.4386829733848572,0.3317796587944031
1774470685193258200,2.95425830078125,-2.179623603820801,0.6619593501091003,0.03168325126171112
1774470685203274200,2.964274169921875,-2.5105974674224854,0.8560348153114319,-0.3112938106060028
1774470685213291300,2.974291259765625,-2.8240272998809814,0.8778228163719177,-0.5427104234695435
1774470685223307000,2.98430712890625,-3.097579002380371,0.9161800146102905,-0.702337920665741
1774470685233323000,2.994322998046875,-3.2977781295776367,0.7188912630081177,-0.8538708090782166
1774470685243339000,3.004339111328125,-3.3756446838378906,0.6524408459663391,-0.9568890333175659
1774470685253355300,3.014355224609375,-3.3951120376586914,0.667041540145874,-0.8872936367988586
1774470685263372300,3.024372314453125,-3.3548314571380615,0.541524350643158,-0.7303240299224854
1774470685273388000,3.034387939453125,-3.116218328475952,0.19522565603256226,-0.6249563694000244
1774470685283404000,3.044404052734375,-2.6804797649383545,-0.004154563415795565,-0.571338415145874
1774470685293420000,3.054419921875,-2.069251537322998,0.08030782639980316,-0.5663560032844543
1774470685303436300,3.064436279296875,-1.422863483428955,0.1348927766084671,-0.6455270051956177
1774470685313452300,3.074452392578125,-0.8980786204338074,0.15639179944992065,-0.780789315700531
1774470685323469000,3.084468994140625,-0.42883893847465515,0.04600270092487335,-1.0030369758605957
1774470685333485000,3.094485107421875,-0.043791741132736206,-0.042200297117233276,-1.1002087593078613
1774470685343501000,3.1045009765625,0.2844178378582001,-0.12968407571315765,-1.0638502836227417
1774470685353517000,3.11451708984375,0.6779578924179077,-0.1396227329969406,-1.1565442085266113
1774470685363533300,3.124533203125,1.072343349456787,-0.2155904769897461,-1.3616464138031006
1774470685373549300,3.13454931640625,1.343284249305725,-0.1265520453453064,-1.4823859930038452
1774470685383566000,3.144566162109375,1.4412803649902344,0.10011012852191925,-1.525723934173584
1774470685393582000,3.15458203125,1.379624605178833,0.40874162316322327,-1.4819636344909668
1774470685403598000,3.16459814453125,1.2542850971221924,1.8167359828948975,-1.3393052816390991
1774470685413614300,3.1746142578125,0.9891002774238586,3.457460403442383,-1.067838191986084
1774470685423630300,3.18463037109375,1.0473623275756836,2.9694061279296875,-0.13081274926662445
1774470685433646000,3.19464599609375,1.083653211593628,2.5843536853790283,0.33616507053375244
1774470685443663000,3.2046630859375,0.9799041748046875,1.9293651580810547,0.5851197838783264
1774470685453679000,3.21467919921875,0.8816210627555847,1.1490627527236938,0.698604941368103
1774470685463695000,3.224695068359375,0.9719980955123901,0.8606122732162476,0.6944447755813599
1774470685473711400,3.23471142578125,1.0986655950546265,1.1213815212249756,0.8479751348495483
1774470685483727000,3.24472705078125,1.3210893869400024,1.3446366786956787,1.1365857124328613
1774470685493744000,3.254744140625,1.6146339178085327,1.3959975242614746,1.3036367893218994
1774470685503760100,3.264760009765625,1.9188238382339478,1.553869366645813,1.3731406927108765
1774470685513776000,3.274776123046875,2.186068058013916,1.617261290550232,1.2952102422714233
1774470685523792100,3.284792236328125,2.3564624786376953,1.4876269102096558,1.0237984657287598
1774470685533807900,3.294807861328125,2.3776659965515137,1.1991629600524902,0.6219221949577332
1774470685543824000,3.304823974609375,2.2938952445983887,0.8155231475830078,0.36938050389289856
1774470685553841200,3.314841064453125,2.1966373920440674,0.6482749581336975,0.26841166615486145
1774470685563857200,3.324857177734375,2.132300853729248,0.7974724173545837,0.31384173035621643
1774470685573873200,3.334873046875,2.075728416442871,0.8619781136512756,0.5392151474952698
1774470685583889000,3.344888916015625,2.0697312355041504,0.9304173588752747,0.8008459806442261
1774470685593905000,3.35490478515625,2.2561044692993164,1.1888784170150757,1.0906096696853638
1774470685603921000,3.3649208984375,2.627580165863037,1.3502416610717773,1.2240363359451294
1774470685613938200,3.374938232421875,3.03133487701416,1.5157068967819214,1.1594818830490112
1774470685623954200,3.3849541015625,3.260850191116333,1.4603160619735718,0.9530596137046814
1774470685633970000,3.394969970703125,3.21224308013916,1.0724265575408936,0.646388828754425
1774470685643986000,3.40498583984375,2.7892744541168213,0.447007417678833,0.3170037567615509
1774470685654002000,3.415001953125,2.144819974899292,0.12761864066123962,-0.02344254031777382
1774470685664019200,3.425019287109375,1.597076177597046,0.2075912356376648,-0.2678253948688507
1774470685674035200,3.43503515625,1.0437850952148438,0.6185698509216309,-0.5382476449012756
1774470685684051000,3.445051025390625,0.5986510515213013,1.1100612878799438,-1.110496997833252
1774470685694067000,3.45506689453125,0.35972708463668823,1.4819583892822266,-1.5742489099502563
1774470685704083000,3.4650830078125,0.2524011731147766,1.1621428728103638,-1.8370370864868164
1774470685714099000,3.475098876953125,0.21848644316196442,0.49467965960502625,-1.9645997285842896
1774470685724116000,3.485115966796875,0.36829298734664917,0.18159176409244537,-1.9546594619750977
1774470685734132000,3.495132080078125,0.8408405780792236,-0.07199165225028992,-2.2740933895111084
1774470685744148000,3.50514794921875,1.505361557006836,-0.44464272260665894,-2.61771559715271
1774470685754164000,3.5151640625,1.8893572092056274,-0.699232816696167,-2.5954744815826416
1774470685764180000,3.525179931640625,2.0171172618865967,-0.6209452152252197,-2.352428674697876
1774470685774196200,3.5351962890625,2.0962157249450684,-0.33991897106170654,-2.2147438526153564
1774470685784213000,3.545212890625,2.0070409774780273,0.1120772659778595,-2.1498284339904785
1774470685794229000,3.55522900390625,1.7121543884277344,0.6533858180046082,-2.2261850833892822
1774470685804245000,3.565244873046875,1.2382824420928955,0.6232540011405945,-2.7891128063201904
1774470685814261000,3.575260986328125,0.9143838286399841,0.3446500599384308,-3.083069324493408
1774470685824277000,3.585277099609375,0.707798421382904,0.1488046497106552,-2.8555140495300293
1774470685834294000,3.5952939453125,0.6500712633132935,0.5089570879936218,-2.1557931900024414
1774470685844310000,3.60531005859375,0.28647199273109436,0.36093807220458984,-1.3021010160446167
1774470685854326000,3.615325927734375,0.03477175161242485,0.44258421659469604,-0.576384961605072
1774470685864342000,3.625342041015625,-0.19281241297721863,0.701866865158081,-0.11611535400152206
1774470685874358000,3.63535791015625,-0.37874576449394226,1.012822151184082,-0.08779078722000122
1774470685884374000,3.6453740234375,-0.41799837350845337,1.2601312398910522,-0.3783528208732605
1774470685894391000,3.65539111328125,-0.46731072664260864,1.1640335321426392,-0.8759109973907471
1774470685904407000,3.665406982421875,-0.6702300906181335,0.7257277369499207,-1.5271148681640625
1774470685914423000,3.675423095703125,-1.041001558303833,0.16551297903060913,-2.2413511276245117
1774470685924439000,3.68543896484375,-1.2809566259384155,-1.0502898693084717,-2.5060746669769287
1774470685934455000,3.695455078125,-0.9212313294410706,-2.6522984504699707,-2.2259678840637207
1774470685944472000,3.70547216796875,0.10387075692415237,-3.5710833072662354,-1.7177783250808716
1774470685954488000,3.715488037109375,0.8293105959892273,-3.403035879135132,-1.3636687994003296
1774470685964504000,3.725504150390625,0.9823296666145325,-3.3135454654693604,-1.1424442529678345
1774470685974520000,3.73552001953125,0.5258675217628479,-2.760347843170166,-0.255266934633255
1774470685984535800,3.745535888671875,-0.13848063349723816,-2.5425374507904053,0.15233998000621796
1774470685994552000,3.755552001953125,-0.4314737021923065,-2.19941782951355,-0.07957781106233597
1774470686004569000,3.765569091796875,-0.5862305164337158,-1.7594753503799438,-0.503628134727478
1774470686014585000,3.775585205078125,-0.8664628267288208,-1.4030073881149292,-0.8210869431495667
1774470686024601000,3.78560107421875,-1.2772482633590698,-1.1681386232376099,-0.9560194611549377
1774470686034616800,3.795616943359375,-1.546735405921936,-0.9957520365715027,-1.0520548820495605
1774470686044633000,3.805633056640625,-1.6380515098571777,-0.9753457903862,-1.0498130321502686
1774470686054650000,3.815650146484375,-1.3682146072387695,-1.1752846240997314,-0.9261979460716248
1774470686064666000,3.825666015625,-0.7443574666976929,-1.6456468105316162,-0.6699386835098267
1774470686074682000,3.83568212890625,-0.28323590755462646,-2.0305323600769043,-0.6452118158340454
1774470686084697900,3.84569775390625,0.05739838257431984,-2.1520068645477295,-0.716378927230835
1774470686094713900,3.8557138671875,0.18063277006149292,-2.0975589752197266,-0.8651951551437378
1774470686104731100,3.865731201171875,0.057391807436943054,-1.8529160022735596,-1.0197705030441284
1774470686114747100,3.8757470703125,-0.2155284583568573,-1.5196870565414429,-1.0260785818099976
1774470686124763100,3.88576318359375,-0.4022754430770874,-1.6084132194519043,-0.9446746706962585
1774470686134779000,3.89577880859375,-0.304614394903183,-1.2934515476226807,-1.0505425930023193
1774470686144795000,3.905794921875,-0.2474198192358017,-1.167612910270691,-1.246713399887085
1774470686154811100,3.91581103515625,-0.19282132387161255,-1.2752776145935059,-1.4198732376098633
1774470686164828200,3.925828125,-0.02756739780306816,-1.595421552658081,-1.3686188459396362
1774470686174844000,3.935843994140625,0.11598245799541473,-1.9219692945480347,-1.1167304515838623
1774470686184860000,3.94585986328125,0.17847059667110443,-2.1247198581695557,-0.8477221727371216
1774470686194876000,3.9558759765625,0.2703673243522644,-2.2537031173706055,-0.5758660435676575
1774470686204892200,3.96589208984375,0.4821392297744751,-2.3480958938598633,-0.2951807975769043
1774470686214909200,3.9759091796875,0.6771367788314819,-2.2954065799713135,-0.1294526606798172
1774470686224925000,3.985925048828125,0.8016244173049927,-2.2673723697662354,0.002326952526345849
1774470686234941000,3.99594091796875,0.9150819778442383,-2.147177219390869,0.021219700574874878
1774470686244957000,4.00595703125,0.8561107516288757,-1.5860298871994019,-0.03904550150036812
1774470686254973000,4.015972900390625,0.6045119166374207,-1.0609958171844482,-0.19391556084156036
1774470686264990200,4.025990234375,0.2577456831932068,-0.5461907982826233,-0.2979830801486969
1774470686275006000,4.036005859375,0.11031419038772583,-0.2599336504936218,-0.34258443117141724
1774470686285022000,4.04602197265625,0.08030196279287338,-0.14685475826263428,-0.4212329089641571
1774470686295038000,4.056037841796875,0.07587379962205887,-0.05554580315947533,-0.6412562131881714
1774470686305054000,4.066053955078125,0.07601121813058853,-0.3138841390609741,-0.9194867610931396
1774470686315071200,4.0760712890625,-0.0647389143705368,-0.4209488332271576,-1.1393460035324097
1774470686325087000,4.0860869140625,-0.17033670842647552,-0.4840657711029053,-1.2123557329177856
1774470686335103000,4.09610302734375,-0.2601233124732971,-0.47962096333503723,-1.1634914875030518
1774470686345119000,4.106118896484375,-0.38696032762527466,-0.6791950464248657,-1.0122023820877075
1774470686355135000,4.116135009765625,-0.4805329740047455,-0.9570183157920837,-0.7134827375411987
1774470686365152000,4.126152099609375,-0.5216636657714844,-0.8785413503646851,-0.3281044363975525
1774470686375168000,4.13616796875,-0.7497406005859375,-0.36184147000312805,-0.10629469156265259
1774470686385184000,4.14618408203125,-1.129641056060791,-0.10258141160011292,-0.2152312994003296
1774470686395200000,4.156199951171875,-1.5561541318893433,-0.03037896752357483,-0.2681937515735626
1774470686405216000,4.166216064453125,-1.780563235282898,0.0767807736992836,-0.3815261721611023
1774470686415233000,4.17623291015625,-1.7104456424713135,0.16653303802013397,-0.5438479781150818
1774470686425249000,4.1862490234375,-1.4096437692642212,-0.2967890799045563,-0.6201204061508179
1774470686435265000,4.19626513671875,-1.080419659614563,-0.8221779465675354,-0.618131697177887
1774470686445281000,4.206281005859375,-0.8595770597457886,-0.8443628549575806,-0.6201183795928955
1774470686455298000,4.216298095703125,-0.9379802346229553,-0.6442112326622009,-0.8123868703842163
1774470686465314000,4.22631396484375,-1.1840180158615112,-0.9597595930099487,-1.5459940433502197
1774470686475330000,4.236330078125,-1.2256382703781128,-1.0709900856018066,-2.3296077251434326
1774470686485346000,4.246345947265625,-1.2005776166915894,-1.6130272150039673,-2.5445685386657715
1774470686495362000,4.256362060546875,-1.4612075090408325,-1.869131088256836,-2.1222879886627197
1774470686505379000,4.266379150390625,-1.8338277339935303,-2.2883667945861816,-1.7328625917434692
1774470686515395000,4.27639501953125,-2.319905996322632,-2.7334558963775635,-1.452344536781311
1774470686525411000,4.2864111328125,-2.550610065460205,-2.924870729446411,-1.3397953510284424
1774470686535427000,4.296427001953125,-2.539365291595459,-2.386895179748535,-1.6660836935043335
1774470686545443000,4.306443115234375,-2.4738876819610596,-1.792191982269287,-2.3512866497039795
1774470686555460000,4.316460205078125,-2.244872570037842,-1.2833629846572876,-2.9275941848754883
1774470686565476000,4.32647607421875,-1.9417078495025635,-0.9541094899177551,-3.1496500968933105
1774470686575492000,4.3364921875,-1.6921864748001099,-0.7800789475440979,-2.995783567428589
1774470686585508000,4.346508056640625,-1.5715913772583008,-0.649250328540802,-2.6884119510650635
1774470686595524000,4.356524169921875,-1.7213444709777832,-0.9686259031295776,-2.494920015335083
1774470686605541000,4.366541015625,-1.8897444009780884,-1.339512825012207,-2.2336082458496094
1774470686615557000,4.37655712890625,-1.8443248271942139,-1.8773765563964844,-1.7215943336486816
1774470686625573000,4.386572998046875,-1.8834564685821533,-1.9271701574325562,-1.4047425985336304
1774470686635589000,4.396589111328125,-2.044027805328369,-1.5924954414367676,-1.0972148180007935
1774470686645605000,4.406605224609375,-2.126387357711792,-1.230921983718872,-0.8883253335952759
1774470686655622100,4.4166220703125,-2.059041738510132,-1.1443909406661987,-0.673729419708252
1774470686665638100,4.42663818359375,-1.951694130897522,-1.1903129816055298,-0.5192996263504028
1774470686675654100,4.436654052734375,-1.7483885288238525,-1.1371675729751587,-0.3375933766365051
1774470686685670100,4.446670166015625,-1.48794686794281,-1.046884536743164,-0.10815113037824631
1774470686695686100,4.45668603515625,-1.2362786531448364,-0.8286539316177368,0.05826931446790695
1774470686705703000,4.466702880859375,-1.0441038608551025,-0.37478283047676086,0.13558487594127655
1774470686715719200,4.47671923828125,-0.9105563759803772,0.12625721096992493,0.1917250156402588
1774470686725735200,4.486735107421875,-0.8091242909431458,0.43088024854660034,0.28948673605918884
1774470686735751200,4.496751220703125,-0.7444642782211304,0.4808216392993927,0.4144214391708374
1774470686745768200,4.506768310546875,-0.7329074740409851,0.3575950562953949,0.5120233297348022
1774470686755784000,4.516783935546875,-0.7364009618759155,0.1598384976387024,0.5872437357902527
1774470686765800200,4.52680029296875,-0.720819354057312,-0.010600081644952297,0.636316180229187
1774470686775816200,4.536816162109375,-0.7258224487304688,0.038121189922094345,0.6282434463500977
1774470686785832200,4.546832275390625,-0.7010973691940308,1.5620075464248657,-0.6805528998374939
1774470686795849000,4.556848876953125,-0.5173283219337463,1.8860058784484863,-1.1133310794830322
1774470686805865000,4.566864990234375,-0.336805135011673,1.1866645812988281,-0.6498464941978455
1774470686815881000,4.576880859375,-0.38507622480392456,0.47496718168258667,-0.0344989039003849
1774470686825897200,4.586897216796875,-0.5931940674781799,0.19665195047855377,0.22792339324951172
1774470686835913200,4.596913330078125,-0.9005637168884277,0.058729566633701324,0.34444665908813477
1774470686845930000,4.606929931640625,-1.1408520936965942,-0.03763079270720482,0.451424777507782
1774470686855946000,4.616946044921875,-1.2229528427124023,0.01371994148939848,0.5093401670455933
1774470686865962000,4.6269619140625,-1.204758644104004,0.16047050058841705,0.4766576290130615
1774470686875978200,4.636978271484375,-1.1759141683578491,0.3773239850997925,0.2792145609855652
1774470686885994200,4.646994140625,-1.1455498933792114,0.5973215699195862,0.11773137003183365
1774470686896011000,4.657010986328125,-1.0303136110305786,0.5232561826705933,0.0297669880092144
1774470686906027000,4.667027099609375,-0.9262407422065735,0.7173095345497131,-0.22459818422794342
1774470686916043000,4.67704296875,-0.7774019241333008,0.777775228023529,-0.5965908169746399
1774470686926059000,4.68705908203125,-0.5827310085296631,0.6857550740242004,-0.895839273929596
1774470686936075300,4.6970751953125,-0.5509007573127747,0.6943861246109009,-1.08818781375885
1774470686946092000,4.707092041015625,-0.6741422414779663,0.7696396112442017,-1.0125995874404907
1774470686956108000,4.71710791015625,-0.6762463450431824,0.5094721913337708,-0.7165267467498779
1774470686966124000,4.7271240234375,-0.5882999300956726,-0.2633529305458069,-0.300160676240921
1774470686976140000,4.73714013671875,-0.5635147094726562,-1.1308820247650146,0.0006865112809464335
1774470686986156300,4.74715625,-0.6893519759178162,-1.6786653995513916,0.11476780474185944
1774470686996173000,4.757173095703125,-0.6330832839012146,-2.155748128890991,0.15482354164123535
1774470687006189000,4.76718896484375,-0.5309146046638489,-2.3020665645599365,0.2775329649448395
1774470687016205000,4.777205078125,-0.4016726016998291,-2.1921582221984863,0.5052152276039124
1774470687026221000,4.787220947265625,-0.2811581790447235,-1.7698549032211304,0.5388621687889099
1774470687036237300,4.7972373046875,-0.3056628704071045,-1.0331683158874512,0.2870761454105377
1774470687046254000,4.807254150390625,-0.4300788342952728,-0.39697879552841187,0.0026119318790733814
1774470687056270000,4.81727001953125,-0.5104284882545471,-0.2761242091655731,-0.0496918149292469
1774470687066286000,4.8272861328125,-0.5328355431556702,-0.646629273891449,0.0981929823756218
1774470687076302000,4.837302001953125,-0.5950714945793152,-1.1444478034973145,0.3863726556301117
1774470687086318000,4.847318115234375,-0.6750169396400452,-1.479345679283142,0.634515106678009
1774470687096335000,4.857335205078125,-0.6516374349594116,-1.4868597984313965,0.718788206577301
1774470687106351000,4.86735107421875,-0.6177721619606018,-1.3028539419174194,0.6245061755180359
1774470687116367000,4.8773671875,-0.5308007597923279,-1.1978071928024292,0.5481163263320923
1774470687126383000,4.887383056640625,-0.4529658257961273,-1.2589586973190308,0.4229930341243744
1774470687136399000,4.897399169921875,-0.3404567539691925,-1.1979053020477295,0.4372536242008209
1774470687146416000,4.907416015625,-0.35497045516967773,-1.1778290271759033,0.24191634356975555
1774470687156432100,4.91743212890625,-0.3069220185279846,-1.0061695575714111,0.5300986766815186
1774470687166448000,4.9274482421875,-0.3409968912601471,-0.8189491033554077,0.7418867945671082
1774470687176464100,4.937464111328125,-0.41246679425239563,-0.8423652052879333,0.429916650056839
1774470687186480000,4.947480224609375,-0.6368311643600464,-0.3119697570800781,0.6634271144866943
1774470687196497200,4.9574970703125,-0.6844966411590576,-0.21145546436309814,0.6756535768508911
1774470687206513200,4.96751318359375,-0.7863060832023621,0.19020915031433105,0.5050320625305176
1774470687216529200,4.977529052734375,-0.7836416363716125,0.4512864053249359,0.2588346004486084
1774470687226545200,4.987545166015625,-0.8127137422561646,0.6349270939826965,0.18454597890377045
1774470687236561200,4.99756103515625,-0.7428842186927795,0.6792031526565552,0.42817503213882446
1774470687246578200,5.007578125,-0.4986395835876465,0.3923884332180023,0.39784854650497437
1774470687256594200,5.01759423828125,-0.43265479803085327,0.27375727891921997,0.45264822244644165
1774470687266610200,5.027610107421875,-0.27318498492240906,0.06557796895503998,0.22463451325893402
1774470687276626200,5.037626220703125,-0.17640165984630585,-0.05267997086048126,-0.02155134826898575
1774470687286642200,5.04764208984375,-0.1340257078409195,0.33776581287384033,0.35809263586997986
1774470687296659200,5.0576591796875,0.03469594568014145,0.5437060594558716,0.31992819905281067
1774470687306675200,5.06767529296875,0.09160023927688599,1.3610495328903198,-0.08396521210670471
1774470687316691200,5.077691162109375,0.04194306582212448,2.094834089279175,-0.2731208801269531
1774470687326707200,5.087707275390625,-0.14479725062847137,2.296745538711548,-0.09435513615608215
1774470687336723200,5.09772314453125,-0.21726374328136444,2.231161117553711,0.09178892523050308
1774470687346740000,5.107739990234375,-0.13872206211090088,2.1390974521636963,0.21506211161613464
1774470687356756200,5.117756103515625,-0.20023614168167114,1.4175323247909546,0.06280346214771271
1774470687366772200,5.127772216796875,-0.15080547332763672,0.7260007262229919,-0.10511311143636703
1774470687376788200,5.137788330078125,-0.16001880168914795,0.4066805839538574,-0.1716797649860382
1774470687386804200,5.14780419921875,-0.19516479969024658,0.3527979254722595,-0.015697361901402473
1774470687396821000,5.157821044921875,-0.2381972223520279,0.26816055178642273,0.07624189555644989
1774470687406837200,5.167837158203125,-0.2199638932943344,0.2182377427816391,0.052822597324848175
1774470687416853200,5.177853271484375,-0.152865469455719,0.23768702149391174,-0.04778852313756943
1774470687426869200,5.187869140625,0.03218907117843628,0.39710864424705505,-0.1789470762014389
1774470687436885000,5.197885009765625,0.17524634301662445,0.6077582240104675,-0.3181379437446594
1774470687446902000,5.207902099609375,0.31175360083580017,0.8828163743019104,-0.4452785849571228
1774470687456918300,5.217918212890625,0.39294663071632385,1.2007160186767578,-0.44009870290756226
1774470687466934300,5.227934326171875,0.4101405441761017,1.447061538696289,-0.2741802930831909
1774470687476950300,5.2379501953125,0.4928073287010193,1.4837586879730225,-0.04766819253563881
1774470687486966000,5.247966064453125,0.6341705322265625,1.2927347421646118,0.1310938447713852
1774470687496983000,5.257983154296875,0.8190252780914307,1.305566668510437,0.40277794003486633
1774470687506999600,5.26799951171875,1.05937922000885,1.5142806768417358,0.8387925624847412
1774470687517015600,5.278015625,1.2826628684997559,1.6386091709136963,1.2189154624938965
1774470687527031300,5.28803125,1.563735842704773,1.8734699487686157,1.6566896438598633
1774470687537047300,5.29804736328125,1.865828514099121,2.2330996990203857,2.334761142730713
1774470687547064600,5.308064697265625,1.8376743793487549,1.9797728061676025,3.063938856124878
1774470687557080600,5.31808056640625,1.676616907119751,1.1627994775772095,3.654202699661255
1774470687567096600,5.3280966796875,1.480625033378601,0.522052526473999,3.7798750400543213
1774470687577112300,5.3381123046875,1.0278621912002563,-0.5124290585517883,3.729990005493164
1774470687587128300,5.34812841796875,0.5540773272514343,-1.209153413772583,3.215625524520874
1774470687597145600,5.3581455078125,0.39073824882507324,-1.8066329956054688,2.628875255584717
1774470687607161600,5.36816162109375,0.11900286376476288,-2.555781126022339,2.192192316055298
1774470687617177600,5.378177490234375,-0.08772239834070206,-3.1289961338043213,1.7551029920578003
1774470687627193300,5.388193359375,-0.211953803896904,-3.1620914936065674,1.021318793296814
1774470687637209300,5.398209228515625,-0.4230753183364868,-3.2388930320739746,-0.10206489264965057
1774470687647226600,5.4082265625,-0.5637602210044861,-3.1207275390625,-0.8928356766700745
1774470687657242600,5.41824267578125,-0.7581226229667664,-3.0626840591430664,-1.3655481338500977
1774470687667258600,5.428258544921875,-1.059455394744873,-3.071556806564331,-1.5443819761276245
1774470687677274400,5.4382744140625,-1.239930272102356,-3.0895485877990723,-1.620194911956787
1774470687687290400,5.448290283203125,-1.4226534366607666,-2.9359047412872314,-1.6502023935317993
1774470687697307600,5.4583076171875,-1.6529674530029297,-2.944783926010132,-1.636411428451538
1774470687707323600,5.46832373046875,-1.804186224937439,-3.462973117828369,-1.3906543254852295
1774470687717339400,5.47833935546875,-1.865180253982544,-4.902775287628174,-0.7172796130180359
1774470687727355400,5.48835546875,-1.913133144378662,-5.399600982666016,-0.5364382266998291
1774470687737371400,5.498371337890625,-1.4340410232543945,-3.539238691329956,-1.2311056852340698
1774470687747388700,5.508388671875,-1.0523353815078735,-0.19131287932395935,-2.3402702808380127
1774470687757404700,5.51840478515625,-0.5741060972213745,-0.5605396032333374,-1.9315005540847778
1774470687767420400,5.52842041015625,-0.1937377154827118,-1.5141382217407227,-0.9010289311408997
1774470687777436400,5.5384365234375,-0.011069217696785927,-1.2468560934066772,-0.19526423513889313
1774470687787452400,5.548452392578125,0.053984083235263824,-0.3064664304256439,0.12740835547447205
1774470687797469700,5.5584697265625,0.12197750061750412,0.48764854669570923,0.3291340470314026
1774470687807485700,5.568485595703125,0.23588356375694275,0.9821163415908813,0.3941287696361542
1774470687817501400,5.57850146484375,0.30028948187828064,1.4599113464355469,0.30563557147979736
1774470687827517400,5.588517333984375,0.20649908483028412,1.9348657131195068,0.14247995615005493
1774470687837533400,5.598533447265625,0.2078859508037567,2.071584939956665,-0.033525317907333374
1774470687847550500,5.608550537109375,0.5639833807945251,1.5109604597091675,-0.2697511613368988
1774470687857566700,5.618566650390625,0.7360973358154297,0.7499167323112488,-0.6421537399291992
1774470687867582500,5.62858251953125,0.688703179359436,1.2590978145599365,-0.7856627106666565
1774470687877598500,5.638598388671875,0.02986774407327175,1.5241397619247437,-0.9867808818817139
1774470687887614500,5.648614501953125,-0.1621677428483963,1.5079259872436523,-1.1039583683013916
1774470687897630500,5.65863037109375,-0.32955414056777954,1.8455945253372192,-1.0785800218582153
1774470687907647500,5.6686474609375,-0.312480092048645,2.0655910968780518,-0.862456738948822
1774470687917663500,5.67866357421875,-0.15454453229904175,1.8468530178070068,-0.44873228669166565
1774470687927679500,5.688679443359375,-0.21003654599189758,1.5773749351501465,0.006770526058971882
1774470687937695500,5.698695556640625,-0.30793890357017517,1.2750818729400635,0.43254929780960083
1774470687947711500,5.70871142578125,-0.3376118540763855,1.0666465759277344,0.7581703066825867
1774470687957728500,5.718728515625,-0.24341842532157898,1.0216999053955078,1.066146969795227
1774470687967744500,5.72874462890625,-0.006534774787724018,1.123802900314331,1.3944348096847534
1774470687977760500,5.738760498046875,0.41000884771347046,0.8869028091430664,1.5104440450668335
1774470687987776500,5.748776611328125,0.9428136348724365,-0.09137079119682312,0.7514388561248779
1774470687997792500,5.75879248046875,1.1558960676193237,-0.06794848293066025,0.4383494555950165
1774470688007809300,5.768809326171875,1.16326904296875,0.29841750860214233,0.18338029086589813
1774470688017825500,5.778825439453125,1.0794261693954468,0.6079798936843872,-0.11438474804162979
1774470688027841500,5.788841552734375,0.9919956922531128,0.7831496000289917,-0.32269373536109924
1774470688037857500,5.798857421875,0.9372004866600037,0.5701577663421631,-0.4792926013469696
1774470688047873500,5.80887353515625,0.8426311612129211,0.20038530230522156,-0.6326781511306763
1774470688057890300,5.818890380859375,0.5723613500595093,0.027834007516503334,-0.675796389579773
1774470688067906600,5.828906494140625,0.25762975215911865,-0.029327018186450005,-0.6180720925331116
1774470688077922600,5.838922607421875,0.049559272825717926,-0.14958027005195618,-0.4754173457622528
1774470688087938600,5.8489384765625,-0.09168732911348343,-0.3142658770084381,-0.25018370151519775
1774470688097954600,5.85895458984375,-0.26327070593833923,-0.4756017029285431,0.12245234102010727
1774470688107971300,5.868971435546875,-0.4208110570907593,-0.5791640877723694,0.346562922000885
1774470688117987300,5.8789873046875,-0.4846659302711487,-0.7037659287452698,0.5008382797241211
1774470688128003600,5.889003662109375,-0.5327146649360657,-0.9034371972084045,0.672028124332428
1774470688138019600,5.89901953125,-0.28328901529312134,-1.7049601078033447,0.5274039506912231
1774470688148035600,5.90903564453125,0.039039503782987595,-2.272603750228882,0.4222431778907776
1774470688158052400,5.91905224609375,0.20377011597156525,-2.2327427864074707,0.3028092086315155
1774470688168068400,5.929068359375,0.24078325927257538,-1.8834679126739502,0.27610328793525696
1774470688178084600,5.939084716796875,0.1920269876718521,-1.2262053489685059,0.07756296545267105
1774470688188100600,5.9491005859375,0.1356675773859024,-0.5394490957260132,-0.18565189838409424
1774470688198116600,5.95911669921875,0.18203136324882507,-0.07345609366893768,-0.2161206156015396
1774470688208132600,5.969132568359375,0.2627080976963043,0.48487481474876404,-0.08161792904138565
1774470688218149400,5.9791494140625,0.26373663544654846,1.1399558782577515,0.014470524154603481
1774470688228165400,5.989165283203125,0.11039020121097565,1.3599395751953125,-0.06353746354579926
1774470688238181600,5.999181640625,-0.005614117719233036,0.896202564239502,-0.3319300711154938
1774470688248197600,6.00919775390625,-0.0031837166752666235,0.40113475918769836,-0.5452501177787781
1774470688258213600,6.019213623046875,-0.05622290074825287,0.2028857171535492,-0.5345453023910522
1774470688268230400,6.02923046875,-0.09233616292476654,0.13239078223705292,-0.4847138524055481
1774470688278246400,6.039246337890625,-0.10907123982906342,0.07693550735712051,-0.4434095025062561
1774470688288262700,6.0492626953125,-0.14664126932621002,0.11163915693759918,-0.35525619983673096
1774470688298278700,6.059278564453125,-0.1339486837387085,0.23056969046592712,-0.28299739956855774
1774470688308294700,6.069294677734375,0.0006623971275985241,0.4540637731552124,-0.242817223072052
1774470688318311400,6.0793115234375,0.013003077358007431,0.3325967788696289,-0.2529296278953552
1774470688328327400,6.089327392578125,0.1371559202671051,-0.051293373107910156,-0.2582319974899292
1774470688338343400,6.099343505859375,0.3539223074913025,-0.5156570076942444,-0.20773740112781525
1774470688348359700,6.109359619140625,0.4071679711341858,-0.8051005601882935,-0.16443361341953278
1774470688358375400,6.11937548828125,0.371927410364151,-0.6839829087257385,-0.1364416480064392
1774470688368392400,6.129392333984375,0.3633911907672882,-0.465617835521698,-0.06129470095038414
1774470688378408400,6.139408447265625,0.44809389114379883,-0.2342718243598938,0.010201806202530861
1774470688388424400,6.149424560546875,0.48473310470581055,-0.11066413670778275,0.0697237178683281
1774470688398440700,6.159440673828125,0.4564552307128906,0.0019554230384528637,0.06349796056747437
1774470688408456400,6.16945654296875,0.502005398273468,0.1939632147550583,0.11400933563709259
1774470688418473500,6.179473388671875,0.5152119994163513,0.22629760205745697,0.14707700908184052
1774470688428489500,6.189489501953125,0.5339513421058655,0.19303470849990845,0.17286519706249237
1774470688438505500,6.19950537109375,0.5004941821098328,0.16971881687641144,0.1446789652109146
1774470688448521700,6.209521728515625,0.3992501497268677,0.06130259856581688,0.02178793027997017
1774470688458537500,6.219537353515625,0.2054215669631958,-0.298656702041626,-0.06416350603103638
1774470688468553500,6.229553466796875,0.12094663828611374,-0.4909590482711792,-0.16697776317596436
1774470688478570500,6.239570556640625,0.01813999004662037,-0.41393527388572693,-0.17069649696350098
1774470688488586500,6.24958642578125,-0.1126803383231163,-0.30303460359573364,-0.18551859259605408
1774470688498602500,6.2596025390625,-0.21615947782993317,-0.23667070269584656,-0.2680439352989197
1774470688508618200,6.2696181640625,-0.23026038706302643,-0.0760732963681221,-0.2659975588321686
1774470688518634200,6.27963427734375,-0.20570431649684906,0.03786240518093109,-0.2094566375017166
1774470688528651300,6.2896513671875,-0.27748528122901917,0.09104520082473755,-0.22482627630233765
1774470688538667300,6.299667236328125,-0.3420713245868683,0.16169531643390656,-0.27079498767852783
1774470688548683300,6.309683349609375,-0.3045750856399536,0.3581255376338959,-0.28677529096603394
1774470688558699000,6.319698974609375,-0.09591744840145111,0.45512667298316956,-0.19167330861091614
1774470688568715300,6.32971533203125,-0.08275450766086578,0.7239251136779785,-0.09040313959121704
1774470688578732300,6.339732177734375,-0.07886458933353424,0.8071569204330444,-0.009912139736115932
1774470688588748300,6.349748291015625,-0.11338980495929718,0.9567536115646362,0.005166678689420223
1774470688598764300,6.359764404296875,-0.12254133820533752,0.9104753732681274,-0.03509913757443428
1774470688608780000,6.369780029296875,-0.17562106251716614,0.7065837383270264,-0.15129710733890533
1774470688618796300,6.37979638671875,-0.2777458727359772,0.3410428464412689,-0.07066268473863602
1774470688628813300,6.389813232421875,-0.21940401196479797,0.21121323108673096,0.12177333980798721
1774470688638829300,6.399829345703125,-0.07987219095230103,0.962669849395752,0.5830274820327759
1774470688648845300,6.40984521484375,-0.030471613630652428,1.636920690536499,0.8504714369773865
1774470688658861000,6.419861083984375,0.04244694858789444,2.0332047939300537,0.8485714197158813
1774470688668877300,6.429877197265625,0.06726600974798203,1.8282943964004517,0.6306641101837158
1774470688678893300,6.439893310546875,0.1582658439874649,1.85807466506958,0.521597683429718
1774470688688910300,6.449910400390625,0.21516534686088562,1.7842944860458374,0.4859160780906677
1774470688698926300,6.45992626953125,0.248408243060112,1.5257676839828491,0.505635142326355
1774470688708942000,6.469942138671875,0.2706741690635681,1.284670114517212,0.5575058460235596
1774470688718958000,6.4799580078125,0.22178404033184052,0.8752326369285583,0.477511465549469
1774470688728974300,6.489974365234375,0.18201930820941925,0.42487481236457825,0.35629743337631226
1774470688738991400,6.499991455078125,0.2458828240633011,0.054803989827632904,0.272141695022583
1774470688749007000,6.510007080078125,0.3809730112552643,-0.5650635361671448,0.1608647108078003
1774470688759023000,6.520023193359375,0.5004409551620483,-1.0963711738586426,0.09402983635663986
1774470688769039000,6.5300390625,0.47845447063446045,-1.578508973121643,-0.05098061263561249
1774470688779055400,6.540055419921875,0.32409828901290894,-1.9980063438415527,-0.223033145070076
1774470688789072400,6.550072265625,0.22006374597549438,-1.832271695137024,-0.4107476472854614
1774470688799088000,6.560088134765625,0.1797884702682495,-1.739596962928772,-0.5811726450920105
1774470688809104100,6.570104248046875,0.27176767587661743,-1.6056528091430664,-0.8152442574501038
1774470688819120000,6.5801201171875,0.28391170501708984,-1.6237274408340454,-0.8431445956230164
1774470688829136100,6.59013623046875,0.20523393154144287,-1.7319444417953491,-0.7337632775306702
1774470688839153400,6.6001533203125,-0.0522712804377079,-1.8776105642318726,-0.5072591304779053
1774470688849169200,6.610169189453125,-0.31442806124687195,-1.4397584199905396,-0.4247061610221863
1774470688859185200,6.62018505859375,-0.36879590153694153,-0.9772422313690186,-0.2871963381767273
1774470688869201200,6.630201171875,-0.37576937675476074,-0.7891111969947815,-0.34700292348861694
1774470688879217200,6.640217041015625,-0.5085206627845764,-0.9369150996208191,-0.23385274410247803
1774470688889234400,6.650234375,-0.5138014554977417,-0.8489623069763184,-0.11213722079992294
1774470688899250200,6.660250244140625,-0.5354185104370117,-0.8313226103782654,-0.17300686240196228
1774470688909266200,6.67026611328125,-0.5716276168823242,-1.0354557037353516,-0.4031098186969757
1774470688919282200,6.6802822265625,-0.446948766708374,-1.3985607624053955,-0.6060256958007812
1774470688929298200,6.690298095703125,-0.3397836983203888,-1.8155393600463867,-0.7068705558776855
1774470688939314400,6.700314453125,-0.47931134700775146,-2.3401947021484375,-0.7840629816055298
1774470688949331200,6.710331298828125,-0.7288071513175964,-2.8195290565490723,-0.6331919431686401
1774470688959347200,6.72034716796875,-0.907695472240448,-2.3750293254852295,-0.2736808955669403
1774470688969363200,6.73036328125,-0.6255711317062378,-1.4077670574188232,-0.31483951210975647
1774470688979379200,6.740379150390625,-0.3854137063026428,-0.6310936212539673,0.21753071248531342
1774470688989395200,6.750395263671875,-0.16408771276474,0.6632329821586609,0.35803136229515076
1774470688999412200,6.760412109375,-0.0319584421813488,1.053726315498352,0.10951396077871323
1774470689009428200,6.77042822265625,0.041364241391420364,0.9226367473602295,0.2785565257072449
1774470689019444200,6.7804443359375,0.13069471716880798,1.114096760749817,0.23120465874671936
1774470689029460200,6.790460205078125,0.18675824999809265,0.8944457769393921,0.018447909504175186
1774470689039476200,6.800476318359375,0.2617878019809723,0.07877947390079498,-0.21786506474018097
1774470689049493200,6.8104931640625,0.23205840587615967,-0.6634307503700256,-0.38914307951927185
1774470689059509200,6.82050927734375,0.11214839667081833,-0.9910679459571838,-0.3616703450679779
1774470689069525200,6.830525146484375,-0.0052301581017673016,-1.0240397453308105,-0.27892300486564636
1774470689079541200,6.840541259765625,-0.08368466794490814,-0.7343295216560364,-0.17586193978786469
1774470689089557200,6.85055712890625,0.035936273634433746,-0.14659680426120758,-0.03241555765271187
1774470689099574300,6.86057421875,0.1652929186820984,0.43556642532348633,0.08599736541509628
1774470689109590300,6.87059033203125,0.23170870542526245,0.7159445285797119,0.08346869051456451
1774470689119606300,6.880606201171875,0.28331834077835083,0.5736417174339294,0.07106293737888336
1774470689129622300,6.890622314453125,0.3560367524623871,0.2894991934299469,0.03556033596396446
1774470689139638300,6.90063818359375,0.34526175260543823,-0.09268996864557266,-0.05927473306655884
1774470689149654300,6.910654296875,0.3781757652759552,-0.5161275267601013,-0.129665806889534
1774470689159671300,6.92067138671875,0.36257266998291016,-0.7344217300415039,-0.1991344541311264
1774470689169687300,6.930687255859375,0.3724503517150879,-0.6559913754463196,-0.2725418508052826
1774470689179703300,6.940703369140625,0.3754328489303589,-0.34931766986846924,-0.3192097842693329
1774470689189719300,6.95071923828125,0.36132821440696716,-0.004266786854714155,-0.41104862093925476
1774470689199735000,6.960735107421875,0.33051741123199463,0.15160852670669556,-0.5901345610618591
1774470689209752300,6.97075244140625,0.37999576330184937,0.4074203372001648,-0.6129946112632751
1774470689219768300,6.980768310546875,0.4217170476913452,0.6133719086647034,-0.6248144507408142
1774470689229784300,6.990784423828125,0.4850859045982361,0.6373797655105591,-0.6310840845108032
1774470689239800300,7.00080029296875,0.4882316589355469,0.4608617126941681,-0.7486738562583923
1774470689249816000,7.010816162109375,0.44217759370803833,0.40274009108543396,-0.8679217100143433
1774470689259833300,7.020833251953125,0.46238040924072266,0.39000919461250305,-0.7493943572044373
1774470689269849300,7.030849365234375,0.4267824590206146,0.3809107542037964,-0.44262561202049255
1774470689279865300,7.040865234375,0.4613858759403229,0.30313801765441895,-0.0844055712223053
1774470689289881300,7.05088134765625,0.4565562605857849,0.03941476345062256,0.18231746554374695
1774470689299897000,7.06089697265625,0.4365234076976776,-0.12326884269714355,0.4022592008113861
1774470689309914400,7.070914306640625,0.4551282525062561,-0.11133335530757904,0.49528607726097107
1774470689319930400,7.080930419921875,0.3863406479358673,0.02768045663833618,0.4384632706642151
1774470689329946400,7.0909462890625,0.3185672163963318,0.07124737650156021,0.35925018787384033
1774470689339962400,7.10096240234375,0.358144074678421,0.08899060636758804,0.29241636395454407
1774470689349978000,7.11097802734375,0.3335665762424469,0.07099322974681854,0.25350838899612427
1774470689359995400,7.120995361328125,0.3487878739833832,0.1293763816356659,0.32695141434669495
1774470689370011400,7.131011474609375,0.4277684688568115,0.4256455898284912,0.3453613221645355
1774470689380027400,7.14102734375,0.49000284075737,0.874904990196228,0.34136471152305603
1774470689390043100,7.151043212890625,0.5703514218330383,1.1980702877044678,0.30321359634399414
1774470689400059100,7.16105908203125,0.6101306676864624,1.3701603412628174,0.2621326744556427
1774470689410075100,7.1710751953125,0.5805437564849854,1.3561567068099976,0.29290494322776794
1774470689420092400,7.181092529296875,0.5265147089958191,1.1462353467941284,0.36061891913414
1774470689430108400,7.1911083984375,0.2577090263366699,1.0346457958221436,0.5240262150764465
1774470689440124200,7.201124267578125,-0.10373944044113159,0.9863326549530029,0.5501960515975952
1774470689450140200,7.21114013671875,-0.21681246161460876,0.9953538775444031,0.49030235409736633
1774470689460156200,7.22115625,-0.28449657559394836,0.8588125705718994,0.43861716985702515
1774470689470173400,7.23117333984375,-0.36126938462257385,0.5028528571128845,0.3705872595310211
1774470689480189400,7.241189453125,-0.4835342764854431,0.15154621005058289,0.3112541437149048
1774470689490205200,7.251205078125,-0.6557267904281616,-0.15210369229316711,0.3225025534629822
1774470689500221200,7.26122119140625,-0.7208848595619202,-0.6104786992073059,0.2745702266693115
1774470689510237200,7.2712373046875,-0.7183783054351807,-0.8799833655357361,0.275764137506485
1774470689520254200,7.281254150390625,-0.6923525333404541,-0.950509250164032,0.2818039059638977
1774470689530270200,7.291270263671875,-0.7794557213783264,-0.974507749080658,0.29605793952941895
1774470689540286000,7.301285888671875,-0.7873190641403198,-0.9024615287780762,0.21536876261234283
1774470689550302200,7.31130224609375,-0.6131981015205383,-0.9289423823356628,0.08400221914052963
1774470689560318200,7.321318115234375,-0.4464070200920105,-0.9733922481536865,0.00992665346711874
1774470689570335200,7.331335205078125,-0.18824179470539093,-0.97507244348526,-0.0916827991604805
1774470689580351200,7.341351318359375,-0.09409424662590027,-0.8293119072914124,-0.06756174564361572
1774470689590367000,7.351366943359375,0.006922913249582052,-1.0764015913009644,-0.0928436666727066
1774470689600383200,7.36138330078125,0.5264744162559509,-1.370051383972168,0.12144526094198227
1774470689610399200,7.371399169921875,0.7924078106880188,-1.7697691917419434,0.23976470530033112
1774470689620415200,7.381415283203125,0.8777527213096619,-1.9993953704833984,0.26049426198005676
1774470689630432300,7.391432373046875,1.1803808212280273,-2.085836887359619,0.25398629903793335
1774470689640448000,7.401447998046875,1.4930652379989624,-1.6741695404052734,0.16339488327503204
1774470689650464000,7.411464111328125,1.479796051979065,-1.0440694093704224,0.12658120691776276
1774470689660480300,7.421480224609375,1.3358112573623657,-0.4984676241874695,0.19613277912139893
1774470689670496300,7.431496337890625,1.2575092315673828,-0.41426166892051697,0.11148608475923538
1774470689680513000,7.441512939453125,1.1698336601257324,-0.46289750933647156,-0.0174441859126091
1774470689690529000,7.451529052734375,1.0663036108016968,-0.3836192190647125,0.13513736426830292
1774470689700545000,7.461544921875,1.1118797063827515,-0.2595715820789337,0.2925961911678314
1774470689710561300,7.471561279296875,1.2424437999725342,-0.24911735951900482,0.6256303191184998
1774470689720577300,7.481577392578125,1.3245879411697388,-0.47419825196266174,1.3474247455596924
1774470689730594000,7.491593994140625,1.4171944856643677,-0.7453426718711853,1.9163784980773926
1774470689740610000,7.501610107421875,1.4120537042617798,-0.8694369792938232,2.309704065322876
1774470689750626000,7.5116259765625,1.2413769960403442,-0.9823595881462097,2.638672351837158
1774470689760642000,7.52164208984375,1.0138567686080933,-1.055544137954712,2.9551846981048584
1774470689770658300,7.531658203125,0.7507351636886597,-1.0986984968185425,3.200162410736084
1774470689780674300,7.54167431640625,0.49674272537231445,-1.0426547527313232,3.313800573348999
1774470689790691000,7.551691162109375,0.257337361574173,-0.9155579805374146,3.386542558670044
1774470689800707000,7.56170703125,0.0381038673222065,-0.8233740925788879,3.430981397628784
1774470689810723000,7.57172314453125,-0.13982617855072021,-0.7988852262496948,3.451465129852295
1774470689820739300,7.5817392578125,-0.21078544855117798,-0.7432926297187805,3.430025100708008
1774470689830755300,7.59175537109375,-0.18478313088417053,-0.5937398672103882,3.4123475551605225
1774470689840772000,7.601772216796875,-0.11991646140813828,-0.4408319890499115,3.5008914470672607
1774470689850788000,7.6117880859375,-0.06563910841941833,-0.3921658992767334,3.7868552207946777
1774470689860804000,7.62180419921875,0.00038027926348149776,-0.5296863317489624,3.9795172214508057
1774470689870820400,7.6318203125,0.06083935871720314,-0.7269101738929749,4.048123359680176
1774470689880836400,7.64183642578125,0.1756734848022461,-0.876087486743927,4.0619964599609375
1774470689890853000,7.65185302734375,0.31205958127975464,-0.9706957340240479,4.26298189163208
1774470689900869000,7.661869140625,0.3711543083190918,-1.0520861148834229,4.929715156555176
1774470689910885000,7.671885009765625,0.38509780168533325,-1.2014057636260986,5.3910722732543945
1774470689920901000,7.681901123046875,0.18794821202754974,-0.9958932399749756,6.102883815765381
1774470689930917400,7.69191748046875,0.02914019487798214,-0.769026517868042,6.320548057556152
1774470689940934100,7.70193408203125,-0.27146413922309875,-0.5127655863761902,6.416262626647949
1774470689950950100,7.7119501953125,-0.6698402166366577,-0.7581005096435547,6.2057108879089355
1774470689960966100,7.721966064453125,-0.9433324337005615,-0.8838472962379456,5.654373645782471
1774470689970982100,7.731982177734375,-1.016455888748169,-0.4921804368495941,5.086665153503418
1774470689980998400,7.741998291015625,-1.0098129510879517,0.13740402460098267,4.463017463684082
1774470689991015200,7.75201513671875,-1.0867377519607544,0.7056261897087097,3.985797643661499
1774470690001031200,7.76203125,-1.0733345746994019,1.208013892173767,3.6649906635284424
1774470690011047200,7.772047119140625,-0.8130068778991699,1.4786059856414795,3.630087375640869
1774470690021063200,7.782063232421875,-0.31943801045417786,1.1885926723480225,3.780186176300049
1774470690031079200,7.7920791015625,0.22595635056495667,0.19691886007785797,4.041112899780273
1774470690041096200,7.80209619140625,0.6992260217666626,-1.136580228805542,3.9723808765411377
1774470690051112200,7.8121123046875,1.0326842069625854,-2.164775848388672,3.8132643699645996
1774470690061128200,7.822128173828125,1.2259396314620972,-2.3930869102478027,3.4195470809936523
1774470690071144200,7.832144287109375,1.223998785018921,-2.1479809284210205,2.777963638305664
1774470690088672300,7.84967236328125,1.106895089149475,-1.1133525371551514,1.4927403926849365
1774470690098689000,7.85968896484375,1.0505130290985107,-0.6450055241584778,0.7044719457626343
1774470690108705300,7.869705322265625,1.036622166633606,-0.3426506519317627,0.01701194792985916
1774470690118721300,7.87972119140625,1.0297634601593018,-0.226643368601799,-0.5183252096176147
1774470690128737300,7.8897373046875,0.994541585445404,-0.2515084743499756,-0.894874095916748
1774470690138753300,7.899753173828125,0.903754472732544,-0.32573583722114563,-1.0736174583435059
1774470690148770000,7.90977001953125,0.7774310111999512,-0.34205684065818787,-1.1266372203826904
1774470690158786000,7.9197861328125,0.6588958501815796,-0.2627764046192169,-1.127134919166565
1774470690168802300,7.92980224609375,0.5880786180496216,-0.19552797079086304,-1.1440086364746094
1774470690178818300,7.939818359375,0.4518025517463684,-0.215407133102417,-1.1998764276504517
1774470690188834300,7.949834228515625,0.034286074340343475,-0.13986559212207794,-1.2267391681671143
1774470690198851000,7.95985107421875,-0.2682000398635864,-0.02719203755259514,-1.272953748703003
1774470690208867000,7.9698671875,-0.5136799216270447,-0.056299932301044464,-1.4236568212509155
1774470690218883300,7.97988330078125,-0.7065374851226807,0.11881542205810547,-1.4869425296783447
1774470690228899300,7.9898994140625,-1.010963797569275,0.2384355664253235,-1.4977971315383911
1774470690238915300,7.999915283203125,-1.4296609163284302,0.3087161183357239,-1.4063702821731567
1774470690248931000,8.00993115234375,-1.8130533695220947,0.4489690661430359,-1.3416675329208374
1774470690258948000,8.019947998046876,-2.0135741233825684,0.5370243787765503,-1.2203171253204346
1774470690268964000,8.029964111328125,-2.0428307056427,0.361812025308609,-1.1249966621398926
1774470690278980400,8.03998046875,-1.9124821424484253,-0.14883765578269958,-1.2428052425384521
1774470690288996000,8.04999609375,-1.729964256286621,-0.4503880739212036,-1.2950950860977173
1774470690299012000,8.06001220703125,-1.4376863241195679,-0.8788970708847046,-1.2858039140701294
1774470690309029000,8.070029052734375,-1.051123857498169,-1.4213987588882446,-1.1987897157669067
1774470690319045000,8.080045166015625,-0.6655104160308838,-1.7131797075271606,-1.025514841079712
1774470690329061400,8.090061279296876,-0.46749094128608704,-1.8019349575042725,-1.1083317995071411
1774470690339077000,8.1000771484375,-0.44756942987442017,-1.508189082145691,-1.3372949361801147
1774470690349093000,8.110093017578125,-0.47099652886390686,-1.194921612739563,-1.6815444231033325
1774470690359110100,8.120110107421874,-0.47959667444229126,-0.9548080563545227,-1.9867346286773682
1774470690369126100,8.130126220703126,-0.522737979888916,-0.907859742641449,-2.2824995517730713
1774470690379142400,8.140142333984375,-0.5081883668899536,-0.7591304183006287,-2.4392452239990234
1774470690389158100,8.150158203125,-0.2971603274345398,-0.7534711956977844,-2.402190923690796
1774470690399174100,8.160174072265624,-0.06676547229290009,-0.9382266402244568,-2.2136168479919434
1774470690409191200,8.170191162109376,0.10417427122592926,-1.3408970832824707,-1.9331856966018677
1774470690419207200,8.180207275390625,0.26253700256347656,-2.0634100437164307,-1.7635362148284912
1774470690429223200,8.19022314453125,0.3910670280456543,-2.6885015964508057,-1.7319374084472656
1774470690439239200,8.2002392578125,0.5656894445419312,-2.9963467121124268,-1.868550419807434
1774470690449255200,8.210255126953125,0.4353301525115967,-3.1667134761810303,-1.9675407409667969
1774470690459272200,8.220272216796875,0.09797876328229904,-3.107086181640625,-1.8781603574752808
1774470690469288200,8.2302880859375,-0.1755688637495041,-3.0066728591918945,-1.4338371753692627
1774470690479304200,8.24030419921875,-0.32849982380867004,-3.128545045852661,-0.9929737448692322
1774470690489320200,8.2503203125,-0.33351773023605347,-3.2771153450012207,-0.8134966492652893
1774470690499336200,8.260336181640625,-0.29391998052597046,-3.5297722816467285,-0.8994438052177429
1774470690509352700,8.270352783203125,-0.3807846009731293,-3.225220203399658,-0.9799426198005676
1774470690519369000,8.280368896484376,-0.5720682740211487,-1.9040892124176025,-1.0061750411987305
1774470690529385000,8.290385009765625,-0.7983593940734863,0.05354363098740578,-0.7388741374015808
1774470690539400700,8.300400634765625,-0.6908307671546936,1.5545459985733032,-0.732806384563446
1774470690549416700,8.310416748046874,-0.4765998423099518,2.543893575668335,-1.0945650339126587
1774470690559433700,8.320433837890626,-0.5659992694854736,2.924992799758911,-1.288649559020996
1774470690569450000,8.330449951171875,-0.6822552680969238,2.8787639141082764,-1.282753586769104
1774470690579466000,8.340466064453125,-0.6102859973907471,2.7795324325561523,-1.1606247425079346
1774470690589481700,8.350481689453124,-0.5460716485977173,2.534346342086792,-1.0344207286834717
1774470690599497700,8.360497802734375,-0.369494765996933,2.0266926288604736,-0.7428956031799316
1774470690609514800,8.3705146484375,-0.23571598529815674,1.1534587144851685,-0.49683573842048645
1774470690619530800,8.38053076171875,-0.185951367020607,0.02250581793487072,-0.5081512331962585
1774470690629547000,8.390547119140624,-0.14833851158618927,-0.954403281211853,-0.6334822177886963
1774470690639562800,8.400562744140625,-0.26071882247924805,-1.4427692890167236,-0.7015885710716248
1774470690649578800,8.410578857421875,-0.2448795586824417,-1.398282766342163,-0.6256111264228821
1774470690659595800,8.420595703125,-0.04939102753996849,-1.111732006072998,-0.5679566264152527
1774470690669611800,8.43061181640625,0.10988672822713852,-0.5705224275588989,-0.7563786506652832
1774470690679627800,8.440627685546875,0.13569410145282745,0.2196313738822937,-1.0317188501358032
1774470690689643800,8.450643798828125,0.20707464218139648,1.1190385818481445,-1.2707126140594482
1774470690699659800,8.46065966796875,0.2840844988822937,1.921866774559021,-1.5380891561508179
1774470690709676800,8.4706767578125,0.20606592297554016,2.2249672412872314,-1.7614967823028564
1774470690719692800,8.48069287109375,0.0814955085515976,2.0262372493743896,-1.9003868103027344
1774470690729708800,8.490708740234375,-0.027354570105671883,1.3211652040481567,-1.513310432434082
1774470690739724800,8.500724853515624,-0.067943274974823,0.3069239854812622,-0.9994537830352783
1774470690749741800,8.510741943359376,-0.12075918167829514,-0.5160959959030151,-0.4203876852989197
1774470690759757800,8.5207578125,-0.30118462443351746,-1.1568418741226196,0.08114387094974518
1774470690769773800,8.53077392578125,-0.4760904014110565,-1.4661753177642822,0.4966724216938019
1774470690779789600,8.54078955078125,-0.5375335812568665,-1.6327983140945435,0.7992737889289856
1774470690789805800,8.550805908203126,-0.5339494943618774,-1.549553394317627,0.9457234740257263
1774470690799822800,8.56082275390625,-0.4764382839202881,-1.0982171297073364,0.9858978390693665
1774470690809838800,8.5708388671875,-0.35951995849609375,-0.38626575469970703,0.9268792867660522
1774470690819854800,8.580854736328124,-0.259080708026886,0.3436425030231476,0.7877568006515503
1774470690829870600,8.59087060546875,-0.2457689344882965,1.0302112102508545,0.5616467595100403
1774470690839886800,8.600886962890625,-0.26988065242767334,1.5590068101882935,0.31115248799324036
1774470690849903900,8.61090380859375,-0.24592283368110657,1.692528247833252,0.1044868752360344
1774470690859920000,8.620919921875,-0.2075037956237793,1.4391047954559326,-0.026544108986854553
1774470690869935900,8.630935791015625,-0.20896299183368683,0.8897715210914612,-0.09169270098209381
1774470690879951600,8.64095166015625,-0.25578373670578003,0.11612537503242493,-0.08655306696891785
1774470690889969000,8.650968994140625,-0.3550858795642853,-0.7632077932357788,-0.06894342601299286
1774470690899985000,8.66098486328125,-0.4862186014652252,-1.5365979671478271,-0.1047578826546669
1774470690910001000,8.6710009765625,-0.6098045706748962,-2.0079424381256104,-0.2770485579967499
1774470690920016600,8.6810166015625,-0.6923431158065796,-2.1907920837402344,-0.5524968504905701
1774470690930032600,8.69103271484375,-0.7108869552612305,-2.0910842418670654,-0.8046682476997375
1774470690940050000,8.7010498046875,-0.6942299008369446,-1.8032426834106445,-0.9762426614761353
1774470690950066000,8.71106591796875,-0.6947470307350159,-1.4302983283996582,-1.0513101816177368
1774470690960082000,8.72108203125,-0.7371732592582703,-1.0772686004638672,-1.0121492147445679
1774470690970097700,8.73109765625,-0.7571914792060852,-0.6982648968696594,-0.9337918758392334
1774470690980114700,8.74111474609375,-0.7650414109230042,-0.33251887559890747,-0.8381548523902893
1774470690990131000,8.751130859375,-0.7478052377700806,-0.11742863804101944,-0.7592102289199829
1774470691000147000,8.76114697265625,-0.7311844825744629,-0.12417282909154892,-0.7241308093070984
1774470691010163000,8.771162841796874,-0.7436844706535339,-0.21991045773029327,-0.739901065826416
1774470691020178700,8.7811787109375,-0.7806565761566162,-0.36234962940216064,-0.7990967631340027
1774470691030195700,8.79119580078125,-0.826580822467804,-0.5516743659973145,-0.8471677899360657
1774470691040211700,8.801211669921875,-0.8831292986869812,-0.6842324137687683,-0.8500471711158752
1774470691050228000,8.81122802734375,-0.9119107723236084,-0.7397693395614624,-0.8206558227539062
1774470691060244000,8.821243896484376,-0.9224616289138794,-0.7670425176620483,-0.7656786441802979
1774470691070260700,8.8312607421875,-0.9154300093650818,-0.78150475025177,-0.6873103976249695
1774470691080276700,8.84127685546875,-0.8907420039176941,-0.7360301613807678,-0.5787871479988098
1774470691090292700,8.851292724609374,-0.8504179120063782,-0.5996876955032349,-0.4722708761692047
1774470691100309000,8.86130908203125,-0.8232209086418152,-0.4544830918312073,-0.39793750643730164
1774470691110325800,8.87132568359375,-0.7716594338417053,-0.39922282099723816,-0.3783007562160492
1774470691120341800,8.881341796875,-0.7208239436149597,-0.4744877517223358,-0.45468848943710327
1774470691130357800,8.891357666015624,-0.6659533381462097,-0.6133601069450378,-0.625525951385498
1774470691140373800,8.901373779296875,-0.6281018257141113,-0.7631198167800903,-0.8161989450454712
1774470691150390800,8.911390869140625,-0.6349047422409058,-0.8157899975776672,-0.9259918928146362
1774470691160406800,8.92140673828125,-0.5921801924705505,-0.684830904006958,-1.005727767944336
1774470691170422800,8.9314228515625,-0.4888816177845001,-0.4338458776473999,-1.0620025396347046
1774470691180438800,8.941438720703125,-0.38548198342323303,-0.19800937175750732,-1.1132420301437378
1774470691190454800,8.951454833984375,-0.3079891800880432,0.041279975324869156,-1.1528092622756958
1774470691200471800,8.961471923828125,-0.23673871159553528,0.21640971302986145,-1.1699068546295166
1774470691210487800,8.97148779296875,-0.19198380410671234,0.2339470535516739,-1.1933913230895996
1774470691220503800,8.98150390625,-0.1657535284757614,0.09173371642827988,-1.2269197702407837
1774470691230519800,8.991519775390625,-0.15285219252109528,-0.22023268043994904,-1.241030216217041
1774470691240536600,9.00153662109375,-0.1627969741821289,-0.5833182334899902,-1.2060383558273315
1774470691250552800,9.011552734375,-0.19351959228515625,-0.8958041667938232,-1.1734302043914795
1774470691260568800,9.02156884765625,-0.2655557096004486,-1.1724774837493896,-1.132602334022522
1774470691270584800,9.031584716796875,-0.31725257635116577,-1.4458924531936646,-1.042396068572998
1774470691280601900,9.041601806640625,-0.3130844831466675,-1.6359984874725342,-0.8905906677246094
1774470691290617600,9.05161767578125,-0.31563085317611694,-1.580991268157959,-0.7884135842323303
1774470691300633900,9.0616337890625,-0.36118343472480774,-0.736372172832489,-0.45697250962257385
1774470691310649900,9.07164990234375,-0.3614954650402069,0.7654365301132202,0.37963739037513733
1774470691320667000,9.0816669921875,-0.3689515292644501,1.5459707975387573,1.4715256690979004
1774470691330683000,9.091682861328126,-0.37404492497444153,1.2744848728179932,2.3713643550872803
1774470691340698600,9.10169873046875,-0.48152264952659607,0.7792117595672607,2.708710193634033
1774470691350714600,9.111714599609375,-0.6989787220954895,0.36656349897384644,2.521146059036255
1774470691360732000,9.12173193359375,-0.846129298210144,0.21970640122890472,2.1068227291107178
1774470691370748000,9.131747802734376,-0.8674807548522949,0.47265389561653137,1.7196149826049805
1774470691380763600,9.141763671875,-0.7192167639732361,0.8429789543151855,1.4319770336151123
1774470691390779600,9.151779541015625,-0.6676884889602661,0.9444342851638794,1.2214010953903198
1774470691400797000,9.161796875,-0.6983478665351868,0.7628445625305176,1.0364866256713867
1774470691410813000,9.17181298828125,-0.6749551296234131,0.5978422164916992,0.8473000526428223
1774470691420829000,9.181828857421875,-0.3660918176174164,0.9071076512336731,0.7615494728088379
1774470691430844700,9.1918447265625,-0.3788783550262451,0.6048780679702759,0.756190836429596
1774470691440861700,9.20186181640625,-0.6034022569656372,0.22431956231594086,0.7571764588356018
1774470691450878000,9.2118779296875,-0.6892222762107849,0.25543084740638733,0.6118404865264893
1774470691460894000,9.22189404296875,-0.6609477400779724,0.3743188679218292,0.47914639115333557
1774470691470910000,9.231909912109375,-0.6206286549568176,0.23847384750843048,0.4451293647289276
1774470691480926700,9.2419267578125,-0.6363167762756348,0.09547407925128937,0.43680405616760254
1774470691490942700,9.251942626953126,-0.8026396036148071,0.11510820686817169,0.45676782727241516
1774470691500958700,9.261958740234375,-0.9058906435966492,0.11070413887500763,0.3433523178100586
1774470691510975000,9.27197509765625,-0.8204308748245239,-0.0901339128613472,0.1372377574443817
1774470691520992000,9.281991943359374,-0.5088343620300293,-0.41022616624832153,-0.16071191430091858
1774470691531008000,9.292008056640626,-0.26963913440704346,-0.8701304793357849,-0.7499607801437378
1774470691541024000,9.30202392578125,-0.07237882167100906,-1.5039277076721191,-1.2368971109390259
1774470691551040000,9.3120400390625,0.08170022070407867,-1.8473347425460815,-1.3285255432128906
1774470691561057000,9.32205712890625,0.014653011225163937,-1.6747894287109375,-1.14677894115448
1774470691571073000,9.332072998046876,-0.09306461364030838,-1.123047947883606,-0.9881030321121216
1774470691581089000,9.342089111328125,-0.21790507435798645,-0.6655858755111694,-0.8144335150718689
1774470691591106000,9.35210595703125,-0.3376621901988983,-0.40264463424682617,-0.2748543918132782
1774470691601121800,9.362121826171874,-0.39410150051116943,-0.035165153443813324,0.17407892644405365
1774470691611138000,9.372137939453125,-0.4025857150554657,0.34811586141586304,0.33230704069137573
1774470691621154000,9.382154052734375,-0.3316843807697296,0.633471667766571,0.510107159614563
1774470691631171000,9.392171142578125,-0.22676178812980652,0.8698440790176392,0.7444823980331421
1774470691641187000,9.40218701171875,-0.31233206391334534,0.5939299464225769,0.6012959480285645
1774470691651202800,9.412202880859375,-0.31539130210876465,-0.2175208181142807,-0.06681830435991287
1774470691661218800,9.42221875,-0.12202530354261398,-0.6363417506217957,-0.38096532225608826
1774470691671236000,9.432236083984375,0.021351143717765808,-0.5615963935852051,-0.1624421924352646
1774470691681252000,9.442252197265624,-0.15747933089733124,-0.06359722465276718,0.3808099031448364
1774470691691267800,9.452267822265625,-0.36372682452201843,0.4171880781650543,0.7148931622505188
1774470691701283800,9.462283935546875,-0.3328205645084381,0.44673213362693787,0.5954906344413757
1774470691711301000,9.472301025390625,-0.09413636475801468,0.07823877036571503,0.29363465309143066
1774470691721317000,9.482317138671876,0.12431048601865768,-0.2950597107410431,0.01425413228571415
1774470691731333000,9.4923330078125,0.17256271839141846,-0.36564454436302185,-0.03709784895181656
1774470691741350000,9.502349853515625,0.09989862889051437,-0.2274390161037445,0.04273919388651848
1774470691751366000,9.512365966796875,0.024502411484718323,-0.04030187800526619,0.20331129431724548
1774470691761382100,9.522382080078126,-0.04535576328635216,0.11112785339355469,0.3012368083000183
1774470691771398100,9.532398193359375,-0.13112808763980865,0.23385053873062134,0.45038092136383057
1774470691781415000,9.542414794921875,-0.1961936354637146,0.3732600808143616,0.646648645401001
1774470691791431000,9.552430908203124,-0.24618256092071533,0.5790782570838928,0.7931513786315918
1774470691801447000,9.562447021484376,-0.30520302057266235,0.7452488541603088,0.8377324342727661
1774470691811463200,9.572463134765625,-0.25813719630241394,0.6532371044158936,0.6620498299598694
1774470691821480000,9.58247998046875,-0.21377795934677124,0.4066646695137024,0.4582460820674896
1774470691831496000,9.592495849609374,-0.19710661470890045,0.3122082054615021,0.5751545429229736
1774470691841512000,9.602511962890626,-0.26820558309555054,0.449804425239563,0.7698414921760559
1774470691851529000,9.612529052734375,-0.3284369111061096,0.6823472380638123,0.9359721541404724
1774470691861545000,9.622544921875,-0.2785812020301819,0.8346917629241943,0.9498456120491028
1774470691871561000,9.63256103515625,-0.2567784786224365,0.7128238081932068,0.7029312252998352
1774470691881577000,9.642576904296876,-0.20711106061935425,0.36235207319259644,0.44768959283828735
1774470691891594000,9.652593994140625,-0.1033436506986618,0.059115346521139145,0.39272528886795044
1774470691901610000,9.66260986328125,-0.1142468973994255,0.06977544724941254,0.5163883566856384
1774470691911626000,9.6726259765625,-0.2472638487815857,0.39762765169143677,0.7109132409095764
1774470691921642000,9.68264208984375,-0.36095234751701355,0.5865821242332458,0.7239699363708496
1774470691931659000,9.692658935546875,-0.34065505862236023,0.5840010046958923,0.7094253301620483
1774470691941675000,9.702675048828125,-0.21957603096961975,0.35343700647354126,0.5295775532722473
1774470691951691000,9.71269091796875,-0.11774330586194992,0.06702625006437302,0.2902114689350128
1774470691961708000,9.7227080078125,-0.11459997296333313,-0.07295721769332886,0.19473686814308167
1774470691971724000,9.73272412109375,-0.09790749847888947,-0.07414926588535309,0.1316758543252945
1774470691981740000,9.742739990234375,-0.16455736756324768,-0.04151036590337753,0.1462223082780838
1774470691991756000,9.752756103515624,-0.3149019181728363,0.1387220025062561,0.2830350399017334
1774470692001773000,9.76277294921875,-0.32497638463974,0.2897520065307617,0.3082575798034668
1774470692011789000,9.7727890625,-0.28102537989616394,0.4014597237110138,0.46374258399009705
1774470692021805000,9.78280517578125,-0.27558615803718567,0.6263540983200073,0.7146397829055786
1774470692031822000,9.792822021484374,-0.3643103241920471,0.9822552800178528,0.9366347193717957
1774470692041837800,9.802837890625,-0.4146406054496765,1.2221382856369019,1.0456011295318604
1774470692051853800,9.812853759765625,-0.39111584424972534,1.2139203548431396,1.0322233438491821
1774470692061870000,9.8228701171875,-0.33553940057754517,1.1137452125549316,0.9673115015029907
1774470692071887000,9.83288720703125,-0.2661416530609131,1.0104451179504395,0.8940037488937378
1774470692081903000,9.842903076171876,-0.24772538244724274,0.981330394744873,0.93479323387146
1774470692091918800,9.8529189453125,-0.3162679672241211,1.0253803730010986,0.9793025851249695
1774470692101936000,9.86293603515625,-0.3736497461795807,0.9911556243896484,0.9722611904144287
1774470692111952100,9.8729521484375,-0.38214656710624695,0.9764148592948914,1.0111422538757324
1774470692121968000,9.882968017578126,-0.3487990200519562,0.8782904148101807,0.8446044325828552
1774470692131984000,9.89298388671875,-0.30446040630340576,0.6956917643547058,0.6721041202545166
1774470692142001000,9.9030009765625,-0.2056611180305481,0.4322798550128937,0.49695178866386414
1774470692152017200,9.91301708984375,-0.07626111805438995,0.10946584492921829,0.2575109601020813
1774470692162033200,9.923033203125,-0.028818761929869652,0.09430872648954391,0.1721302717924118
1774470692172050000,9.9330498046875,-0.12560021877288818,0.12499436736106873,0.11327849328517914
1774470692182066000,9.94306591796875,-0.22864989936351776,0.0460209883749485,0.12850885093212128
1774470692192082000,9.95308203125,-0.24810317158699036,0.08004257827997208,0.24536487460136414
1774470692202098000,9.963097900390625,-0.2401949167251587,0.23169496655464172,0.32389986515045166
1774470692212115000,9.973114990234375,-0.19589567184448242,0.3291565775871277,0.3464593291282654
1774470692222131000,9.983130859375,-0.15580551326274872,0.317891389131546,0.29500120878219604
1774470692232147000,9.99314697265625,-0.14453764259815216,0.231267511844635,0.17233136296272278
1774470692242164000,10.0031640625,-0.15775437653064728,0.1549258679151535,0.13532833755016327
1774470692252180200,10.01318017578125,-0.15989582240581512,0.11204031854867935,0.19436925649642944
1774470692262196000,10.023196044921875,-0.1562584787607193,0.15926297008991241,0.2145267277956009
1774470692272212000,10.0332119140625,-0.22146303951740265,0.16038480401039124,0.09593934565782547
1774470692282229000,10.04322900390625,-0.27619022130966187,0.047173306345939636,-0.022649889811873436
1774470692292245000,10.053244873046875,-0.20022597908973694,-0.07292471081018448,-0.06798026710748672
1774470692302261000,10.063260986328125,-0.15613707900047302,-0.1857157051563263,-0.09856054186820984
1774470692312278000,10.073278076171874,-0.14664196968078613,-0.11569462716579437,-0.01782280020415783
1774470692322294000,10.0832939453125,-0.1847347617149353,0.04376267269253731,0.050793275237083435
1774470692332310000,10.09331005859375,-0.21823737025260925,0.19397658109664917,0.1832427978515625
1774470692342326000,10.103325927734375,-0.22682367265224457,0.3207310438156128,0.3273105025291443
1774470692352343000,10.113343017578124,-0.21850022673606873,0.4309140145778656,0.42304524779319763
1774470692362359000,10.123359130859376,-0.21418404579162598,0.48337215185165405,0.4129609167575836
1774470692372375000,10.133375,-0.18029813468456268,0.4007143974304199,0.3228611350059509
1774470692382391800,10.143391845703125,-0.13854004442691803,0.2187211662530899,0.2194252908229828
1774470692392407800,10.15340771484375,-0.10321033000946045,0.0541391484439373,0.13606320321559906
1774470692402424000,10.163424072265625,-0.10517361760139465,-0.03566264361143112,0.04384220764040947
1774470692412440000,10.173440185546875,-0.11647612601518631,-0.08591858297586441,-0.06276668608188629
1774470692422457000,10.18345703125,-0.11257459223270416,-0.15920080244541168,-0.20270727574825287
1774470692432472800,10.193472900390624,-0.07739732414484024,-0.33219125866889954,-0.31040525436401367
1774470692442488800,10.20348876953125,-0.0200986135751009,-0.4536713659763336,-0.335747092962265
1774470692452506000,10.213506103515625,-0.011733409948647022,-0.45400887727737427,-0.3649103343486786
1774470692462522000,10.223522216796875,-0.02606920525431633,-0.3878365159034729,-0.3330501616001129
1774470692472538000,10.2335380859375,-0.03356728330254555,-0.26949113607406616,-0.24198153614997864
1774470692482553900,10.243553955078125,-0.044926729053258896,-0.12580692768096924,-0.16329631209373474
1774470692492571100,10.253571044921875,-0.04784625023603439,-0.028377242386341095,-0.09747164696455002
1774470692502587100,10.263587158203125,-0.05849063768982887,0.03356308862566948,-0.008858422748744488
1774470692512603000,10.273602783203126,-0.09187645465135574,0.11001093685626984,0.08525733649730682
1774470692522620000,10.283619873046876,-0.1200588196516037,0.20060394704341888,0.15833447873592377
1774470692532636000,10.293635986328125,-0.12311693280935287,0.27719178795814514,0.24250978231430054
1774470692542652000,10.30365185546875,-0.12727518379688263,0.337157666683197,0.33339229226112366
1774470692552668000,10.31366796875,-0.1428745537996292,0.4317416548728943,0.35512444376945496
1774470692562684700,10.3236845703125,-0.17675289511680603,0.4925410747528076,0.30040499567985535
1774470692572701000,10.333700927734375,-0.16550634801387787,0.4112016260623932,0.24208977818489075
1774470692582717000,10.343717041015625,-0.16567599773406982,0.3116396367549896,0.21526774764060974
1774470692592734000,10.35373388671875,-0.1914377212524414,0.3053935170173645,0.22016564011573792
1774470692602750000,10.36375,-0.22098922729492188,0.39348289370536804,0.29491469264030457
1774470692612765700,10.373765625,-0.25066059827804565,0.5215909481048584,0.43003296852111816
1774470692622782000,10.383781982421874,-0.29711198806762695,0.6632940173149109,0.6100152730941772
1774470692632799000,10.393799072265624,-0.34038400650024414,0.8059763312339783,0.7251003384590149
1774470692642815000,10.40381494140625,-0.3326914608478546,0.8636550307273865,0.768276572227478
1774470692652830700,10.413830810546875,-0.3145483434200287,0.8482483625411987,0.8219287395477295
1774470692662847700,10.42384765625,-0.26821041107177734,0.8396596312522888,0.8953438401222229
1774470692672864000,10.433864013671876,-0.2661992013454437,0.8829710483551025,0.9437200427055359
1774470692682880000,10.4438798828125,-0.28761953115463257,0.9442932605743408,0.90754634141922
1774470692692896800,10.453896728515625,-0.2586992084980011,0.9186768531799316,0.8780041933059692
1774470692702912800,10.463912841796875,-0.220302015542984,0.8402898907661438,0.8554075360298157
1774470692712928800,10.4739287109375,-0.21497096121311188,0.7716848850250244,0.8190932273864746
1774470692722945000,10.483945068359375,-0.22545236349105835,0.7231940627098083,0.7413219809532166
1774470692732961800,10.4939619140625,-0.2110026329755783,0.6137348413467407,0.49824464321136475
1774470692742977800,10.503977783203124,-0.12209752202033997,0.3681431710720062,0.34129711985588074
1774470692752993800,10.513993896484376,-0.05548777058720589,0.16288425028324127,0.2650533616542816
1774470692763009800,10.524009765625,-0.057471826672554016,0.12574779987335205,0.226643905043602
1774470692773026800,10.53402685546875,-0.07186950743198395,0.1719590276479721,0.2083873152732849
1774470692783042800,10.544042724609374,-0.061308473348617554,0.16152262687683105,0.19841590523719788
1774470692793058800,10.554058837890626,-0.05221042409539223,0.10968584567308426,0.1595977544784546
1774470692803075800,10.564075927734375,-0.011872321367263794,-0.03542953357100487,0.09272206574678421
1774470692813092000,10.574092041015625,0.003959585912525654,-0.12505047023296356,0.023115888237953186
1774470692823107800,10.58410791015625,-0.0008756492752581835,-0.11859150230884552,0.01447553001344204
1774470692833124900,10.594124755859376,-0.007560079451650381,-0.043970320373773575,0.07142283022403717
1774470692843140900,10.604140869140625,-0.05860542133450508,0.08003018796443939,0.20553083717823029
1774470692853156900,10.614156982421875,-0.11738815158605576,0.2123240977525711,0.33844131231307983
1774470692863172900,10.6241728515625,-0.15628653764724731,0.3260115087032318,0.42022591829299927
1774470692873190000,10.63418994140625,-0.15325725078582764,0.379336416721344,0.42587509751319885
1774470692883206000,10.644205810546875,-0.12300560623407364,0.358225017786026,0.39795878529548645
1774470692893222000,10.654221923828125,-0.12552106380462646,0.26394835114479065,0.33879971504211426
1774470692903238700,10.66423876953125,-0.09355993568897247,0.23053580522537231,0.28784599900245667
1774470692913255000,10.6742548828125,-0.018794089555740356,0.20712436735630035,0.23944993317127228
1774470692923271000,10.68427099609375,0.11572244018316269,0.06759922206401825,0.14350663125514984
1774470692933287000,10.694286865234375,0.35822466015815735,-0.14055976271629333,-0.012365095317363739
1774470692943304000,10.704303955078124,0.5914323329925537,-0.2386985868215561,-0.13353705406188965
1774470692953319700,10.714319580078126,0.7146932482719421,-0.25271305441856384,-0.13251489400863647
1774470692963336000,10.7243359375,0.7310889959335327,-0.1716541349887848,-0.04359487444162369
1774470692973353000,10.73435302734375,0.6709376573562622,0.06181858852505684,0.08802741765975952
1774470692983369000,10.744368896484374,0.5924399495124817,0.30243757367134094,0.2610330283641815
1774470692993385000,10.754385009765626,0.5715470314025879,0.4608752429485321,0.43737977743148804
1774470693003400700,10.764400634765625,0.6323754787445068,0.5586209893226624,0.6035045385360718
1774470693013418000,10.77441796875,0.6288589239120483,0.5065556168556213,0.7566561102867126
1774470693023434000,10.78443408203125,0.7731934785842896,0.7523499131202698,0.8895158767700195
1774470693033450000,10.794449951171876,1.0924603939056396,0.996282160282135,1.0483406782150269
1774470693043466800,10.804466796875,1.3991284370422363,1.050248146057129,1.2365694046020508
1774470693053482800,10.814482666015625,1.5782246589660645,1.1069201231002808,1.4388490915298462
1774470693063499000,10.8244990234375,1.7006738185882568,1.208949089050293,1.5056859254837036
1774470693073515000,10.834514892578126,1.7664000988006592,1.3943294286727905,1.734060525894165
1774470693083531800,10.84453173828125,1.8720780611038208,1.6405346393585205,1.9845155477523804
1774470693093547800,10.8545478515625,2.0147576332092285,1.836479663848877,2.2123265266418457
1774470693103563800,10.864563720703124,2.1521975994110107,1.7881901264190674,2.3876118659973145
1774470693113581000,10.8745810546875,2.3317155838012695,1.659997820854187,2.547440528869629
1774470693123596800,10.8845966796875,2.4695260524749756,1.6014043092727661,2.6565141677856445
1774470693133612800,10.89461279296875,2.471324920654297,1.5434021949768066,2.631650686264038
1774470693143628800,10.90462890625,1.0369638204574585,1.0946919918060303,0.9705109000205994
1774470693153646000,10.91464599609375,-0.9579612612724304,-0.012769012711942196,-1.7936410903930664
1774470693163662000,10.924662109375,-0.9924872517585754,-1.0913947820663452,-2.7206008434295654
1774470693173677800,10.934677734375,0.17071421444416046,-2.8713583946228027,-2.9188859462738037
1774470693183694800,10.94469482421875,0.5527969002723694,-3.433121681213379,-2.2195451259613037
1774470693193710800,10.9547109375,0.18890637159347534,-2.638732433319092,-1.9962084293365479
1774470693203726800,10.964726806640625,0.01019122451543808,0.8560025095939636,-2.0120654106140137
1774470693213742800,10.974742919921875,0.224179208278656,0.8811721205711365,-1.5158756971359253
1774470693223760000,10.984759765625,0.3256954252719879,-0.07614478468894958,-1.268741488456726
1774470693233775900,10.99477587890625,0.4173087179660797,-0.3718542158603668,-1.5007075071334839
1774470693243792000,11.0047919921875,0.18149884045124054,-0.18881168961524963,-1.3738036155700684
1774470693253809000,11.014808837890625,0.11961289495229721,-0.3866094648838043,-0.9277825355529785
1774470693263825000,11.024824951171874,0.05735776945948601,-0.5509118437767029,-0.6153708100318909
1774470693273841000,11.0348408203125,0.027021974325180054,-0.6462876200675964,-0.6500465273857117
1774470693283857000,11.04485693359375,0.22491295635700226,-0.8634101152420044,-0.7356234788894653
1774470693293873700,11.054873779296875,0.4133474826812744,-0.6243487596511841,-0.715286374092102
1774470693303890000,11.064889892578124,0.40726375579833984,-0.32631757855415344,-0.6577392220497131
1774470693313906000,11.074906005859376,0.36587077379226685,-0.3019002676010132,-0.6758700013160706
1774470693323923000,11.0849228515625,0.260283887386322,-0.2748073935508728,-0.7277020215988159
1774470693333939000,11.09493896484375,0.14878104627132416,-0.314651221036911,-0.8705939650535583
1774470693343954700,11.10495458984375,0.03797625005245209,-0.35999128222465515,-1.061899185180664
1774470693353970700,11.114970703125,-0.10437990725040436,-0.34893858432769775,-1.176861047744751
1774470693363988000,11.124988037109375,-0.289024293422699,-0.4458520710468292,-1.0892547369003296
1774470693374004000,11.13500390625,-0.4864588677883148,-0.6715627908706665,-0.9201725721359253
1774470693384020000,11.14502001953125,-0.632719099521637,-0.8071334362030029,-0.8026986718177795
1774470693394036700,11.15503662109375,-0.6680391430854797,-0.7961013317108154,-0.6632376313209534
1774470693404053000,11.165052978515625,-0.5916077494621277,-0.8005864024162292,-0.5352360010147095
1774470693414069000,11.175069091796875,-0.5099783539772034,-0.7924597263336182,-0.5322943329811096
1774470693424085000,11.1850849609375,-0.38519009947776794,-0.6156761646270752,-0.5518341660499573
1774470693434101800,11.195101806640626,-0.35287874937057495,-0.5589359998703003,-0.6435352563858032
1774470693444117800,11.20511767578125,-0.4735977053642273,-0.4921119213104248,-0.7093345522880554
1774470693454134000,11.215134033203125,-0.5935304164886475,-0.4829011559486389,-0.6913892030715942
1774470693464150800,11.22515087890625,-0.6355340480804443,-0.42969197034835815,-0.6361650824546814
1774470693474166800,11.235166748046876,-0.6104634404182434,-0.34616097807884216,-0.594910204410553
1774470693484182800,11.245182861328125,-0.4699489176273346,-0.4095090627670288,-0.5870232582092285
1774470693494198800,11.25519873046875,-0.27951154112815857,-0.5082035660743713,-0.5558980107307434
1774470693504216000,11.265216064453124,-0.2173304706811905,-0.4658944606781006,-0.537848711013794
1774470693514232300,11.275232421875,-0.17513293027877808,-0.3536568880081177,-0.5260923504829407
1774470693524248300,11.285248291015625,-0.09683520346879959,-0.2622380256652832,-0.48720014095306396
1774470693534264300,11.295264404296875,0.02988807111978531,-0.3306598961353302,-0.4808366298675537
1774470693544281300,11.30528125,0.14807569980621338,-0.3874960243701935,-0.4976624846458435
1774470693554297000,11.315297119140626,0.1895572543144226,-0.40458962321281433,-0.5152102112770081
1774470693564313000,11.32531298828125,0.1255793273448944,-0.3552417755126953,-0.522017240524292
1774470693574330400,11.335330322265625,-0.04514505714178085,-0.23628820478916168,-0.5365844368934631
1774470693584346400,11.345346435546874,-0.22773377597332,-0.187439426779747,-0.565139651298523
1774470693594362400,11.3553623046875,-0.38151925802230835,-0.2051018327474594,-0.5920279026031494
1774470693604378000,11.365378173828125,-0.48993468284606934,-0.1954691857099533,-0.6379094123840332
1774470693614395400,11.3753955078125,-0.7159419655799866,-0.1115397959947586,-0.702950656414032
1774470693624411400,11.385411376953124,-0.8614746332168579,-0.1692718118429184,-0.7782121300697327
1774470693634427400,11.395427490234376,-0.9555610418319702,-0.37722113728523254,-0.9398214817047119
1774470693644444200,11.405444091796875,-1.0003100633621216,-0.5400094985961914,-1.1045634746551514
1774470693654460200,11.415460205078125,-1.0675437450408936,-0.48761701583862305,-1.2371453046798706
1774470693664476400,11.425476318359374,-1.221131682395935,-0.3696727752685547,-1.2962604761123657
1774470693674492400,11.435492431640625,-1.3901104927062988,-0.30875691771507263,-1.3348263502120972
1774470693684509200,11.44550927734375,-1.4349623918533325,-0.4903078079223633,-1.3323155641555786
1774470693694525200,11.455525146484375,-1.559744954109192,-0.7177510857582092,-1.3677791357040405
1774470693704541200,11.465541259765626,-1.7024592161178589,-0.8295282125473022,-1.4058047533035278
1774470693714558500,11.475558349609376,-1.7425799369812012,-1.0553511381149292,-1.291129469871521
1774470693724574200,11.48557421875,-1.731991171836853,-1.2286726236343384,-0.9952584505081177
1774470693734590200,11.495590087890625,-1.7047884464263916,-1.1754478216171265,-0.6955764293670654
1774470693744606200,11.505606201171876,-1.6955240964889526,-0.6536658406257629,-0.39177635312080383
1774470693754623200,11.515623291015626,-1.6925978660583496,-0.2022022306919098,-0.14671966433525085
1774470693764639500,11.525639404296875,-1.6372169256210327,0.18806378543376923,0.03256513923406601
1774470693774655200,11.5356552734375,-1.5752203464508057,0.5584031939506531,0.1841585487127304
1774470693784672300,11.54567236328125,-1.3565398454666138,0.7509002089500427,0.44820672273635864
1774470693794688300,11.555688232421875,-0.973385751247406,0.5537102222442627,0.7245305180549622
1774470693804704300,11.565704345703125,-0.6357703804969788,0.48728007078170776,0.9870071411132812
1774470693814720500,11.575720458984375,-0.44895124435424805,0.743841826915741,1.142075777053833
1774470693824737300,11.5857373046875,-0.384327232837677,1.0001401901245117,1.1813337802886963
1774470693834753300,11.595753173828125,-0.4424523115158081,1.2567367553710938,1.2250455617904663
1774470693844769300,11.605769287109375,-0.5710204243659973,1.7065664529800415,1.3979475498199463
1774470693854785300,11.615785400390624,-0.6676816344261169,2.625877857208252,1.895212173461914
1774470693864802300,11.62580224609375,-0.5983776450157166,3.8878161907196045,2.7542853355407715
1774470693874818300,11.635818359375,-0.2750371992588043,4.926015377044678,3.690279483795166
1774470693884834300,11.645834228515625,0.18825827538967133,5.016742706298828,4.259679317474365
1774470693894851300,11.655851318359375,0.5596886277198792,4.1829962730407715,4.311875343322754
1774470693904867300,11.665867431640624,0.5756393671035767,3.412350654602051,4.123935222625732
1774470693914883300,11.67588330078125,0.25342705845832825,3.1139235496520996,3.832641363143921
1774470693924899300,11.6858994140625,-0.23120515048503876,2.9971981048583984,3.300323486328125
1774470693934916400,11.695916259765625,-0.3795733153820038,2.5468733310699463,2.4987683296203613
1774470693944932000,11.70593212890625,-0.24243517220020294,1.853048324584961,1.6877071857452393
1774470693954948000,11.715947998046875,-0.10191533714532852,1.2994123697280884,0.9506517052650452
1774470693964965400,11.72596533203125,-0.15365071594715118,0.8617444038391113,0.5553973317146301
1774470693974981400,11.7359814453125,-0.4189011752605438,0.966095507144928,0.5254526138305664
1774470693984997400,11.745997314453126,-0.7300524115562439,1.4063200950622559,0.7181821465492249
1774470693995013000,11.75601318359375,-0.7635701894760132,1.713962197303772,0.9443210959434509
1774470694005030400,11.766030517578125,-0.4486050605773926,1.454992413520813,0.7445621490478516
1774470694015046400,11.77604638671875,0.05023498833179474,0.785211443901062,0.31057679653167725
1774470694025062400,11.7860625,0.38145020604133606,0.1995232254266739,0.046376291662454605
1774470694035078400,11.796078369140625,0.5051464438438416,-0.04762352257966995,-0.09707159548997879
1774470694045095200,11.80609521484375,0.47522446513175964,-0.21895559132099152,-0.1477547436952591
1774470694055111400,11.816111328125,0.37363746762275696,-0.3656626343727112,-0.11033422499895096
1774470694065127400,11.82612744140625,0.2906871736049652,-0.42664608359336853,-0.05190340429544449
1774470694075144200,11.836144287109375,0.20993734896183014,-0.5140644311904907,0.014118466526269913
1774470694085160200,11.84616015625,0.13361115753650665,-0.6462738513946533,-0.018309513106942177
1774470694095176200,11.85617626953125,0.13172365725040436,-0.6487976908683777,-0.13364379107952118
1774470694105192200,11.866192138671876,0.1806616485118866,-0.5707782506942749,-0.20022307336330414
1774470694115209200,11.876209228515625,0.22512003779411316,-0.583640456199646,-0.25841832160949707
1774470694125225200,11.88622509765625,0.18655426800251007,-0.575655996799469,-0.2646234929561615
1774470694135241200,11.8962412109375,0.09434567391872406,-0.42774254083633423,-0.2153264284133911
1774470694145258200,11.90625830078125,0.024028901010751724,-0.22888536751270294,-0.12680375576019287
1774470694155274500,11.9162744140625,0.018339000642299652,-0.12954649329185486,-0.07481874525547028
1774470694165290200,11.926290283203125,0.04599699378013611,-0.15104247629642487,-0.0985294058918953
1774470694175306200,11.93630615234375,0.1225171685218811,-0.21897496283054352,-0.18172265589237213
1774470694185323300,11.9463232421875,0.1802172213792801,-0.14182132482528687,-0.2828194499015808
1774470694195339300,11.95633935546875,0.1076270118355751,-0.3322702646255493,-0.48912185430526733
1774470694205355500,11.96635546875,0.06172609701752663,-0.546126127243042,-0.5841674208641052
1774470694215371300,11.976371337890624,-0.06657439470291138,-0.33555087447166443,-0.3847498595714569
1774470694225388300,11.98638818359375,-0.17861410975456238,-0.001763581414707005,-0.10037379711866379
1774470694235404300,11.996404296875,-0.1609811633825302,0.17929776012897491,0.09182322025299072
1774470694245420300,12.006420166015625,-0.05702894553542137,0.21791306138038635,0.17623531818389893
1774470694255437300,12.016437255859374,0.07801484316587448,0.22328241169452667,0.1799696385860443
1774470694265453300,12.026453369140626,0.1313031017780304,0.2937333881855011,0.1527545303106308
1774470694275469300,12.03646923828125,0.07420184463262558,0.3022494614124298,0.12547875940799713
1774470694285485300,12.0464853515625,-0.0003179300110787153,0.16112162172794342,0.04577382281422615
1774470694295502000,12.056502197265624,-0.05110153183341026,0.20161473751068115,0.07095935940742493
1774470694305518300,12.066518310546876,-0.09495101124048233,0.2878960967063904,0.15470831096172333
1774470694315534300,12.076534423828125,-0.03575853630900383,0.4120849072933197,0.1556098759174347
1774470694325550300,12.08655029296875,0.20490200817584991,0.36853930354118347,-0.039505813270807266
1774470694335567400,12.0965673828125,0.2929989993572235,-0.04767758399248123,-0.20069758594036102
1774470694345583000,12.1065830078125,0.1752215027809143,-0.17393644154071808,-0.2734338641166687
1774470694355599400,12.116599365234375,0.016047615557909012,-0.1446857750415802,-0.23259107768535614
1774470694365616400,12.126616455078125,-0.14752745628356934,-0.03598672151565552,-0.08355551213026047
1774470694375632400,12.13663232421875,-0.21510910987854004,-0.009203082881867886,0.09785836935043335
1774470694385648000,12.146648193359376,-0.2181517779827118,0.0274334903806448,0.1973375678062439
1774470694395664100,12.1566640625,-0.16165031492710114,0.10272035747766495,0.0981941744685173
1774470694405681400,12.166681396484375,-0.07151589542627335,-0.09088985621929169,-0.10794248431921005
1774470694415697400,12.176697509765624,-0.01299335528165102,-0.352830171585083,-0.2787090241909027
1774470694425713400,12.18671337890625,0.03927011787891388,-0.4708801209926605,-0.31744205951690674
1774470694435729200,12.196729248046875,0.05491628497838974,-0.6622421741485596,-0.4067176580429077
1774470694445746200,12.20674609375,-0.03492092713713646,-0.596462070941925,-0.1468021720647812
1774470694455762400,12.216762451171874,-0.0944666936993599,-0.36554646492004395,0.04341448098421097
1774470694465778400,12.2267783203125,-0.05041402205824852,-0.2605507969856262,0.05830927565693855
1774470694475794400,12.23679443359375,0.0587800070643425,-0.21090465784072876,-0.02374768815934658
1774470694485811200,12.246811279296875,0.20892716944217682,-0.23123709857463837,-0.1288999319076538
1774470694495827200,12.2568271484375,0.2537587583065033,-0.41776353120803833,-0.21196067333221436
1774470694505843500,12.266843505859375,0.2053198665380478,-0.49028462171554565,-0.2955322563648224
1774470694515859700,12.276859619140625,0.16403889656066895,-0.6009938716888428,-0.44182202219963074
1774470694525875500,12.28687548828125,0.18409408628940582,-0.9646874070167542,-0.7865636944770813
1774470694535891500,12.296891357421876,0.2278560996055603,-1.3656660318374634,-1.2001070976257324
1774470694545907500,12.306907470703125,0.31850501894950867,-1.8681403398513794,-1.4732009172439575
1774470694555924500,12.316924560546875,0.42440861463546753,-2.4961860179901123,-1.5236868858337402
1774470694565940700,12.326940673828124,0.3176683187484741,-1.8379981517791748,-0.7338039875030518
1774470694575956500,12.33695654296875,0.18603037297725677,-0.41262179613113403,0.20276188850402832
1774470694585972500,12.346972412109375,0.155061274766922,0.15992772579193115,0.5320478677749634
1774470694595989500,12.356989501953125,0.17569752037525177,0.39867615699768066,0.5553146600723267
1774470694606005500,12.367005615234374,0.1365938037633896,0.4861932098865509,0.4247787892818451
1774470694616021500,12.377021484375,-0.04607526957988739,0.3489941954612732,0.21096846461296082
1774470694626037500,12.38703759765625,-0.3095029294490814,0.16955307126045227,0.01895987056195736
1774470694636054500,12.397054443359375,-0.42691582441329956,-0.004352960269898176,-0.022509319707751274
1774470694646070500,12.407070556640624,-0.31633099913597107,-0.2969523072242737,-0.03360804170370102
1774470694656086500,12.41708642578125,-0.17857320606708527,-0.6057407259941101,-0.07240461558103561
1774470694666103600,12.427103515625,-0.1408817619085312,-0.6764447093009949,-0.0663059800863266
1774470694676119600,12.43711962890625,-0.08729006350040436,-0.5372326374053955,-0.0025559845380485058
1774470694686135600,12.447135498046874,0.00232477905228734,-0.4252229928970337,0.021997828036546707
1774470694696151600,12.457151611328126,0.043139226734638214,-0.343636691570282,-0.0831456109881401
1774470694706168300,12.467168212890625,0.17663097381591797,-0.5775676965713501,-0.3604413866996765
1774470694716184600,12.4771845703125,0.3588132858276367,-1.291037917137146,-0.5843431949615479
1774470694726200600,12.48720068359375,0.403700053691864,-1.5714349746704102,-0.9360248446464539
