time,seconds_elapsed,z,y,x
1773257623841805800,0.084805908203125,0.2897401750087738,-0.32623717188835144,-0.049820952117443085
1773257623851832800,0.094832763671875,0.25362104177474976,-0.2523821294307709,-0.0918877124786377
1773257623861858800,0.10485888671875,0.20527437329292297,-0.15203411877155304,-0.1568712741136551
1773257623871885800,0.1148857421875,0.1482108235359192,-0.07369589805603027,-0.22762800753116608
1773257623881912800,0.124912841796875,0.1019006073474884,-0.021943332627415657,-0.2875230312347412
1773257623891938600,0.1349384765625,0.06109245494008064,0.0479702390730381,-0.32176223397254944
1773257623901965800,0.1449658203125,0.025887073948979378,0.07386820763349533,-0.31816986203193665
1773257623911991800,0.15499169921875,0.011860470287501812,-0.0023104511201381683,-0.25888416171073914
1773257623922018800,0.165018798828125,0.018949152901768684,-0.09240636974573135,-0.17488840222358704
1773257623932045800,0.1750458984375,0.03727462887763977,-0.1176733747124672,-0.08661258965730667
1773257623942071600,0.185071533203125,0.04482793062925339,-0.07495073229074478,0.009630866348743439
1773257623952098800,0.195098876953125,0.04699547588825226,0.01225714385509491,0.1023581400513649
1773257623962124800,0.205124755859375,0.039084021002054214,0.08386731147766113,0.1847759485244751
1773257623972151800,0.21515185546875,0.01617817021906376,0.10709619522094727,0.24221819639205933
1773257623982178800,0.2251787109375,-0.02676343359053135,0.08949014544487,0.27143770456314087
1773257623992204800,0.235204833984375,-0.0704275593161583,0.08090677857398987,0.2633001506328583
1773257624002231800,0.245231689453125,-0.10856553912162781,0.06701844930648804,0.22947102785110474
1773257624012257800,0.2552578125,-0.12760820984840393,0.017167534679174423,0.18506015837192535
1773257624022284800,0.265284912109375,-0.13321453332901,-0.05282049998641014,0.13840703666210175
1773257624032311600,0.2753115234375,-0.1385515183210373,-0.08352700620889664,0.10124288499355316
1773257624042337800,0.285337890625,-0.12407869100570679,-0.06942051649093628,0.0844666138291359
1773257624052364800,0.29536474609375,-0.08742107450962067,-0.05090462416410446,0.0906805694103241
1773257624062390800,0.305390869140625,-0.038410887122154236,-0.005980291869491339,0.10426171869039536
1773257624072417800,0.315417724609375,0.00736432196572423,0.01721717230975628,0.1158110499382019
1773257624082444800,0.32544482421875,0.03041093796491623,0.011133819818496704,0.12227840721607208
1773257624092470800,0.335470703125,0.0316208153963089,-0.0011798376217484474,0.1131373718380928
1773257624102497800,0.345497802734375,0.022841593250632286,0.007755282800644636,0.09086799621582031
1773257624112524800,0.35552490234375,0.0024465725291520357,0.024012017995119095,0.06476156413555145
1773257624122550800,0.36555078125,-0.011742301285266876,0.03198391944169998,0.04516908526420593
1773257624132577800,0.375577880859375,-0.024008288979530334,0.025190729647874832,0.021770551800727844
1773257624142603800,0.385603759765625,-0.03182363510131836,0.016438517719507217,0.010759890079498291
1773257624152630800,0.395630859375,-0.02509249374270439,0.005158166866749525,0.0016164584085345268
1773257624162657800,0.40565771484375,-0.013604185543954372,-0.01221373863518238,0.00806191936135292
1773257624172683800,0.415683837890625,-0.0017009214498102665,-0.04373597726225853,0.03026948869228363
1773257624182710800,0.425710693359375,0.011557240039110184,-0.08051620423793793,0.06491396576166153
1773257624192736500,0.435736572265625,0.02862304076552391,-0.11737088859081268,0.10015930235385895
1773257624202763500,0.445763427734375,0.046938519924879074,-0.1494312435388565,0.13130448758602142
1773257624212790800,0.455790771484375,0.060291875153779984,-0.17100390791893005,0.1514582335948944
1773257624222816800,0.465816650390625,0.05421509966254234,-0.17996646463871002,0.16339227557182312
1773257624232843500,0.475843505859375,0.026611436158418655,-0.17505639791488647,0.16044975817203522
1773257624242869500,0.485869384765625,-0.020687632262706757,-0.157412588596344,0.16247758269309998
1773257624252896800,0.495896728515625,-0.0681571438908577,-0.13597120344638824,0.1639612317085266
1773257624262923800,0.505923828125,-0.11607064306735992,-0.10698669403791428,0.17251627147197723
1773257624272949800,0.51594970703125,-0.1522480845451355,-0.06847365945577621,0.17961253225803375
1773257624282976500,0.5259765625,-0.16760413348674774,-0.023979850113391876,0.1820579469203949
1773257624293002500,0.53600244140625,-0.16558785736560822,-0.009967628866434097,0.18940773606300354
1773257624303029800,0.54602978515625,-0.16237425804138184,-0.04345192387700081,0.20389781892299652
1773257624313056800,0.556056884765625,-0.15002411603927612,-0.05840637534856796,0.21597231924533844
1773257624323082800,0.566082763671875,-0.13674890995025635,-0.037897683680057526,0.2033768743276596
1773257624333109500,0.576109619140625,-0.12809070944786072,-0.025792820379137993,0.18367239832878113
1773257624343135500,0.586135498046875,-0.11728136241436005,-0.019377535209059715,0.15587273240089417
1773257624353162800,0.596162841796875,-0.105863057076931,-0.010572858154773712,0.1271124631166458
1773257624363189800,0.606189697265625,-0.08884971588850021,0.008195873349905014,0.09384196251630783
1773257624373215700,0.6162158203125,-0.07194290310144424,0.013946969993412495,0.06304383277893066
1773257624383242500,0.626242431640625,-0.05320943146944046,0.012274399399757385,0.03207090124487877
1773257624393269800,0.636269775390625,-0.045907046645879745,0.00869297981262207,-0.00026786327362060547
1773257624403295700,0.646295654296875,-0.05045218765735626,0.003665517782792449,-0.028035905212163925
1773257624413322800,0.65632275390625,-0.05994981899857521,-0.00820472277700901,-0.05370451882481575
1773257624423348700,0.6663486328125,-0.0772651880979538,-0.001603652723133564,-0.0754864364862442
1773257624433375500,0.67637548828125,-0.08912264555692673,0.006176505703479052,-0.09011970460414886
1773257624443402800,0.68640283203125,-0.09751646965742111,0.010062593966722488,-0.10118398815393448
1773257624453428700,0.6964287109375,-0.10766337811946869,-0.0028513409197330475,-0.10276350378990173
1773257624463455700,0.706455810546875,-0.12695156037807465,-0.02992168441414833,-0.08747190237045288
1773257624473481700,0.716481689453125,-0.141215980052948,-0.05302460864186287,-0.0670449286699295
1773257624483508500,0.726508544921875,-0.15641672909259796,-0.0723033919930458,-0.038482338190078735
1773257624493535700,0.73653564453125,-0.17313553392887115,-0.08524581789970398,-0.0013176617212593555
1773257624503561700,0.746561767578125,-0.18578246235847473,-0.09325473755598068,0.036950141191482544
1773257624513588700,0.756588623046875,-0.18976549804210663,-0.08356722444295883,0.07698970288038254
1773257624523614700,0.76661474609375,-0.18535155057907104,-0.0636504590511322,0.11092932522296906
1773257624533641500,0.776641357421875,-0.1718757003545761,-0.03517886623740196,0.13373875617980957
1773257624543668700,0.786668701171875,-0.148463636636734,-0.019223924726247787,0.14610370993614197
1773257624553694700,0.79669482421875,-0.12713676691055298,-0.04065544903278351,0.15186625719070435
1773257624563721700,0.8067216796875,-0.10725051909685135,-0.059938862919807434,0.14555859565734863
1773257624573747700,0.816747802734375,-0.09835183620452881,-0.05799742043018341,0.12302185595035553
1773257624583774500,0.8267744140625,-0.10207266360521317,-0.051733337342739105,0.0981760025024414
1773257624593801700,0.8368017578125,-0.10197599232196808,-0.0331367552280426,0.07839830219745636
1773257624603827700,0.84682763671875,-0.09145695716142654,-0.026665011420845985,0.07160633057355881
1773257624613854700,0.856854736328125,-0.0763738751411438,-0.04199336841702461,0.08083285391330719
1773257624623881500,0.866881591796875,-0.060505460947752,-0.05494873970746994,0.08931688964366913
1773257624633907500,0.876907470703125,-0.04692786559462547,-0.04730866104364395,0.08853312581777573
1773257624643934700,0.886934814453125,-0.035740308463573456,-0.028839217498898506,0.07645350694656372
1773257624653960700,0.896960693359375,-0.02589567005634308,-0.03203527256846428,0.054873645305633545
1773257624663987700,0.90698779296875,-0.017055945470929146,-0.04663626849651337,0.0363631434738636
1773257624674014500,0.917014404296875,-0.015384279191493988,-0.045786187052726746,0.03254816681146622
1773257624684040700,0.927040771484375,-0.03131147474050522,-0.03096761368215084,0.05213431641459465
1773257624694067700,0.937067626953125,-0.0729832872748375,-0.02428680844604969,0.09200982749462128
1773257624704093700,0.94709375,-0.1390681117773056,-0.06163327023386955,0.15470032393932343
1773257624714120700,0.95712060546875,-0.20804691314697266,-0.187503844499588,0.2225603312253952
1773257624724147500,0.9671474609375,-0.2528109848499298,-0.3897460997104645,0.2618306875228882
1773257624734173700,0.977173583984375,-0.26671135425567627,-0.5931863188743591,0.2646017074584961
1773257624744200700,0.98720068359375,-0.2514974772930145,-0.7035323977470398,0.23436836898326874
1773257624754226700,0.997226806640625,-0.21288910508155823,-0.6951948404312134,0.20111854374408722
1773257624764253700,1.007253662109375,-0.14232607185840607,-0.5995743870735168,0.17504329979419708
1773257624774280700,1.01728076171875,-0.048260293900966644,-0.4435672163963318,0.17006371915340424
1773257624784306700,1.027306640625,0.025148071348667145,-0.27391210198402405,0.18369953334331512
1773257624794333700,1.037333740234375,0.08371338248252869,-0.18752767145633698,0.19699962437152863
1773257624804360700,1.047360595703125,0.11676917970180511,-0.15712949633598328,0.18035249412059784
1773257624814386700,1.05738671875,0.11930476874113083,-0.17221230268478394,0.13479939103126526
1773257624824413700,1.06741357421875,0.0901530534029007,-0.2535668611526489,0.06366132199764252
1773257624834439700,1.077439697265625,0.02747928723692894,-0.37670159339904785,-0.022753998637199402
1773257624844466700,1.087466796875,-0.019542284309864044,-0.4780449867248535,-0.11690126359462738
1773257624854493700,1.09749365234375,-0.04910470172762871,-0.5491348505020142,-0.20593713223934174
1773257624864519700,1.107519775390625,-0.029095493257045746,-0.5309282541275024,-0.3021746873855591
1773257624874546700,1.117546630859375,0.015017637982964516,-0.40656131505966187,-0.3854597210884094
1773257624884572700,1.12757275390625,0.03553790599107742,-0.31221094727516174,-0.44029122591018677
1773257624894599700,1.137599609375,0.012000888586044312,-0.21623168885707855,-0.46900784969329834
1773257624904626700,1.147626708984375,-0.044003188610076904,-0.13301046192646027,-0.48400115966796875
1773257624914652700,1.157652587890625,-0.09824778884649277,-0.07695785164833069,-0.5001135468482971
1773257624924679700,1.1676796875,-0.14660005271434784,-0.020222079008817673,-0.5183094143867493
1773257624934705700,1.17770556640625,-0.17144522070884705,-0.04744890332221985,-0.5130115747451782
1773257624944732700,1.187732666015625,-0.17585991322994232,-0.2467491328716278,-0.4785088002681732
1773257624954759700,1.197759765625,-0.1558593064546585,-0.524718165397644,-0.43938830494880676
1773257624964785700,1.20778564453125,-0.12214158475399017,-0.7627238035202026,-0.3909774422645569
1773257624974812700,1.217812744140625,-0.06973136961460114,-0.9140134453773499,-0.34140029549598694
1773257624984839700,1.227839599609375,0.005892389453947544,-1.015998363494873,-0.2850424647331238
1773257624994865700,1.23786572265625,0.10946059226989746,-1.1109226942062378,-0.22042058408260345
1773257625004892700,1.247892578125,0.21912360191345215,-1.093811273574829,-0.15047146379947662
1773257625014918700,1.257918701171875,0.31252703070640564,-0.9548752307891846,-0.06361272931098938
1773257625024945700,1.267945556640625,0.3566555678844452,-0.7225122451782227,0.02765556052327156
1773257625034972700,1.27797265625,0.3067854642868042,-0.48953837156295776,0.05750826746225357
1773257625044998700,1.28799853515625,0.1927480250597,-0.48024699091911316,-0.0749208927154541
1773257625055025700,1.298025634765625,0.006822908762842417,-0.7410799264907837,-0.36608561873435974
1773257625065051600,1.3080517578125,-0.16587267816066742,-1.027194619178772,-0.5709176659584045
1773257625075078700,1.31807861328125,-0.2715841829776764,-1.277040958404541,-0.7092280983924866
1773257625085105700,1.328105712890625,-0.2597912549972534,-1.4144785404205322,-0.8245126605033875
1773257625095131600,1.338131591796875,-0.18568159639835358,-1.389085292816162,-0.8796478509902954
1773257625105158700,1.34815869140625,-0.10831673443317413,-1.2231016159057617,-0.8296012878417969
1773257625115185000,1.358184814453125,-0.011216286569833755,-0.9402672648429871,-0.6993202567100525
1773257625125211600,1.368211669921875,0.074447862803936,-0.6180657744407654,-0.505094587802887
1773257625135238700,1.37823876953125,-0.0491076223552227,-0.15204642713069916,-0.21579542756080627
1773257625145264600,1.3882646484375,-0.13275893032550812,0.03357095271348953,0.045633744448423386
1773257625155291600,1.398291748046875,-0.1876315027475357,0.09963332116603851,0.32927531003952026
1773257625165318700,1.408318603515625,-0.21770323812961578,0.12707683444023132,0.6052833795547485
1773257625175344600,1.4183447265625,-0.08419816941022873,0.0698942318558693,0.8131217956542969
1773257625185371600,1.42837158203125,0.026750460267066956,0.028316108509898186,1.0325604677200317
1773257625195397600,1.438397705078125,0.27488625049591064,-0.2990873456001282,1.1982280015945435
1773257625205425000,1.4484248046875,0.3537352681159973,-0.49352407455444336,1.338524341583252
1773257625215451600,1.45845166015625,0.2982264459133148,-0.2148628830909729,1.0121042728424072
1773257625225477600,1.4684775390625,0.1573343575000763,0.41069766879081726,0.4574776291847229
1773257625235504600,1.478504638671875,0.1606830209493637,0.6553654670715332,-0.0332137867808342
1773257625245530600,1.488530517578125,0.21155250072479248,0.9099506735801697,-0.44588807225227356
1773257625255558000,1.498557861328125,0.2902699410915375,0.9515860080718994,-0.8256668448448181
1773257625265584600,1.508584716796875,0.43914568424224854,0.9035435318946838,-0.8624628186225891
1773257625275610600,1.518610595703125,0.6143041849136353,1.1619542837142944,-0.799717903137207
1773257625285637600,1.5286376953125,0.6369429230690002,1.6935114860534668,-0.5916394591331482
1773257625295665000,1.538664794921875,0.5753315091133118,2.3289241790771484,-0.29998284578323364
1773257625305691000,1.54869091796875,0.5755838751792908,2.888007164001465,0.018286176025867462
1773257625315717600,1.558717529296875,0.6969979405403137,3.297588586807251,0.32605570554733276
1773257625325743600,1.56874365234375,0.9627370238304138,3.389714241027832,0.4894505441188812
1773257625335770600,1.5787705078125,1.246564269065857,3.127413511276245,0.48673173785209656
1773257625345798000,1.5887978515625,1.3565938472747803,2.5352535247802734,0.30065178871154785
1773257625355823900,1.598823974609375,1.1551930904388428,1.839750051498413,-0.02393452078104019
1773257625365850600,1.6088505859375,0.7761498689651489,1.2790471315383911,-0.4079298675060272
1773257625375876600,1.618876708984375,0.2195931375026703,1.2482085227966309,-0.638870120048523
1773257625385903600,1.628903564453125,-0.19813375174999237,1.430762529373169,-0.7835505604743958
1773257625395931000,1.638930908203125,-0.3261183500289917,1.62092924118042,-0.7525169849395752
1773257625405956900,1.648956787109375,-0.26633527874946594,1.840329647064209,-0.5005295872688293
1773257625415983600,1.658983642578125,-0.11555296927690506,2.058351516723633,-0.10863295197486877
1773257625426010600,1.6690107421875,0.06935026496648788,2.2195687294006348,0.29373854398727417
1773257625436036600,1.67903662109375,0.26356077194213867,2.2106425762176514,0.551740825176239
1773257625446063900,1.68906396484375,0.3661302626132965,2.033743381500244,0.6513379216194153
1773257625456089900,1.69908984375,0.2442600280046463,1.8043022155761719,0.6559348106384277
1773257625466116600,1.70911669921875,-0.1004452332854271,1.5734522342681885,0.5894738435745239
1773257625476143600,1.7191435546875,-0.44154050946235657,0.06980571150779724,0.5399896502494812
1773257625486169600,1.729169677734375,-0.7761865854263306,-0.941784143447876,0.605044424533844
1773257625496196900,1.73919677734375,-0.8536752462387085,-1.994009256362915,0.5867940783500671
1773257625506222800,1.749222900390625,-0.6587533354759216,-2.8980534076690674,0.4389536380767822
1773257625516249600,1.75924951171875,-0.26871952414512634,-3.2512426376342773,0.07704204320907593
1773257625526276600,1.769276611328125,-0.26375213265419006,-0.6686174869537354,-0.8108868598937988
1773257625536302600,1.779302490234375,-0.6275399327278137,0.4744347035884857,-1.067179560661316
1773257625546329900,1.789329833984375,-0.8659558892250061,-0.08738545328378677,-1.1381285190582275
1773257625556356600,1.799356689453125,-1.0196728706359863,-0.2354002147912979,-1.12906014919281
1773257625566382600,1.809382568359375,-1.0331511497497559,-0.08242915570735931,-1.054555892944336
1773257625576409600,1.81940966796875,-0.8784385919570923,-0.10777898877859116,-0.9545779824256897
1773257625586435600,1.829435546875,-0.5955590009689331,0.00025038886815309525,-0.8259302377700806
1773257625596462800,1.839462890625,-0.3206549882888794,0.23820222914218903,-0.6740642786026001
1773257625606489600,1.849489501953125,-0.18123343586921692,0.3643346428871155,-0.5006181001663208
1773257625616515600,1.859515625,-0.18081265687942505,0.29328203201293945,-0.3161449432373047
1773257625626542600,1.86954248046875,-0.24017958343029022,0.07718069851398468,-0.15360789000988007
1773257625636568800,1.87956884765625,-0.27358442544937134,-0.07836974412202835,-0.04899465665221214
1773257625646595800,1.889595947265625,-0.23049743473529816,-0.13620434701442719,-0.02316344901919365
1773257625656622600,1.89962255859375,-0.11125893145799637,-0.14993879199028015,-0.05594749376177788
1773257625666648600,1.909648681640625,0.025133725255727768,-0.09819245338439941,-0.11144974082708359
1773257625676675600,1.919675537109375,0.10265834629535675,-0.10163406282663345,-0.1641361117362976
1773257625686701800,1.929701904296875,0.09818320721387863,-0.13071130216121674,-0.1816549003124237
1773257625696728800,1.939728759765625,0.019075071439146996,-0.1530160754919052,-0.1680530607700348
1773257625706755600,1.949755615234375,-0.1054777055978775,-0.1642855703830719,-0.12982143461704254
1773257625716781600,1.959781494140625,-0.2370666265487671,-0.16772903501987457,-0.08426300436258316
1773257625726808800,1.969808837890625,-0.28040531277656555,-0.19541168212890625,-0.06322472542524338
1773257625736835800,1.9798359375,-0.21623936295509338,-0.1454092413187027,-0.06430143862962723
1773257625746861800,1.98986181640625,-0.09803105145692825,-0.006506206467747688,-0.09909232705831528
1773257625756888600,1.999888671875,-0.023538708686828613,0.2518515884876251,-0.12049242854118347
1773257625766914600,2.00991455078125,-0.0038124723359942436,0.5768797397613525,-0.1105150505900383
1773257625776941800,2.01994189453125,-0.0098946001380682,0.7443051934242249,-0.06588606536388397
1773257625786968800,2.02996875,-0.0879373624920845,0.9394726157188416,0.04313471540808678
1773257625796994600,2.03999462890625,-0.36330607533454895,0.9627848863601685,0.18660905957221985
1773257625807021600,2.050021484375,-0.5045886635780334,0.8032032251358032,0.313079833984375
1773257625817047600,2.060047607421875,-0.3815583288669586,0.7137313485145569,0.3854147493839264
1773257625827074800,2.07007470703125,-0.19104114174842834,0.7527559399604797,0.4263596832752228
1773257625837101800,2.080101806640625,-0.05652434751391411,0.8565739393234253,0.4491661787033081
1773257625847127600,2.09012744140625,0.06277978420257568,0.9921589493751526,0.4479352831840515
1773257625857154600,2.100154541015625,0.13465876877307892,1.1611146926879883,0.3972342908382416
1773257625867181800,2.110181884765625,0.12511388957500458,1.4135448932647705,0.2835674285888672
1773257625877207800,2.120207763671875,0.04277773201465607,1.4817463159561157,0.09197615832090378
1773257625887234600,2.130234619140625,-0.05350588634610176,1.1784312725067139,-0.18734680116176605
1773257625897260500,2.140260498046875,-0.09950027614831924,0.9188953638076782,-0.4677145481109619
1773257625907287600,2.15028759765625,-0.07612339407205582,0.6299528479576111,-0.7575426697731018
1773257625917314800,2.160314697265625,0.015902668237686157,0.3268824517726898,-1.0373420715332031
1773257625927340800,2.1703408203125,0.12461885064840317,0.160780668258667,-1.279420256614685
1773257625937367600,2.180367431640625,0.19658999145030975,0.14977143704891205,-1.477724313735962
1773257625947394600,2.19039453125,0.24383501708507538,0.3063594698905945,-1.61689031124115
1773257625957420500,2.200420654296875,0.2674916088581085,0.5319600701332092,-1.7146248817443848
1773257625967447800,2.21044775390625,0.29139548540115356,0.5472785234451294,-1.705763339996338
1773257625977473800,2.220473876953125,0.28860771656036377,0.44721347093582153,-1.5461288690567017
1773257625987500500,2.23050048828125,0.27161845564842224,0.22755038738250732,-1.2559810876846313
1773257625997527600,2.240527587890625,0.29379698634147644,-0.027275778353214264,-0.8905379772186279
1773257626007553500,2.250553466796875,0.37734705209732056,-0.18891005218029022,-0.49650171399116516
1773257626017580800,2.260580810546875,0.49908414483070374,-0.2784878611564636,-0.11900398880243301
1773257626027606800,2.270606689453125,0.6240396499633789,-0.3144700527191162,0.1939535290002823
1773257626037633500,2.280633544921875,0.7257380485534668,-0.3502946197986603,0.41254502534866333
1773257626047660500,2.29066064453125,0.7918107509613037,-0.3632104992866516,0.48090869188308716
1773257626057686500,2.3006865234375,0.8243085145950317,-0.27282652258872986,0.4729817807674408
1773257626067713800,2.3107138671875,0.8075718283653259,-0.24567089974880219,0.4124029278755188
1773257626077739800,2.32073974609375,0.7428708672523499,-0.2722708284854889,0.35137471556663513
1773257626087766500,2.3307666015625,0.6608656048774719,-0.3395288586616516,0.2971389889717102
1773257626097793500,2.34079345703125,0.5864264965057373,-0.4295242726802826,0.2598419487476349
1773257626107819500,2.350819580078125,0.5428013205528259,-0.4733879268169403,0.2328638881444931
1773257626117846800,2.3608466796875,0.5305553078651428,-0.46099409461021423,0.1814560890197754
1773257626127873500,2.37087353515625,0.5347052216529846,-0.4090960919857025,0.11508985608816147
1773257626137899500,2.3808994140625,0.5389202237129211,-0.42645084857940674,0.0374738946557045
1773257626147926500,2.390926513671875,0.5332521200180054,-0.4899788498878479,-0.028791533783078194
1773257626157952800,2.400952880859375,0.502117931842804,-0.5187807083129883,-0.08509448915719986
1773257626167979800,2.410979736328125,0.4636920392513275,-0.5081032514572144,-0.11951828002929688
1773257626178006500,2.421006591796875,0.4063935875892639,-0.461532324552536,-0.10550925135612488
1773257626188032500,2.431032470703125,0.3377033472061157,-0.39036446809768677,-0.05219899117946625
1773257626198059300,2.441059326171875,0.2673620581626892,-0.3172058165073395,0.035913288593292236
1773257626208085500,2.45108544921875,0.24722567200660706,-0.3067954480648041,0.13629010319709778
1773257626218112500,2.461112548828125,0.27579501271247864,-0.35828500986099243,0.22275549173355103
1773257626228139500,2.471139404296875,0.30278298258781433,-0.344294011592865,0.28368160128593445
1773257626238165500,2.48116552734375,0.2920970618724823,-0.2692541182041168,0.29619526863098145
1773257626248192300,2.491192138671875,0.21748735010623932,-0.1601005643606186,0.2744503319263458
1773257626258219500,2.501219482421875,0.10541433840990067,-0.05106595531105995,0.23094972968101501
1773257626268245500,2.51124560546875,-0.010243594646453857,0.09719850867986679,0.19211718440055847
1773257626278272500,2.5212724609375,-0.08867209404706955,0.32895904779434204,0.16799534857273102
1773257626288298500,2.531298583984375,-0.12084782868623734,0.5711880326271057,0.17137640714645386
1773257626298325500,2.541325439453125,-0.12916462123394012,0.7278333306312561,0.19962696731090546
1773257626308352500,2.5513525390625,-0.0974271222949028,0.6979293823242188,0.24130818247795105
1773257626318378500,2.56137841796875,-0.034252945333719254,0.5193210244178772,0.29382041096687317
1773257626328405500,2.571405517578125,0.010528182610869408,0.3296355903148651,0.3528549075126648
1773257626338432300,2.581432373046875,0.031133592128753662,0.22241619229316711,0.4018528163433075
1773257626348458500,2.59145849609375,0.035749997943639755,0.27194157242774963,0.4147452116012573
1773257626358485500,2.601485595703125,0.028883302584290504,0.3488885462284088,0.4005625545978546
1773257626368511500,2.611511474609375,0.007883824408054352,0.3678258955478668,0.37833237648010254
1773257626378538500,2.62153857421875,-0.029994314536452293,0.3138108551502228,0.3448910713195801
1773257626388565200,2.631565185546875,-0.08564648032188416,0.21435432136058807,0.3107353448867798
1773257626398591500,2.641591552734375,-0.16320198774337769,0.10718392580747604,0.29682326316833496
1773257626408618500,2.651618408203125,-0.2527287006378174,0.016056835651397705,0.296468049287796
1773257626418644500,2.66164453125,-0.32394614815711975,-0.050541363656520844,0.29456841945648193
1773257626428671500,2.67167138671875,-0.3356543183326721,-0.07942873239517212,0.2572042644023895
1773257626438698500,2.681698486328125,-0.317015677690506,-0.05307062342762947,0.15790565311908722
1773257626448724500,2.691724365234375,-0.34203457832336426,-0.006879692431539297,-0.020363647490739822
1773257626458751500,2.70175146484375,-0.43263372778892517,-0.03252619877457619,-0.22800739109516144
1773257626468778500,2.711778564453125,-0.558795690536499,-0.1503286212682724,-0.42470452189445496
1773257626478804200,2.72180419921875,-0.6768949031829834,-0.31924358010292053,-0.5790605545043945
1773257626488831500,2.73183154296875,-0.7041280269622803,-0.41322997212409973,-0.6820358037948608
1773257626498857500,2.741857421875,-0.6281453967094421,-0.42253851890563965,-0.6936629414558411
1773257626508884500,2.751884521484375,-0.5383623242378235,-0.3583659529685974,-0.5916532874107361
1773257626518911500,2.761911376953125,-0.4753895103931427,-0.2509276568889618,-0.38181057572364807
1773257626528937200,2.771937255859375,-0.44565898180007935,-0.1641709804534912,-0.09656035900115967
1773257626538964500,2.781964599609375,-0.4291013181209564,-0.1908622533082962,0.2041368931531906
1773257626548991500,2.791991455078125,-0.4323982894420624,-0.3009398579597473,0.483906090259552
1773257626559017500,2.802017578125,-0.489361435174942,-0.38106054067611694,0.719488263130188
1773257626569044200,2.812044189453125,-0.5778776407241821,-0.463828444480896,0.8893738985061646
1773257626579070200,2.8220703125,-0.6522186994552612,-0.5303089022636414,0.9743668437004089
1773257626589097500,2.832097412109375,-0.6727361679077148,-0.5840367674827576,0.9900155663490295
1773257626599124500,2.84212451171875,-0.6511469483375549,-0.6895679831504822,0.9823957085609436
1773257626609150500,2.852150390625,-0.6172509789466858,-0.8201794624328613,0.9712385535240173
1773257626619177200,2.86217724609375,-0.6035556793212891,-0.9355236291885376,0.9587342143058777
1773257626629204500,2.87220458984375,-0.6140479445457458,-0.9725636839866638,0.9331304430961609
1773257626639230500,2.88223046875,-0.6160445213317871,-0.925766110420227,0.8855509161949158
1773257626649257500,2.892257568359375,-0.5742131471633911,-0.8870255351066589,0.7982969284057617
1773257626659283500,2.902283447265625,-0.5018612146377563,-0.894785463809967,0.6755678057670593
1773257626669310200,2.912310302734375,-0.4269188642501831,-0.9360553026199341,0.5298237204551697
1773257626679337500,2.92233740234375,-0.37615102529525757,-0.9920799732208252,0.3815285265445709
1773257626689363500,2.932363525390625,-0.3625234067440033,-1.0212925672531128,0.23993521928787231
1773257626699390500,2.942390380859375,-0.35376614332199097,-1.0017340183258057,0.12276225537061691
1773257626709416400,2.95241650390625,-0.32836446166038513,-0.9498231410980225,0.05947478115558624
1773257626719443200,2.962443115234375,-0.27441415190696716,-0.8544798493385315,0.06027638912200928
1773257626729470500,2.972470458984375,-0.20154161751270294,-0.6990073919296265,0.12014442682266235
1773257626739496400,2.982496337890625,-0.1359146684408188,-0.4892922341823578,0.23655039072036743
1773257626749523500,2.9925234375,-0.1211962178349495,-0.2796684503555298,0.4030839204788208
1773257626759550200,3.00255029296875,-0.1523200422525406,-0.06008656322956085,0.5942927598953247
1773257626769576200,3.012576171875,-0.20454467833042145,0.11202364414930344,0.7707326412200928
1773257626779603500,3.022603515625,-0.2661137580871582,0.234004944562912,0.8818162679672241
1773257626789629400,3.03262939453125,-0.35334712266921997,0.25962400436401367,0.89874267578125
1773257626799656400,3.042656494140625,-0.45677313208580017,0.19567298889160156,0.7958346605300903
1773257626809683200,3.05268310546875,-0.5470470786094666,0.15542806684970856,0.5863469243049622
1773257626819709200,3.062709228515625,-0.6070366501808167,0.1693558692932129,0.30479538440704346
1773257626829736400,3.072736328125,-0.625240683555603,0.2594034969806671,0.002591651864349842
1773257626839763500,3.082763427734375,-0.6272447109222412,0.356586754322052,-0.23894639313220978
1773257626849789400,3.09278955078125,-0.6295910477638245,0.4940858781337738,-0.37793105840682983
1773257626859816200,3.102816162109375,-0.6053991913795471,0.7454696297645569,-0.4573896527290344
1773257626869842400,3.112842529296875,-0.5064495801925659,0.9454122185707092,-0.5292505025863647
1773257626879869400,3.122869384765625,-0.32508185505867004,0.8834996223449707,-0.5987129807472229
1773257626889896400,3.132896484375,-0.1442013382911682,0.5983307361602783,-0.6385003924369812
1773257626899922400,3.14292236328125,-0.024211805313825607,0.21859535574913025,-0.6646068096160889
1773257626909949200,3.15294921875,-0.011220704764127731,-0.0773545503616333,-0.6575857996940613
1773257626919975400,3.162975341796875,-0.12539468705654144,-0.21696464717388153,-0.6106702089309692
1773257626930002400,3.17300244140625,-0.3055872321128845,-0.21925251185894012,-0.5221126079559326
1773257626940029400,3.183029541015625,-0.48423635959625244,-0.1506958305835724,-0.3894188106060028
1773257626950055400,3.193055419921875,-0.6073499321937561,-0.021125895902514458,-0.23195716738700867
1773257626960082400,3.20308251953125,-0.6467646956443787,0.14625005424022675,-0.050640642642974854
1773257626970109400,3.213109375,-0.6062920689582825,0.3296006917953491,0.1425238996744156
1773257626980135400,3.223135498046875,-0.5288563966751099,0.5162102580070496,0.3261440694332123
1773257626990162400,3.233162353515625,-0.4213177561759949,0.67066490650177,0.48239248991012573
1773257627000188400,3.2431884765625,-0.2748534679412842,0.7653434872627258,0.5929107666015625
1773257627010215400,3.25321533203125,-0.08219027519226074,0.7862265706062317,0.6759285926818848
1773257627020242400,3.263242431640625,0.10321047902107239,0.7689878940582275,0.7176568508148193
1773257627030268400,3.273268310546875,0.22005541622638702,0.692448616027832,0.7286753058433533
1773257627040295400,3.28329541015625,0.234086275100708,0.6647623777389526,0.7158313989639282
1773257627050322400,3.293322509765625,0.21541814506053925,0.5801616311073303,0.6707824468612671
1773257627060348400,3.303348388671875,0.1979707032442093,0.36344340443611145,0.5764399766921997
1773257627070375400,3.31337548828125,0.10997392982244492,0.15396709740161896,0.42448189854621887
1773257627080401400,3.3234013671875,-0.03460802137851715,-0.00279376283288002,0.2436431497335434
1773257627090428400,3.333428466796875,-0.11344755440950394,-0.2842157483100891,0.07628785073757172
1773257627100455400,3.343455322265625,-0.11267949640750885,-0.6103342175483704,-0.07215967774391174
1773257627110481400,3.3534814453125,-0.06878288090229034,-0.8600993156433105,-0.18679651618003845
1773257627120508400,3.36350830078125,-0.012700170278549194,-1.0528945922851562,-0.24216575920581818
1773257627130535400,3.373535400390625,0.010542567819356918,-1.195775032043457,-0.24182087182998657
1773257627140561400,3.3835615234375,-0.026737693697214127,-1.2542684078216553,-0.19802652299404144
1773257627150588400,3.39358837890625,-0.07948600500822067,-1.1878491640090942,-0.12346258014440536
1773257627160614400,3.403614501953125,-0.08939456194639206,-1.0994423627853394,-0.017994478344917297
1773257627170641400,3.413641357421875,-0.014666120521724224,-1.0173922777175903,0.11424151808023453
1773257627180668400,3.42366845703125,0.13901691138744354,-0.926241397857666,0.2531410753726959
1773257627190698000,3.433697998046875,0.3236848711967468,-0.865581214427948,0.38544952869415283
1773257627200724700,3.443724853515625,0.45520561933517456,-0.8622448444366455,0.4914691746234894
1773257627210752000,3.453751953125,0.43776196241378784,-0.9057684540748596,0.5557791590690613
1773257627220778000,3.463778076171875,0.2747115194797516,-0.9994416832923889,0.5782250761985779
1773257627230805000,3.473804931640625,0.017352577298879623,-1.2091619968414307,0.5471107959747314
1773257627240831000,3.4838310546875,-0.30376845598220825,-1.5008273124694824,0.43757206201553345
1773257627250857700,3.493857666015625,-0.6613130569458008,-1.7564001083374023,0.2505466341972351
1773257627260885000,3.503885009765625,-0.9792364239692688,-1.9720340967178345,0.010791029781103134
1773257627270911000,3.513910888671875,-1.216424584388733,-2.1352810859680176,-0.25982823967933655
1773257627280938000,3.52393798828125,-1.37421715259552,-2.1911847591400146,-0.5360382795333862
1773257627290964700,3.53396484375,-1.4542036056518555,-2.0809614658355713,-0.7874232530593872
1773257627300990700,3.54399072265625,-1.4557256698608398,-1.8183602094650269,-0.9897973537445068
1773257627311018000,3.55401806640625,-1.3518422842025757,-1.4690135717391968,-1.1141494512557983
1773257627321044000,3.5640439453125,-1.1366921663284302,-1.2562382221221924,-1.1009572744369507
1773257627331071000,3.574071044921875,-0.8781603574752808,-1.4693231582641602,-0.928478479385376
1773257627341097700,3.58409765625,-0.7294853925704956,-2.5075266361236572,-1.1350812911987305
1773257627351123700,3.594123779296875,-0.7454960346221924,-3.409237861633301,-1.6954628229141235
1773257627361151000,3.60415087890625,-0.8294103741645813,-4.150766372680664,-2.4655187129974365
1773257627371178000,3.614177978515625,-1.2302206754684448,-4.119864463806152,-2.953899383544922
1773257627381204000,3.624203857421875,-2.0496912002563477,-3.5131936073303223,-2.8610403537750244
1773257627391230700,3.634230712890625,-2.840064287185669,-3.52912974357605,-2.482595682144165
1773257627401257000,3.644257080078125,-3.2447903156280518,-3.679016590118408,-1.9712358713150024
1773257627411284000,3.654283935546875,-3.18943190574646,-3.458714723587036,-1.356379508972168
1773257627421311000,3.66431103515625,-2.780158758163452,-3.0761024951934814,-0.6623178720474243
1773257627431337000,3.6743369140625,-2.029524803161621,-2.4303810596466064,0.10618013888597488
1773257627441363700,3.68436376953125,-1.1160212755203247,-1.4733123779296875,0.8864767551422119
1773257627451391000,3.694390869140625,-0.295168399810791,-0.1587197631597519,1.5840522050857544
1773257627461417000,3.7044169921875,0.38747701048851013,1.251537799835205,2.1541318893432617
1773257627471444000,3.71444384765625,0.7907983064651489,2.453859806060791,2.5546188354492188
1773257627481470000,3.724469970703125,0.8261445760726929,3.0709123611450195,2.8484578132629395
1773257627491496700,3.73449658203125,0.5134838819503784,2.793928861618042,3.1082992553710938
1773257627501524000,3.74452392578125,-0.03541009873151779,1.7185542583465576,3.304680109024048
1773257627511550000,3.754550048828125,-0.6476117372512817,0.6650763750076294,3.316225051879883
1773257627521577000,3.764576904296875,-1.0791337490081787,0.37341737747192383,3.048539876937866
1773257627531603000,3.77460302734375,-1.10040283203125,0.51438969373703,2.585806369781494
1773257627541630000,3.7846298828125,-0.7716033458709717,0.6369145512580872,2.1019515991210938
1773257627551657000,3.794656982421875,-0.30451083183288574,0.8538370132446289,1.698510766029358
1773257627561683000,3.804682861328125,-0.009406227618455887,0.9152476787567139,1.4565691947937012
1773257627571710000,3.8147099609375,0.06278152018785477,0.6527824401855469,1.3236428499221802
1773257627581736700,3.82473681640625,-0.15418994426727295,0.22286196053028107,1.1211291551589966
1773257627591763000,3.834762939453125,-0.39461982250213623,-0.024945667013525963,0.8107974529266357
1773257627601790000,3.8447900390625,-0.47019287943840027,-0.2226899117231369,0.4264947772026062
1773257627611817000,3.85481689453125,-0.5276353359222412,-0.5449621081352234,-0.011074339970946312
1773257627621843000,3.864843017578125,-0.5722102522850037,-0.8102707266807556,-0.3650180399417877
1773257627631870000,3.874869873046875,-0.688262939453125,-0.8289399147033691,-0.5958138108253479
1773257627641896000,3.88489599609375,-0.7949113249778748,-0.6705047488212585,-0.7550513744354248
1773257627651923000,3.8949228515625,-0.7770421504974365,-0.7032811045646667,-0.8968499302864075
1773257627661950000,3.904949951171875,-0.68556147813797,-0.8481325507164001,-0.9899497628211975
1773257627671976000,3.914975830078125,-0.5883141160011292,-0.95491623878479,-1.0358662605285645
1773257627682003000,3.9250029296875,-0.46476712822914124,-0.9023694396018982,-0.9350646138191223
1773257627692029000,3.93502880859375,-0.3037841022014618,-0.8430551290512085,-0.6728957295417786
1773257627702056000,3.945055908203125,-0.22305649518966675,-0.9477935433387756,-0.38433316349983215
1773257627712083000,3.9550830078125,-0.22996243834495544,-0.9779842495918274,-0.11513153463602066
1773257627722109000,3.96510888671875,-0.27701303362846375,-0.8980377912521362,0.09107649326324463
1773257627732136000,3.975135986328125,-0.2754889726638794,-0.8058050870895386,0.18036788702011108
1773257627742163000,3.985162841796875,-0.1977664828300476,-0.6312229037284851,0.10689181089401245
1773257627752188000,3.99518798828125,-0.07115036249160767,-0.5660025477409363,-0.0719761848449707
1773257627762215000,4.00521484375,0.04881226271390915,-0.6134273409843445,-0.3043612539768219
1773257627772241000,4.015240966796875,0.10598477721214294,-0.6861600279808044,-0.5436713695526123
1773257627782268000,4.025267822265625,0.1319015920162201,-0.6694127917289734,-0.7675753235816956
1773257627792295000,4.035294921875,0.13426929712295532,-0.6487747430801392,-0.9475571513175964
1773257627802321000,4.04532080078125,0.0756283551454544,-0.6921770572662354,-1.0459574460983276
1773257627812348000,4.055347900390625,-0.04727856069803238,-0.744314432144165,-1.0830202102661133
1773257627822375000,4.065375,-0.1768309623003006,-0.8114103674888611,-1.0704535245895386
1773257627832401200,4.075401123046875,-0.28241658210754395,-0.8566128015518188,-1.0378458499908447
1773257627842428000,4.085427978515625,-0.33856797218322754,-0.7785550355911255,-1.0356409549713135
1773257627852454000,4.095453857421875,-0.31970149278640747,-0.7180349230766296,-1.0456234216690063
1773257627862481000,4.10548095703125,-0.26586222648620605,-0.6880291104316711,-1.059682846069336
1773257627872508000,4.1155078125,-0.2594389319419861,-0.6709019541740417,-1.0454469919204712
1773257627882534100,4.1255341796875,-0.33901074528694153,-0.6443824768066406,-1.0080796480178833
1773257627892561000,4.135560791015625,-0.4711514711380005,-0.6645956635475159,-0.9421899318695068
1773257627902588000,4.145587890625,-0.575403094291687,-0.679002046585083,-0.8699290752410889
1773257627912614000,4.15561376953125,-0.5942885875701904,-0.6286908388137817,-0.80055171251297
1773257627922641200,4.16564111328125,-0.535970151424408,-0.5948031544685364,-0.7183015942573547
1773257627932668000,4.17566796875,-0.470236212015152,-0.5972816944122314,-0.6078441143035889
1773257627942694000,4.18569384765625,-0.4277108609676361,-0.5813373327255249,-0.4957604706287384
1773257627952721000,4.195720947265625,-0.382478266954422,-0.5555269718170166,-0.3671800494194031
1773257627962747000,4.205746826171875,-0.3317330479621887,-0.5426743030548096,-0.2098785638809204
1773257627972774100,4.215774169921875,-0.3011679947376251,-0.5441387891769409,-0.028620455414056778
1773257627982801000,4.22580078125,-0.305585652589798,-0.5117430090904236,0.12744371592998505
1773257627992827000,4.235826904296875,-0.321125864982605,-0.4221346974372864,0.20083312690258026
1773257628002854000,4.24585400390625,-0.3256787955760956,-0.31920939683914185,0.19186066091060638
1773257628012881000,4.255880859375,-0.306342214345932,-0.22609806060791016,0.11708799004554749
1773257628022907100,4.2659072265625,-0.2675391733646393,-0.19163568317890167,0.021044816821813583
1773257628032934000,4.275933837890625,-0.25232231616973877,-0.18940570950508118,-0.061905741691589355
1773257628042960000,4.2859599609375,-0.28881534934043884,-0.1625882089138031,-0.12536780536174774
1773257628052987000,4.29598681640625,-0.3734947443008423,-0.06325704604387283,-0.2006751447916031
1773257628063014100,4.30601416015625,-0.4387113153934479,-0.06311669200658798,-0.23385626077651978
1773257628073040100,4.3160400390625,-0.4521311819553375,-0.1067931279540062,-0.20744885504245758
1773257628083067000,4.32606689453125,-0.4335401952266693,-0.10945655405521393,-0.13104543089866638
1773257628093094000,4.336093994140625,-0.3967987596988678,-0.05128917098045349,-0.029769882559776306
1773257628103120000,4.346119873046875,-0.354269415140152,0.04721476510167122,0.08559426665306091
1773257628113147100,4.356147216796875,-0.3178521394729614,0.11599712818861008,0.21003779768943787
1773257628123173000,4.366173095703125,-0.2866617441177368,0.15300175547599792,0.3250384032726288
1773257628133200000,4.376199951171875,-0.25879552960395813,0.1499401330947876,0.41251859068870544
1773257628143227000,4.386226806640625,-0.2613803744316101,0.18263868987560272,0.4424123167991638
1773257628153252900,4.3962529296875,-0.28054195642471313,0.2120078057050705,0.41888996958732605
1773257628163280100,4.406280029296875,-0.319886177778244,0.2585441470146179,0.3767779469490051
1773257628173307000,4.416306884765625,-0.36366763710975647,0.40277403593063354,0.32646995782852173
1773257628183332900,4.426332763671875,-0.362211138010025,0.5719742774963379,0.2960718274116516
1773257628193356300,4.436356201171875,-0.31727078557014465,0.6637702584266663,0.30302557349205017
1773257628203382300,4.44638232421875,-0.31519538164138794,0.6766666173934937,0.35188204050064087
1773257628213409300,4.4564091796875,-0.36859405040740967,0.7315605282783508,0.39651334285736084
1773257628223436300,4.466436279296875,-0.4261566996574402,0.7829145193099976,0.4207289218902588
1773257628233462300,4.476462158203125,-0.4800693988800049,0.7916250824928284,0.41974306106567383
1773257628243489300,4.4864892578125,-0.5495467185974121,0.7753201127052307,0.4084664583206177
1773257628253516300,4.496516357421875,-0.6592687368392944,0.7663893103599548,0.3864155113697052
1773257628263542500,4.50654248046875,-0.8240875005722046,0.7602667212486267,0.36782902479171753
1773257628273569300,4.5165693359375,-0.9396149516105652,0.7523996233940125,0.35748231410980225
1773257628283595300,4.52659521484375,-0.9791195392608643,0.7197803854942322,0.3654260039329529
1773257628293622300,4.536622314453125,-1.061126470565796,0.673246443271637,0.4225866496562958
1773257628303649300,4.546649169921875,-1.1592695713043213,0.705285370349884,0.5263524055480957
1773257628313675500,4.556675537109375,-1.200924277305603,0.7575125098228455,0.65667724609375
1773257628323702300,4.566702392578125,-1.1868319511413574,0.8491575121879578,0.7676088213920593
1773257628333729300,4.576729248046875,-1.124515414237976,0.8696987628936768,0.8423233032226562
1773257628343755300,4.58675537109375,-1.0512545108795166,0.8622645139694214,0.8763142824172974
1773257628353782300,4.5967822265625,-0.9958223700523376,0.8885727524757385,0.837151288986206
1773257628363809300,4.606809326171875,-0.9553918242454529,0.9349924325942993,0.7254956364631653
1773257628373835300,4.616835205078125,-0.9054301977157593,0.8940765261650085,0.5733888745307922
1773257628383862300,4.6268623046875,-0.854932963848114,0.7124875783920288,0.4226824939250946
1773257628393889300,4.63688916015625,-0.894488513469696,0.40155938267707825,0.34709805250167847
1773257628403915500,4.64691552734375,-1.0250611305236816,0.15309232473373413,0.3707732558250427
1773257628413942300,4.6569423828125,-1.0949844121932983,0.2484605759382248,0.473690003156662
1773257628423969300,4.66696923828125,-0.9908519387245178,0.8143660426139832,0.6223617792129517
1773257628433995300,4.676995361328125,-0.7047517895698547,1.2382006645202637,0.8888430595397949
1773257628444022300,4.687022216796875,-0.4759649336338043,1.3468748331069946,1.267642617225647
1773257628454048500,4.697048583984375,-0.4681681990623474,1.2546336650848389,1.6092735528945923
1773257628464075300,4.7070751953125,-0.5808417797088623,1.1385481357574463,1.7363466024398804
1773257628474102300,4.717102294921875,-0.707999050617218,1.03567636013031,1.6454617977142334
1773257628484128300,4.727128173828125,-0.8126298785209656,0.8751554489135742,1.4523077011108398
1773257628494155500,4.737155517578125,-0.8814677000045776,0.7353678345680237,1.251568078994751
1773257628504182300,4.747182373046875,-0.8786333203315735,0.6260746717453003,1.097010612487793
1773257628514208300,4.757208251953125,-0.8086857199668884,0.636548638343811,0.9879562854766846
1773257628524235300,4.7672353515625,-0.6423736810684204,0.5936733484268188,0.9313710331916809
1773257628534261200,4.77726123046875,-0.46579745411872864,0.5660256743431091,0.9365035891532898
1773257628544288500,4.78728857421875,-0.3482702970504761,0.7104400992393494,0.9882535934448242
1773257628554315300,4.797315185546875,-0.0939539447426796,1.1205083131790161,0.9542856812477112
1773257628564341200,4.80734130859375,0.3543226420879364,1.4902235269546509,0.880029022693634
1773257628574368300,4.8173681640625,0.7064754366874695,1.4963810443878174,0.866581380367279
1773257628584395500,4.8273955078125,0.7690312266349792,1.3750813007354736,0.8922950029373169
1773257628594421500,4.83742138671875,0.6128940582275391,1.153763771057129,0.8602963089942932
1773257628604448300,4.8474482421875,0.4281404912471771,0.9248233437538147,0.7053693532943726
1773257628614474200,4.85747412109375,0.34433433413505554,0.6520981192588806,0.4789632558822632
1773257628624501200,4.867501220703125,0.3272586762905121,0.36416563391685486,0.22936834394931793
1773257628634528500,4.877528564453125,0.29028964042663574,0.13174434006214142,0.028210727497935295
1773257628644554500,4.887554443359375,0.14302748441696167,0.12280357629060745,-0.05198157578706741
1773257628654581200,4.897581298828125,-0.021548228338360786,0.40131884813308716,-0.0036003566347062588
1773257628664608300,4.907608154296875,-0.0472719669342041,0.488715797662735,0.16914531588554382
1773257628674634200,4.91763427734375,0.033843185752630234,0.38235172629356384,0.3535143733024597
1773257628684661500,4.92766162109375,0.04717230796813965,0.23677028715610504,0.42713984847068787
1773257628694687500,4.9376875,-0.0492645800113678,0.14952883124351501,0.39180511236190796
1773257628704714200,4.94771435546875,-0.15482190251350403,0.0788211077451706,0.314319372177124
1773257628714741200,4.9577412109375,-0.24524176120758057,0.05385924130678177,0.23691807687282562
1773257628724767200,4.967767333984375,-0.29798486828804016,0.1281134933233261,0.17408213019371033
1773257628734794500,4.97779443359375,-0.2854391038417816,0.4228537678718567,0.12692983448505402
1773257628744821200,4.9878212890625,-0.24730956554412842,0.7656513452529907,0.13441331684589386
1773257628754847200,4.99784716796875,-0.17746813595294952,1.1463185548782349,0.19992975890636444
1773257628764874200,5.007874267578125,-0.005215933546423912,1.3194516897201538,0.2949031591415405
1773257628774901500,5.017901611328125,0.3697376251220703,0.9529649019241333,0.44712597131729126
1773257628784927500,5.027927490234375,0.6999536156654358,0.33536800742149353,0.6684921979904175
1773257628794954200,5.037954345703125,0.8273881673812866,-0.36315831542015076,0.9044355750083923
1773257628804980200,5.047980224609375,0.7125851511955261,-1.0377609729766846,1.0970066785812378
1773257628815007200,5.05800732421875,0.4057079255580902,-1.5623255968093872,1.2188684940338135
1773257628825034500,5.068034423828125,0.007374120410531759,-2.0008456707000732,1.2646551132202148
1773257628835060500,5.078060546875,-0.4088229238986969,-2.3908681869506836,1.1717597246170044
1773257628845087200,5.088087158203125,-0.784830629825592,-2.7149744033813477,0.8884356617927551
1773257628855114200,5.0981142578125,-1.070046305656433,-2.8928866386413574,0.39909493923187256
1773257628865140200,5.10814013671875,-1.2134393453598022,-3.0254199504852295,-0.24686038494110107
1773257628875167500,5.11816748046875,-1.1471173763275146,-3.0925331115722656,-0.9491123557090759
1773257628885193500,5.128193359375,-0.8960134387016296,-3.0372250080108643,-1.5745694637298584
1773257628895220200,5.13822021484375,-0.5907878875732422,-3.007615566253662,-2.026315927505493
1773257628905247200,5.148247314453125,-0.333465039730072,-3.131538152694702,-2.2789969444274902
1773257628915273200,5.158273193359375,-0.17300976812839508,-3.3535335063934326,-2.3630943298339844
1773257628925300500,5.168300537109375,-0.06896672397851944,-3.522948980331421,-2.3362579345703125
1773257628935327200,5.1783271484375,0.01586001366376877,-3.583465099334717,-2.229278564453125
1773257628945353200,5.188353271484375,0.11521723121404648,-3.602050304412842,-2.071234703063965
1773257628955380200,5.198380126953125,0.24520672857761383,-3.659634828567505,-1.898310899734497
1773257628965406200,5.20840625,0.36373764276504517,-3.5927953720092773,-1.7120624780654907
1773257628975433500,5.21843359375,0.5022838115692139,-3.219937562942505,-1.4604504108428955
1773257628985460200,5.228460205078125,0.6524117588996887,-2.7711238861083984,-1.1650980710983276
1773257628995486200,5.238486328125,0.753406822681427,-2.1965293884277344,-0.8096619248390198
1773257629005513200,5.24851318359375,0.8145535588264465,-1.5078781843185425,-0.4162352681159973
1773257629015540500,5.25854052734375,0.8899651169776917,-0.825135350227356,0.018650002777576447
1773257629025566500,5.26856640625,1.0233500003814697,-0.22016850113868713,0.4627973437309265
1773257629035593200,5.27859326171875,1.2638670206069946,0.26173004508018494,0.8508890867233276
1773257629045619200,5.288619140625,1.6154109239578247,0.5511134266853333,1.1054848432540894
1773257629055646200,5.298646240234375,2.028935194015503,0.7601683735847473,1.2218765020370483
1773257629065673500,5.308673583984375,2.3762593269348145,1.0037370920181274,1.1970363855361938
1773257629075699500,5.318699462890625,2.5597782135009766,1.2851183414459229,1.0394715070724487
1773257629085726200,5.328726318359375,2.50962233543396,1.6428914070129395,0.825021505355835
1773257629095753200,5.338753173828125,2.305924892425537,2.0175063610076904,0.6543804407119751
1773257629105779500,5.348779541015625,2.101515054702759,2.217303991317749,0.61485356092453
1773257629115806500,5.358806396484375,1.997323751449585,1.8647360801696777,0.7250811457633972
1773257629125833200,5.368833251953125,1.9321324825286865,1.200470209121704,0.9234756827354431
1773257629135859200,5.378859130859375,1.8513562679290771,0.5531902313232422,1.1046925783157349
1773257629145886200,5.38888623046875,1.6464899778366089,0.08909685909748077,1.1967411041259766
1773257629155912400,5.398912353515625,1.2486006021499634,0.07098545134067535,1.1649622917175293
1773257629165939500,5.408939453125,0.8243675827980042,0.11754070222377777,0.8695712685585022
1773257629175966200,5.41896630859375,0.6521961092948914,0.24770937860012054,0.3496469259262085
1773257629185992200,5.4289921875,0.7212486863136292,0.39972925186157227,-0.33980387449264526
1773257629196023300,5.439023193359375,0.8887854218482971,0.6523715853691101,-1.053847312927246
1773257629206050300,5.44905029296875,1.0423184633255005,0.9814149737358093,-1.6842553615570068
1773257629216076300,5.459076171875,1.1580649614334106,1.192131519317627,-2.165398359298706
1773257629226103300,5.469103271484375,1.2200156450271606,1.3405475616455078,-2.4572532176971436
1773257629236130300,5.47913037109375,1.227667212486267,1.4734022617340088,-2.496556520462036
1773257629246156500,5.489156494140625,1.1128453016281128,1.5967175960540771,-2.2757036685943604
1773257629256183300,5.499183349609375,0.7936399579048157,1.736385464668274,-1.8691517114639282
1773257629266209300,5.509209228515625,0.2759307622909546,1.861380934715271,-1.374760627746582
1773257629276236300,5.519236328125,-0.25125446915626526,1.9968554973602295,-0.8693846464157104
1773257629286263300,5.52926318359375,-0.5845304131507874,2.071990489959717,-0.35248127579689026
1773257629296289500,5.53928955078125,-0.6697624921798706,1.9304825067520142,0.1664056032896042
1773257629306316300,5.54931640625,-0.5622868537902832,1.5840539932250977,0.6381158828735352
1773257629316343300,5.55934326171875,-0.3506680130958557,1.00631582736969,0.9420055150985718
1773257629326369300,5.569369384765625,-0.1354275792837143,0.5700924396514893,1.0075184106826782
1773257629336396300,5.579396240234375,0.03147963806986809,0.2448342740535736,0.8062623739242554
1773257629346423300,5.58942333984375,0.13719116151332855,-0.09740909188985825,0.37246963381767273
1773257629356449300,5.59944921875,0.20046477019786835,-0.3208986818790436,-0.1823398917913437
1773257629366476300,5.609476318359375,0.24125586450099945,-0.6163281798362732,-0.7346896529197693
1773257629376502300,5.619502197265625,0.2716934084892273,-1.262660264968872,-1.1859532594680786
1773257629386529500,5.629529541015625,0.20386801660060883,-1.923529863357544,-1.4382611513137817
1773257629396556300,5.639556396484375,0.008847517892718315,-2.4148693084716797,-1.507066011428833
1773257629406582300,5.649582275390625,-0.2479616403579712,-2.7087156772613525,-1.4370431900024414
1773257629416609300,5.659609375,-0.516426146030426,-2.7968392372131348,-1.3115712404251099
1773257629426636300,5.66963623046875,-0.7596875429153442,-2.7897284030914307,-1.1813015937805176
1773257629436662500,5.67966259765625,-0.9631194472312927,-2.5022947788238525,-1.066861629486084
1773257629446689300,5.689689208984375,-1.0554002523422241,-1.897079586982727,-0.8833042979240417
1773257629456716300,5.69971630859375,-1.0398859977722168,-1.1720083951950073,-0.5173065066337585
1773257629466742300,5.7097421875,-0.9798340201377869,-0.5053629875183105,-0.015815190970897675
1773257629476769500,5.71976953125,-0.8697329759597778,-0.010497504845261574,0.5954962968826294
1773257629486796300,5.72979638671875,-0.724632740020752,0.4025326669216156,1.2631616592407227
1773257629496822300,5.739822265625,-0.5953728556632996,0.7659024000167847,1.9239740371704102
1773257629506849300,5.749849365234375,-0.4920906722545624,1.1224114894866943,2.5242650508880615
1773257629516875300,5.759875244140625,-0.41512933373451233,1.3723797798156738,3.0461184978485107
1773257629526902500,5.769902587890625,-0.37489935755729675,1.2765544652938843,3.4031898975372314
1773257629536929300,5.77992919921875,-0.050703685730695724,0.16367316246032715,3.258443832397461
1773257629546955300,5.789955322265625,1.3659623861312866,0.08353172242641449,3.139735221862793
1773257629556982300,5.799982177734375,1.540525197982788,-0.14310258626937866,1.9984050989151
1773257629567009500,5.810009521484375,1.1780081987380981,0.09024997055530548,0.10542842745780945
1773257629577035500,5.820035400390625,0.8925708532333374,-1.1655197143554688,0.043581992387771606
1773257629587062300,5.830062255859375,0.5368644595146179,-2.0081894397735596,0.07173161208629608
1773257629597089300,5.84008935546875,0.5170323848724365,-3.3288962841033936,-0.06781253963708878
1773257629607115300,5.850115234375,0.9256337285041809,-4.83272647857666,-0.10182563215494156
1773257629617142500,5.860142578125,1.5540261268615723,-6.080272674560547,0.054678868502378464
1773257629627168500,5.87016845703125,2.3864805698394775,-7.188774108886719,0.342678427696228
1773257629637195300,5.8801953125,3.2497336864471436,-8.108348846435547,0.7546533346176147
1773257629647222300,5.89022216796875,3.9457740783691406,-8.41254997253418,1.2639520168304443
1773257629657248300,5.900248291015625,4.396667003631592,-8.236614227294922,1.702690601348877
1773257629667275500,5.910275634765625,4.626921653747559,-7.817595958709717,1.9939765930175781
1773257629677302300,5.92030224609375,4.710231781005859,-7.053007125854492,2.09908127784729
1773257629687328300,5.930328369140625,4.73513126373291,-6.286510944366455,1.955946445465088
1773257629697355300,5.940355224609375,4.168686866760254,-7.861222743988037,0.2349221259355545
1773257629707382500,5.950382568359375,3.825711727142334,-8.127707481384277,-2.057129383087158
1773257629717408500,5.960408447265625,4.83577823638916,-6.364625453948975,-3.0990560054779053
1773257629727435300,5.970435302734375,5.248232841491699,-5.306285381317139,-3.395489454269409
1773257629737462300,5.980462158203125,4.510910511016846,-4.664802074432373,-3.15136981010437
1773257629747488300,5.99048828125,3.117304563522339,-3.9487955570220947,-2.1616194248199463
1773257629757515500,6.000515625,2.266029119491577,-3.700145959854126,-1.0267184972763062
1773257629767541500,6.01054150390625,2.011321544647217,-3.4716885089874268,-0.08112725615501404
1773257629777568300,6.020568359375,1.8277156352996826,-2.9025216102600098,0.5908598899841309
1773257629787595300,6.03059521484375,1.59000825881958,-2.3628294467926025,0.8272673487663269
1773257629797621200,6.040621337890625,1.4495283365249634,-2.051605224609375,0.7382189631462097
1773257629807648500,6.0506484375,1.5433580875396729,-1.908887267112732,0.54295814037323
1773257629817675300,6.06067529296875,1.7153894901275635,-2.032425880432129,0.29190146923065186
1773257629827701200,6.070701171875,1.8654743432998657,-2.073732614517212,0.10093575716018677
1773257629837728300,6.080728271484375,1.9614224433898926,-1.8723722696304321,-0.03630024194717407
1773257629847755500,6.090755615234375,1.9349926710128784,-1.4533185958862305,-0.13443399965763092
1773257629857781500,6.100781494140625,1.762465000152588,-0.9108160734176636,-0.19086623191833496
1773257629867808300,6.110808349609375,1.5844933986663818,-0.5542832016944885,-0.24538540840148926
1773257629877835300,6.120835205078125,1.4971656799316406,-0.5043290853500366,-0.2222302109003067
1773257629887861200,6.130861328125,1.4765307903289795,-0.6550946235656738,-0.06767977774143219
1773257629897888500,6.140888427734375,1.498422622680664,-0.8890904188156128,0.14306123554706573
1773257629907914500,6.15091455078125,1.4824827909469604,-1.132002830505371,0.3932012915611267
1773257629917941200,6.160941162109375,1.3750996589660645,-1.2111221551895142,0.5740496516227722
1773257629927968300,6.17096826171875,1.124838948249817,-1.121468424797058,0.6170759201049805
1773257629937994200,6.180994140625,0.7766145467758179,-0.9077998995780945,0.5244736671447754
1773257629948021500,6.191021484375,0.4392213821411133,-0.6640548706054688,0.30628567934036255
1773257629958048300,6.20104833984375,0.23229676485061646,-0.4895617961883545,0.03583522140979767
1773257629968074200,6.21107421875,0.2593930959701538,-0.41854166984558105,-0.17653295397758484
1773257629978101200,6.221101318359375,0.7800107598304749,0.6422311067581177,0.9215518236160278
1773257629988128500,6.23112841796875,1.3352314233779907,0.4156796932220459,1.722882866859436
1773257629998154500,6.241154541015625,1.7078354358673096,0.03738957643508911,2.178284168243408
1773257630008181200,6.25118115234375,1.8500128984451294,0.037662021815776825,2.371384859085083
1773257630018208300,6.261208251953125,1.8296558856964111,0.20991694927215576,2.333343505859375
1773257630028234200,6.271234130859375,1.6972224712371826,0.27833274006843567,2.1484169960021973
1773257630038261500,6.281261474609375,1.483758568763733,0.613246500492096,1.9419852495193481
1773257630048288300,6.291288330078125,1.2266767024993896,1.0356167554855347,1.7667205333709717
1773257630058314200,6.301314208984375,0.9665933847427368,1.0301613807678223,1.6112860441207886
1773257630068341200,6.31134130859375,0.7337851524353027,0.6464858055114746,1.43791663646698
1773257630078367200,6.3213671875,0.5325691103935242,0.07014339417219162,1.1837793588638306
1773257630088394500,6.33139453125,0.36621472239494324,-0.526084303855896,0.8434189558029175
1773257630098421200,6.341421142578125,0.24701964855194092,-1.0318713188171387,0.4247640371322632
1773257630108447200,6.351447265625,0.20214378833770752,-1.3838913440704346,-0.020884275436401367
1773257630118474200,6.36147412109375,0.20553918182849884,-1.5142284631729126,-0.41886410117149353
1773257630128501500,6.37150146484375,0.23002295196056366,-1.55624520778656,-0.7261726260185242
1773257630138527500,6.381527587890625,0.23748882114887238,-1.5967496633529663,-0.93570876121521
1773257630148554200,6.39155419921875,0.21822884678840637,-1.5706831216812134,-1.0531724691390991
1773257630158581200,6.401581298828125,0.16303354501724243,-1.5097119808197021,-1.0886762142181396
1773257630168607200,6.411607177734375,0.09793710708618164,-1.461447834968567,-1.0603039264678955
1773257630178634500,6.421634521484375,0.026034463196992874,-1.394878625869751,-1.01765775680542
1773257630188661200,6.4316611328125,-0.06143040955066681,-1.4399597644805908,-1.0104515552520752
1773257630198684000,6.441683837890625,-0.17536307871341705,-1.4732273817062378,-1.0470740795135498
1773257630208711200,6.451711181640625,-0.31202399730682373,-1.4486980438232422,-1.1298283338546753
1773257630218737200,6.461737060546875,-0.4627172350883484,-1.3315273523330688,-1.2408134937286377
1773257630228764200,6.47176416015625,-0.6060310006141663,-1.0985071659088135,-1.3957418203353882
1773257630238791000,6.481791015625,-0.6915724277496338,-0.914307177066803,-1.5930535793304443
1773257630248817000,6.49181689453125,-0.7154854536056519,-0.7332351207733154,-1.8128302097320557
1773257630258844200,6.50184423828125,-0.715045690536499,-0.6222047805786133,-2.005138635635376
1773257630268871200,6.51187109375,-0.7374948263168335,-0.5972621440887451,-2.1073150634765625
1773257630278897200,6.521897216796875,-0.7703806161880493,-0.5835128426551819,-2.0796148777008057
1773257630288924000,6.531923828125,-0.7332625389099121,-0.45276039838790894,-1.8462949991226196
1773257630298951200,6.541951171875,-0.5515467524528503,-0.13525798916816711,-1.3427114486694336
1773257630308977200,6.55197705078125,-0.07910352200269699,0.10364620387554169,-0.5806545615196228
1773257630319004200,6.562004150390625,0.3764944076538086,0.21299315989017487,0.15263015031814575
1773257630329031000,6.572031005859375,0.6064525246620178,0.19945816695690155,0.6313266754150391
1773257630339057000,6.582056884765625,0.6267493963241577,0.10585739463567734,0.7429842352867126
1773257630349084200,6.592084228515625,0.5548155903816223,-0.006018275395035744,0.492350697517395
1773257630359111200,6.602111083984375,0.4750477373600006,0.039072904735803604,0.0963498130440712
1773257630369137200,6.61213720703125,0.42253124713897705,0.19548675417900085,-0.23590323328971863
1773257630379164000,6.622163818359375,0.3747388422489166,0.3038664162158966,-0.38898491859436035
1773257630389190000,6.63218994140625,0.33478692173957825,0.3610737919807434,-0.369065523147583
1773257630399217200,6.642217041015625,0.323729544878006,0.2769744098186493,-0.30512815713882446
1773257630409244200,6.652244140625,0.35281553864479065,0.11288212984800339,-0.21985240280628204
1773257630419270100,6.662270263671875,0.35179558396339417,0.01863093674182892,-0.0805719643831253
1773257630429297000,6.672296875,0.29596108198165894,-0.08529466390609741,0.0716647058725357
1773257630439324200,6.68232421875,0.24186529219150543,-0.14572371542453766,0.179611474275589
1773257630449350100,6.69235009765625,0.21383711695671082,-0.0666150376200676,0.2419843077659607
1773257630459377200,6.702377197265625,0.23164521157741547,0.045026421546936035,0.21426646411418915
1773257630469404000,6.71240380859375,0.23046304285526276,0.10693372786045074,0.14999425411224365
1773257630479430000,6.722429931640625,0.19050613045692444,0.117530956864357,0.0977088063955307
1773257630489457200,6.73245703125,0.1427394151687622,0.017417937517166138,0.01677800342440605
1773257630499484200,6.742484130859375,0.13033464550971985,-0.11535850167274475,-0.08942090719938278
1773257630509510100,6.75251025390625,0.197775200009346,-0.21515168249607086,-0.2260783612728119
1773257630519537000,6.762536865234375,0.327451229095459,-0.24505378305912018,-0.315629243850708
1773257630529563000,6.77256298828125,0.6091007590293884,-0.2543082535266876,-0.32952243089675903
1773257630539590100,6.782590087890625,0.688305675983429,-0.16702787578105927,-0.1376802623271942
1773257630549617200,6.7926171875,0.6406745314598083,-0.2812756299972534,0.03600018471479416
1773257630559643100,6.80264306640625,0.6602362990379333,-0.25267738103866577,0.15222033858299255
1773257630569670000,6.812669921875,0.744391918182373,-0.2148120254278183,0.23833072185516357
1773257630579697200,6.822697265625,0.8822581171989441,-0.1075691282749176,0.4133283197879791
1773257630589723100,6.83272314453125,1.0403623580932617,-0.027103055268526077,0.6048088073730469
1773257630599750100,6.842750244140625,1.258894443511963,-0.0172501839697361,0.7985498905181885
1773257630609777000,6.85277685546875,1.5223630666732788,0.09472295641899109,1.0652409791946411
1773257630619803000,6.862802978515625,1.67184317111969,0.5469146966934204,1.4513529539108276
1773257630629830100,6.872830078125,1.6841096878051758,1.4481686353683472,1.829316258430481
1773257630639857200,6.882857177734375,1.6593925952911377,2.193772792816162,2.0606255531311035
1773257630649883100,6.892883056640625,1.734980821609497,2.3850300312042236,2.1418614387512207
1773257630659910000,6.902909912109375,0.9066039323806763,2.036113739013672,0.2102036327123642
1773257630669937200,6.912937255859375,0.7256333231925964,1.7933015823364258,-0.6268569231033325
1773257630679963100,6.922963134765625,1.593326210975647,1.4497945308685303,0.5241658091545105
1773257630689990100,6.932990234375,1.8048994541168213,1.0733439922332764,1.669406533241272
1773257630700016000,6.94301611328125,1.7477953433990479,0.24652524292469025,1.8819353580474854
1773257630710043000,6.95304296875,1.5393340587615967,-0.34375351667404175,0.8577590584754944
1773257630720070100,6.963070068359375,1.4991953372955322,-0.5752643346786499,0.9262444972991943
1773257630730096000,6.97309619140625,1.2973068952560425,-0.6422172784805298,0.7610329389572144
1773257630740123100,6.983123046875,1.149808645248413,-0.7060309052467346,0.45600438117980957
1773257630750150000,6.99314990234375,1.068814992904663,-0.5941701531410217,0.13611584901809692
1773257630760175900,7.00317578125,0.9551679491996765,-0.40678462386131287,-0.11955131590366364
1773257630770203100,7.013203125,0.83672034740448,-0.16004672646522522,-0.2977024018764496
1773257630780230100,7.023230224609375,0.7078809142112732,0.003747035516425967,-0.29266995191574097
1773257630790256000,7.033256103515625,0.6061601638793945,-0.024414028972387314,-0.21751368045806885
1773257630800283000,7.043282958984375,0.5007314682006836,-0.1606886386871338,-0.1918567568063736
1773257630810310100,7.05331005859375,0.3531401455402374,-0.44117647409439087,-0.18660978972911835
1773257630820336000,7.063336181640625,0.24142834544181824,-0.555478572845459,-0.23537392914295197
1773257630830363100,7.073363037109375,0.14372095465660095,-0.30893856287002563,-0.27786892652511597
1773257630840389000,7.08338916015625,0.0807882770895958,0.058006808161735535,-0.29754385352134705
1773257630850415900,7.093415771484375,0.10222805291414261,0.30551883578300476,-0.28774261474609375
1773257630860443100,7.103443115234375,0.15589699149131775,0.4750039279460907,-0.22411614656448364
1773257630870469000,7.11346923828125,0.18987253308296204,0.5893869400024414,-0.17279329895973206
1773257630880496000,7.12349609375,0.14251650869846344,0.4926779270172119,-0.12697570025920868
1773257630890523000,7.13352294921875,0.111634761095047,0.24775074422359467,-0.10825102031230927
1773257630900548900,7.143548828125,0.08766752481460571,0.10090823471546173,-0.09717757254838943
1773257630910576000,7.153576171875,0.07614696025848389,-0.1775367110967636,-0.05346764624118805
1773257630920603100,7.16360302734375,0.05847796052694321,-0.1134503036737442,-0.02542603202164173
1773257630930629000,7.173629150390625,0.0036607817746698856,0.09804995357990265,-0.1376444399356842
1773257630940655900,7.18365576171875,-0.11882032454013824,0.44186896085739136,-0.3572026789188385
1773257630950683100,7.19368310546875,-0.23058520257472992,0.8250722885131836,-0.5354896187782288
1773257630960709000,7.203709228515625,-0.30219388008117676,0.9537754058837891,-0.6064394116401672
1773257630970736000,7.213736083984375,-0.32509997487068176,0.9148706197738647,-0.5480580925941467
1773257630980763000,7.223762939453125,-0.2830331027507782,0.6917200088500977,-0.3679208755493164
1773257630990788900,7.233788818359375,-0.24449662864208221,0.4053393602371216,-0.22265368700027466
1773257631000816000,7.243816162109375,-0.20921950042247772,0.2469700425863266,-0.20857517421245575
1773257631010842000,7.253842041015625,-0.2283945232629776,0.3042788505554199,-0.3144456744194031
1773257631020869000,7.263869140625,-0.2695208787918091,0.585197925567627,-0.39396750926971436
1773257631030895900,7.273895751953125,-0.34050530195236206,0.7595694661140442,-0.35459744930267334
1773257631040921900,7.283921875,-0.34593915939331055,0.7610519528388977,-0.19935092329978943
1773257631050949000,7.29394921875,-0.3153892457485199,0.7088531851768494,-0.012363465502858162
1773257631060976000,7.30397607421875,-0.28024131059646606,0.5110567212104797,0.16047333180904388
1773257631071002000,7.314002197265625,-0.20332524180412292,0.24936653673648834,0.3016115427017212
1773257631081028900,7.32402880859375,-0.12219856679439545,-0.024562302976846695,0.3762197196483612
1773257631091056000,7.33405615234375,-0.025181477889418602,-0.41061705350875854,0.4086761772632599
1773257631101082000,7.34408203125,0.12498302757740021,-0.8188848495483398,0.45486196875572205
1773257631111109000,7.354109130859375,0.22229626774787903,-0.9687986969947815,0.47953855991363525
1773257631121135900,7.364135986328125,0.18265993893146515,-0.6519641280174255,0.5189775824546814
1773257631131161900,7.374161865234375,0.08089230209589005,-0.011304503306746483,0.5763210654258728
1773257631141189000,7.384189208984375,0.004190362989902496,0.5518527626991272,0.6872655749320984
1773257631151215000,7.394215087890625,-0.01558254286646843,0.918287456035614,0.8578996062278748
1773257631161242000,7.4042421875,0.0781882032752037,1.2561324834823608,0.9687877297401428
1773257631171268900,7.414268798828125,0.14321647584438324,1.6962021589279175,0.9624618887901306
1773257631181295000,7.424295166015625,0.1483822464942932,1.923227310180664,0.9307125210762024
1773257631191322000,7.434322021484375,-0.14993387460708618,1.9862611293792725,0.5883695483207703
1773257631201348400,7.444348388671875,-0.6721847653388977,2.094942331314087,0.06854031980037689
1773257631211374600,7.45437451171875,-0.9226840734481812,1.8100892305374146,-0.0728602185845375
1773257631221401300,7.4644013671875,-0.8441875576972961,1.0845675468444824,-0.19567739963531494
1773257631231428400,7.474428466796875,-0.66800856590271,0.5616238117218018,-0.3934115171432495
1773257631241454300,7.484454345703125,-0.4805142283439636,0.17111362516880035,-0.49316638708114624
1773257631251481600,7.494481689453125,-0.1828780174255371,-0.07644076645374298,-0.6041331887245178
1773257631261508400,7.50450830078125,0.02474088966846466,-0.13217782974243164,-0.7210641503334045
1773257631271534300,7.514534423828125,0.06064216420054436,-0.11550324410200119,-0.7343050837516785
1773257631281561300,7.524561279296875,0.0667787566781044,-0.19543980062007904,-0.6889029145240784
1773257631291587300,7.53458740234375,0.1347343772649765,-0.22995756566524506,-0.607042670249939
1773257631301614600,7.544614501953125,0.1854945421218872,-0.18435771763324738,-0.6351627111434937
1773257631311641300,7.554641357421875,0.17795991897583008,-0.13804322481155396,-0.7089716792106628
1773257631321667300,7.564667236328125,0.19110167026519775,-0.09895488619804382,-0.6803427338600159
1773257631331694300,7.5746943359375,0.27074134349823,-0.24436748027801514,-0.6668179035186768
1773257631341721600,7.5847216796875,0.40396448969841003,-0.7330051064491272,-0.5027654767036438
1773257631351747600,7.59474755859375,0.39403513073921204,-1.0227830410003662,-0.2703319489955902
1773257631361774300,7.6047744140625,0.3924223482608795,-0.8937494158744812,-0.1639971286058426
1773257631371801300,7.61480126953125,0.2874671518802643,-0.5439776182174683,-0.19430896639823914
1773257631381827300,7.624827392578125,0.16369612514972687,-0.15556758642196655,-0.24353596568107605
1773257631391854600,7.6348544921875,0.03398367390036583,0.16038905084133148,-0.22291457653045654
1773257631401881300,7.64488134765625,-0.1466604620218277,0.4360717236995697,-0.17553623020648956
1773257631411907300,7.6549072265625,-0.38506850600242615,0.7120867967605591,-0.1906784325838089
1773257631421934300,7.664934326171875,-0.6611858010292053,1.031907081604004,-0.2258206605911255
1773257631431961600,7.674961669921875,-0.8582834005355835,1.3500720262527466,-0.2403532713651657
1773257631441987600,7.684987548828125,-0.8984237909317017,1.4825081825256348,-0.26097625494003296
1773257631452014300,7.695014404296875,-0.8642027378082275,1.4083024263381958,-0.2862089276313782
1773257631462040300,7.705040283203125,-0.8466962575912476,1.3215198516845703,-0.30728834867477417
1773257631472067300,7.7150673828125,-0.7964773178100586,1.1100783348083496,-0.22105759382247925
1773257631482094600,7.725094482421875,-0.7031744718551636,0.36553582549095154,0.24107052385807037
1773257631492120600,7.73512060546875,-0.6174177527427673,0.0928821936249733,0.4057377576828003
1773257631502147300,7.745147216796875,-0.5622538328170776,0.13720819354057312,0.2423749566078186
1773257631512174300,7.75517431640625,-0.5003284215927124,0.07842956483364105,0.16904108226299286
1773257631522200300,7.765200439453125,-0.36016690731048584,-0.02519017644226551,0.14424224197864532
1773257631532227600,7.7752275390625,-0.20294375717639923,-0.1111207976937294,0.10646583884954453
1773257631542254300,7.78525439453125,-0.10619064420461655,-0.034196943044662476,-0.030770128592848778
1773257631552280300,7.7952802734375,-0.023328253999352455,0.17173439264297485,-0.17037995159626007
1773257631562307300,7.805307373046875,0.0435439869761467,0.3526209890842438,-0.20968647301197052
1773257631572334600,7.81533447265625,0.10586461424827576,0.2958487868309021,-0.10833907127380371
1773257631582360600,7.825360595703125,0.10536066442728043,0.12259268760681152,0.02057676576077938
1773257631592387300,7.83538720703125,0.07677322626113892,0.2857286036014557,-0.07652394473552704
1773257631602414300,7.845414306640625,0.051508452743291855,0.3020978569984436,-0.05195976421236992
1773257631612440300,7.8554404296875,-0.03697134554386139,0.266608864068985,0.02396802231669426
1773257631622467600,7.865467529296875,-0.12375667691230774,0.2443290799856186,0.0688333660364151
1773257631632494300,7.875494384765625,-0.21062472462654114,0.1949647217988968,0.14108997583389282
1773257631642520300,7.885520263671875,-0.34400081634521484,0.23887357115745544,0.16061779856681824
1773257631652547300,7.89554736328125,-0.4247100353240967,0.2971142530441284,0.13635294139385223
1773257631662573300,7.9055732421875,-0.5547410249710083,0.3327983617782593,0.13032785058021545
1773257631672600600,7.9156005859375,-0.6760118007659912,0.43935835361480713,0.03178901970386505
1773257631682627300,7.92562744140625,-0.7123458981513977,0.5235261917114258,-0.07988414913415909
1773257631692653300,7.9356533203125,-0.6706991195678711,0.48891308903694153,-0.12618640065193176
1773257631702680300,7.945680419921875,-0.6373261213302612,0.35260191559791565,-0.13796444237232208
1773257631712707600,7.95570751953125,-0.647429883480072,0.22179622948169708,-0.16411881148815155
1773257631722733600,7.965733642578125,-0.7556026577949524,0.22105716168880463,-0.17153269052505493
1773257631732760300,7.97576025390625,-0.9074446558952332,0.29053130745887756,-0.14516499638557434
1773257631742787300,7.985787353515625,-1.0632401704788208,0.42471379041671753,-0.07923543453216553
1773257631752813300,7.995813232421875,-1.3047845363616943,0.6411613821983337,-0.04332403838634491
1773257631762840600,8.005840576171876,-1.6931087970733643,0.9291818141937256,-0.023453805595636368
1773257631772867300,8.015867431640626,-2.1667089462280273,1.2441208362579346,-0.01942550763487816
1773257631782893300,8.025893310546875,-2.6587412357330322,1.507586121559143,-0.020154740661382675
1773257631792920300,8.03592041015625,-2.6869988441467285,1.7263907194137573,0.008341615088284016
1773257631802946300,8.0459462890625,-2.145258903503418,1.2247586250305176,0.37233832478523254
1773257631812973600,8.0559736328125,-1.6741950511932373,0.7735283374786377,0.5062026381492615
1773257631823000300,8.066000244140625,-1.5670086145401,0.8932532072067261,0.11189895868301392
1773257631833026300,8.0760263671875,-1.5295536518096924,0.6649580001831055,0.01608588546514511
1773257631843053300,8.08605322265625,-1.4588650465011597,0.3688103258609772,0.05816921219229698
1773257631853080600,8.09608056640625,-1.2743396759033203,0.1850692629814148,-0.013160362839698792
1773257631863106600,8.1061064453125,-1.0522772073745728,0.1687072366476059,-0.14995747804641724
1773257631873133300,8.11613330078125,-0.6165782809257507,-0.28266021609306335,-0.35066553950309753
1773257631883160300,8.126160400390624,-0.2394327074289322,-1.0846611261367798,-0.06056847795844078
1773257631893186300,8.136186279296876,-0.25290191173553467,-1.2921391725540161,0.05995394289493561
1773257631903213600,8.146213623046876,-0.3248938322067261,-1.4401397705078125,0.023233231157064438
1773257631913240300,8.156240234375,-0.30004918575286865,-1.5879513025283813,0.09133931994438171
1773257631923266300,8.166266357421875,-0.18277236819267273,-1.338660717010498,0.16728641092777252
1773257631933293300,8.176293212890625,-0.03339485451579094,-1.2888773679733276,0.19231213629245758
1773257631943320600,8.186320556640625,0.0831160768866539,-1.3241714239120483,0.19552381336688995
1773257631953346600,8.1963466796875,0.14058363437652588,-1.2236478328704834,0.2218662053346634
1773257631963373300,8.206373291015625,0.12372361868619919,-1.1292173862457275,0.28236663341522217
1773257631973400300,8.216400390625,0.08728651702404022,-1.075000524520874,0.27433720231056213
1773257631983426300,8.22642626953125,-0.02063070423901081,-1.0797497034072876,0.17019818723201752
1773257631993453600,8.23645361328125,-0.20094960927963257,-0.8909182548522949,0.17348425090312958
1773257632003480300,8.246480224609375,-0.38489148020744324,-0.6541239023208618,0.15774841606616974
1773257632013506300,8.25650634765625,-0.4068702757358551,-0.6468963623046875,0.125510573387146
1773257632023533300,8.266533203125,-0.3079988956451416,-0.6204018592834473,0.1104733943939209
1773257632033560600,8.276560546875,-0.22314712405204773,-0.19937768578529358,0.028152424842119217
1773257632043586600,8.286586669921874,-0.06969286501407623,0.3357899487018585,-0.08782438933849335
1773257632053613300,8.29661328125,0.25284817814826965,1.1318806409835815,-0.2360071986913681
1773257632063639300,8.306639404296876,0.6921069025993347,1.9215824604034424,-0.2978235185146332
1773257632073666300,8.316666259765626,0.909002423286438,2.3386025428771973,-0.3399171829223633
1773257632083693600,8.326693603515626,0.689121425151825,2.240565538406372,-0.26964184641838074
1773257632093719600,8.336719482421875,0.3098948001861572,1.8607757091522217,-0.0922849252820015
1773257632103746300,8.346746337890625,-0.19026261568069458,1.0597152709960938,0.3138444423675537
1773257632113773300,8.356773193359375,-0.8510762453079224,0.17038540542125702,0.4869736135005951
1773257632123799300,8.36679931640625,-1.1865596771240234,0.36262381076812744,0.07293111085891724
1773257632133826600,8.37682666015625,-1.225581169128418,1.1035929918289185,-0.007911537773907185
1773257632143853300,8.386853271484375,-1.2453986406326294,1.5450921058654785,0.0080548245459795
1773257632153879300,8.39687939453125,-1.2775317430496216,1.741349697113037,-0.0971810519695282
1773257632163906300,8.40690625,-1.20168137550354,1.537238597869873,-0.059967465698719025
1773257632173933600,8.41693359375,-1.0288041830062866,1.0138238668441772,0.021565480157732964
1773257632183959600,8.42695947265625,-0.8505014777183533,0.5990397334098816,0.03684433549642563
1773257632193986300,8.436986328125,-0.733521044254303,0.3840981125831604,0.07220285385847092
1773257632204013000,8.447012939453124,-0.6395102143287659,0.2662963271141052,0.05724740028381348
1773257632214039000,8.4570390625,-0.572190523147583,0.2879108190536499,0.04007826745510101
1773257632224066000,8.467066162109376,-0.5463718771934509,0.5651950836181641,-0.012284941971302032
1773257632234093000,8.477093017578126,-0.5220507979393005,0.9017736315727234,0.0008244682103395462
1773257632244119000,8.487119140625,-0.4954864978790283,1.0257984399795532,0.019912991672754288
1773257632254146000,8.49714599609375,-0.41009196639060974,0.9206893444061279,0.04563300311565399
1773257632264172000,8.507172119140625,-0.29323503375053406,0.6750646233558655,0.08032693713903427
1773257632274199000,8.517198974609375,-0.21654479205608368,0.42608705163002014,0.10687785595655441
1773257632284226000,8.52722607421875,-0.12533703446388245,0.28121963143348694,0.24587507545948029
1773257632294252000,8.537251953125,-0.09932300448417664,0.2265869826078415,0.2476481944322586
1773257632304279000,8.547279052734375,-0.09968163073062897,0.28683966398239136,0.19721978902816772
1773257632314306000,8.55730615234375,-0.15996894240379333,0.44430091977119446,0.13569597899913788
1773257632324332000,8.56733203125,-0.24573659896850586,0.6738629937171936,0.0875299945473671
1773257632334359000,8.577359130859374,-0.32598456740379333,0.808860182762146,0.07799028605222702
1773257632344386000,8.587385986328124,-0.36166200041770935,0.6083017587661743,0.18869753181934357
1773257632354412000,8.597412109375,-0.346934974193573,0.049666136503219604,0.3723112940788269
1773257632364439000,8.60743896484375,-0.2896018922328949,-0.6938817501068115,0.6225982308387756
1773257632374466000,8.617466064453126,-0.16593481600284576,-1.2039811611175537,0.7766572833061218
1773257632384492000,8.627491943359376,-0.07995155453681946,-1.3970481157302856,0.7834836840629578
1773257632394519000,8.63751904296875,-0.03956524655222893,-1.5707440376281738,0.8411563038825989
1773257632404546000,8.647546142578125,-0.07040107995271683,-1.6107149124145508,0.8171545267105103
1773257632414572000,8.657572021484375,-0.09462332725524902,-1.6061995029449463,0.6294435262680054
1773257632424599000,8.66759912109375,-0.1015162393450737,-1.539332628250122,0.4092055857181549
1773257632434625000,8.677625,-0.11551301181316376,-1.4272921085357666,0.13884013891220093
1773257632444652000,8.687652099609375,-0.10836675763130188,-1.168904185295105,-0.15300831198692322
1773257632454679000,8.697678955078125,-0.1254863440990448,-0.9598100185394287,-0.2846129238605499
1773257632464705000,8.707705078125,-0.19039762020111084,-0.5942646861076355,-0.16492722928524017
1773257632474732300,8.717732177734375,-0.1947939693927765,-1.0009807348251343,-0.05463400483131409
1773257632484759000,8.727759033203125,-0.19419172406196594,-1.8311504125595093,0.09639663994312286
1773257632494785000,8.737784912109374,-0.3303990960121155,-2.3329992294311523,0.1786547601222992
1773257632504812000,8.74781201171875,-0.2904883027076721,-2.2754507064819336,0.114260233938694
1773257632514839000,8.757839111328124,0.0051707858219742775,-1.1924494504928589,0.2631258964538574
1773257632524865000,8.767864990234376,0.34805363416671753,1.131602168083191,0.6603233814239502
1773257632534892000,8.77789208984375,0.2920236587524414,3.2441909313201904,0.9409174919128418
1773257632544919000,8.7879189453125,-0.14018163084983826,2.514957904815674,0.9557206630706787
1773257632554945000,8.797945068359375,-0.22600333392620087,1.4229705333709717,1.0322694778442383
1773257632564972300,8.80797216796875,-0.31745338439941406,1.9273240566253662,0.9483828544616699
1773257632574999000,8.8179990234375,-0.5985186100006104,2.3632805347442627,0.8724228143692017
1773257632585025000,8.82802490234375,-0.7989614605903625,2.2833058834075928,0.9542665481567383
1773257632595052000,8.838052001953125,-0.7908987402915955,1.0918387174606323,0.9974164366722107
1773257632605079000,8.8480791015625,-0.600338339805603,0.09335589408874512,0.7956724166870117
1773257632615105300,8.858105224609375,-0.3019905686378479,-0.17228403687477112,0.3136085569858551
1773257632625132000,8.868132080078125,-0.05765292048454285,-0.08425585925579071,-0.09826241433620453
1773257632635158000,8.878157958984374,0.05330981686711311,0.07772638648748398,-0.1995576024055481
1773257632645185000,8.88818505859375,0.06525839865207672,0.24351193010807037,-0.1134185642004013
1773257632655212300,8.89821240234375,0.03390633687376976,0.3021896183490753,0.006281739100813866
1773257632665238000,8.908238037109374,-0.004236668813973665,0.23044724762439728,0.07826988399028778
1773257632675265000,8.91826513671875,-0.023173341527581215,0.10385947674512863,0.09921245276927948
1773257632685292000,8.9282919921875,-0.030917471274733543,0.011162087321281433,0.0950181782245636
1773257632695318000,8.938318115234376,-0.03181255981326103,-0.015524917282164097,0.08644040673971176
1773257632705345300,8.94834521484375,-0.030176419764757156,0.0008015269413590431,0.07533928751945496
1773257632715372000,8.9583720703125,-0.030972439795732498,0.010351089760661125,0.06382325291633606
1773257632725398000,8.96839794921875,-0.026930151507258415,-0.0035182107239961624,0.05275984853506088
1773257632735425000,8.978425048828125,-0.02516287751495838,-0.02167670801281929,0.04058174788951874
1773257632745452000,8.9884521484375,-0.02511504851281643,-0.011300832033157349,0.03289187699556351
1773257632755478000,8.99847802734375,-0.021770117804408073,0.023157808929681778,0.026569265872240067
1773257632765505000,9.008505126953125,-0.04498745873570442,0.1461336761713028,-0.010802872478961945
1773257632775531000,9.018531005859375,-0.049402978271245956,0.24645096063613892,-0.04310088977217674
1773257632785558000,9.02855810546875,-0.02360476925969124,0.20796893537044525,-0.024825483560562134
1773257632795585300,9.038585205078125,0.010909797623753548,0.06745097041130066,0.03147107735276222
1773257632805611000,9.048611083984374,0.02829834073781967,-0.02060895599424839,0.06152281165122986
1773257632815638000,9.058637939453124,0.03701459988951683,-0.060959309339523315,0.07568257302045822
1773257632825665000,9.0686650390625,-0.08586795628070831,0.4589367210865021,-0.11510443687438965
1773257632835691000,9.07869091796875,-0.2594884932041168,0.9853622317314148,-0.22682110965251923
1773257632845718300,9.08871826171875,-0.22392070293426514,0.40647411346435547,0.10049781203269958
1773257632855745000,9.0987451171875,-0.02966867946088314,-0.3821033239364624,0.335712194442749
1773257632865771000,9.10877099609375,0.07904428243637085,-0.4372544288635254,0.18499892950057983
1773257632875798000,9.118798095703125,0.021861420944333076,-0.05819340795278549,0.0036568371579051018
1773257632885825300,9.1288251953125,-0.07278910279273987,0.35681095719337463,-0.04541116952896118
1773257632895851000,9.13885107421875,-0.1319355070590973,0.45905476808547974,0.00027323048561811447
1773257632905878000,9.1488779296875,-0.1094491109251976,0.3252352774143219,0.015427542850375175
1773257632915905000,9.158905029296875,-0.044528696686029434,0.11054268479347229,0.0014984114095568657
1773257632925931000,9.168930908203125,0.010109602473676205,-0.08767951279878616,0.021582672372460365
1773257632935958300,9.178958251953125,0.046249233186244965,-0.10920291393995285,0.11451581120491028
1773257632945985000,9.188985107421875,0.07853540033102036,-0.047046445310115814,0.22324049472808838
1773257632956011000,9.199010986328124,0.11507290601730347,-0.042240504175424576,0.28174322843551636
1773257632966038000,9.2090380859375,0.0635850727558136,0.05308087170124054,0.3012649714946747
1773257632976064000,9.21906396484375,-0.039642512798309326,0.2354205846786499,0.23348776996135712
1773257632986091300,9.22909130859375,-0.08828656375408173,0.2589908242225647,0.11777827888727188
1773257632996118000,9.239117919921876,-0.08176767826080322,0.17650742828845978,-0.021040596067905426
1773257633006144000,9.24914404296875,-0.008966514840722084,0.09476643055677414,-0.13116012513637543
1773257633016171000,9.2591708984375,0.09771652519702911,0.14916256070137024,-0.05471460893750191
1773257633026198300,9.2691982421875,0.17027190327644348,0.12396857887506485,0.040464334189891815
1773257633036224000,9.27922412109375,0.1389339566230774,0.003181178355589509,0.059057459235191345
1773257633046251000,9.2892509765625,0.05506644770503044,-0.1659470647573471,-0.011498497799038887
1773257633056278000,9.299278076171875,0.0010306440526619554,-0.2753121554851532,-0.08475087583065033
1773257633066304000,9.309303955078125,-0.0313735269010067,-0.26716148853302,-0.10788843035697937
1773257633076331300,9.319331298828125,-0.0428171306848526,-0.1999955177307129,-0.08376497775316238
1773257633086358000,9.32935791015625,-0.014705667272210121,-0.11110891401767731,-0.04892413318157196
1773257633096384000,9.339384033203125,0.010467062704265118,-0.0577588714659214,-0.010901916772127151
1773257633106411000,9.349410888671875,0.020455317571759224,-0.02138129621744156,0.011424648575484753
1773257633116437000,9.35943701171875,0.008815704844892025,0.04551304876804352,0.011629712767899036
1773257633126464300,9.36946435546875,-0.006775234825909138,0.08053930848836899,0.0026770923286676407
1773257633136491000,9.379490966796874,-0.010829897597432137,0.045131780207157135,-0.004164568614214659
1773257633146517000,9.38951708984375,-0.00922784861177206,-0.003361253533512354,-0.011307425796985626
1773257633156544000,9.3995439453125,-0.006628869567066431,-0.028630925342440605,-0.023340385407209396
1773257633166571300,9.4095712890625,-0.004213160369545221,-0.05282764136791229,-0.02183319441974163
1773257633176597000,9.419596923828125,-0.006385234650224447,-0.044719114899635315,-0.021392975002527237
1773257633186624000,9.4296240234375,-0.005872192792594433,-0.02232726663351059,-0.013718301430344582
1773257633196651800,9.43965185546875,-0.00018208276014775038,-0.020493147894740105,-0.009877756237983704
1773257633206678000,9.449677978515625,0.005899705924093723,-0.030557455494999886,-0.01229306124150753
1773257633216704800,9.459704833984375,0.006848856341093779,-0.008782651275396347,-0.02300243079662323
1773257633226731800,9.469731689453125,0.003494233824312687,0.015463602729141712,-0.02870893105864525
1773257633236757800,9.4797578125,0.005665775388479233,0.02679908275604248,-0.02625536173582077
1773257633246784800,9.48978466796875,0.008667605929076672,0.023365484550595284,-0.028907250612974167
1773257633256811800,9.499811767578125,0.014872238971292973,0.04368434101343155,-0.05028550699353218
1773257633266837800,9.509837646484375,0.04394136369228363,0.3016015887260437,-0.21017178893089294
1773257633276864800,9.51986474609375,0.11093557626008987,0.3295557200908661,-0.2792632281780243
1773257633286890800,9.529890869140624,0.11190614849328995,0.26661938428878784,-0.2882639467716217
1773257633296917800,9.539917724609374,0.06094363331794739,0.40536341071128845,-0.36057648062705994
1773257633306944800,9.54994482421875,0.011325407773256302,0.45185422897338867,-0.34775641560554504
1773257633316970800,9.559970703125,-0.03899688646197319,0.43982499837875366,-0.29992151260375977
1773257633326997800,9.569997802734376,-0.08035090565681458,0.4372752606868744,-0.27432283759117126
1773257633337024800,9.580024658203126,-0.07837830483913422,0.44520774483680725,-0.26932621002197266
1773257633347051000,9.590051025390625,-0.04563714563846588,0.4199219048023224,-0.2567867040634155
1773257633357077800,9.600077880859375,-0.0317721962928772,0.3831905126571655,-0.2415749877691269
1773257633367104800,9.610104736328125,-0.013050242327153683,0.30818647146224976,-0.1906084418296814
1773257633377130800,9.620130859375,0.0091373510658741,0.17794004082679749,-0.13804137706756592
1773257633387157800,9.63015771484375,0.04874296486377716,-0.050361305475234985,-0.04066126048564911
1773257633397184800,9.640184814453125,0.07823241502046585,-0.24995750188827515,0.05405006930232048
1773257633407210800,9.650210693359375,0.07611846923828125,-0.3494955897331238,0.11006975173950195
1773257633417237800,9.66023779296875,0.07909534871578217,-0.38532280921936035,0.13516418635845184
1773257633427264800,9.6702646484375,0.0798289105296135,-0.3527139127254486,0.12137149274349213
1773257633437291000,9.680291015625,0.06894297152757645,-0.31017976999282837,0.13191121816635132
1773257633447317800,9.69031787109375,0.03642972186207771,-0.16461676359176636,0.08883656561374664
1773257633457344800,9.7003447265625,-0.029929323121905327,-0.10646238923072815,0.09551364183425903
1773257633467370800,9.710370849609374,-0.09544414281845093,-0.2652912437915802,0.2536369264125824
1773257633477397800,9.720397705078126,-0.14186783134937286,-0.44211500883102417,0.41397467255592346
1773257633487424000,9.730424072265626,-0.10606316477060318,-0.3257922828197479,0.3282022178173065
1773257633497450800,9.74045068359375,-0.02633557841181755,-0.0321715883910656,0.08745433390140533
1773257633507477800,9.750477783203126,-0.0011363213416188955,0.049156323075294495,0.007828336209058762
1773257633517503700,9.760503662109375,-0.051777929067611694,-0.009671572595834732,0.05552635341882706
1773257633527531000,9.770531005859375,-0.03579622879624367,-0.027983346953988075,0.03945387154817581
1773257633537557800,9.780557861328125,0.000002248561941087246,-0.03800428658723831,0.017384257167577744
1773257633547583700,9.790583740234375,0.007587584666907787,-0.04949307441711426,0.025816718116402626
1773257633557610800,9.80061083984375,0.012648656964302063,-0.027589639648795128,0.028506511822342873
1773257633567637800,9.8106376953125,0.028156690299510956,0.016038816422224045,0.004612978547811508
1773257633577664000,9.8206640625,0.03636481985449791,0.048532046377658844,-0.017979949712753296
1773257633587690800,9.830690673828125,0.0633033737540245,0.07070206850767136,-0.0412178710103035
1773257633597717800,9.8407177734375,0.0705580860376358,0.14271047711372375,-0.10324661433696747
1773257633607743700,9.85074365234375,0.07360038161277771,0.4281637370586395,-0.2062038779258728
1773257633617771000,9.86077099609375,0.05329563841223717,0.54316246509552,-0.21411028504371643
1773257633627797800,9.8707978515625,0.0312795490026474,0.4003794193267822,-0.1774466633796692
1773257633637823700,9.88082373046875,0.033169593662023544,-0.2427782416343689,0.09232809394598007
1773257633647850800,9.890850830078126,-0.047186143696308136,-0.30927127599716187,0.20836886763572693
1773257633657876700,9.900876708984375,-0.027991678565740585,-0.31495019793510437,0.2268488109111786
1773257633667904000,9.910904052734375,-0.05356426164507866,-0.1071431115269661,0.032398246228694916
1773257633677930800,9.9209306640625,-0.04081251472234726,-0.04464750736951828,-0.05879690870642662
1773257633687956700,9.930956787109375,-0.010721203871071339,0.03057185560464859,-0.1094503328204155
1773257633697983700,9.940983642578125,-0.03500710055232048,0.08363108336925507,-0.11849682778120041
1773257633708011000,9.951010986328125,-0.04639854282140732,0.10437513142824173,-0.15000352263450623
1773257633718037000,9.961037109375,-0.03323214128613472,-0.03650049865245819,-0.1225665733218193
1773257633728063700,9.971063720703125,-0.01665639691054821,-0.1456071138381958,-0.1288672536611557
1773257633738090800,9.9810908203125,-0.01569845713675022,-0.13493236899375916,-0.12599317729473114
1773257633748116700,9.99111669921875,-0.05883980542421341,-0.107445627450943,-0.07580617815256119
1773257633758144000,10.00114404296875,-0.09196420013904572,-0.08548440039157867,-0.031671468168497086
1773257633768170800,10.011170654296874,-0.2088504582643509,-0.09712620824575424,0.047423355281353
1773257633778196700,10.02119677734375,-0.17686162889003754,0.06994933634996414,0.0016502756625413895
1773257633788223700,10.0312236328125,-0.17881539463996887,0.14741919934749603,0.014045894145965576
1773257633798251000,10.0412509765625,-0.19978219270706177,0.23194794356822968,0.002187104895710945
1773257633808277000,10.051277099609376,-0.25134408473968506,0.24587014317512512,0.008725672028958797
1773257633818303700,10.0613037109375,-0.2286430150270462,0.21983161568641663,-0.0015104548074305058
1773257633828329700,10.071329833984375,-0.15497347712516785,0.11931628733873367,-0.03643159568309784
1773257633838356700,10.081356689453125,-0.09117558598518372,0.07620929926633835,-0.09881294518709183
1773257633848384000,10.091384033203125,-0.06628341972827911,0.021269958466291428,-0.1201448142528534
1773257633858410000,10.101409912109375,-0.051648546010255814,0.007919533178210258,-0.14780573546886444
1773257633868436700,10.111436767578125,-0.030382893979549408,-0.041587524116039276,-0.1515483856201172
1773257633878463700,10.121463623046875,-0.059529859572649,0.009911084547638893,-0.16176721453666687
1773257633888489700,10.13148974609375,-0.09764201939105988,0.0573921725153923,-0.12151036411523819
1773257633898517000,10.14151708984375,-0.12477483600378036,0.21792592108249664,-0.17009708285331726
1773257633908543700,10.151543701171875,-0.18201042711734772,0.277905136346817,-0.1770281344652176
1773257633918569700,10.16156982421875,-0.1866493821144104,0.32079508900642395,-0.17135559022426605
1773257633928596700,10.1715966796875,-0.2091849446296692,0.36869537830352783,-0.1855280101299286
1773257633938624000,10.1816240234375,-0.20116323232650757,0.3766457140445709,-0.17577071487903595
1773257633948650000,10.19164990234375,-0.180621936917305,0.32469919323921204,-0.14152103662490845
1773257633958676700,10.2016767578125,-0.16065116226673126,-0.26468074321746826,0.25584256649017334
1773257633968703700,10.211703857421876,-0.16677109897136688,0.2755674421787262,-0.15465988218784332
1773257633978729700,10.221729736328125,-0.14759793877601624,0.18011946976184845,-0.13657142221927643
1773257633988757000,10.231757080078125,-0.07419127225875854,-0.5173324942588806,0.3433595299720764
1773257633998783000,10.241782958984375,-0.03794938325881958,-0.38509005308151245,0.2464316487312317
1773257634008809700,10.251809814453125,0.011206707917153835,-0.6094066500663757,0.3672437071800232
1773257634018836700,10.261836669921875,-0.0748344361782074,-0.7761410474777222,0.43146368861198425
1773257634028862700,10.27186279296875,-0.1925889253616333,-0.18541231751441956,0.053946785628795624
1773257634038890000,10.281889892578125,-0.23195818066596985,0.06707213073968887,-0.12515506148338318
1773257634048916700,10.291916748046875,-0.24172858893871307,0.059793755412101746,-0.10574682056903839
1773257634058942700,10.301942626953124,-0.0786547064781189,-0.5121456384658813,0.31692346930503845
1773257634068969700,10.3119697265625,-0.46369948983192444,0.576117217540741,-0.35161346197128296
1773257634078997000,10.3219970703125,-0.5488551259040833,0.48924463987350464,-0.2208506464958191
1773257634089023000,10.33202294921875,-0.6454581022262573,0.49407100677490234,-0.19224666059017181
1773257634099049700,10.3420498046875,-0.6226768493652344,0.4494470953941345,-0.18895260989665985
1773257634109076700,10.35207666015625,-0.5279390215873718,0.3677487373352051,-0.13869346678256989
1773257634119102700,10.362102783203126,-0.43349266052246094,0.1999288648366928,0.033780306577682495
1773257634129130000,10.3721298828125,-0.3764040470123291,0.023021847009658813,0.23700688779354095
1773257634139156700,10.38215673828125,-0.29980993270874023,-0.23076117038726807,0.4498318135738373
1773257634149182700,10.3921826171875,-0.30647584795951843,-0.39859384298324585,0.5465763807296753
1773257634159209700,10.402209716796875,-0.23607677221298218,-0.6912055015563965,0.7211559414863586
1773257634169237000,10.412237060546875,-0.2376355230808258,-0.5035240650177002,0.6157742738723755
1773257634179263000,10.422262939453125,-0.2886747419834137,-0.21885401010513306,0.40836969017982483
1773257634189289700,10.432289794921875,-0.23515692353248596,-0.025670967996120453,0.29168060421943665
1773257634199315200,10.442315185546875,-0.1279950588941574,0.14420542120933533,0.1950336992740631
1773257634209342500,10.452342529296875,-0.06992143392562866,0.1989755928516388,0.14368265867233276
1773257634219369500,10.462369384765625,0.001101871719583869,0.24733087420463562,0.10679148882627487
1773257634229395500,10.4723955078125,0.03634227067232132,0.21779535710811615,0.07138632982969284
1773257634239422200,10.482422119140624,0.03031793050467968,0.1778426170349121,0.0511108860373497
1773257634249449500,10.492449462890624,0.04196875914931297,0.19924113154411316,0.03282754495739937
1773257634259475500,10.502475341796876,0.064649298787117,0.21596817672252655,0.020696580410003662
1773257634269502500,10.51250244140625,0.0990273654460907,0.23406733572483063,0.04116695746779442
1773257634279529200,10.522529296875,0.09629122912883759,0.1858326941728592,0.08134394139051437
1773257634289555200,10.53255517578125,0.04546103626489639,0.12405204772949219,0.1720222681760788
1773257634299582500,10.54258251953125,0.0008328479016199708,0.0848497822880745,0.25399065017700195
1773257634309609500,10.552609375,-0.012868163175880909,0.04600182920694351,0.2873551547527313
1773257634319635500,10.562635498046875,0.05442245677113533,0.06934309750795364,0.23912103474140167
1773257634329662200,10.572662109375,0.13517463207244873,0.11342271417379379,0.1514035165309906
1773257634339688200,10.582688232421875,0.21855872869491577,0.1322706937789917,0.07055766880512238
1773257634349715500,10.592715576171875,0.26569902896881104,0.09461303800344467,0.024223370477557182
1773257634359742500,10.602742431640625,0.2936510145664215,0.028741348534822464,0.019684545695781708
1773257634369768400,10.6127685546875,0.24332472681999207,-0.07991395145654678,0.08766068518161774
1773257634379795200,10.622795166015624,0.24475963413715363,-0.2386402189731598,0.17328236997127533
1773257634389822500,10.632822509765624,0.24695050716400146,-0.3765386641025543,0.24861270189285278
1773257634399848400,10.642848388671876,0.27665913105010986,-0.4539506435394287,0.29936376214027405
1773257634409875500,10.65287548828125,0.24646693468093872,-0.461055725812912,0.32736194133758545
1773257634419902200,10.662902099609376,0.24485918879508972,-0.41771888732910156,0.3013787865638733
1773257634429928200,10.67292822265625,0.2659967243671417,-0.37307897210121155,0.24738909304141998
1773257634439955500,10.68295556640625,0.25372034311294556,-0.2658233642578125,0.17609092593193054
1773257634449982500,10.692982421875,0.2394006848335266,-0.21456947922706604,0.1203734427690506
1773257634460008400,10.703008544921875,0.21215708553791046,-0.3301706314086914,0.1369582712650299
1773257634470035200,10.71303515625,0.3331573009490967,-0.33274468779563904,0.13547588884830475
1773257634480061400,10.7230615234375,0.40329352021217346,-0.2978857755661011,0.06934933364391327
1773257634490088400,10.73308837890625,0.35366177558898926,-0.30626678466796875,0.03691999614238739
1773257634500115500,10.743115478515625,0.35780858993530273,-0.2901943325996399,0.0413333885371685
1773257634510141400,10.753141357421875,0.3883139193058014,-0.4461221396923065,0.06891905516386032
1773257634520168200,10.763168212890625,0.43327048420906067,-0.6238356828689575,0.09471896290779114
1773257634530195500,10.773195556640625,0.4582310616970062,-0.6008129119873047,0.10004226118326187
1773257634540221400,10.783221435546874,0.46555501222610474,-0.5115117430686951,0.12603658437728882
1773257634550248400,10.79324853515625,0.4240551292896271,-0.4699726402759552,0.1486968845129013
1773257634560275200,10.803275146484374,0.42206308245658875,-0.3701099455356598,0.13079458475112915
1773257634570301400,10.813301513671876,0.4558732211589813,-0.24466873705387115,0.07248638570308685
1773257634580328400,10.823328369140626,0.4718255400657654,-0.22785192728042603,0.023196863010525703
1773257634590354400,10.8333544921875,0.4381306767463684,-0.226424902677536,-0.006862695794552565
1773257634600381400,10.84338134765625,0.34642791748046875,-0.2937014400959015,-0.012541620060801506
1773257634610408200,10.853408203125,0.18695878982543945,-0.24561695754528046,-0.012431785464286804
1773257634620434400,10.863434326171875,0.013962781056761742,-0.08547840267419815,-0.007028231397271156
1773257634630461400,10.87346142578125,-0.08481843769550323,-0.007497032172977924,0.01985226757824421
1773257634640488400,10.883488525390625,-0.10130580514669418,0.043563224375247955,0.053815826773643494
1773257634650514400,10.893514404296875,-0.09061849862337112,0.04074990004301071,0.10663365572690964
1773257634660541400,10.90354150390625,-0.02650369331240654,-0.263174831867218,0.13933780789375305
1773257634670568400,10.913568359375,0.12003232538700104,-0.3551259934902191,0.08496910333633423
1773257634680594400,10.923594482421874,0.22193099558353424,-0.3039379119873047,0.02679261565208435
1773257634690621400,10.933621337890624,0.24127531051635742,-0.32355108857154846,0.03457656130194664
1773257634700648200,10.943648193359374,0.26238298416137695,-0.25787967443466187,0.044558085501194
1773257634710674400,10.95367431640625,0.2895888686180115,-0.19643744826316833,0.06775987893342972
1773257634720701400,10.963701416015626,0.3097783029079437,-0.2298840880393982,0.11928857862949371
1773257634730727400,10.9737275390625,0.3314894437789917,-0.22186575829982758,0.16323718428611755
1773257634740754400,10.98375439453125,0.26716238260269165,-0.10677964985370636,0.1615801602602005
1773257634750781400,10.993781494140626,0.1791376918554306,-0.030815942212939262,0.14569857716560364
1773257634760807400,11.003807373046875,0.09919837862253189,-0.037267714738845825,0.1186230257153511
1773257634770834400,11.01383447265625,0.04102616012096405,-0.07201787829399109,0.0834646224975586
1773257634780861400,11.023861328125,0.03031838685274124,-0.1626492440700531,0.0845479965209961
1773257634790887400,11.033887451171875,0.028059037402272224,-0.21109527349472046,0.09849411249160767
1773257634800914400,11.04391455078125,0.024210503324866295,-0.10803654789924622,0.09834390878677368
1773257634810941400,11.05394140625,0.01896289922297001,0.03795299306511879,0.09928415715694427
1773257634820967400,11.063967529296875,0.020202599465847015,0.1601737141609192,0.09648251533508301
1773257634830994400,11.073994384765625,0.006744194310158491,0.3124646246433258,0.09957887977361679
1773257634841020400,11.0840205078125,-0.01159619726240635,0.41410788893699646,0.11534266173839569
1773257634851047400,11.09404736328125,-0.04594144970178604,0.44404587149620056,0.13206331431865692
1773257634861074400,11.104074462890624,-0.07148782163858414,0.41133373975753784,0.14156998693943024
1773257634871100400,11.114100341796876,-0.0939347892999649,0.2556400001049042,0.13606202602386475
1773257634881127400,11.12412744140625,-0.12737317383289337,0.1805303543806076,0.12131129950284958
1773257634891154400,11.134154541015626,-0.08685564249753952,0.11083386093378067,0.10693441331386566
1773257634901180400,11.144180419921875,-0.03558206930756569,0.11468452960252762,0.0727894976735115
1773257634911207400,11.15420751953125,-0.012348882853984833,0.17748676240444183,0.06408938765525818
1773257634921234400,11.164234375,-0.027705468237400055,0.22554270923137665,0.054731838405132294
1773257634931260400,11.174260498046875,-0.10963789373636246,0.3889603018760681,0.06238004192709923
1773257634941287400,11.184287353515625,-0.21238529682159424,0.5817700028419495,0.08417589217424393
1773257634951313400,11.1943134765625,-0.23966386914253235,0.6819960474967957,0.0662057101726532
1773257634961340400,11.20434033203125,-0.15930671989917755,0.4332432448863983,0.016230963170528412
1773257634971367400,11.214367431640625,-0.03738811984658241,0.21518287062644958,-0.014254197478294373
1773257634981393400,11.224393310546875,-0.004803280811756849,-0.08132389187812805,0.00893048383295536
1773257634991420400,11.23442041015625,-0.040238022804260254,-0.5557749271392822,0.026479782536625862
1773257635001447400,11.244447509765624,0.05913170427083969,-0.40406420826911926,-0.0702398344874382
1773257635011473400,11.254473388671874,0.12282465398311615,-0.9431734681129456,-0.06454143673181534
1773257635021500400,11.26450048828125,0.36509108543395996,-0.5997854471206665,-0.20995935797691345
1773257635031527400,11.27452734375,0.33186137676239014,-0.8395147323608398,-0.13094496726989746
1773257635041553400,11.284553466796876,0.21462130546569824,-0.6331735849380493,-0.10845936089754105
1773257635051580400,11.294580322265626,-0.08228208124637604,-0.576980471611023,-0.018086113035678864
1773257635061606400,11.3046064453125,-0.36555108428001404,-0.43048664927482605,-0.0041979956440627575
1773257635071633400,11.31463330078125,-0.4878060221672058,-0.29612991213798523,-0.05050314962863922
1773257635081660400,11.324660400390625,-0.4924526810646057,-0.10197081416845322,-0.09548207372426987
1773257635091686400,11.334686279296875,-0.3883708119392395,0.35408350825309753,-0.14956949651241302
1773257635101713400,11.34471337890625,-0.4873802363872528,0.3811984658241272,-0.08046870678663254
1773257635111740400,11.354740478515625,-0.7552977800369263,0.040496692061424255,-0.0948835164308548
1773257635121766400,11.364766357421875,-0.9669093489646912,0.21136963367462158,-0.2911462187767029
1773257635131793400,11.37479345703125,-0.7196870446205139,0.2614024579524994,-0.5472823977470398
1773257635141820400,11.3848203125,-0.08544161915779114,0.07953676581382751,-0.7568351030349731
1773257635151846400,11.394846435546874,0.25386568903923035,-0.10133735835552216,-0.7139444351196289
1773257635161873400,11.404873291015624,0.06762630492448807,-0.16084009408950806,-0.5191872119903564
1773257635171899400,11.4148994140625,-0.5373772382736206,-0.08010968565940857,-0.3240618407726288
1773257635181926400,11.424926513671876,-0.8657044768333435,0.25263577699661255,-0.4180067181587219
1773257635191953400,11.434953369140626,-0.3495948314666748,0.1119312196969986,-0.5800352692604065
1773257635201979100,11.444979248046875,0.09341880679130554,-0.028043990954756737,-0.5503103733062744
1773257635212006100,11.455006103515625,0.16392432153224945,-0.05851060897111893,-0.27857014536857605
1773257635222033200,11.465033203125,0.02702772058546543,0.003655030857771635,0.06281780451536179
1773257635232059100,11.47505908203125,-0.15592017769813538,0.15243443846702576,0.3077108561992645
1773257635242086100,11.485086181640625,-0.25184428691864014,0.34622281789779663,0.3995707333087921
1773257635252113200,11.495113037109375,-0.2538887560367584,0.483529269695282,0.3643699884414673
1773257635262139100,11.50513916015625,-0.17070385813713074,0.11918861418962479,0.27334660291671753
1773257635272166100,11.515166259765625,0.031449850648641586,-0.13707932829856873,0.15102410316467285
1773257635282192100,11.525192138671875,0.10182974487543106,0.06992284953594208,0.0006409967318177223
1773257635292219100,11.53521923828125,0.058646734803915024,0.33515411615371704,-0.12630587816238403
1773257635302246100,11.54524609375,0.013967151753604412,0.4571487307548523,-0.17629848420619965
1773257635312272100,11.555272216796874,0.0041473498567938805,0.4222947955131531,-0.14264002442359924
1773257635322299100,11.565299072265624,0.011207922361791134,0.31370440125465393,-0.08171222358942032
1773257635332326100,11.575326171875,0.012243940494954586,0.2700521647930145,-0.044969670474529266
1773257635342352100,11.58535205078125,0.01097680814564228,0.209352046251297,-0.04894576966762543
1773257635352379100,11.595379150390626,-0.0056255715899169445,0.08607406914234161,-0.04705832153558731
1773257635362406100,11.60540625,-0.03772518411278725,0.05437073856592178,-0.006110087037086487
1773257635372432100,11.61543212890625,-0.017222194001078606,0.002554039005190134,0.0036531807854771614
1773257635382459100,11.625459228515625,0.02661530300974846,-0.08543680608272552,-0.008627720177173615
1773257635392485000,11.635485107421875,0.023606114089488983,-0.13742239773273468,0.006781536154448986
1773257635402512100,11.64551220703125,0.03507634997367859,-0.20804569125175476,-0.008045879192650318
1773257635412539100,11.6555390625,0.05007588863372803,-0.24486789107322693,-0.03345945477485657
1773257635422565000,11.665565185546875,0.09700797498226166,-0.2591770589351654,-0.050034165382385254
1773257635432592100,11.675592041015625,0.16878743469715118,-0.2485954910516739,-0.053082749247550964
1773257635442619100,11.685619140625,0.1727169305086136,-0.24462898075580597,-0.052911240607500076
1773257635452645000,11.69564501953125,0.1275855451822281,-0.30144065618515015,-0.0899396538734436
1773257635462672100,11.705672119140624,0.057650141417980194,-0.26653140783309937,-0.11580294370651245
1773257635472699100,11.71569921875,-0.009755339473485947,-0.1469385027885437,-0.1207699403166771
1773257635482725000,11.72572509765625,-0.10008523613214493,-0.08082234114408493,-0.13387241959571838
1773257635492752100,11.735752197265626,-0.22136163711547852,-0.132735013961792,-0.13377073407173157
1773257635502778000,11.745778076171876,-0.2950608730316162,-0.19283322989940643,-0.09840661287307739
1773257635512805000,11.75580517578125,-0.3161989748477936,-0.20910820364952087,-0.07209073752164841
1773257635522832100,11.76583203125,-0.26848098635673523,-0.27686914801597595,-0.09744855761528015
1773257635532858000,11.775858154296875,-0.22478355467319489,-0.281927227973938,-0.09748072922229767
1773257635542885000,11.785885009765625,-0.23066380620002747,-0.16394519805908203,-0.07954487204551697
1773257635552912100,11.795912109375,-0.2127268761396408,-0.10043450444936752,-0.13193488121032715
1773257635562938000,11.805938232421875,-0.15596558153629303,-0.11032654345035553,-0.1885395646095276
1773257635572965000,11.815965087890625,-0.17349457740783691,-0.21645602583885193,-0.17471987009048462
1773257635582992100,11.8259921875,-0.33603528141975403,-0.35973861813545227,-0.11845341324806213
1773257635593018000,11.83601806640625,-0.5225778818130493,-0.4512101113796234,-0.07081577926874161
1773257635603045000,11.846045166015625,-0.5720796585083008,-0.4074096381664276,-0.02268739975988865
1773257635613071000,11.856071044921874,-0.44138678908348083,-0.5440056324005127,-0.07368436455726624
1773257635623098000,11.86609814453125,-0.22707581520080566,-0.5771278738975525,-0.03592927008867264
1773257635633125000,11.876125,0.0406348779797554,-0.42841222882270813,0.047108881175518036
1773257635643151400,11.8861513671875,0.34728190302848816,-0.2300003319978714,-0.015785660594701767
1773257635653178000,11.89617822265625,0.6622000932693481,-0.047919053584337234,-0.10142910480499268
1773257635663205000,11.906205078125,0.9088990688323975,0.05945853516459465,-0.0705750584602356
1773257635673231000,11.916231201171875,1.1372604370117188,0.10999400913715363,-0.020732587203383446
1773257635683258000,11.926258056640625,1.0400464534759521,0.13727223873138428,0.03606384992599487
1773257635693285000,11.93628515625,0.8920711278915405,0.03372121974825859,-0.03633205592632294
1773257635703311000,11.94631103515625,0.7341398000717163,0.18642528355121613,0.01749735325574875
1773257635713338000,11.956338134765625,0.48122119903564453,0.16326482594013214,0.0231078639626503
1773257635723364000,11.966364013671875,0.3139030337333679,-0.0815848633646965,-0.021017784252762794
1773257635733391400,11.976391357421875,0.15765458345413208,-0.2732597589492798,0.030349001288414
1773257635743418000,11.986418212890625,0.11546824872493744,-0.4250231683254242,0.05020899325609207
1773257635753444000,11.996444091796874,0.1873042732477188,-0.3717653453350067,0.03225775063037872
1773257635763471000,12.00647119140625,0.24030251801013947,-0.166608989238739,0.009300234727561474
1773257635773498000,12.016498046875,0.31743207573890686,0.032448653131723404,-0.02391817793250084
1773257635783524400,12.0265244140625,0.3853413760662079,0.17685748636722565,-0.035444073379039764
1773257635793551000,12.036551025390626,0.34262576699256897,0.1653556227684021,-0.06528303027153015
1773257635803578000,12.046578125,0.3451230227947235,-0.10930337756872177,-0.14909404516220093
1773257635813604000,12.05660400390625,0.36432021856307983,-0.31855663657188416,-0.1529788076877594
1773257635823631400,12.06663134765625,0.4059734046459198,-0.40101954340934753,-0.14720134437084198
1773257635833657300,12.0766572265625,0.43661659955978394,-0.3424922525882721,-0.1370542198419571
1773257635843684000,12.08668408203125,0.31009727716445923,-0.260198175907135,-0.13612611591815948
1773257635853711000,12.096711181640625,0.019784221425652504,-0.07777510583400726,-0.11813992261886597
1773257635863737000,12.106737060546875,-0.26320168375968933,0.5238396525382996,0.08472263813018799
1773257635873764400,12.116764404296875,-0.4865494966506958,1.5746392011642456,0.5378732085227966
1773257635883791000,12.126791015625,-0.5017907619476318,1.2051117420196533,0.5479029417037964
1773257635893817000,12.136817138671875,-0.30832162499427795,0.4551602005958557,0.47042107582092285
1773257635903844000,12.146843994140625,-0.18013408780097961,0.16913270950317383,0.4621186852455139
1773257635913870000,12.1568701171875,-0.06442660093307495,0.025650564581155777,0.3021165430545807
1773257635923897300,12.1668974609375,-0.20041267573833466,1.4950147867202759,0.8323761224746704
1773257635933924000,12.176924072265624,-0.3471164107322693,2.8840131759643555,1.2620388269424438
1773257635943950000,12.1869501953125,-0.4470810890197754,3.418196201324463,1.4043760299682617
1773257635953977000,12.19697705078125,-0.5547894835472107,3.4921841621398926,1.4473925828933716
1773257635964004400,12.20700439453125,-0.5173787474632263,2.1738057136535645,1.3341461420059204
1773257635974030300,12.2170302734375,-0.09991896152496338,0.5830146670341492,0.9447721242904663
1773257635984057000,12.22705712890625,0.05600139498710632,-0.4053956866264343,-0.010519477538764477
1773257635994084000,12.237083984375,0.05729154497385025,-0.7499334812164307,-0.43007856607437134
1773257636004110000,12.247110107421875,0.004648572765290737,-0.5798179507255554,-0.3475964665412903
1773257636014137300,12.257137451171875,-0.042469486594200134,-0.2506754696369171,-0.12192486971616745
1773257636024163300,12.267163330078125,-0.043330758810043335,0.07713037729263306,0.1165207251906395
1773257636034190000,12.277190185546875,-0.021640442311763763,0.270238995552063,0.27043256163597107
1773257636044217000,12.287217041015625,-0.01614447683095932,0.3503285050392151,0.2852269411087036
1773257636054243000,12.2972431640625,-0.03316938877105713,0.3316783010959625,0.22607138752937317
1773257636064270300,12.307270263671874,-0.08421339094638824,0.20250937342643738,0.17222227156162262
1773257636074297000,12.317297119140624,-0.13399966061115265,0.11187583953142166,0.12212028354406357
1773257636084323000,12.327322998046874,-0.1514606773853302,0.1944173276424408,0.07897494733333588
1773257636094350000,12.33735009765625,-0.10669317841529846,0.3886173665523529,0.034383270889520645
1773257636104376000,12.3473759765625,-0.045025285333395004,0.5418303608894348,-0.006663498468697071
1773257636114403300,12.3574033203125,0.006865960545837879,0.45740628242492676,-0.02899075299501419
1773257636124430000,12.36743017578125,0.04404821619391441,0.2450580596923828,-0.05180738493800163
1773257636134456000,12.3774560546875,0.01357377041131258,0.06255025416612625,-0.03873428702354431
1773257636144483000,12.387483154296875,-0.04519660398364067,0.0016110059805214405,-0.009355627931654453
1773257636154510300,12.39751025390625,-0.06576800346374512,-0.03530561923980713,0.003943611867725849
1773257636164536300,12.407536376953125,-0.06181027740240097,-0.08934888243675232,0.010844928212463856
1773257636174563000,12.41756298828125,-0.03926775977015495,-0.10808336734771729,0.011769750155508518
1773257636184589000,12.427589111328125,-0.05169700086116791,-0.05582922324538231,0.002714204601943493
1773257636194616000,12.437615966796875,-0.05110298842191696,-0.00911903940141201,-0.015422273427248001
