time,seconds_elapsed,z,y,x
1774470340659867100,0.0738671875,0.05248204618692398,-0.14226748049259186,0.3384033441543579
1774470340669879800,0.0838798828125,0.01880415342748165,-0.16695933043956757,0.3114563524723053
1774470340679893000,0.09389306640625,-0.02568075619637966,-0.1832275092601776,0.254505455493927
1774470340689906000,0.103906005859375,-0.058360230177640915,-0.1783321350812912,0.19590641558170319
1774470340699919000,0.113919189453125,-0.07471230626106262,-0.11780353635549545,0.1582900732755661
1774470340709931800,0.123931884765625,-0.06465888023376465,-0.02749989740550518,0.1467430144548416
1774470340719945000,0.133945068359375,-0.05219821259379387,0.053222380578517914,0.16479019820690155
1774470340729958100,0.143958251953125,-0.06380434334278107,0.08570089936256409,0.19470234215259552
1774470340739970800,0.153970703125,-0.10010403394699097,0.031535398215055466,0.21087145805358887
1774470340749985000,0.163985107421875,-0.1233222633600235,-0.07899783551692963,0.202957883477211
1774470340759998000,0.173998046875,-0.12086496502161026,-0.19659185409545898,0.181309312582016
1774470340770011000,0.184010986328125,-0.09445084631443024,-0.2557655870914459,0.17094899713993073
1774470340780024000,0.194024169921875,-0.048456452786922455,-0.17124217748641968,0.1985798180103302
1774470340790037000,0.204037109375,-0.01811380498111248,0.010735942050814629,0.24335390329360962
1774470340800049700,0.214049560546875,-0.05529259890317917,0.14231394231319427,0.23228952288627625
1774470340810062600,0.2240625,-0.1275443583726883,0.19089095294475555,0.14040760695934296
1774470340820075800,0.23407568359375,-0.17821551859378815,0.28183606266975403,-0.005369830876588821
1774470340830088700,0.244088623046875,-0.18844597041606903,0.5310465097427368,-0.2131369709968567
1774470340840102700,0.2541025390625,-0.14114290475845337,0.917252779006958,-0.4602926969528198
1774470340850115800,0.26411572265625,-0.017393622547388077,1.3539421558380127,-0.6870824694633484
1774470340860128800,0.274128662109375,0.13044697046279907,1.7532328367233276,-0.8636684417724609
1774470340870141700,0.2841416015625,0.2841249406337738,2.087327480316162,-0.9547791481018066
1774470340880154600,0.294154541015625,0.39200347661972046,2.377518892288208,-0.915161669254303
1774470340890167800,0.304167724609375,0.40647733211517334,2.661449432373047,-0.8078202605247498
1774470340900180700,0.3141806640625,0.3690361976623535,2.8897714614868164,-0.7101663947105408
1774470340910193700,0.324193603515625,0.346308171749115,2.995776414871216,-0.6516696810722351
1774470340920206800,0.334206787109375,0.33925318717956543,2.677786350250244,-0.7085742354393005
1774470340930219800,0.3442197265625,0.3334032893180847,1.9913259744644165,-0.8847861289978027
1774470340940233700,0.354233642578125,0.23309746384620667,1.606268048286438,-0.9311381578445435
1774470340950247000,0.364246826171875,0.03049534372985363,1.3457086086273193,-0.8496495485305786
1774470340960259600,0.374259521484375,-0.10757437348365784,1.1254940032958984,-0.6509620547294617
1774470340970272800,0.384272705078125,-0.2389761507511139,1.1169003248214722,-0.40789908170700073
1774470340980285700,0.39428564453125,-0.31531354784965515,1.1467037200927734,-0.05880767107009888
1774470340990298600,0.404298583984375,-0.37750181555747986,1.2501059770584106,0.28950703144073486
1774470341000311600,0.4143115234375,-0.4673291742801666,1.5382319688796997,0.6229358315467834
1774470341010324700,0.42432470703125,-0.5416434407234192,1.8265454769134521,0.9693799018859863
1774470341020338000,0.434337890625,-0.6129943132400513,1.9515992403030396,1.3004388809204102
1774470341030351600,0.4443515625,-0.6899555325508118,1.8553657531738281,1.601702094078064
1774470341040364800,0.45436474609375,-0.7442115545272827,1.4713383913040161,1.8215070962905884
1774470341050377700,0.464377685546875,-0.7608242630958557,0.8017674684524536,1.9255785942077637
1774470341060390700,0.474390625,-0.7481340169906616,-0.05875927954912186,1.9356898069381714
1774470341070403800,0.48440380859375,-0.7803092002868652,-1.1655951738357544,1.8320330381393433
1774470341080416800,0.494416748046875,-0.9844719171524048,-2.8185062408447266,1.398624062538147
1774470341090429700,0.5044296875,-1.103672981262207,-3.903648853302002,1.094481110572815
1774470341100442600,0.514442626953125,-1.1074999570846558,-4.381677627563477,1.0982177257537842
1774470341110455800,0.524455810546875,-1.1356565952301025,-4.60128927230835,1.1609822511672974
1774470341120469800,0.5344697265625,-1.2031378746032715,-4.755706310272217,1.1100189685821533
1774470341130482700,0.544482666015625,-1.3699431419372559,-4.600338459014893,0.9367237687110901
1774470341140496000,0.554495849609375,-1.4539706707000732,-4.377546310424805,0.8216368556022644
1774470341150508500,0.564508544921875,-1.2941612005233765,-4.385063648223877,0.665270209312439
1774470341160521700,0.574521728515625,-1.1012661457061768,-4.605825424194336,0.32214635610580444
1774470341170534700,0.58453466796875,-1.1473777294158936,-4.280169486999512,-0.16262154281139374
1774470341180547800,0.5945478515625,-1.2261476516723633,-3.0336673259735107,-0.658518373966217
1774470341190560800,0.604560791015625,-1.2089511156082153,-1.3319587707519531,-1.0141870975494385
1774470341200573700,0.61457373046875,-1.122889757156372,0.29767534136772156,-1.2060644626617432
1774470341210587600,0.624587646484375,-1.0044996738433838,1.5614771842956543,-1.2844200134277344
1774470341220600600,0.6346005859375,-0.910416305065155,2.170133352279663,-1.375015377998352
1774470341230613800,0.64461376953125,-0.9012789130210876,1.2646063566207886,-1.6105870008468628
1774470341240626700,0.654626708984375,-0.9840936660766602,-1.1517904996871948,-1.8925087451934814
1774470341250639600,0.6646396484375,-0.9852893948554993,-2.4353535175323486,-1.8126187324523926
1774470341260652800,0.67465283203125,-0.902286946773529,-3.0570876598358154,-1.6313543319702148
1774470341270665700,0.684665771484375,-0.6281931400299072,-3.438063621520996,-1.518333077430725
1774470341280678700,0.6946787109375,-0.04408177360892296,-3.5423033237457275,-1.3808540105819702
1774470341290692900,0.70469287109375,0.48859933018684387,-2.8202946186065674,-1.1019567251205444
1774470341300705800,0.714705810546875,0.5621542930603027,-1.0354524850845337,-0.8229386806488037
1774470341310718700,0.72471875,0.4702032208442688,0.48621171712875366,-0.48181986808776855
1774470341320731600,0.734731689453125,0.36808857321739197,0.7364753484725952,-0.16030868887901306
1774470341330744800,0.744744873046875,0.29980945587158203,0.637349545955658,0.03918996453285217
1774470341340757500,0.754757568359375,0.19724366068840027,0.12352139502763748,0.12480712682008743
1774470341350770700,0.764770751953125,0.0548819899559021,-0.3951599895954132,0.22842739522457123
1774470341360784000,0.774783935546875,-0.014577512629330158,-0.7997847199440002,0.39151087403297424
1774470341370796800,0.784796875,0.015169999562203884,-1.1331462860107422,0.5461320877075195
1774470341380809700,0.794809814453125,0.07500084489583969,-1.2613130807876587,0.6510486602783203
1774470341390823700,0.80482373046875,0.09950833022594452,-1.1710680723190308,0.7056546211242676
1774470341400836600,0.814836669921875,0.04542245715856552,-0.8953095078468323,0.7011568546295166
1774470341410849800,0.824849853515625,-0.04735559970140457,-0.6536818146705627,0.6022586822509766
1774470341420862700,0.83486279296875,-0.1096690371632576,-0.5310025215148926,0.4054505527019501
1774470341430876000,0.8448759765625,-0.13338014483451843,-0.426467627286911,0.17691195011138916
1774470341440888600,0.854888671875,-0.10596609860658646,-0.3614201843738556,-0.00032354146242141724
1774470341450901800,0.86490185546875,-0.028080973774194717,-0.3105427920818329,-0.10153383016586304
1774470341460914700,0.874914794921875,0.08380934596061707,-0.2744244635105133,-0.15969699621200562
1774470341470927600,0.884927734375,0.18527640402317047,-0.2872762382030487,-0.21204884350299835
1774470341480941800,0.89494189453125,0.2447064369916916,-0.3541884422302246,-0.22155046463012695
1774470341490954800,0.904954833984375,0.25187140703201294,-0.40074461698532104,-0.16701291501522064
1774470341500967700,0.9149677734375,0.22782650589942932,-0.4162721633911133,-0.08554123342037201
1774470341510980600,0.924980712890625,0.16425421833992004,-0.447984516620636,-0.01744394749403
1774470341520993800,0.934993896484375,0.08812109380960464,-0.4330918490886688,0.04647324979305267
1774470341531006700,0.9450068359375,0.032888900488615036,-0.37928688526153564,0.10011513531208038
1774470341541019600,0.95501953125,0.004862858448177576,-0.3184797167778015,0.12392991781234741
1774470341551032800,0.96503271484375,-0.0071685765869915485,-0.23137496411800385,0.11088583618402481
1774470341561046500,0.975046630859375,-0.0016126896953210235,-0.14646300673484802,0.06563366949558258
1774470341571059700,0.985059814453125,0.03276577219367027,-0.0744040235877037,0.018600527197122574
1774470341581073000,0.995072998046875,0.08160495012998581,-0.032926350831985474,-0.010281721130013466
1774470341591085600,1.00508544921875,0.10778135061264038,-0.0019529424607753754,-0.005116306245326996
1774470341601098800,1.0150986328125,0.1050657257437706,0.027340764179825783,0.03337036818265915
1774470341611111700,1.025111572265625,0.08325593173503876,0.02372608706355095,0.07784764468669891
1774470341621124900,1.035124755859375,0.054962243884801865,-0.03116060048341751,0.10201369971036911
1774470341631137500,1.045137451171875,0.025540882721543312,-0.11604361236095428,0.1015864908695221
1774470341641150700,1.055150634765625,0.00018439372070133686,-0.18020528554916382,0.10034465789794922
1774470341651164700,1.06516455078125,-0.014059431850910187,-0.19879916310310364,0.1002604141831398
1774470341661177600,1.075177490234375,-0.0055887154303491116,-0.1872735321521759,0.09712880104780197
1774470341671190800,1.085190673828125,0.018506500869989395,-0.1416860818862915,0.09366003423929214
1774470341681203700,1.09520361328125,0.05756282061338425,-0.05665694177150726,0.09077529609203339
1774470341691216600,1.105216552734375,0.10598646104335785,0.04067588970065117,0.07620869576931
1774470341701229800,1.115229736328125,0.14626091718673706,0.0953412652015686,0.04082486778497696
1774470341711242800,1.12524267578125,0.14929601550102234,0.11145799607038498,-0.004404962994158268
1774470341721255700,1.135255615234375,0.11931788176298141,0.12148719280958176,-0.04162716493010521
1774470341731268600,1.1452685546875,0.07052211463451385,0.10711384564638138,-0.06388214230537415
1774470341741282800,1.15528271484375,0.03300003707408905,0.10341471433639526,-0.05787084996700287
1774470341751295700,1.165295654296875,0.03325144946575165,0.0935555100440979,-0.02255241759121418
1774470341761308700,1.17530859375,0.06728585064411163,0.09015092253684998,0.029297463595867157
1774470341771321900,1.18532177734375,0.10593923181295395,0.07435974478721619,0.0813746526837349
1774470341781334500,1.19533447265625,0.11707044392824173,0.03778708726167679,0.11806235462427139
1774470341791347700,1.20534765625,0.10503394156694412,0.04118410125374794,0.1322759985923767
1774470341801361700,1.215361572265625,0.09931693226099014,0.07912961393594742,0.13564756512641907
1774470341811374300,1.225374267578125,0.09862521290779114,0.12398889660835266,0.1295885592699051
1774470341821387500,1.235387451171875,0.0952877402305603,0.16675446927547455,0.1132761687040329
1774470341831401500,1.2454013671875,0.0814509317278862,0.2025178223848343,0.07998275011777878
1774470341841414400,1.255414306640625,0.06426554918289185,0.18876126408576965,0.028221022337675095
1774470341851427600,1.265427490234375,0.044236186891794205,0.1295795887708664,-0.023283587768673897
1774470341861440500,1.2754404296875,0.02892753854393959,0.038187358528375626,-0.05333496630191803
1774470341871453400,1.285453369140625,0.02113468199968338,-0.03222909942269325,-0.05467168614268303
1774470341881466400,1.29546630859375,0.0414801649749279,-0.0585097037255764,-0.01882367581129074
1774470341891479600,1.3054794921875,0.07668822258710861,-0.06013929471373558,0.03449094668030739
1774470341901492500,1.315492431640625,0.08586014807224274,-0.044397879391908646,0.08004911243915558
1774470341911505400,1.32550537109375,0.06580699235200882,0.0019737286493182182,0.12015493214130402
1774470341921519600,1.33551953125,0.033218421041965485,0.05083607882261276,0.14187754690647125
1774470341931532300,1.3455322265625,0.0025427211076021194,0.08791984617710114,0.13735543191432953
1774470341941545500,1.35554541015625,-0.0063269371166825294,0.09673677384853363,0.10094737261533737
1774470341951558400,1.365558349609375,-0.000048190762754529715,0.06189972162246704,0.043985337018966675
1774470341961571300,1.3755712890625,0.01140659675002098,0.008190419524908066,-0.018765129148960114
1774470341971584500,1.38558447265625,0.0227868240326643,-0.042970649898052216,-0.06961899995803833
1774470341981597400,1.395597412109375,0.0320596843957901,-0.0746135264635086,-0.09791988134384155
1774470341991610600,1.405610595703125,0.04147777333855629,-0.09937625378370285,-0.1096489205956459
1774470342001624300,1.415624267578125,0.04634683206677437,-0.12038858979940414,-0.10579266399145126
1774470342011637500,1.425637451171875,0.047679316252470016,-0.11189457029104233,-0.08530972898006439
1774470342021650400,1.435650390625,0.04817546159029007,-0.08694448322057724,-0.05122526362538338
1774470342031663400,1.445663330078125,0.04298156872391701,-0.05797501653432846,-0.013953329995274544
1774470342041676500,1.455676513671875,0.03963211178779602,-0.04431033879518509,0.012581342831254005
1774470342051689500,1.465689453125,0.03865491598844528,-0.07454577088356018,0.01403563842177391
1774470342061702400,1.475702392578125,0.039452798664569855,-0.14717203378677368,0.0004561799578368664
1774470342071715300,1.48571533203125,0.03486737608909607,-0.21831099689006805,-0.023848097771406174
1774470342081728500,1.495728515625,0.035806939005851746,-0.25940170884132385,-0.03858549892902374
1774470342091742500,1.505742431640625,0.04289919137954712,-0.26014208793640137,-0.05252087116241455
1774470342101755400,1.51575537109375,0.05395903065800667,-0.23128460347652435,-0.07158058136701584
1774470342111768600,1.5257685546875,0.06022545322775841,-0.18852898478507996,-0.09188440442085266
1774470342121781200,1.53578125,0.06345240771770477,-0.14494502544403076,-0.10056178271770477
1774470342131794400,1.54579443359375,0.05971865355968475,-0.1288350373506546,-0.09808450937271118
1774470342141807600,1.5558076171875,0.03627830743789673,-0.13782985508441925,-0.07678933441638947
1774470342151820500,1.565820556640625,0.013428119011223316,-0.14662304520606995,-0.031509071588516235
1774470342161833500,1.57583349609375,0.004562987945973873,-0.13524122536182404,0.03508433699607849
1774470342171846400,1.585846435546875,0.010820882394909859,-0.1354590505361557,0.09543915838003159
1774470342181860400,1.5958603515625,0.024354267865419388,-0.18685778975486755,0.14106443524360657
1774470342191873500,1.60587353515625,0.02725888416171074,-0.2984498143196106,0.15279802680015564
1774470342201886500,1.615886474609375,0.009081746451556683,-0.4529224932193756,0.13664674758911133
1774470342211899400,1.6258994140625,-0.01335938274860382,-0.5719959735870361,0.11354915797710419
1774470342221912300,1.635912353515625,-0.024272484704852104,-0.6182524561882019,0.11645732820034027
1774470342231925500,1.645925537109375,-0.03039473108947277,-0.6019421219825745,0.14281213283538818
1774470342241938400,1.6559384765625,-0.021128259599208832,-0.50955730676651,0.1756071001291275
1774470342251951400,1.665951416015625,0.003288574516773224,-0.3852761387825012,0.17020975053310394
1774470342261964500,1.675964599609375,0.03718075901269913,-0.30565908551216125,0.11946162581443787
1774470342271978500,1.685978515625,0.04773664474487305,-0.32920101284980774,0.030131036415696144
1774470342281991400,1.695991455078125,0.0229673832654953,-0.38395801186561584,-0.06465006619691849
1774470342292004400,1.70600439453125,0.0016378546133637428,-0.4100016951560974,-0.14070194959640503
1774470342302017500,1.716017578125,-0.00696948217228055,-0.44135111570358276,-0.17629402875900269
1774470342312030500,1.726030517578125,-0.015963055193424225,-0.5078361630439758,-0.17688597738742828
1774470342322043400,1.73604345703125,-0.038292594254016876,-0.5744474530220032,-0.1631230264902115
1774470342332056600,1.746056640625,-0.051403436809778214,-0.6007211208343506,-0.13625335693359375
1774470342342069500,1.756069580078125,-0.048097122460603714,-0.5653330683708191,-0.09923861175775528
1774470342352082400,1.76608251953125,-0.01865311712026596,-0.48959508538246155,-0.06268177926540375
1774470342362096600,1.7760966796875,0.011688543483614922,-0.41158631443977356,-0.03585788235068321
1774470342372109300,1.786109375,0.03779364004731178,-0.34154582023620605,-0.002974757459014654
1774470342382122500,1.79612255859375,0.05546238273382187,-0.2905904948711395,0.028515789657831192
1774470342392135400,1.806135498046875,0.059918660670518875,-0.28486594557762146,0.051834285259246826
1774470342402148600,1.816148681640625,0.058227021247148514,-0.23779083788394928,0.06556980311870575
1774470342412161300,1.826161376953125,0.06349547207355499,-0.15261118113994598,0.06575644016265869
1774470342422174500,1.836174560546875,0.06008582562208176,-0.15632788836956024,0.046957455575466156
1774470342432187600,1.846187744140625,0.041660379618406296,-0.20509693026542664,0.02273024246096611
1774470342442201300,1.856201416015625,0.017053568735718727,-0.2708088457584381,0.008662627078592777
1774470342452214500,1.866214599609375,0.018987195566296577,-0.3257540762424469,0.013776525855064392
1774470342462227500,1.8762275390625,0.02045166864991188,-0.3312638998031616,0.035212576389312744
1774470342472240400,1.886240478515625,0.019038064405322075,-0.30063945055007935,0.06265631318092346
1774470342482253600,1.896253662109375,0.0207480788230896,-0.22524721920490265,0.08379355818033218
1774470342492266500,1.9062666015625,0.024691952392458916,-0.12093184143304825,0.08794224262237549
1774470342502279400,1.916279541015625,0.04060407355427742,-0.010366715490818024,0.06019050255417824
1774470342512292400,1.926292236328125,0.07389695942401886,0.05386439338326454,0.008797310292720795
1774470342522305500,1.936305419921875,0.08617439866065979,0.0215916745364666,-0.05075789615511894
1774470342532319500,1.946319580078125,0.06594955921173096,-0.030166327953338623,-0.09184300899505615
1774470342542332400,1.95633251953125,0.03729367256164551,-0.0905228778719902,-0.11748632043600082
1774470342552345600,1.966345703125,0.0073625012300908566,-0.18424709141254425,-0.1318342089653015
1774470342562358300,1.976358154296875,-0.02407957799732685,-0.27130234241485596,-0.1141982227563858
1774470342572371500,1.986371337890625,-0.039319608360528946,-0.2350253164768219,-0.05778371915221214
1774470342582384400,1.99638427734375,-0.015330919064581394,-0.12469800561666489,0.016563745215535164
1774470342592397600,2.0063974609375,0.009090004488825798,-0.04735056310892105,0.08506530523300171
1774470342602410500,2.016410400390625,0.025808796286582947,0.012211298570036888,0.13214492797851562
1774470342612423400,2.02642333984375,0.03172491490840912,0.06874793022871017,0.15742242336273193
1774470342622437400,2.036437255859375,0.03846191614866257,0.12051738053560257,0.15819872915744781
1774470342632450600,2.046450439453125,0.026740726083517075,0.16695141792297363,0.1681370586156845
1774470342642463500,2.05646337890625,-0.015010714530944824,-0.07761384546756744,0.18884314596652985
1774470342652476700,2.0664765625,-0.095602847635746,-0.37654951214790344,0.2165575474500656
1774470342662489300,2.0764892578125,-0.15130126476287842,-0.5865210890769958,0.27209964394569397
1774470342672502500,2.08650244140625,-0.11299559473991394,-0.6359933018684387,0.3563956618309021
1774470342682515500,2.096515380859375,-0.052742112427949905,-0.5972797274589539,0.4164890944957733
1774470342692528400,2.1065283203125,-0.03434304893016815,-0.7080560326576233,0.4418054223060608
1774470342702542600,2.11654248046875,-0.08011772483587265,-0.9423590898513794,0.47123202681541443
1774470342712555500,2.126555419921875,-0.18504902720451355,-1.224906325340271,0.45834213495254517
1774470342722568400,2.136568359375,-0.31829339265823364,-1.5208990573883057,0.37817806005477905
1774470342732581400,2.146581298828125,-0.45149892568588257,-1.7428374290466309,0.28131458163261414
1774470342742594600,2.156594482421875,-0.5809647440910339,-1.8918944597244263,0.1884528249502182
1774470342752607200,2.166607177734375,-0.7380494475364685,-2.0029819011688232,0.10516178607940674
1774470342762620400,2.176620361328125,-0.8929513692855835,-2.151824474334717,-0.03279341757297516
1774470342772633600,2.186633544921875,-1.0437692403793335,-2.36626935005188,-0.13650737702846527
1774470342782646500,2.196646484375,-1.2366657257080078,-2.565176010131836,-0.1527148336172104
1774470342792660200,2.20666015625,-1.4375230073928833,-2.642439365386963,-0.10320562869310379
1774470342802673400,2.21667333984375,-1.5993694067001343,-2.7588560581207275,-0.0759979709982872
1774470342812686000,2.22668603515625,-1.657709002494812,-3.0669708251953125,-0.1773131787776947
1774470342822699300,2.23669921875,-1.6027216911315918,-3.49167537689209,-0.35782700777053833
1774470342832712200,2.246712158203125,-1.5682687759399414,-3.848721504211426,-0.5458386540412903
1774470342842725400,2.256725341796875,-1.6339515447616577,-4.079026222229004,-0.7499260306358337
1774470342852738000,2.266738037109375,-1.734252691268921,-4.0932230949401855,-1.0089404582977295
1774470342862751200,2.276751220703125,-1.726313829421997,-3.9556057453155518,-1.28578782081604
1774470342872765200,2.28676513671875,-1.6242767572402954,-3.8238508701324463,-1.4569350481033325
1774470342882778000,2.296778076171875,-1.5586942434310913,-3.6605074405670166,-1.5068488121032715
1774470342892791300,2.306791259765625,-1.5064035654067993,-3.27353572845459,-1.5759817361831665
1774470342902804200,2.31680419921875,-1.4470689296722412,-3.167145252227783,-1.7269725799560547
1774470342912817200,2.326817138671875,-1.520142674446106,-3.592273712158203,-1.9695199728012085
1774470342922830300,2.336830322265625,-1.7991043329238892,-4.111216068267822,-2.186474323272705
1774470342932843300,2.34684326171875,-2.2300851345062256,-4.324077606201172,-2.2859199047088623
1774470342942856200,2.356856201171875,-2.668097972869873,-4.361720561981201,-2.027662754058838
1774470342952869000,2.366869140625,-3.049004316329956,-4.085344314575195,-1.271443247795105
1774470342962883300,2.37688330078125,-3.2881011962890625,-3.6088547706604004,-0.12319070100784302
1774470342972896300,2.386896240234375,-3.385080575942993,-3.207002639770508,1.1180243492126465
1774470342982909200,2.3969091796875,-3.4627327919006348,-2.9061081409454346,2.0929665565490723
1774470342992922400,2.40692236328125,-3.7219247817993164,-2.824063539505005,2.364407777786255
1774470343002935300,2.416935302734375,-3.9830756187438965,-2.6571528911590576,1.9999862909317017
1774470343012948200,2.4269482421875,-3.9679811000823975,-2.4253616333007812,1.3318935632705688
1774470343022961200,2.436961181640625,-3.7621774673461914,-2.4001293182373047,0.5945268869400024
1774470343032974300,2.446974365234375,-3.476703405380249,-2.2569539546966553,-0.19056996703147888
1774470343042988300,2.45698828125,-3.318673849105835,-2.3949344158172607,-0.8610386252403259
1774470343053001200,2.467001220703125,-3.3485522270202637,-2.950434923171997,-1.230160117149353
1774470343063014100,2.47701416015625,-3.5805037021636963,-3.5657553672790527,-1.3636736869812012
1774470343073027300,2.48702734375,-3.809602737426758,-3.597717523574829,-1.5648034811019897
1774470343083040300,2.497040283203125,-3.9331979751586914,-3.2283594608306885,-1.7632859945297241
1774470343093053400,2.507053466796875,-3.8198161125183105,-2.713975191116333,-1.7729359865188599
1774470343103066000,2.517066162109375,-3.4503307342529297,-2.123119831085205,-1.392238736152649
1774470343113079300,2.527079345703125,-3.012751340866089,-1.5701334476470947,-0.9074296355247498
1774470343123092200,2.53709228515625,-2.4629695415496826,-0.9023431539535522,-0.26614710688591003
1774470343133106200,2.547106201171875,-1.7015043497085571,-0.4022805392742157,0.6396257281303406
1774470343143119400,2.557119384765625,-1.3457087278366089,-0.2985703945159912,0.8815643787384033
1774470343153132300,2.56713232421875,-1.222798466682434,-0.4247535765171051,0.8571741580963135
1774470343163145200,2.577145263671875,-1.345140814781189,-0.6467645168304443,0.7645273208618164
1774470343173158100,2.587158203125,-1.7669689655303955,-0.9553930163383484,0.6509794592857361
1774470343183171300,2.59717138671875,-2.3279244899749756,-1.1556835174560547,0.2919142246246338
1774470343193184300,2.607184326171875,-2.610020399093628,-1.129197120666504,-0.11773911118507385
1774470343203197200,2.617197265625,-2.553110122680664,-0.9715244174003601,-0.4571073353290558
1774470343213211400,2.62721142578125,-2.2692127227783203,-0.5527983903884888,-0.5021748542785645
1774470343223224000,2.63722412109375,-2.0838279724121094,0.06425977498292923,-0.32347726821899414
1774470343233237200,2.6472373046875,-1.9277143478393555,0.8348159790039062,-0.06174410507082939
1774470343243250400,2.65725048828125,-1.554526686668396,1.3261692523956299,0.2857113182544708
1774470343253263400,2.667263427734375,-1.2096364498138428,1.7893321514129639,0.17546772956848145
1774470343263276300,2.6772763671875,-0.87225741147995,2.0085315704345703,-0.302837610244751
1774470343273289200,2.687289306640625,-0.7656810879707336,1.8637694120407104,-0.8041262030601501
1774470343283302400,2.697302490234375,-0.7087866067886353,1.5617328882217407,-1.153058648109436
1774470343293315000,2.707315185546875,-0.47701776027679443,1.3964152336120605,-1.4291399717330933
1774470343303329300,2.717329345703125,0.0559992790222168,1.310988426208496,-1.6636697053909302
1774470343313342200,2.72734228515625,0.7622175216674805,1.2826844453811646,-1.9524645805358887
1774470343323355100,2.737355224609375,1.3276774883270264,1.3920270204544067,-2.3212482929229736
1774470343333368300,2.747368408203125,1.6777034997940063,1.694076418876648,-2.6865456104278564
1774470343343381200,2.75738134765625,0.5775753259658813,1.7433398962020874,-2.513498067855835
1774470343353394200,2.767394287109375,-0.06591828912496567,1.4204949140548706,-1.7284358739852905
1774470343363407400,2.777407470703125,0.03201333433389664,1.51216459274292,-1.0493412017822266
1774470343373420300,2.787420166015625,0.6271767020225525,2.0547261238098145,-0.6987960934638977
1774470343383434200,2.797434326171875,1.5481656789779663,2.464691638946533,-0.5284547209739685
1774470343393447200,2.807447265625,2.5505456924438477,2.4945473670959473,-0.5523626804351807
1774470343403460400,2.81746044921875,3.484907627105713,2.3667092323303223,-0.655737042427063
1774470343413473300,2.827473388671875,4.342130661010742,2.1197566986083984,-0.6526142358779907
1774470343423486200,2.837486328125,5.041114330291748,1.8703018426895142,-0.586460530757904
1774470343433499400,2.84749951171875,5.466362953186035,1.6087069511413574,-0.5107928514480591
1774470343443512300,2.85751220703125,5.516578674316406,1.1941502094268799,-0.5588477253913879
1774470343453525200,2.867525146484375,5.007440567016602,0.5772285461425781,-0.7347977757453918
1774470343463539500,2.87753955078125,3.9080042839050293,0.20967794954776764,-0.9657276272773743
1774470343473552100,2.88755224609375,2.6239500045776367,-0.029288170859217644,-1.1244611740112305
1774470343483565300,2.8975654296875,1.6131706237792969,-0.48467883467674255,-1.053284764289856
1774470343493578200,2.907578125,1.002175211906433,-0.8472617864608765,-0.6265092492103577
1774470343503591400,2.91759130859375,0.7651618719100952,-0.9379714131355286,0.027355656027793884
1774470343513604000,2.92760400390625,0.7691312432289124,-0.8438941240310669,0.536392092704773
1774470343523617300,2.9376171875,0.8620963096618652,-0.748031497001648,0.7380335927009583
1774470343533630500,2.94763037109375,0.9265273213386536,-0.7457305788993835,0.721196174621582
1774470343543644200,2.95764404296875,0.8985036611557007,-0.898797869682312,0.6679638028144836
1774470343553657300,2.9676572265625,0.769894540309906,-1.1182310581207275,0.6932402849197388
1774470343563670300,2.977670166015625,0.5424081087112427,-1.389819622039795,0.7519286274909973
1774470343573683200,2.98768310546875,0.2536088228225708,-1.6793465614318848,0.848058819770813
1774470343583696400,2.9976962890625,-0.03239681199193001,-2.053118944168091,0.9995383024215698
1774470343593709300,3.007709228515625,-0.306221604347229,-2.3974170684814453,1.198606252670288
1774470343603722200,3.01772216796875,-0.6054959297180176,-2.540940046310425,1.3720941543579102
1774470343613735200,3.027735107421875,-0.8791459202766418,-2.605637550354004,1.4915626049041748
1774470343623749400,3.037749267578125,-1.2196465730667114,-2.721097946166992,1.62803316116333
1774470343633762300,3.04776220703125,-1.6421486139297485,-2.7609474658966064,1.768984079360962
1774470343643775200,3.057775146484375,-1.9813439846038818,-2.6243813037872314,1.7183277606964111
1774470343653788400,3.067788330078125,-2.155386447906494,-2.3482160568237305,1.3292362689971924
1774470343663801000,3.077801025390625,-2.2284600734710693,-2.093121290206909,0.9742491245269775
1774470343673814300,3.087814208984375,-2.205536365509033,-1.6975007057189941,0.7475860714912415
1774470343683827200,3.0978271484375,-2.003514528274536,-1.2391691207885742,0.3333013355731964
1774470343693841200,3.107841064453125,-1.4423158168792725,-0.9722488522529602,-0.02741624228656292
1774470343703854300,3.117854248046875,-0.7239938974380493,-0.8451356291770935,-0.11281289905309677
1774470343713867300,3.1278671875,-0.0048532322980463505,-0.6997578144073486,-0.10111837834119797
1774470343723880200,3.137880126953125,0.38792094588279724,-0.5001983642578125,0.04091120511293411
1774470343733893000,3.14789306640625,0.3475927412509918,-0.5684913992881775,0.2854328155517578
1774470343743906300,3.15790625,0.3069113492965698,-0.7063230276107788,0.5002612471580505
1774470343753919500,3.16791943359375,0.2549326419830322,-0.534601092338562,0.6133156418800354
1774470343763933200,3.17793310546875,0.18542252480983734,-0.3138149380683899,0.520394504070282
1774470343773946400,3.1879462890625,0.09422676265239716,-0.18573850393295288,0.35100942850112915
1774470343783959000,3.197958984375,-0.03031277284026146,-0.28986331820487976,0.2601484954357147
1774470343793971700,3.2079716796875,-0.19958648085594177,-0.4232332110404968,0.26721081137657166
1774470343803984600,3.217984619140625,-0.45838233828544617,-0.4716319143772125,0.3805274963378906
1774470343813997800,3.227997802734375,-0.9158531427383423,-0.42249003052711487,0.5625335574150085
1774470343824010500,3.238010498046875,-1.3980698585510254,-0.23343488574028015,0.7712247371673584
1774470343834024700,3.248024658203125,-1.6780730485916138,-0.09946241974830627,0.9064118266105652
1774470343844038000,3.258037841796875,-1.7679978609085083,-0.057396724820137024,1.0477761030197144
1774470343854050600,3.268050537109375,-1.9144145250320435,-0.011294187977910042,1.132508397102356
1774470343864063700,3.278063720703125,-1.9762240648269653,0.0942695215344429,1.298678994178772
1774470343874076700,3.28807666015625,-1.9592270851135254,0.12812648713588715,1.3554868698120117
1774470343884089600,3.298089599609375,-2.066863775253296,0.07015133649110794,1.3398535251617432
1774470343894103800,3.308103759765625,-2.0959534645080566,0.05570482090115547,1.3879691362380981
1774470343904116700,3.31811669921875,-2.0259275436401367,0.05682334676384926,1.3385323286056519
1774470343914129700,3.328129638671875,-1.932114839553833,0.0827583372592926,1.2213438749313354
1774470343924142600,3.338142578125,-1.868228554725647,0.05654190853238106,0.9599260687828064
1774470343934155800,3.34815576171875,-1.9209659099578857,-0.02927010878920555,0.6716101169586182
1774470343944168700,3.358168701171875,-2.0818099975585938,-0.10229451209306717,0.39914101362228394
1774470343954182700,3.3681826171875,-2.213190793991089,-0.045086219906806946,0.21593840420246124
1774470343964195800,3.37819580078125,-2.290879726409912,-0.03832951560616493,0.11070092022418976
1774470343974208800,3.388208740234375,-2.374084711074829,-0.089754119515419,0.055826522409915924
1774470343984221700,3.3982216796875,-2.463864803314209,-0.16586700081825256,0.021476272493600845
1774470343994235000,3.40823486328125,-2.4459402561187744,-0.2395184189081192,0.06413471698760986
1774470344004247600,3.41824755859375,-2.30329966545105,-0.19068537652492523,0.07560469210147858
1774470344014261800,3.42826171875,-2.071465492248535,-0.09916878491640091,-0.006596021354198456
1774470344024275000,3.43827490234375,-1.8113141059875488,-0.049861423671245575,-0.12949423491954803
1774470344034287600,3.44828759765625,-1.5848101377487183,-0.015934985131025314,-0.18128661811351776
1774470344044300800,3.45830078125,-1.4065232276916504,0.043033260852098465,-0.1888103038072586
1774470344054313700,3.468313720703125,-1.2971464395523071,0.056131280958652496,-0.19324731826782227
1774470344064326700,3.47832666015625,-1.2002278566360474,-0.02326606959104538,-0.12862971425056458
1774470344074340900,3.4883408203125,-1.0395747423171997,0.016196206212043762,-0.09459216892719269
1774470344084353800,3.498353759765625,-0.8588853478431702,0.11921792477369308,-0.09895895421504974
1774470344094366700,3.50836669921875,-0.6656766533851624,0.2569125294685364,-0.10054228454828262
1774470344104379600,3.518379638671875,-0.41000014543533325,0.29414671659469604,0.004091450944542885
1774470344114392800,3.528392822265625,-0.04988917335867882,0.23880967497825623,0.2426186203956604
1774470344124406800,3.53840673828125,0.33108988404273987,0.3497931957244873,0.7288873791694641
1774470344134419700,3.548419677734375,0.646203339099884,0.39908701181411743,1.5012843608856201
1774470344144433000,3.558432861328125,0.9466633200645447,0.37926989793777466,2.1831202507019043
1774470344154445600,3.568445556640625,1.300946831703186,0.6425193548202515,2.516256332397461
1774470344164458800,3.578458740234375,1.6401687860488892,1.150673747062683,2.3025341033935547
1774470344174472700,3.58847265625,2.0690560340881348,0.9427117705345154,2.1064577102661133
1774470344184485600,3.598485595703125,2.269862413406372,0.3479312062263489,2.088475227355957
1774470344194498800,3.608498779296875,2.075054168701172,-0.6064926385879517,2.345012664794922
1774470344204511700,3.61851171875,1.2304457426071167,0.014242785051465034,2.719202756881714
1774470344214524700,3.628524658203125,0.4261583089828491,1.0688711404800415,3.306835174560547
1774470344224539000,3.638538818359375,0.1038559079170227,1.8498427867889404,3.820969820022583
1774470344234551600,3.648551513671875,-0.029876159504055977,2.6520841121673584,3.6081840991973877
1774470344244564700,3.658564697265625,-0.45564478635787964,2.7046401500701904,2.985239267349243
1774470344254577700,3.66857763671875,-1.0656721591949463,2.684778928756714,2.4659152030944824
1774470344264590800,3.6785908203125,-0.7023395299911499,2.228475332260132,1.6732808351516724
1774470344274604800,3.688604736328125,-0.32982736825942993,0.7301058769226074,0.8765763640403748
1774470344284617700,3.69861767578125,-0.08351587504148483,-0.8042775392532349,0.510222852230072
1774470344294630700,3.708630615234375,-0.13204669952392578,-1.6617677211761475,0.31651559472084045
1774470344304643600,3.7186435546875,-0.20215946435928345,-1.9792380332946777,-0.012361105531454086
1774470344314656800,3.72865673828125,0.024849098175764084,-1.7876241207122803,-0.3093327581882477
1774470344324670700,3.738670654296875,0.07606328278779984,-1.2831239700317383,-0.3564288914203644
1774470344334683600,3.74868359375,-0.006300983484834433,-0.8419901132583618,-0.3564833104610443
1774470344344696800,3.75869677734375,0.20401258766651154,-0.8505673408508301,-0.8342077732086182
1774470344354709500,3.76870947265625,0.20293721556663513,-0.3311798870563507,-1.3877837657928467
1774470344364722700,3.77872265625,-0.250065416097641,0.10049482434988022,-1.5486918687820435
1774470344374737000,3.78873681640625,-0.6576533913612366,-0.09812840074300766,-1.4067007303237915
1774470344384749600,3.79874951171875,-1.0876260995864868,-0.384276807308197,-1.1168079376220703
1774470344394762800,3.8087626953125,-1.4472870826721191,-0.5665122270584106,-0.7674674987792969
1774470344404775700,3.818775634765625,-1.629367709159851,-0.7805805802345276,-0.46029508113861084
1774470344414788600,3.82878857421875,-1.6627715826034546,-0.8285645842552185,-0.19607828557491302
1774470344424802800,3.838802734375,-1.5968083143234253,-0.7392914295196533,-0.06168133765459061
1774470344434815700,3.848815673828125,-1.4548157453536987,-0.6103333234786987,-0.038028862327337265
1774470344444828700,3.85882861328125,-1.3173357248306274,-0.5611569881439209,-0.03451615571975708
1774470344454841600,3.868841552734375,-1.1581288576126099,-0.5299004316329956,0.01608198881149292
1774470344464854800,3.878854736328125,-1.0000401735305786,-0.5102875828742981,0.09465482831001282
1774470344474868700,3.88886865234375,-0.8506289720535278,-0.5133638381958008,0.15644218027591705
1774470344484881700,3.898881591796875,-0.6863982677459717,-0.5475047826766968,0.16451102495193481
1774470344494894800,3.908894775390625,-0.5373621582984924,-0.5822030901908875,0.12480812519788742
1774470344504907500,3.918907470703125,-0.4312756061553955,-0.5801740288734436,0.088096983730793
1774470344514921700,3.928921630859375,-0.343779981136322,-0.5303506851196289,0.09777818620204926
1774470344524934700,3.9389345703125,-0.26355305314064026,-0.4689062237739563,0.14181461930274963
1774470344534947600,3.948947509765625,-0.20034264028072357,-0.32450777292251587,0.13451170921325684
1774470344544960800,3.958960693359375,-0.1253589391708374,-0.22023065388202667,0.03323781490325928
1774470344554973700,3.9689736328125,-0.06234386935830116,-0.24163058400154114,-0.10314072668552399
1774470344564987600,3.978987548828125,-0.03252391889691353,-0.3677128553390503,-0.21787048876285553
1774470344575000800,3.989000732421875,-0.03723824769258499,-0.5919763445854187,-0.2854253053665161
1774470344585013500,3.999013427734375,-0.07831350713968277,-0.8643519282341003,-0.3358354866504669
1774470344595026700,4.009026611328125,-0.15115363895893097,-1.1322851181030273,-0.4153669476509094
1774470344605039600,4.01903955078125,-0.23579822480678558,-1.3771628141403198,-0.5326074957847595
1774470344615053600,4.029053466796875,-0.3151043653488159,-1.5925474166870117,-0.6724986433982849
1774470344625066800,4.039066650390625,-0.3651121258735657,-1.771083950996399,-0.8388857245445251
1774470344635079700,4.04907958984375,-0.3685392141342163,-1.9063379764556885,-1.0240949392318726
1774470344645092600,4.059092529296875,-0.3320906460285187,-2.0096447467803955,-1.2034268379211426
1774470344655106800,4.06910693359375,-0.2848770320415497,-2.0439236164093018,-1.3180582523345947
1774470344665119700,4.07911962890625,-0.25485336780548096,-1.9636117219924927,-1.346419334411621
1774470344675132700,4.089132568359375,-0.21067136526107788,-1.8496602773666382,-1.281121015548706
1774470344685145600,4.0991455078125,-0.12803080677986145,-1.6919026374816895,-1.1497502326965332
1774470344695158800,4.10915869140625,0.02391471527516842,-1.4599361419677734,-1.0290651321411133
1774470344705172700,4.1191728515625,0.2423812747001648,-1.1282460689544678,-1.0050359964370728
1774470344715185700,4.129185546875,0.4574875831604004,-0.7672653794288635,-1.067995309829712
1774470344725198800,4.13919873046875,0.6627957224845886,-0.4708568751811981,-1.1257797479629517
1774470344735211500,4.14921142578125,0.846375048160553,-0.24250511825084686,-1.1458040475845337
1774470344745224700,4.159224609375,0.9916406273841858,0.05696335807442665,-1.1672608852386475
1774470344755238700,4.16923876953125,1.1168172359466553,0.28381842374801636,-1.1523337364196777
1774470344765251600,4.17925146484375,1.2355972528457642,0.45818862318992615,-1.0566731691360474
1774470344775264800,4.1892646484375,1.336739420890808,0.6230371594429016,-0.9550474882125854
1774470344785277700,4.199277587890625,1.4239741563796997,0.7034475803375244,-0.8348095417022705
1774470344795292700,4.209292724609375,1.4745477437973022,0.7450177669525146,-0.7027513980865479
1774470344805305600,4.2193056640625,1.4910858869552612,0.7809443473815918,-0.605322539806366
1774470344815318800,4.22931884765625,1.5042150020599365,0.8384340405464172,-0.6009979844093323
1774470344825331700,4.239331787109375,1.518699049949646,0.9354645013809204,-0.7052144408226013
1774470344835345000,4.249344970703125,1.4938184022903442,1.0182684659957886,-0.8510476350784302
1774470344845358600,4.259358642578125,1.392128348350525,0.9730421304702759,-0.8891164660453796
1774470344855371800,4.269371826171875,1.212516188621521,0.7678707242012024,-0.7358240485191345
1774470344865384700,4.279384765625,0.9646432995796204,0.5313827991485596,-0.4430598020553589
1774470344875397600,4.289397705078125,0.6288499236106873,0.3974200189113617,-0.11293017119169235
1774470344885411800,4.299411865234375,0.2648405134677887,0.3441448211669922,0.19573739171028137
1774470344895424500,4.309424560546875,-0.04042729735374451,0.23584236204624176,0.282859742641449
1774470344905437700,4.319437744140625,-0.27598336338996887,0.000043416861444711685,0.26139625906944275
1774470344915451000,4.329450927734375,-0.483687162399292,-0.5164394974708557,0.17145870625972748
1774470344925463600,4.339463623046875,-0.5700972080230713,-1.1928709745407104,-0.10000103712081909
1774470344935477800,4.349477783203125,-0.5370973348617554,-1.9500935077667236,-0.34444722533226013
1774470344945490700,4.35949072265625,-0.42556652426719666,-2.5720043182373047,-0.5189239382743835
1774470344955503600,4.369503662109375,-0.3358929455280304,-3.2625515460968018,-0.3844276964664459
1774470344965516800,4.379516845703125,-0.18412712216377258,-3.1596078872680664,-0.24962861835956573
1774470344975530800,4.38953076171875,0.10063223540782928,-2.472958564758301,-0.24805228412151337
1774470344985543700,4.399543701171875,0.2837623953819275,-2.023993968963623,-0.22276023030281067
1774470344995556900,4.409556884765625,0.3520829975605011,-1.8998900651931763,-0.17091000080108643
1774470345005569800,4.41956982421875,0.35779839754104614,-1.874749779701233,-0.12599526345729828
1774470345015582700,4.429582763671875,0.3910144567489624,-1.6311143636703491,0.013098202645778656
1774470345025596700,4.4395966796875,0.4941973090171814,-0.9558966159820557,0.33503761887550354
1774470345035609600,4.449609619140625,0.6344741582870483,-0.07992758601903915,0.6717792749404907
1774470345045622800,4.459622802734375,0.7491695880889893,0.5903743505477905,0.8696662783622742
1774470345055635700,4.4696357421875,0.7661176919937134,0.9330995082855225,0.9347869753837585
1774470345065649700,4.479649658203125,0.7604835033416748,0.9791218042373657,0.9782297611236572
1774470345075662600,4.48966259765625,0.6924546360969543,0.9625998139381409,1.0108165740966797
1774470345085675800,4.49967578125,0.5986924767494202,0.44063645601272583,0.896257221698761
1774470345095688700,4.509688720703125,0.5697788000106812,-0.2720974385738373,0.6587956547737122
1774470345105701600,4.51970166015625,0.525941014289856,-0.8160427212715149,0.467417448759079
1774470345115715800,4.5297158203125,0.47695231437683105,-1.0085545778274536,0.3799941837787628
1774470345125728500,4.539728515625,0.36896032094955444,-0.985426127910614,0.3097440004348755
1774470345135741700,4.54974169921875,0.22026722133159637,-0.9654639959335327,0.219603031873703
1774470345145755000,4.5597548828125,0.029588088393211365,-0.6842315196990967,0.20151084661483765
1774470345155768600,4.5697685546875,-0.1428672969341278,-0.33327722549438477,0.16893227398395538
1774470345165781800,4.57978173828125,-0.2835645079612732,0.08692192286252975,0.08472258597612381
1774470345175794700,4.589794677734375,-0.3727464973926544,0.4504311978816986,-0.11647013574838638
1774470345185807600,4.5998076171875,-0.2812919616699219,0.8568205237388611,-0.4040699601173401
1774470345195820800,4.60982080078125,-0.18478809297084808,1.2410380840301514,-0.6719304323196411
1774470345205834800,4.619834716796875,-0.10139066725969315,1.1793298721313477,-1.0432746410369873
1774470345215847700,4.62984765625,0.0037560767959803343,0.7709534764289856,-1.5211342573165894
1774470345225860600,4.639860595703125,0.09377624839544296,0.3827167749404907,-1.9262902736663818
1774470345235873800,4.649873779296875,0.1950339823961258,0.13887807726860046,-2.2751643657684326
1774470345245887700,4.6598876953125,0.31518274545669556,0.14492611587047577,-2.5872836112976074
1774470345255900700,4.669900634765625,0.3397030234336853,0.36456072330474854,-2.743089437484741
1774470345265913600,4.67991357421875,0.2630676329135895,0.48399442434310913,-2.8161637783050537
1774470345275926800,4.6899267578125,0.1009332463145256,0.5280389189720154,-2.696619987487793
1774470345285939700,4.699939697265625,-0.05453357845544815,0.6494939923286438,-2.483154296875
1774470345295953700,4.70995361328125,-0.15925030410289764,0.7851967215538025,-2.271810531616211
1774470345305966600,4.719966552734375,-0.1556670218706131,0.9239916205406189,-2.144247531890869
1774470345315979800,4.729979736328125,-0.14201213419437408,1.015667200088501,-2.0774478912353516
1774470345325992700,4.73999267578125,-0.19541144371032715,1.2144564390182495,-2.3238754272460938
1774470345336006700,4.750006591796875,-0.22625614702701569,1.4032193422317505,-2.5942299365997314
1774470345346019800,4.760019775390625,-0.3285854458808899,1.535524606704712,-2.687255859375
1774470345356032500,4.770032470703125,-0.4889170229434967,1.734012246131897,-2.7629294395446777
1774470345366045700,4.780045654296875,-0.6010424494743347,2.081759214401245,-2.902679920196533
1774470345376059600,4.7900595703125,-0.6582798957824707,2.2764697074890137,-3.113779306411743
1774470345386072600,4.800072509765625,-0.7155192494392395,1.830867052078247,-3.2430014610290527
1774470345396085800,4.810085693359375,-0.7240397930145264,0.6532546281814575,-3.375225305557251
1774470345406098700,4.8200986328125,-0.5587871670722961,-0.6773932576179504,-3.2959492206573486
1774470345416111600,4.830111572265625,-0.2645697593688965,-1.6409939527511597,-3.142580032348633
1774470345426125800,4.840125732421875,0.08810120820999146,-2.1537439823150635,-2.8439149856567383
1774470345436138800,4.850138671875,0.3636358380317688,-2.158268690109253,-2.4092085361480713
1774470345446151700,4.860151611328125,0.4927719831466675,-1.7174628973007202,-1.8495076894760132
1774470345456164600,4.87016455078125,0.4242793321609497,-0.876193642616272,-1.34165620803833
1774470345466178600,4.880178466796875,0.22812099754810333,0.08076135814189911,-0.9323294162750244
1774470345476191700,4.890191650390625,0.0012950797099620104,1.1050349473953247,-0.5175254940986633
1774470345486204700,4.90020458984375,-0.2869984805583954,2.082913875579834,-0.26549863815307617
1774470345496217600,4.910217529296875,-0.4997129440307617,2.5762100219726562,0.07276102900505066
1774470345506231800,4.920231689453125,-0.6741155982017517,2.6850218772888184,0.12339171022176743
1774470345516244700,4.93024462890625,-0.8185241222381592,2.394617795944214,0.04890231043100357
1774470345526257700,4.940257568359375,-0.8683268427848816,1.9495168924331665,-1.2515509128570557
1774470345536270600,4.9502705078125,-0.8484196066856384,1.7606226205825806,-1.3891321420669556
1774470345546284800,4.960284912109375,-0.7287933826446533,2.2756152153015137,-1.7211833000183105
1774470345556297700,4.970297607421875,-0.6720945835113525,2.3129656314849854,-1.8921043872833252
1774470345566310700,4.980310546875,-0.738335132598877,2.1755614280700684,-2.0533037185668945
1774470345576323800,4.99032373046875,-0.777934193611145,1.938040852546692,-2.178507089614868
1774470345586337800,5.000337890625,-0.8412854671478271,1.5779932737350464,-2.2940549850463867
1774470345596350700,5.010350830078125,-0.9499858617782593,0.9293102622032166,-2.3283371925354004
1774470345606363600,5.02036376953125,-1.1045128107070923,0.524019181728363,-2.4110875129699707
1774470345616376600,5.03037646484375,-1.2425904273986816,0.2889624238014221,-2.5204591751098633
1774470345626390800,5.040390869140625,-1.3990015983581543,0.05398532748222351,-2.6772663593292236
1774470345636403700,5.05040380859375,-1.597599744796753,-0.299028217792511,-2.879521608352661
1774470345646416600,5.060416748046875,-1.8727293014526367,-0.7937455177307129,-2.9729292392730713
1774470345656429800,5.070429931640625,-2.1837546825408936,-1.3158390522003174,-2.8840370178222656
1774470345666443800,5.08044384765625,-2.493496894836426,-1.8757210969924927,-2.544276714324951
1774470345676456700,5.090456787109375,-2.832038164138794,-2.4363083839416504,-1.9132814407348633
1774470345686470000,5.100469970703125,-2.976716995239258,-2.697053909301758,-1.4587652683258057
1774470345696482600,5.110482666015625,-2.8541226387023926,-2.831437110900879,-1.5111340284347534
1774470345706496800,5.120496826171875,-2.4912428855895996,-3.28716778755188,-2.32169771194458
1774470345716509700,5.130509765625,-2.2288827896118164,-3.7880375385284424,-2.5745859146118164
1774470345726522600,5.140522705078125,-2.0856127738952637,-3.3170862197875977,-1.8196113109588623
1774470345736536800,5.150536865234375,-1.8685189485549927,-1.8624567985534668,-0.9354993104934692
1774470345746549500,5.160549560546875,-1.6413923501968384,-0.5898413062095642,-0.040881991386413574
1774470345756562700,5.170562744140625,-1.333343505859375,0.1477648913860321,0.25437337160110474
1774470345766575900,5.180575927734375,-1.0677616596221924,0.3920276165008545,0.1965329945087433
1774470345776589600,5.190589599609375,-0.9006187319755554,0.2696206569671631,0.019217446446418762
1774470345786602800,5.200602783203125,-0.8699982762336731,-0.21451351046562195,-0.32289355993270874
1774470345796615000,5.210614990234375,-0.9551255106925964,-0.537598192691803,-0.7017666101455688
1774470345806628000,5.220628173828125,-1.083672285079956,-0.7138651013374329,-0.9199817776679993
1774470345816641800,5.230641845703125,-1.262974739074707,-0.6707716584205627,-0.9658554196357727
1774470345826655000,5.240655029296875,-1.4497501850128174,-0.25473421812057495,-0.9591644406318665
1774470345836668000,5.25066796875,-1.6698799133300781,0.36396491527557373,-0.8512506484985352
1774470345846681900,5.260681884765625,-1.9104149341583252,1.1363316774368286,-0.7284805178642273
1774470345856695000,5.270695068359375,-2.072065830230713,1.8294191360473633,-0.7163833379745483
1774470345866707700,5.280707763671875,-2.024684190750122,2.1667163372039795,-0.7983527779579163
1774470345876721000,5.290720947265625,-1.7856985330581665,2.2249553203582764,-0.9019070267677307
1774470345886734800,5.30073486328125,-1.4878261089324951,2.1862053871154785,-1.0821199417114258
1774470345896747800,5.310747802734375,-1.222392201423645,2.136185884475708,-1.1830708980560303
1774470345906761000,5.320760986328125,-0.8978510499000549,2.0562117099761963,-1.1551990509033203
1774470345916775000,5.33077490234375,-0.5788602232933044,1.9656411409378052,-1.0340639352798462
1774470345926787800,5.340787841796875,-0.24710677564144135,1.8668352365493774,-0.9225751757621765
1774470345936801000,5.350801025390625,0.03208912909030914,1.8226360082626343,-0.8322149515151978
1774470345946813700,5.360813720703125,0.15091298520565033,1.8386142253875732,-0.8143339157104492
1774470345956828000,5.370827880859375,0.0894911140203476,2.151448965072632,-0.9238103032112122
1774470345966841000,5.380841064453125,-0.10217365622520447,2.517699718475342,-0.9144306182861328
1774470345976853800,5.390853759765625,-0.22492913901805878,2.7949604988098145,-0.7250149846076965
1774470345986867000,5.400866943359375,-0.1923498958349228,2.7584176063537598,-0.5624415278434753
1774470345996881000,5.410880859375,-0.06985105574131012,2.5325684547424316,-0.41568219661712646
1774470346006893800,5.420893798828125,0.011405987665057182,2.1811044216156006,-0.23317308723926544
1774470346016907000,5.430906982421875,0.025027763098478317,1.686759352684021,-0.08939369767904282
1774470346026920700,5.440920654296875,0.058954302221536636,1.1200368404388428,0.019170325249433517
1774470346036934000,5.450933837890625,0.15805058181285858,0.5131983160972595,0.17869703471660614
1774470346046946800,5.46094677734375,0.18174418807029724,-0.006453688256442547,0.3445315361022949
1774470346056960800,5.470960693359375,0.14391538500785828,-0.4258122146129608,0.39956697821617126
1774470346066974000,5.480973876953125,0.23041965067386627,-0.8414613604545593,0.399736613035202
1774470346076987000,5.49098681640625,0.4484666585922241,-1.2741152048110962,0.3800227642059326
1774470346086999800,5.500999755859375,0.7018738985061646,-1.6035168170928955,0.3394455313682556
1774470346097014000,5.511013916015625,0.8368304967880249,-1.5529708862304688,0.2539559602737427
1774470346107026700,5.521026611328125,0.846535861492157,-1.1098347902297974,0.182794988155365
1774470346117039900,5.531039794921875,0.7826994061470032,-0.5819533467292786,0.1957121044397354
1774470346127054000,5.54105419921875,0.699039101600647,-0.2712654769420624,0.289192259311676
1774470346137066800,5.551066650390625,0.6231759190559387,-0.3189671039581299,0.41602692008018494
1774470346147080000,5.561079833984375,0.5902248620986938,-0.7078368067741394,0.5350683927536011
1774470346157094000,5.571093994140625,0.5895466208457947,-1.266252875328064,0.5849496126174927
1774470346167106800,5.58110693359375,0.6266420483589172,-1.8187395334243774,0.5605523586273193
1774470346177120000,5.5911201171875,0.6179194450378418,-2.0619001388549805,0.44902145862579346
1774470346187133700,5.6011337890625,0.51165771484375,-1.8530248403549194,0.29677465558052063
1774470346197147000,5.61114697265625,0.46328943967819214,-1.2997987270355225,0.1286398321390152
1774470346207160000,5.62116015625,0.5384555459022522,-0.6059027910232544,0.02254987135529518
1774470346217172700,5.6311728515625,0.6335713863372803,0.10220930725336075,-0.013329032808542252
1774470346227187000,5.64118701171875,0.6456725001335144,0.8026867508888245,-0.03238927572965622
1774470346237200000,5.651199951171875,0.6939880847930908,1.3258860111236572,-0.05443617329001427
1774470346247212800,5.661212890625,0.7678226232528687,1.647666335105896,-0.08460233360528946
1774470346257227000,5.67122705078125,0.8149020671844482,1.8234738111495972,-0.07974931597709656
1774470346267240000,5.681239990234375,0.8130508661270142,1.8656539916992188,-0.01616234891116619
1774470346277252900,5.6912529296875,0.7742012739181519,1.8674525022506714,0.06350255012512207
1774470346287267000,5.70126708984375,0.7056152820587158,1.8854482173919678,0.09210250526666641
1774470346297279700,5.71127978515625,0.6395277380943298,1.8941688537597656,0.06516551226377487
1774470346307293000,5.72129296875,0.5313432216644287,1.8863105773925781,-0.0033032959327101707
1774470346317307000,5.731306884765625,0.4084683358669281,1.8476167917251587,-0.10904902219772339
1774470346327319800,5.74131982421875,0.2976504862308502,1.729859471321106,-0.16914750635623932
1774470346337333000,5.7513330078125,0.17333124577999115,1.4353363513946533,-0.07513520121574402
1774470346347346700,5.7613466796875,-0.04890076071023941,1.036786675453186,0.12898916006088257
1774470346357359900,5.77135986328125,-0.29447823762893677,0.6891668438911438,0.302889347076416
1774470346367373000,5.781373046875,-0.41122111678123474,0.4171728491783142,0.28608211874961853
1774470346377386800,5.79138671875,-0.3399205505847931,0.25639674067497253,0.05933926999568939
1774470346387400000,5.80139990234375,-0.19689682126045227,0.16765515506267548,-0.160321444272995
1774470346397412900,5.811412841796875,-0.09748641401529312,0.07783239334821701,-0.2465745359659195
1774470346407426800,5.8214267578125,-0.14559082686901093,-0.03905055671930313,-0.21388262510299683
1774470346417440000,5.83143994140625,-0.17565296590328217,-0.23985810577869415,-0.1799228936433792
1774470346427453000,5.841452880859375,-0.16210971772670746,-0.5455290675163269,-0.1855967491865158
1774470346437467000,5.851466796875,-0.16485825181007385,-0.9514800310134888,-0.2073497772216797
1774470346447480000,5.86147998046875,-0.20701982080936432,-1.382433295249939,-0.2731913924217224
1774470346457493800,5.87149365234375,-0.25943511724472046,-1.7478615045547485,-0.3582102656364441
1774470346467507000,5.8815068359375,-0.31392285227775574,-2.0023064613342285,-0.4256441593170166
1774470346477520000,5.891519775390625,-0.39553070068359375,-2.103679656982422,-0.47332823276519775
1774470346487533800,5.901533935546875,-0.4551636576652527,-2.027585744857788,-0.5117605328559875
1774470346497547000,5.911547119140625,-0.4756543040275574,-1.8648325204849243,-0.4364510178565979
1774470346507559700,5.9215595703125,-0.4691905379295349,-1.6507776975631714,-0.2671477496623993
1774470346517574000,5.931573974609375,-0.37710198760032654,-1.4574931859970093,-0.13170531392097473
1774470346527586800,5.9415869140625,-0.2953892946243286,-1.200186848640442,-0.13376793265342712
1774470346537599700,5.951599853515625,-0.2160940170288086,-0.9209721684455872,-0.23354463279247284
1774470346547614000,5.961614013671875,-0.21845756471157074,-0.7287076711654663,-0.26462534070014954
1774470346557627000,5.971626953125,-0.3601722717285156,-0.5284829139709473,-0.28571563959121704
1774470346567639800,5.981639892578125,-0.541714072227478,-0.22230754792690277,-0.35650673508644104
1774470346577653800,5.99165380859375,-0.6602436900138855,0.1293518841266632,-0.31052690744400024
1774470346587667000,6.0016669921875,-0.6836829781532288,0.4467564523220062,-0.23153327405452728
1774470346597679900,6.011679931640625,-0.6482087969779968,0.7405715584754944,-0.1822773814201355
1774470346607693800,6.02169384765625,-0.5839621424674988,0.9972584843635559,-0.17848025262355804
1774470346617706800,6.031706787109375,-0.5305261611938477,1.2058571577072144,-0.186100035905838
1774470346627721000,6.041720947265625,-0.5019429922103882,1.3240565061569214,-0.17967569828033447
1774470346637734000,6.05173388671875,-0.4773966372013092,1.331375002861023,-0.16400578618049622
1774470346647746800,6.061746826171875,-0.4403446316719055,1.2172536849975586,-0.16774512827396393
1774470346657760800,6.0717607421875,-0.3930141031742096,0.9847689270973206,-0.18052202463150024
1774470346667774000,6.08177392578125,-0.3328724503517151,0.6374748945236206,-0.1850094497203827
1774470346677787000,6.091786865234375,-0.2710007429122925,0.22574283182621002,-0.18723949790000916
1774470346687800800,6.10180078125,-0.22591716051101685,-0.20979158580303192,-0.19933344423770905
1774470346697814000,6.11181396484375,-0.19622911512851715,-0.6315781474113464,-0.22743703424930573
1774470346707827000,6.121826904296875,-0.17535606026649475,-0.9886835217475891,-0.25162866711616516
1774470346717841000,6.1318408203125,-0.14946942031383514,-1.2679675817489624,-0.275870680809021
1774470346727853800,6.141853759765625,-0.12100128829479218,-1.458292841911316,-0.3001967966556549
1774470346737867800,6.15186767578125,-0.09612279385328293,-1.5682168006896973,-0.3175492286682129
1774470346747881000,6.161880859375,-0.0684909000992775,-1.6052802801132202,-0.33195480704307556
1774470346757894000,6.171893798828125,-0.03360152244567871,-1.56242036819458,-0.3488214910030365
1774470346767907800,6.181907958984375,-0.011250939220190048,-1.4327023029327393,-0.38112109899520874
1774470346777921000,6.191921142578125,-0.021607819944620132,-1.2344450950622559,-0.43825647234916687
1774470346787934000,6.201933837890625,-0.05437002703547478,-0.970019519329071,-0.5076813697814941
1774470346797948200,6.2119482421875,-0.10191187262535095,-0.669146716594696,-0.558771550655365
1774470346807961300,6.22196142578125,-0.14011305570602417,-0.3651091158390045,-0.5654411911964417
1774470346817975300,6.231975341796875,-0.15849727392196655,-0.09956115484237671,-0.5517650842666626
1774470346827988200,6.24198828125,-0.15627247095108032,0.09561286866664886,-0.5509166121482849
1774470346838001200,6.252001220703125,-0.14396311342716217,0.2247214913368225,-0.55295729637146
1774470346848015400,6.262015380859375,-0.12935353815555573,0.2920083701610565,-0.5396028757095337
1774470346858028300,6.2720283203125,-0.10496221482753754,0.31533196568489075,-0.5212189555168152
1774470346868041200,6.282041259765625,-0.07370708882808685,0.3185213804244995,-0.517203688621521
1774470346878055200,6.29205517578125,-0.05524015054106712,0.30460748076438904,-0.5096018314361572
1774470346888068000,6.302068115234375,-0.04623467102646828,0.2876705825328827,-0.4732903838157654
1774470346898081300,6.312081298828125,-0.04743222892284393,0.2625695765018463,-0.4167805016040802
1774470346908095200,6.32209521484375,-0.0677337720990181,0.22525416314601898,-0.3770964741706848
1774470346918108200,6.332108154296875,-0.10245869308710098,0.17671428620815277,-0.37551677227020264
1774470346928122400,6.342122314453125,-0.14092564582824707,0.0957147628068924,-0.392892062664032
1774470346938135000,6.352135009765625,-0.1708340048789978,0.0402473621070385,-0.4055625796318054
1774470346948148200,6.362148193359375,-0.18249359726905823,0.013816820457577705,-0.3885740041732788
1774470346958162400,6.372162353515625,-0.17741917073726654,-0.05392229184508324,-0.35664573311805725
1774470346968175000,6.382175048828125,-0.12201584875583649,-0.3543931543827057,-0.3266471028327942
1774470346978188300,6.392188232421875,-0.07822811603546143,-0.009821414016187191,-0.369206964969635
1774470346988202000,6.402201904296875,-0.13276273012161255,1.3883565664291382,-0.4084222614765167
1774470346998215200,6.412215087890625,-0.17751839756965637,2.2773163318634033,-0.2753717601299286
1774470347008228400,6.422228271484375,-0.1757652461528778,2.0633597373962402,-0.0981956347823143
1774470347018242000,6.432241943359375,-0.19206684827804565,1.661958932876587,0.028459740802645683
1774470347028255200,6.442255126953125,-0.3580547869205475,1.1379276514053345,-0.12180247157812119
1774470347038269200,6.452269287109375,-0.40243175625801086,0.8585413694381714,-0.39797094464302063
1774470347048282000,6.4622822265625,-0.36527079343795776,1.0006481409072876,-0.6162561178207397
1774470347058295300,6.47229541015625,-0.16307932138442993,1.6447412967681885,-0.5589317083358765
1774470347068309200,6.482309326171875,0.15480704605579376,2.4805984497070312,-0.2545667588710785
1774470347078322200,6.492322265625,0.32985445857048035,2.874765396118164,-0.030298341065645218
1774470347088335400,6.50233544921875,0.4034661054611206,2.441344738006592,0.050118204206228256
1774470347098349000,6.51234912109375,0.586031973361969,1.2657616138458252,0.03761480748653412
1774470347108362200,6.5223623046875,0.7760881781578064,0.9563190937042236,-0.12741516530513763
1774470347118375400,6.53237548828125,0.755302369594574,1.595940351486206,-0.23901860415935516
1774470347128389000,6.54238916015625,0.7418427467346191,1.6126987934112549,-0.1154806911945343
1774470347138402300,6.55240234375,0.7327308058738708,1.8397177457809448,0.10015574842691422
1774470347148415200,6.562415283203125,0.6861995458602905,2.211059093475342,0.17884764075279236
1774470347158429200,6.57242919921875,0.47952204942703247,0.8561695218086243,-0.08663513511419296
1774470347168442400,6.5824423828125,0.28428277373313904,0.6894577741622925,-0.27671825885772705
1774470347178456300,6.592456298828125,-0.03138617426156998,0.3656172454357147,-0.3724866807460785
1774470347188469200,6.60246923828125,-0.4489938020706177,-1.3860411643981934,-0.6008375287055969
1774470347198482200,6.612482177734375,-0.4631965756416321,-2.1922671794891357,-0.6757417917251587
1774470347208496400,6.622496337890625,-0.24650153517723083,-2.35333251953125,-0.7613410949707031
1774470347218509300,6.63250927734375,-0.14300604164600372,-1.545285940170288,-0.7764782905578613
1774470347228522200,6.642522216796875,-0.12650668621063232,-0.5760012269020081,-0.5952848196029663
1774470347238536200,6.6525361328125,-0.2448168396949768,-0.36214038729667664,-0.4628418982028961
1774470347248549000,6.662549072265625,-0.4173121750354767,-0.3371143937110901,-0.4015367329120636
1774470347258562300,6.672562255859375,-0.5391057133674622,0.08777978271245956,-0.28871819376945496
1774470347268576300,6.682576171875,-0.5664627552032471,0.6667584180831909,-0.17694611847400665
1774470347278589200,6.692589111328125,-0.5443239808082581,1.2662724256515503,-0.02939544804394245
1774470347288602000,6.70260205078125,-0.5345779061317444,1.4323554039001465,0.10713949054479599
1774470347298616000,6.712615966796875,-0.5583028197288513,1.3509507179260254,0.19873420894145966
1774470347308629200,6.722629150390625,-0.6042609810829163,1.099816918373108,0.18839527666568756
1774470347318642200,6.73264208984375,-0.5418198108673096,0.659162163734436,0.16709282994270325
1774470347328656100,6.74265625,-0.43539753556251526,0.4096522033214569,0.10870860517024994
1774470347338669300,6.75266943359375,-0.30808261036872864,0.44099217653274536,0.1472303569316864
1774470347348682200,6.76268212890625,-0.19157196581363678,0.9699316024780273,0.19369639456272125
1774470347358696200,6.7726962890625,-0.26117411255836487,1.0533353090286255,0.22116445004940033
1774470347368709400,6.78270947265625,-0.3713706433773041,0.9396002888679504,0.2751195728778839
1774470347378722300,6.792722412109375,-0.4236336350440979,1.5312472581863403,0.2400752454996109
1774470347388736300,6.802736328125,-0.38394826650619507,1.7509843111038208,0.2954977750778198
1774470347398749200,6.812749267578125,-0.3793204724788666,2.309237241744995,0.274061381816864
1774470347408762000,6.82276220703125,-0.2985212206840515,2.258439540863037,0.25058266520500183
1774470347418776300,6.8327763671875,-0.21870364248752594,2.0916059017181396,0.27310869097709656
1774470347428789200,6.842789306640625,-0.10206969827413559,1.6953125,0.20542846620082855
1774470347438802200,6.85280224609375,-0.0874537006020546,1.5137364864349365,-0.004724600352346897
1774470347448816400,6.86281640625,-0.14829227328300476,1.1730636358261108,-0.029402783140540123
1774470347458829000,6.8728291015625,-0.1605636179447174,1.2681437730789185,0.07289150357246399
1774470347468843300,6.88284326171875,-0.12395793944597244,1.3936105966567993,0.1287079006433487
1774470347478856400,6.8928564453125,-0.0353604257106781,1.5897250175476074,0.20772068202495575
1774470347488869000,6.902869140625,-0.04090086743235588,1.709547996520996,0.20217226445674896
1774470347498883300,6.91288330078125,-0.13930922746658325,1.2871732711791992,0.06936586648225784
1774470347508896000,6.92289599609375,-0.24893851578235626,1.1285994052886963,-0.10283438861370087
1774470347518909200,6.9329091796875,-0.3583121597766876,1.1599156856536865,-0.2116069793701172
1774470347528922400,6.94292236328125,-0.447603702545166,1.4274697303771973,-0.09664178639650345
1774470347538936000,6.95293603515625,-0.48397451639175415,1.7598587274551392,0.03761468082666397
1774470347548949200,6.96294921875,-0.47900131344795227,1.7179795503616333,0.040581442415714264
1774470347558962200,6.972962158203125,-0.4317518174648285,1.6383367776870728,-0.01458497904241085
1774470347568976100,6.98297607421875,-0.39665719866752625,1.5282353162765503,-0.06342548877000809
1774470347578989300,6.9929892578125,-0.4044831097126007,1.2896322011947632,-0.1085541844367981
1774470347589002200,7.003002197265625,-0.45207834243774414,1.157268762588501,0.021788373589515686
1774470347599016200,7.01301611328125,-0.4827881157398224,0.847972571849823,0.09965180605649948
1774470347609029400,7.023029296875,-0.46489858627319336,0.43018919229507446,0.03900257498025894
1774470347619042000,7.0330419921875,-0.44392481446266174,0.032132573425769806,-0.03492124378681183
1774470347629056300,7.04305615234375,-0.4491443336009979,-0.128570556640625,-0.04626897722482681
1774470347639069400,7.0530693359375,-0.46248582005500793,-0.22118988633155823,-0.02587694302201271
1774470347649082000,7.06308203125,-0.45572298765182495,-0.38151857256889343,0.037454359233379364
1774470347659096300,7.073096435546875,-0.42754486203193665,-0.45489707589149475,0.14874787628650665
1774470347669109000,7.08310888671875,-0.37362807989120483,-0.4349401295185089,0.23651234805583954
1774470347679122200,7.0931220703125,-0.28566256165504456,-0.3095555305480957,0.26495957374572754
1774470347689136400,7.103136474609375,-0.16162289679050446,-0.004036110360175371,0.2647031247615814
1774470347699149000,7.113149169921875,-0.03649642691016197,0.302549809217453,0.32258903980255127
1774470347709162200,7.123162353515625,0.0026605611201375723,0.23399388790130615,0.3784336447715759
1774470347719176200,7.13317626953125,0.013138768263161182,-0.2665996849536896,0.38084709644317627
1774470347729189000,7.143189208984375,0.06899431347846985,-0.9952629804611206,0.39926204085350037
1774470347739202300,7.153202392578125,0.16610872745513916,-1.7189041376113892,0.2577934265136719
1774470347749216300,7.16321630859375,0.22640642523765564,-1.9336521625518799,0.21404649317264557
1774470347759229200,7.173229248046875,0.16960564255714417,-1.6124026775360107,0.24288316071033478
1774470347769242400,7.183242431640625,-0.03159883990883827,-1.9676828384399414,0.26197537779808044
1774470347779256000,7.193256103515625,-0.21045750379562378,-2.2342655658721924,0.2254667729139328
1774470347789269200,7.203269287109375,-0.20888544619083405,-2.2327933311462402,0.008361350744962692
1774470347799282200,7.2132822265625,-0.018316391855478287,-2.6949522495269775,-0.2643912434577942
1774470347809296100,7.223296142578125,0.2943213880062103,-3.6713223457336426,-0.4501315653324127
1774470347819309300,7.233309326171875,0.5619726777076721,-4.422209739685059,-0.4989434778690338
1774470347829322000,7.243322021484375,0.6571979522705078,-4.581519603729248,-0.4809780716896057
1774470347839336200,7.253336181640625,0.5609377026557922,-4.188755035400391,-0.4136679172515869
1774470347849349000,7.26334912109375,0.3455694913864136,-3.607820987701416,-0.31204941868782043
1774470347859362000,7.273362060546875,0.07774766534566879,-3.2130377292633057,-0.23984791338443756
1774470347869376300,7.283376220703125,-0.15684325993061066,-2.9128098487854004,-0.20935285091400146
1774470347879389000,7.293388916015625,-0.3054885268211365,-2.8101093769073486,-0.21437974274158478
1774470347889402000,7.303402099609375,-0.3386893570423126,-2.7682979106903076,-0.23064206540584564
1774470347899416300,7.313416259765625,-0.2925618290901184,-2.9243311882019043,-0.2659390866756439
1774470347909429000,7.323428955078125,-0.21123738586902618,-3.259399175643921,-0.3548513948917389
1774470347919442200,7.333442138671875,-0.07843698561191559,-3.157104015350342,-0.30901038646698
1774470347929455000,7.343455078125,0.10758668184280396,-2.717611074447632,-0.16937550902366638
1774470347939469000,7.353468994140625,0.27184924483299255,-2.234004497528076,-0.08932413905858994
1774470347949482200,7.363482177734375,0.3434339463710785,-1.8777673244476318,-0.09718259423971176
1774470347959495200,7.3734951171875,0.31153178215026855,-1.831963300704956,-0.1792401373386383
1774470347969509000,7.383509033203125,0.23881575465202332,-1.7971206903457642,-0.28220486640930176
1774470347979522300,7.393522216796875,0.14457587897777557,-1.7705307006835938,-0.3150971531867981
1774470347989535000,7.403534912109375,0.0903850868344307,-1.849334955215454,-0.2594032883644104
1774470347999549200,7.413549072265625,0.05498636141419411,-1.913803219795227,-0.15968383848667145
1774470348009562000,7.42356201171875,0.16194157302379608,-1.948449969291687,-0.07753012329339981
1774470348019575000,7.433574951171875,0.309408038854599,-1.921567440032959,0.012500045821070671
1774470348029589200,7.44358935546875,0.3832625448703766,-1.8442065715789795,0.03904270380735397
1774470348039602000,7.453601806640625,0.3596023619174957,-1.9159955978393555,-0.03724411875009537
1774470348049615000,7.463614990234375,0.2799874246120453,-1.9473797082901,-0.1279098391532898
1774470348059629300,7.47362939453125,0.14903560280799866,-2.0330417156219482,-0.2753237783908844
1774470348069642000,7.48364208984375,-0.08430951088666916,-2.1025824546813965,-0.2972753942012787
1774470348079655200,7.4936552734375,-0.3707272410392761,-2.1222643852233887,-0.14845667779445648
1774470348089669000,7.503669189453125,-0.589444637298584,-2.2088139057159424,-0.013643205165863037
1774470348099682000,7.51368212890625,-0.6087220311164856,-2.1030213832855225,-0.011189980432391167
1774470348109695200,7.5236953125,-0.5216265916824341,-1.5934094190597534,0.07540003955364227
1774470348119708200,7.533708251953125,-0.37282297015190125,-1.01494562625885,0.24386271834373474
1774470348129722000,7.54372216796875,-0.12691575288772583,-0.46149688959121704,0.35730990767478943
1774470348139735300,7.5537353515625,0.12574157118797302,-0.02530139498412609,0.3186601400375366
1774470348149748000,7.563748046875,0.28220894932746887,0.3079737722873688,0.18992052972316742
1774470348159762200,7.57376220703125,0.27307119965553284,0.45949849486351013,0.09240131080150604
1774470348169775400,7.583775390625,0.17693905532360077,0.6674444675445557,0.10613763332366943
1774470348179788000,7.5937880859375,0.08713299036026001,1.1637130975723267,0.21145248413085938
1774470348189802200,7.60380224609375,0.041560977697372437,1.73640775680542,0.35890132188796997
1774470348199815000,7.61381494140625,0.05611510947346687,2.054903984069824,0.49100086092948914
1774470348209828000,7.623828125,0.14521196484565735,2.0985043048858643,0.5259814858436584
1774470348219842300,7.63384228515625,0.1721201390028,2.01904296875,0.5610343217849731
1774470348229855000,7.64385498046875,0.07115091383457184,1.6030046939849854,0.6259480714797974
1774470348239868200,7.6538681640625,-0.1166507750749588,1.1096564531326294,0.6445586085319519
1774470348249882000,7.663882080078125,-0.336774080991745,0.5499787330627441,0.7159880995750427
1774470348259895000,7.67389501953125,-0.5637622475624084,-0.0028724514413625,0.860781192779541
1774470348269908200,7.683908203125,-0.7661728262901306,-0.5262496471405029,1.097913384437561
1774470348279922200,7.693922119140625,-0.864536702632904,-1.332516074180603,1.3772475719451904
1774470348289935000,7.70393505859375,-0.7492415308952332,-2.1655194759368896,1.582326889038086
1774470348299948300,7.7139482421875,-0.48835423588752747,-2.5905730724334717,1.677242398262024
1774470348309962000,7.7239619140625,-0.24869346618652344,-2.5928971767425537,1.6225192546844482
1774470348319975200,7.73397509765625,-0.25174587965011597,-2.0695648193359375,1.3684718608856201
1774470348329988400,7.74398828125,-0.5658140182495117,-1.4274470806121826,0.9144247770309448
1774470348340001000,7.7540009765625,-1.1035633087158203,-0.8812406063079834,0.33700546622276306
1774470348350015200,7.76401513671875,-1.5955219268798828,-0.2654106914997101,-0.21907587349414825
1774470348360028000,7.77402783203125,-1.7629519701004028,0.12346012890338898,-0.5019634366035461
1774470348370041000,7.784041015625,-1.7765746116638184,0.2980092763900757,-0.6430803537368774
1774470348380055300,7.79405517578125,-1.749893069267273,0.4124494194984436,-0.5583009123802185
1774470348390068000,7.80406787109375,-1.3102092742919922,0.603092610836029,-0.3674987256526947
1774470348400081200,7.8140810546875,-0.6580121517181396,0.719229519367218,-0.2791924476623535
1774470348410095000,7.82409521484375,-0.11544472724199295,0.4867731034755707,-0.26835310459136963
1774470348420108000,7.83410791015625,0.20636014640331268,-0.1301804482936859,-0.18814855813980103
1774470348430121200,7.844121337890625,0.40387240052223206,-0.7542027831077576,0.008459046483039856
1774470348440135200,7.85413525390625,0.5206025242805481,-1.077528715133667,0.17424654960632324
1774470348450148000,7.864148193359375,0.49644365906715393,-1.0818414688110352,0.15444886684417725
1774470348460161300,7.874161376953125,0.3951512575149536,-0.7424541115760803,0.040771350264549255
1774470348470175000,7.884175048828125,0.26615652441978455,-0.40508460998535156,-0.03532395139336586
1774470348480188200,7.894188232421875,0.1295233964920044,-0.38233619928359985,-0.05953579396009445
1774470348490201300,7.904201416015625,-0.004852001555263996,-0.5425285696983337,-0.08524701744318008
1774470348500215000,7.914215087890625,-0.09158544987440109,-0.7367222309112549,-0.14279213547706604
1774470348510228200,7.924228271484375,-0.12129167467355728,-0.9245267510414124,-0.194407656788826
1774470348520241000,7.934240966796875,-0.09928544610738754,-1.0994755029678345,-0.19581779837608337
1774470348530255000,7.944255126953125,-0.04391086474061012,-1.191429615020752,-0.1689414381980896
1774470348540268300,7.954268310546875,0.010357019491493702,-1.136222243309021,-0.14915208518505096
1774470348550281000,7.964281005859375,0.01068032719194889,-0.8800700306892395,-0.15756714344024658
1774470348560295200,7.974295166015625,-0.024628806859254837,-0.6825698018074036,-0.18292582035064697
1774470348570308000,7.98430810546875,-0.051635660231113434,-0.5465083718299866,-0.20298528671264648
1774470348580321000,7.994321044921875,-0.06584542989730835,-0.541638970375061,-0.20527373254299164
1774470348590335200,8.004335205078124,-0.032542064785957336,-0.40640124678611755,-0.19713538885116577
1774470348600348200,8.01434814453125,-0.017923256382346153,0.3252905011177063,-0.33098599314689636
1774470348610361000,8.024361083984376,-0.10823371261358261,1.1984081268310547,-0.5498597621917725
1774470348620375000,8.034375,-0.2925989329814911,1.167177677154541,-0.5719401240348816
1774470348630388000,8.044387939453125,-0.3874734938144684,0.5846506357192993,-0.43283575773239136
1774470348640401200,8.054401123046874,-0.31701985001564026,-0.060013629496097565,-0.26357558369636536
1774470348650415000,8.0644150390625,-0.1566314995288849,-0.5282226204872131,-0.13895805180072784
1774470348660428000,8.074427978515626,0.03768336400389671,-0.9523934721946716,-0.051939044147729874
1774470348670441200,8.084441162109375,0.19911353290081024,-1.3702112436294556,0.06143544986844063
1774470348680455200,8.094455078125,0.3030792474746704,-1.7074435949325562,0.1465453952550888
1774470348690468000,8.104468017578125,0.3314419090747833,-1.9009499549865723,0.1644972264766693
1774470348700481300,8.114481201171875,0.29611489176750183,-1.896999478340149,0.14751505851745605
1774470348710495200,8.1244951171875,0.22532565891742706,-1.5929597616195679,0.080954410135746
1774470348720508200,8.134508056640625,0.1776386946439743,-1.2166244983673096,0.0008978841360658407
1774470348730522000,8.144522216796876,0.14645254611968994,-1.045393705368042,-0.034838806837797165
1774470348740535000,8.15453515625,0.13774517178535461,-0.8831252455711365,-0.05211041122674942
1774470348750548200,8.16454833984375,0.13086383044719696,-0.5726560950279236,-0.0738908052444458
1774470348760562200,8.174562255859374,0.10152234137058258,-0.41647377610206604,-0.11356668174266815
1774470348770575000,8.1845751953125,-0.015515066683292389,-1.0158356428146362,-0.10508717596530914
1774470348780588000,8.194588134765626,-0.0696922019124031,-1.2870581150054932,0.08358903974294662
1774470348790602200,8.204602294921875,0.0051223780028522015,-1.758366584777832,0.07764007151126862
1774470348800615200,8.214615234375,0.21682393550872803,-2.086108684539795,-0.09128999710083008
1774470348810628000,8.224628173828124,0.3288487493991852,-1.6547887325286865,-0.3093389868736267
1774470348820642000,8.23464208984375,0.23263782262802124,-0.4706261456012726,-0.41176241636276245
1774470348830655000,8.244655029296876,-0.3421647548675537,2.2727954387664795,-0.653056263923645
1774470348840668200,8.254668212890625,-1.1878732442855835,5.1980133056640625,-1.2841662168502808
1774470348850682000,8.26468212890625,-1.5225307941436768,5.429191589355469,-1.887944221496582
1774470348860695000,8.274695068359375,-1.6943806409835815,4.506610870361328,-1.5885248184204102
1774470348870708000,8.2847080078125,-1.375992774963379,3.623220920562744,-0.9654039144515991
1774470348880722000,8.294721923828124,-0.5170906782150269,3.0487091541290283,-0.355925977230072
1774470348890735000,8.304735107421875,0.4354506731033325,2.250469446182251,0.2327367514371872
1774470348900748000,8.314748046875,0.86126708984375,1.3949633836746216,0.48913291096687317
1774470348910762000,8.324761962890625,0.5763120651245117,0.6501264572143555,0.17671479284763336
1774470348920775200,8.334775146484375,0.1651444286108017,0.12082288414239883,0.16619539260864258
1774470348930788000,8.3447880859375,-0.06619185209274292,-0.45308059453964233,0.1601409614086151
1774470348940802000,8.354802001953125,-0.19198285043239594,-0.7658110857009888,0.15919636189937592
1774470348950815200,8.364815185546876,-0.16319061815738678,-0.8444632887840271,0.26170435547828674
1774470348960828200,8.374828125,-0.03776121512055397,-0.783626914024353,0.2711379826068878
1774470348970842000,8.384842041015625,0.05816451460123062,-0.7310079336166382,0.15976540744304657
1774470348980855000,8.39485498046875,0.07053110003471375,-0.6421946287155151,0.026188679039478302
1774470348990868000,8.404867919921875,0.020632516592741013,-0.33075016736984253,-0.0962754487991333
1774470349000882200,8.414882080078126,-0.07278608530759811,0.2581884264945984,-0.25507083535194397
1774470349010895000,8.42489501953125,-0.2158644199371338,0.900478720664978,-0.3728739023208618
1774470349020908000,8.434907958984375,-0.30271080136299133,1.4046683311462402,-0.4066031873226166
1774470349030922200,8.444922119140625,-0.2926208972930908,1.8972159624099731,-0.3931662142276764
1774470349040935000,8.454934814453125,-0.20286861062049866,1.8943089246749878,-0.31077226996421814
1774470349050948000,8.464947998046876,-0.13021092116832733,1.4711434841156006,-0.17177657783031464
1774470349060962300,8.47496240234375,-0.08645164966583252,0.9287657737731934,-0.11132463812828064
1774470349070975000,8.48497509765625,0.01819060742855072,0.4839364290237427,-0.06393235921859741
1774470349080989200,8.4949892578125,0.09046312421560287,0.234065443277359,-0.03873518481850624
1774470349091002000,8.505002197265625,0.12491670250892639,-0.04550894349813461,-0.011855635792016983
1774470349101015000,8.51501513671875,0.1320497691631317,-0.18459832668304443,-0.010041575878858566
1774470349111029200,8.525029296875,0.15892638266086578,0.07428037375211716,-0.020398875698447227
1774470349121042000,8.5350419921875,0.1275186836719513,0.358230859041214,-0.05492263659834862
1774470349131055000,8.54505517578125,0.059361476451158524,0.42315658926963806,-0.01708843931555748
1774470349141069000,8.555069091796875,0.06757707893848419,0.44204938411712646,-0.022295132279396057
1774470349151082000,8.56508203125,0.10475187748670578,0.2203119546175003,-0.04324835166335106
1774470349161095200,8.57509521484375,0.09119979292154312,-0.2675240635871887,-0.026366788893938065
1774470349171109000,8.585109130859376,0.10097971558570862,-0.36383965611457825,0.030452551320195198
1774470349181122000,8.5951220703125,0.11144831776618958,-0.04437261447310448,0.0865897461771965
1774470349191135200,8.60513525390625,0.024295832961797714,0.260077565908432,0.12101908773183823
1774470349201149000,8.61514892578125,-0.04911837726831436,0.37476861476898193,0.18698830902576447
1774470349211162000,8.625162109375,-0.010343817993998528,0.3800014555454254,0.16966179013252258
1774470349221175300,8.63517529296875,0.058381665498018265,0.24953022599220276,0.1528775691986084
1774470349231189000,8.64518896484375,0.08769960701465607,-0.07595546543598175,0.16733454167842865
1774470349241202200,8.6552021484375,0.14867982268333435,-0.10763831436634064,0.16357474029064178
1774470349251215000,8.665215087890624,0.19291386008262634,0.04202548414468765,0.09529155492782593
1774470349261229000,8.67522900390625,0.11814794689416885,0.2445431798696518,0.04164165258407593
1774470349271242200,8.6852421875,0.1072462946176529,0.20219358801841736,-0.012962201610207558
1774470349281255000,8.6952548828125,0.13293246924877167,0.5178083181381226,-0.04041380062699318
1774470349291269000,8.70526904296875,0.10207070410251617,0.9687373638153076,-0.13013197481632233
1774470349301282000,8.715281982421875,0.054921697825193405,1.0488394498825073,-0.12371432781219482
1774470349311295000,8.725294921875,0.059614717960357666,1.025688886642456,-0.12222614884376526
1774470349321309200,8.73530908203125,0.1845455765724182,0.9548258185386658,-0.11710125207901001
1774470349331322000,8.745322021484375,0.29481402039527893,1.0619852542877197,-0.11746956408023834
1774470349341336000,8.755336181640626,0.27293291687965393,1.175606369972229,-0.13769029080867767
1774470349351349000,8.765348876953125,0.249650239944458,1.0888805389404297,-0.14007169008255005
1774470349361362000,8.77536181640625,0.19812773168087006,1.1844819784164429,-0.20065727829933167
1774470349371376000,8.785376220703125,0.13080140948295593,1.4633135795593262,-0.2533250153064728
1774470349381389000,8.79538916015625,0.06852156668901443,1.9051878452301025,-0.301652729511261
1774470349391402000,8.805402099609376,0.020501574501395226,1.7812787294387817,-0.2147311419248581
1774470349401416000,8.815416015625,0.0013835873687639832,1.4328140020370483,-0.16928811371326447
1774470349411429000,8.82542919921875,-0.030158892273902893,1.135975956916809,-0.173056498169899
1774470349421442000,8.835442138671874,-0.0374460369348526,0.9473615288734436,-0.17648771405220032
1774470349431456000,8.8454560546875,-0.03468966484069824,0.8696725964546204,-0.18144598603248596
1774470349441469200,8.85546923828125,-0.02500908076763153,1.008039951324463,-0.23477478325366974
1774470349451482000,8.865482177734375,-0.029564684256911278,1.3275508880615234,-0.30679333209991455
1774470349461496000,8.87549609375,-0.07032633572816849,1.742210865020752,-0.3853289783000946
1774470349471509000,8.885509033203125,-0.11557556688785553,1.8475879430770874,-0.33804160356521606
1774470349481522200,8.895522216796875,-0.0638202577829361,1.729905605316162,-0.37333449721336365
1774470349491536100,8.9055361328125,0.0727250725030899,1.6464375257492065,-0.39093825221061707
1774470349501549000,8.915549072265625,0.11589127033948898,1.4324665069580078,-0.3894481360912323
1774470349511563000,8.92556298828125,0.0722508504986763,1.2010116577148438,-0.36144766211509705
1774470349521576200,8.935576171875,0.00008031964534893632,1.0660960674285889,-0.38480252027511597
1774470349531589000,8.945589111328125,-0.09601105749607086,1.0892304182052612,-0.421938955783844
1774470349541603000,8.95560302734375,-0.20377418398857117,1.097548484802246,-0.44719791412353516
1774470349551616300,8.9656162109375,-0.28039517998695374,1.1361966133117676,-0.4476277530193329
1774470349561629200,8.975629150390626,-0.2557492256164551,1.3281878232955933,-0.4384780526161194
1774470349571643100,8.98564306640625,-0.26299968361854553,1.53248929977417,-0.4960620105266571
1774470349581656000,8.995656005859376,-0.3743515610694885,1.4519250392913818,-0.4953296482563019
1774470349591669000,9.0056689453125,-0.47680363059043884,1.2510597705841064,-0.4188567101955414
1774470349601683200,9.01568310546875,-0.4171976149082184,0.8900607228279114,-0.41967296600341797
1774470349611696000,9.025696044921874,-0.26441046595573425,0.439827561378479,-0.4310489296913147
1774470349621709000,9.035708984375,-0.0963049903512001,0.2700345516204834,-0.4155435860157013
1774470349631723300,9.04572314453125,-0.013277212157845497,0.8970763683319092,-0.41787946224212646
1774470349641736000,9.05573583984375,-0.1149163544178009,1.478574514389038,-0.4276743233203888
1774470349651749000,9.0657490234375,-0.27014029026031494,1.4793702363967896,-0.4146820902824402
1774470349661763000,9.07576318359375,-0.37135693430900574,1.1179720163345337,-0.37862929701805115
1774470349671776000,9.08577587890625,-0.2596120238304138,0.8483562469482422,-0.3361750543117523
1774470349681789200,9.0957890625,-0.06801965087652206,0.7337246537208557,-0.2640266418457031
1774470349691803000,9.105802978515625,0.023258058354258537,0.5988059639930725,-0.2099146991968155
1774470349701816000,9.115816162109375,0.008026298135519028,0.41861647367477417,-0.16897794604301453
1774470349711830000,9.125830078125,-0.046141333878040314,0.3182262182235718,-0.15728133916854858
1774470349721843000,9.135843017578125,-0.12522628903388977,0.23791366815567017,-0.15062768757343292
1774470349731856100,9.145856201171876,-0.17829297482967377,0.1523183286190033,-0.1413942277431488
1774470349741870000,9.1558701171875,-0.20039226114749908,0.04653475433588028,-0.13454397022724152
1774470349751883000,9.165883056640626,-0.19536074995994568,0.04817579314112663,-0.1070345863699913
1774470349761896200,9.175896240234374,-0.20821352303028107,0.10717250406742096,-0.13197338581085205
1774470349771910100,9.18591015625,-0.22501860558986664,0.1925308108329773,-0.16920331120491028
1774470349781923000,9.195923095703124,-0.24160847067832947,0.24788151681423187,-0.20959125459194183
1774470349791936300,9.205936279296875,-0.21462692320346832,0.32807010412216187,-0.2384364902973175
1774470349801950500,9.215950439453126,-0.17138193547725677,0.44876280426979065,-0.2496972382068634
1774470349811963400,9.22596337890625,-0.1096554547548294,0.579246461391449,-0.20937219262123108
1774470349821976300,9.235976318359375,-0.04689738154411316,0.7450203895568848,-0.19401827454566956
1774470349831990300,9.245990234375,0.004879261367022991,0.9157465696334839,-0.16520261764526367
1774470349842003500,9.25600341796875,0.0468238927423954,1.1077817678451538,-0.13688531517982483
1774470349852016400,9.266016357421876,0.05871410667896271,1.2762213945388794,-0.13914553821086884
1774470349862030300,9.2760302734375,0.05093478038907051,1.3099641799926758,-0.09090515226125717
1774470349872043300,9.286043212890625,0.048549920320510864,1.4130200147628784,-0.00959804467856884
1774470349882056200,9.29605615234375,0.09546804428100586,1.4978166818618774,0.06655646115541458
1774470349892070400,9.3060703125,0.1799997091293335,1.4777239561080933,0.14879541099071503
1774470349902083300,9.316083251953126,0.2676025927066803,1.4161008596420288,0.1931341290473938
1774470349912096300,9.32609619140625,0.3855654299259186,1.4063349962234497,0.1885516196489334
1774470349922110200,9.336110107421876,0.501884937286377,1.5011852979660034,0.05831735581159592
1774470349932123400,9.346123291015624,0.5862046480178833,1.3650932312011719,-0.15193335711956024
1774470349942136300,9.35613623046875,0.720015287399292,1.3658227920532227,-0.31381312012672424
1774470349952150300,9.366150390625,0.8005762100219727,1.4472646713256836,-0.3608618378639221
1774470349962163500,9.37616357421875,0.8285431861877441,1.4809587001800537,-0.3419000804424286
1774470349972176400,9.38617626953125,0.8582672476768494,1.5619233846664429,-0.32214874029159546
1774470349982190300,9.3961904296875,0.8425137400627136,1.545013189315796,-0.3540921211242676
1774470349992203300,9.406203369140625,0.8190613985061646,1.3851815462112427,-0.40706905722618103
1774470350002216400,9.416216552734374,0.7670320272445679,1.0641090869903564,-0.3926551640033722
1774470350012230400,9.42623046875,0.6856216192245483,0.8168160915374756,-0.29464444518089294
1774470350022243300,9.436243408203126,0.5812143087387085,0.6453946232795715,-0.17904341220855713
1774470350032256300,9.44625634765625,0.46981990337371826,0.6186514496803284,-0.031168192625045776
1774470350042270500,9.4562705078125,0.35996270179748535,0.7036285400390625,0.07347998023033142
1774470350052283400,9.466283447265624,0.25540807843208313,0.6898669004440308,0.12242275476455688
1774470350062296300,9.47629638671875,0.16966617107391357,0.3795264959335327,0.15719705820083618
1774470350072310500,9.486310546875,0.19071154296398163,0.077602319419384,0.18101690709590912
1774470350082323200,9.4963232421875,0.23723730444908142,-0.12395618110895157,0.13282281160354614
1774470350092336400,9.50633642578125,0.2174750566482544,-0.32182666659355164,0.10685192793607712
1774470350102350300,9.516350341796874,0.18386496603488922,-0.38943105936050415,0.0937124490737915
1774470350112363300,9.52636328125,0.15881501138210297,-0.38109534978866577,0.11815626919269562
1774470350122376400,9.53637646484375,0.12105252593755722,-0.3547838032245636,0.1509414166212082
1774470350132390100,9.54639013671875,0.0908978208899498,-0.34982553124427795,0.1415282040834427
1774470350142403300,9.5564033203125,0.06395125389099121,-0.41355666518211365,0.09807826578617096
1774470350152416300,9.566416259765624,0.04985567182302475,-0.45554086565971375,0.038719333708286285
1774470350162430200,9.57643017578125,0.04591745510697365,-0.4335560202598572,-0.007312849164009094
1774470350172443400,9.586443359375,0.034702084958553314,-0.374798983335495,-0.05878536403179169
1774470350182457300,9.596457275390625,0.013987265527248383,-0.33360522985458374,-0.07426854968070984
1774470350192470300,9.60647021484375,0.008266795426607132,-0.26637905836105347,-0.0766289085149765
1774470350202483500,9.6164833984375,0.0027691680006682873,-0.021978551521897316,-0.09751370549201965
1774470350212496400,9.626496337890625,-0.03431188687682152,0.1566079705953598,-0.13063357770442963
1774470350222510300,9.63651025390625,-0.07201438397169113,0.24961405992507935,-0.18927712738513947
1774470350232523500,9.6465234375,-0.0719403475522995,0.08098376542329788,-0.2684646248817444
1774470350242536200,9.6565361328125,-0.011660606600344181,-0.22649644315242767,-0.3097427189350128
1774470350252550400,9.66655029296875,0.06268313527107239,-0.46706828474998474,-0.31906750798225403
1774470350262563300,9.676563232421875,0.08524980396032333,-0.6661525368690491,-0.27767038345336914
1774470350272576300,9.686576171875,0.07659692317247391,-0.7568755149841309,-0.2229333519935608
1774470350282590500,9.696590576171875,0.055425189435482025,-0.4669962525367737,-0.2221837341785431
1774470350292603100,9.70660302734375,0.03695723041892052,-0.005329533945769072,-0.29673174023628235
1774470350302616300,9.7166162109375,0.016273900866508484,-0.054690539836883545,-0.3620045781135559
1774470350312630500,9.726630615234376,0.08619599789381027,-0.21976205706596375,-0.38584333658218384
1774470350322643200,9.736643310546874,0.2638561427593231,-0.09541331976652145,-0.40389877557754517
1774470350332656400,9.746656494140625,0.3906484544277191,0.2532173991203308,-0.4605735242366791
1774470350342670300,9.75667041015625,0.4159199297428131,0.6891368627548218,-0.5010024905204773
1774470350352683300,9.766683349609375,0.36919957399368286,0.9517783522605896,-0.5551198124885559
1774470350362696400,9.776696533203125,0.3231387734413147,1.0671803951263428,-0.5596798062324524
1774470350372710100,9.786710205078125,0.3438169062137604,0.9639449119567871,-0.5227451920509338
1774470350382723300,9.796723388671875,0.3619156777858734,0.6673229932785034,-0.446175754070282
1774470350392736500,9.806736572265624,0.3634834885597229,0.33319219946861267,-0.4046892821788788
1774470350402750200,9.816750244140625,0.37448784708976746,-0.04777921736240387,-0.3653428554534912
1774470350412763400,9.826763427734376,0.4104152321815491,-0.6536467671394348,-0.3133734166622162
1774470350422776300,9.8367763671875,0.5581406950950623,-2.6202244758605957,-0.15967509150505066
1774470350432790300,9.846790283203125,0.8145730495452881,-3.8382558822631836,-0.0566381998360157
1774470350442803500,9.856803466796874,1.0609092712402344,-4.341915607452393,0.15779606997966766
1774470350452816100,9.866816162109375,1.1826450824737549,-3.6253271102905273,0.28029322624206543
1774470350462830300,9.876830322265626,0.9716916680335999,-2.6268081665039062,0.2952611744403839
1774470350472843500,9.886843505859375,0.5774604678153992,-1.733552098274231,0.3015129566192627
1774470350482856200,9.896856201171875,0.14812269806861877,-0.8296273350715637,0.2538796663284302
1774470350492870400,9.906870361328124,-0.12449417263269424,-0.03472035005688667,0.1409461796283722
1774470350502883300,9.91688330078125,-0.1510784775018692,0.203960120677948,0.04071209579706192
1774470350512896300,9.926896240234376,0.003965697251260281,0.008878510445356369,-0.03567109256982803
1774470350522910500,9.936910400390625,0.2062424272298813,-0.33033713698387146,-0.05381663888692856
1774470350532923100,9.946923095703125,0.3840041756629944,-0.6897943615913391,-0.08851416409015656
1774470350542936300,9.956936279296874,0.4262261688709259,-1.051781177520752,-0.10592193901538849
1774470350552949500,9.966949462890625,0.34504076838493347,-1.468021273612976,-0.0952378660440445
1774470350562963200,9.976963134765626,0.26979386806488037,-1.451982855796814,-0.06363175809383392
1774470350572976400,9.986976318359375,0.22026467323303223,-1.163196325302124,-0.035901330411434174
1774470350582989600,9.996989501953125,0.16923116147518158,-1.0553072690963745,-0.06582841277122498
1774470350593003300,10.007003173828124,0.09301602840423584,-1.4851744174957275,-0.06956296414136887
1774470350603016400,10.017016357421875,0.015908705070614815,-2.0741922855377197,-0.010960396379232407
1774470350613029000,10.027029052734376,0.03410555049777031,-2.5394089221954346,0.027366487309336662
1774470350623043300,10.037043212890625,0.056984346359968185,-2.9088454246520996,0.11122428625822067
1774470350633056500,10.047056396484376,-0.10727730393409729,-3.234710454940796,0.25938206911087036
1774470350643069200,10.057069091796874,-0.11200015246868134,-3.1364173889160156,0.25435030460357666
1774470350653083400,10.06708349609375,-0.060296472162008286,-3.4562079906463623,0.15166465938091278
1774470350663096300,10.077096435546874,-0.10306669771671295,-3.637073516845703,0.2397444099187851
1774470350673109200,10.087109130859375,-0.25427326560020447,-3.440347671508789,0.3431352376937866
1774470350683123500,10.09712353515625,-0.4774102568626404,-3.042757987976074,0.27598705887794495
1774470350693136400,10.107136474609375,-0.6728764176368713,-2.4479501247406006,0.1305132359266281
1774470350703149300,10.1171494140625,-0.8160823583602905,-1.6461633443832397,0.022835202515125275
1774470350713163300,10.127163330078124,-0.9340639114379883,-0.7823123335838318,0.04241503030061722
1774470350723176200,10.13717626953125,-1.0281438827514648,0.03553837165236473,0.06819772720336914
1774470350733189400,10.147189453125,-1.0468478202819824,0.4909210503101349,-0.01929563842713833
1774470350743202600,10.15720263671875,-1.008375644683838,0.5771560668945312,-0.024308180436491966
1774470350753216300,10.16721630859375,-0.8596231341362,0.6365421414375305,0.043519869446754456
1774470350763229400,10.1772294921875,-0.715582013130188,0.8305130004882812,0.13280189037322998
1774470350773242000,10.1872421875,-0.7173495292663574,1.2989550828933716,0.185643270611763
1774470350783256300,10.19725634765625,-0.6522659659385681,1.9658492803573608,0.08099471032619476
1774470350793269500,10.20726953125,-0.682542622089386,0.8390229940414429,0.10610645264387131
1774470350803282200,10.2172822265625,-0.8066489100456238,0.737829864025116,0.17802947759628296
1774470350813296400,10.22729638671875,-0.8277502059936523,0.8162676692008972,0.13871270418167114
1774470350823309300,10.237309326171875,-0.7573886513710022,0.6577438712120056,0.2410132884979248
1774470350833322200,10.247322265625,-0.7148310542106628,0.34461042284965515,0.366601824760437
1774470350843336400,10.25733642578125,-0.548305094242096,-0.22691693902015686,0.41769060492515564
1774470350853349400,10.267349365234375,-0.3778178095817566,-0.4379301071166992,0.38613268733024597
1774470350863362300,10.2773623046875,-0.3419278562068939,-0.4588511288166046,0.311731219291687
1774470350873376300,10.287376220703125,-0.434497207403183,-0.5418714284896851,0.23485909402370453
1774470350883389200,10.29738916015625,-0.4957575798034668,-0.560865044593811,0.19384200870990753
1774470350893402400,10.30740234375,-0.4552919268608093,-0.39879462122917175,0.17617113888263702
1774470350903415600,10.31741552734375,-0.36039644479751587,-0.1710539162158966,0.16896039247512817
1774470350913429200,10.32742919921875,-0.28187447786331177,-0.14778216183185577,0.1787019670009613
1774470350923442400,10.3374423828125,-0.2375684231519699,-0.24258475005626678,0.23330536484718323
1774470350933455000,10.347455078125,-0.16961680352687836,-0.24513766169548035,0.29181477427482605
1774470350943469300,10.35746923828125,-0.06161120906472206,-0.23624613881111145,0.3409173786640167
1774470350953482500,10.367482421875,0.024845652282238007,-0.3000645041465759,0.4208201766014099
1774470350963495200,10.3774951171875,0.09461821615695953,-0.2500608563423157,0.47127023339271545
1774470350973509400,10.38750927734375,0.14997681975364685,0.02656996063888073,0.4578915536403656
1774470350983522300,10.397522216796874,0.1786535680294037,-0.000917388591915369,0.42361539602279663
1774470350993535200,10.40753515625,0.2204550802707672,-0.24580703675746918,0.4413909316062927
1774470351003549400,10.417549560546876,0.3067763149738312,-0.4834113121032715,0.4776313602924347
1774470351013562400,10.427562255859375,0.4090512990951538,-0.4918045103549957,0.5774410367012024
1774470351023575300,10.4375751953125,0.45731574296951294,-0.523842990398407,0.6287751793861389
1774470351033588500,10.44758837890625,0.4779888093471527,-0.8448026180267334,0.6295714974403381
1774470351043602200,10.457602294921875,0.5273762941360474,-1.3143649101257324,0.6063383221626282
1774470351053615400,10.467615478515626,0.5792458653450012,-1.758262276649475,0.5643056035041809
1774470351063628500,10.477628662109375,0.624447226524353,-1.957633137702942,0.5112349987030029
1774470351073642200,10.487642333984375,0.6726757884025574,-2.159917116165161,0.4346134662628174
1774470351083655400,10.497655517578124,0.6573677659034729,-2.2860734462738037,0.3986269235610962
1774470351093668000,10.507668212890625,0.5641787052154541,-2.4444398880004883,0.45582816004753113
1774470351103682300,10.517682373046876,0.4199259877204895,-2.521253824234009,0.5732593536376953
1774470351113695500,10.527695556640625,0.2739461362361908,-2.5015809535980225,0.6229265332221985
1774470351123708200,10.537708251953125,0.1866190880537033,-2.334980010986328,0.5472636222839355
1774470351133721300,10.547721435546874,0.12102595716714859,-2.316927194595337,0.5393146276473999
1774470351143735300,10.5577353515625,0.017074627801775932,-2.213261842727661,0.6500243544578552
1774470351153748200,10.567748291015626,-0.08363893628120422,-2.0210564136505127,0.7834452986717224
1774470351163761400,10.577761474609375,-0.13547179102897644,-1.6710205078125,0.8509652018547058
1774470351173775400,10.587775390625,-0.13424646854400635,-1.0327808856964111,0.8136423230171204
1774470351183788300,10.597788330078124,-0.11980023980140686,-0.3444962203502655,0.8246001601219177
1774470351193801500,10.607801513671875,-0.06339981406927109,0.12020090222358704,0.8664941191673279
1774470351203815200,10.617815185546876,-0.004808065015822649,0.38168981671333313,0.8427690863609314
1774470351213828400,10.627828369140625,-0.02237800508737564,0.3897051215171814,0.8207316994667053
1774470351223841500,10.637841552734375,-0.0480925552546978,0.20078718662261963,0.8399639129638672
1774470351233854200,10.647854248046874,-0.058284737169742584,-0.049209341406822205,0.8443583846092224
1774470351243868400,10.657868408203125,-0.026660311967134476,-0.1738256961107254,0.797822117805481
1774470351253881300,10.66788134765625,0.0002898124512284994,-0.07959107309579849,0.7389976978302002
1774470351263894300,10.677894287109375,0.0026573874056339264,0.03314600884914398,0.6984119415283203
1774470351273908500,10.687908447265626,-0.003926212899386883,0.03206663206219673,0.6762970685958862
1774470351283921200,10.697921142578124,0.019684892147779465,0.009347444400191307,0.6611342430114746
1774470351293934300,10.707934326171875,0.042620569467544556,0.0033753057941794395,0.6478472352027893
1774470351303948300,10.7179482421875,0.045156028121709824,-0.02165917307138443,0.6389495134353638
1774470351313961200,10.727961181640625,0.023376699537038803,-0.037280477583408356,0.627868115901947
1774470351323974400,10.737974365234376,-0.0035319544840604067,-0.0003066682256758213,0.6352154612541199
1774470351333987300,10.7479873046875,-0.0551578626036644,0.07481924444437027,0.6515579223632812
1774470351344001300,10.758001220703125,-0.13146135210990906,0.14886942505836487,0.6616340279579163
1774470351354014500,10.768014404296874,-0.21313543617725372,0.25335216522216797,0.6636612415313721
1774470351364027100,10.778027099609375,-0.30836930871009827,0.41545405983924866,0.6329970359802246
1774470351374041300,10.788041259765626,-0.3637148439884186,0.5894395112991333,0.5540193915367126
1774470351384054500,10.798054443359375,-0.4231255352497101,0.8085200786590576,0.44877925515174866
1774470351394067200,10.808067138671875,-0.5594666004180908,1.0441222190856934,0.34686538577079773
1774470351404081400,10.818081298828124,-0.6833187341690063,1.2131009101867676,0.26094648241996765
1774470351414094300,10.82809423828125,-0.73468017578125,1.276749849319458,0.22377648949623108
1774470351424107300,10.838107177734376,-0.7041094899177551,1.3258496522903442,0.2283111810684204
1774470351434120400,10.848120361328125,-0.6785841584205627,1.388553261756897,0.24763481318950653
1774470351444134100,10.858134033203125,-0.6639419198036194,1.4800662994384766,0.2847791314125061
1774470351454147300,10.868147216796874,-0.6808354258537292,1.6259013414382935,0.33280283212661743
1774470351464160500,10.878160400390625,-0.7110946178436279,1.7303458452224731,0.337493896484375
1774470351474174200,10.88817431640625,-0.7084988355636597,1.7892248630523682,0.29351311922073364
1774470351484187400,10.8981875,-0.6617688536643982,1.7905734777450562,0.2598370611667633
1774470351494200300,10.908200439453125,-0.5342996120452881,1.7064849138259888,0.2507341206073761
1774470351504213200,10.918213134765624,-0.36218884587287903,1.3650554418563843,0.25330543518066406
1774470351514227500,10.9282275390625,-0.14814846217632294,0.9134416580200195,0.32597002387046814
1774470351524240100,10.938240234375,0.08775712549686432,0.6337084174156189,0.37258780002593994
1774470351534253300,10.94825341796875,0.2591496706008911,0.3480822741985321,0.358425110578537
1774470351544267500,10.958267578125,0.3164287507534027,0.0970965325832367,0.3325364291667938
1774470351554280200,10.9682802734375,0.2806696891784668,-0.08646237850189209,0.29656273126602173
1774470351564293400,10.97829345703125,0.2363913357257843,-0.47002527117729187,0.30788615345954895
1774470351574307300,10.988307373046876,0.21611030399799347,-0.6990326642990112,0.2832854688167572
1774470351584320300,10.9983203125,0.1523936241865158,-0.7876204252243042,0.2422938197851181
1774470351594333400,11.00833349609375,0.027845565229654312,-0.7572734355926514,0.30885955691337585
1774470351604346400,11.018346435546874,-0.0864219143986702,-0.6153481006622314,0.2972107231616974
1774470351614360300,11.0283603515625,-0.0656290203332901,-0.453471302986145,0.2722814083099365
1774470351624373500,11.03837353515625,0.028162801638245583,-0.2593379020690918,0.2878057658672333
1774470351634386200,11.04838623046875,0.06239534169435501,-0.09697985649108887,0.3265630304813385
1774470351644400400,11.058400390625,0.03338389843702316,0.10389889776706696,0.3768762946128845
1774470351654413300,11.068413330078124,-0.01928863115608692,0.3326500654220581,0.4016554057598114
1774470351664426200,11.07842626953125,-0.07797683775424957,0.5222710371017456,0.39817166328430176
1774470351674440400,11.0884404296875,-0.12497150897979736,0.5968238115310669,0.3890077471733093
1774470351684453400,11.098453369140625,-0.14318911731243134,0.5540691614151001,0.38627001643180847
1774470351694466300,11.10846630859375,-0.11354946345090866,0.4319818913936615,0.39279553294181824
1774470351704479500,11.1184794921875,-0.05666513741016388,0.28936296701431274,0.40606021881103516
1774470351714493200,11.1284931640625,-0.008241677656769753,0.1891961544752121,0.4160473346710205
1774470351724506400,11.13850634765625,0.00871749222278595,0.16875703632831573,0.4225460886955261
1774470351734519300,11.148519287109375,-0.007243365049362183,0.1937531977891922,0.4226296842098236
1774470351744533200,11.158533203125,-0.035509563982486725,0.22568722069263458,0.4177793264389038
1774470351754546400,11.16854638671875,-0.05834696814417839,0.27643883228302,0.4181617498397827
1774470351764559400,11.178559326171875,-0.06707072257995605,0.3187955617904663,0.4203484356403351
1774470351774572300,11.188572265625,-0.05752462148666382,0.3151393234729767,0.40714552998542786
1774470351784586500,11.19858642578125,-0.035285383462905884,0.26477545499801636,0.3972178101539612
1774470351794599200,11.20859912109375,0.004891328513622284,0.21408617496490479,0.41715824604034424
1774470351804612400,11.2186123046875,0.05163412168622017,0.33849310874938965,0.4725857973098755
1774470351814626600,11.22862646484375,0.07921727746725082,0.07836592197418213,0.37645021080970764
1774470351824639200,11.23863916015625,0.010302364826202393,0.08697037398815155,0.28805872797966003
1774470351834652400,11.24865234375,-0.0983588695526123,0.39498254656791687,0.15891778469085693
1774470351844665300,11.258665283203126,-0.15242473781108856,0.7765489220619202,0.02760889381170273
1774470351854679300,11.26867919921875,-0.1898413598537445,1.060645580291748,-0.003242495935410261
1774470351864692500,11.2786923828125,-0.23508688807487488,1.3869894742965698,-0.0014591189101338387
1774470351874705400,11.288705322265624,-0.32189127802848816,1.6499580144882202,-0.0060956827364861965
1774470351884719400,11.29871923828125,-0.3651442527770996,1.5881341695785522,-0.02906014397740364
1774470351894732300,11.308732177734376,-0.3184712827205658,1.7314668893814087,-0.006790525279939175
1774470351904745200,11.3187451171875,-0.24429439008235931,2.0352659225463867,0.023231497034430504
1774470351914758400,11.32875830078125,-0.22769810259342194,1.678833246231079,-0.0009159171022474766
1774470351924772400,11.3387724609375,-0.22907371819019318,1.2140638828277588,0.04223950207233429
1774470351934785300,11.348785400390625,-0.1812012642621994,0.9317925572395325,-0.007161603309214115
1774470351944798200,11.358798095703126,-0.11145999282598495,0.8950130343437195,-0.0892600566148758
1774470351954812400,11.3688125,-0.08986442536115646,0.9428457617759705,-0.17332060635089874
1774470351964825300,11.378825439453125,-0.11546473950147629,1.0619513988494873,-0.19957436621189117
1774470351974838300,11.38883837890625,-0.12696000933647156,1.1461970806121826,-0.1825152188539505
1774470351984852200,11.398852294921875,-0.09802941232919693,1.161739468574524,-0.17139913141727448
1774470351994865400,11.408865478515626,-0.05432586744427681,1.1638990640640259,-0.18823270499706268
1774470352004878300,11.41887841796875,-0.016382716596126556,1.221207618713379,-0.21852001547813416
1774470352014891300,11.428891357421875,-0.0035747759975492954,1.3040201663970947,-0.21246637403964996
1774470352024905500,11.438905517578124,0.008234898559749126,1.3277117013931274,-0.21355411410331726
1774470352034918400,11.44891845703125,-0.01601850986480713,1.2814137935638428,-0.22206051647663116
1774470352044931300,11.458931396484376,-0.051913920789957047,1.14142906665802,-0.24093325436115265
1774470352054945300,11.4689453125,-0.04761584475636482,0.9246110916137695,-0.279671311378479
1774470352064958200,11.478958251953125,-0.002678089775145054,0.7262496948242188,-0.272663950920105
1774470352074971400,11.488971435546874,0.015561900101602077,0.5673205256462097,-0.2612406015396118
1774470352084984300,11.498984375,0.029823308810591698,0.49235934019088745,-0.24510841071605682
1774470352094998300,11.508998291015626,0.020485468208789825,0.37459009885787964,-0.2269728034734726
1774470352105011200,11.51901123046875,0.007224744651466608,0.2697190046310425,-0.20657232403755188
1774470352115024400,11.5290244140625,-0.0017786038806661963,0.11980591714382172,-0.217416450381279
1774470352125038300,11.539038330078125,-0.0010805330239236355,-0.010482601821422577,-0.23666641116142273
1774470352135051300,11.54905126953125,-0.013162495568394661,-0.0754336342215538,-0.23977406322956085
1774470352145064400,11.559064453125,-0.028979046270251274,-0.15713326632976532,-0.21570512652397156
1774470352155077000,11.5690771484375,-0.055222366005182266,-0.2046789526939392,-0.1915997862815857
1774470352165091300,11.57909130859375,-0.07390491664409637,-0.2500557005405426,-0.18180249631404877
1774470352175104300,11.589104248046874,-0.06813330948352814,-0.2953515350818634,-0.17407481372356415
1774470352185117200,11.5991171875,-0.051393214613199234,-0.3487761318683624,-0.14967785775661469
1774470352195131400,11.60913134765625,-0.040318191051483154,-0.46367156505584717,-0.12098389118909836
1774470352205144300,11.619144287109375,-0.03436337038874626,-0.7353053092956543,-0.085208460688591
1774470352215157200,11.6291572265625,-0.03416096791625023,-1.0765975713729858,-0.05613499879837036
1774470352225170400,11.63917041015625,0.018504079431295395,-1.2977412939071655,0.01753668300807476
1774470352235184400,11.649184326171875,0.05524851009249687,-1.3929340839385986,0.1789359599351883
1774470352245197300,11.659197265625,0.032490525394678116,-1.6551828384399414,0.32980817556381226
1774470352255210500,11.66921044921875,0.026056859642267227,-1.939072608947754,0.31739336252212524
1774470352265224400,11.679224365234376,0.2133321464061737,-2.1030490398406982,0.2610623836517334
1774470352275237400,11.6892373046875,0.503179669380188,-2.270418405532837,0.1777094304561615
1774470352285250300,11.699250244140625,0.4801825284957886,-2.3773269653320312,0.13142651319503784
1774470352295263200,11.70926318359375,0.4198102653026581,-2.1489405632019043,0.21180018782615662
1774470352305277400,11.71927734375,0.3060092628002167,-1.7566800117492676,0.2834337055683136
1774470352315290400,11.729290283203126,0.18590335547924042,-1.3939638137817383,0.3171871304512024
1774470352325303300,11.73930322265625,0.08891872316598892,-1.0012601613998413,0.32826879620552063
1774470352335317200,11.749317138671875,0.02379165217280388,-0.4766083359718323,0.30927085876464844
1774470352345330200,11.759330078125,-0.028812196105718613,0.10844118893146515,0.2848053276538849
1774470352355343400,11.76934326171875,-0.09021589905023575,0.6080043911933899,0.29377058148384094
1774470352365356500,11.7793564453125,-0.16279087960720062,0.9157295823097229,0.31800276041030884
1774470352375370200,11.789370361328125,-0.21025347709655762,1.005381464958191,0.3475521504878998
1774470352385383400,11.799383544921875,-0.21918170154094696,0.9268355369567871,0.3798026442527771
1774470352395396400,11.809396240234374,-0.18696092069149017,0.7391687035560608,0.399720698595047
1774470352405409300,11.8194091796875,-0.12781599164009094,0.4806402325630188,0.403106153011322
1774470352415423500,11.829423583984376,-0.06192326545715332,0.20395855605602264,0.411287397146225
1774470352425436200,11.839436279296875,-0.01826811395585537,-0.04623418301343918,0.42947256565093994
1774470352435449300,11.849449462890625,0.0018022670410573483,-0.24957026541233063,0.43721410632133484
1774470352445463300,11.85946337890625,0.009562023915350437,-0.358049213886261,0.4286058843135834
1774470352455476200,11.869476318359375,0.015699544921517372,-0.34119752049446106,0.4074614644050598
1774470352465489400,11.879489501953126,0.011062749661505222,-0.24271337687969208,0.3922979533672333
1774470352475502300,11.88950244140625,-0.011312597431242466,-0.11973126232624054,0.3739679455757141
1774470352485516300,11.899516357421875,-0.034233905375003815,0.01346106082201004,0.34312891960144043
1774470352495529500,11.909529541015624,-0.043490517884492874,0.162331223487854,0.3122924566268921
1774470352505542400,11.91954248046875,-0.04778985679149628,0.2945452630519867,0.2849631607532501
1774470352515556400,11.929556396484376,-0.043321870267391205,0.3559233844280243,0.25065046548843384
1774470352525569500,11.939569580078125,-0.028937198221683502,0.34574687480926514,0.20404359698295593
1774470352535582200,11.949582275390625,-0.005701916292309761,0.29539981484413147,0.15821832418441772
1774470352545595400,11.959595458984374,0.013169738464057446,0.22484035789966583,0.11403634399175644
1774470352555609300,11.969609375,0.03453574702143669,0.11608565598726273,0.06478570401668549
1774470352565622300,11.979622314453126,0.05631590634584427,-0.005194786936044693,0.013657907024025917
1774470352575635500,11.989635498046875,0.0667983666062355,-0.10323134064674377,-0.04740145429968834
1774470352585649200,11.999649169921875,0.05669986084103584,-0.1712755411863327,-0.11414293944835663
1774470352595662300,12.009662353515624,0.042870596051216125,-0.22856944799423218,-0.17894616723060608
1774470352605675300,12.01967529296875,0.04145025461912155,-0.2709563970565796,-0.2304440289735794
1774470352615688400,12.0296884765625,0.06732606142759323,-0.041763681918382645,-0.3881867825984955
1774470352625702400,12.039702392578125,-0.19509826600551605,2.480211019515991,-0.6972670555114746
1774470352635715300,12.04971533203125,-0.7653103470802307,2.4193224906921387,0.18374550342559814
1774470352645728300,12.059728271484374,-0.47996243834495544,1.357787013053894,-0.6724374890327454
1774470352655742500,12.069742431640625,-0.17459160089492798,-0.48877158761024475,0.34927549958229065
1774470352665755400,12.07975537109375,0.07800429314374924,-0.8686807155609131,0.6421882510185242
1774470352675768300,12.089768310546875,0.05967641994357109,-0.08591295778751373,0.20120525360107422
1774470352685781200,12.09978125,-0.23289509117603302,0.4592152237892151,0.0329606719315052
1774470352695795200,12.109795166015624,-0.4213097393512726,0.19619980454444885,-0.0689728856086731
1774470352705808400,12.119808349609375,-0.33391082286834717,-0.17389047145843506,-0.00825128797441721
1774470352715821300,12.1298212890625,-0.1889275461435318,-0.23354661464691162,0.10173992812633514
1774470352725834500,12.13983447265625,-0.1052650511264801,-0.06996374577283859,0.11008257418870926
1774470352735848400,12.149848388671876,-0.061814241111278534,-0.0076026394963264465,0.06349217146635056
1774470352745861400,12.159861328125,-0.040216147899627686,-0.0395839586853981,0.02578815445303917
1774470352755874300,12.169874267578125,-0.029407711699604988,-0.0053900363855063915,0.0246597733348608
1774470352765888500,12.179888427734374,-0.006301361136138439,0.13785085082054138,0.040562547743320465
1774470352775901400,12.1899013671875,0.10408054292201996,0.2081974446773529,0.02832825295627117
1774470352785914400,12.199914306640625,0.4135279953479767,0.038529373705387115,-0.012976357713341713
1774470352795927300,12.20992724609375,0.5301252007484436,-0.1338634341955185,-0.050405487418174744
1774470352805941000,12.21994091796875,0.5760932564735413,-0.015681253746151924,-0.16090962290763855
1774470352815954000,12.229953857421876,0.5311856865882874,0.18308058381080627,-0.14570961892604828
1774470352825966800,12.239966796875,0.6032871007919312,0.5522543787956238,-0.20151856541633606
1774470352835980800,12.249980712890626,0.424623042345047,0.825555145740509,-0.10980942100286484
1774470352845994000,12.259993896484374,0.46172672510147095,1.155077576637268,-0.10037637501955032
1774470352856007000,12.2700068359375,0.41094422340393066,1.618773341178894,-0.049669791013002396
1774470352866019800,12.280019775390626,0.22536514699459076,2.052941083908081,0.05852796509861946
1774470352876033800,12.29003369140625,0.2827099561691284,2.3441879749298096,0.07901433855295181
1774470352886047000,12.300046875,0.5034231543540955,2.5586209297180176,0.14205975830554962
1774470352896060000,12.310059814453124,0.7475109100341797,2.7304327487945557,0.2388632595539093
1774470352906072800,12.32007275390625,0.8900284171104431,2.8616690635681152,0.32003068923950195
1774470352916087000,12.330087158203124,0.9045237302780151,2.9235050678253174,0.38859429955482483
1774470352926099700,12.340099609375,0.8678479790687561,2.931387424468994,0.4485388696193695
1774470352936113000,12.35011279296875,0.8489384651184082,2.90382981300354,0.4660041332244873
1774470352946126800,12.360126953125,0.8750312328338623,2.84859037399292,0.4792100191116333
1774470352956139800,12.370139892578125,0.8881086707115173,2.745027780532837,0.5342022180557251
1774470352966153000,12.380153076171876,0.8373452425003052,2.5225706100463867,0.620232343673706
1774470352976166000,12.390165771484375,0.7615280151367188,2.190471887588501,0.7282536029815674
1774470352986179800,12.400179931640626,0.7240148782730103,1.852864384651184,0.8261918425559998
1774470352996193000,12.410193115234375,0.7354992628097534,1.6201910972595215,0.9044650793075562
1774470353006205700,12.420205810546875,0.7778294682502747,1.498313069343567,0.9473971724510193
1774470353016219000,12.430218994140626,0.8454250693321228,1.4535109996795654,0.9733033180236816
1774470353026232800,12.44023291015625,0.9412974715232849,1.4864423274993896,1.0134638547897339
1774470353036245800,12.450245849609376,1.0363590717315674,1.58267343044281,1.0953251123428345
