time,seconds_elapsed,z,y,x
1774472946815306200,0.07830615234375,-0.6711936264455318,-0.09369242917597294,0.012877894012629985
1774472946825320200,0.0883203125,-0.6835802298098802,0.012935469418764113,-0.011135141998529434
1774472946835334100,0.098334228515625,-0.4320832570314407,0.10924188048541546,-0.04247837476730346
1774472946845347000,0.10834716796875,-0.037214170628786084,0.1011661260575056,-0.06511486172825098
1774472946855361300,0.118361328125,0.2927022588700056,-0.0525415036201477,-0.1513873700365424
1774472946865374200,0.128374267578125,0.4328969115018844,-0.22717092529535293,-0.24254677360355853
1774472946875388200,0.13838818359375,0.3982604824066162,-0.28810879359990355,-0.3429717259049415
1774472946885401300,0.1484013671875,0.2110854674130678,-0.278555367834866,-0.2999086831174791
1774472946895415000,0.1584150390625,-0.08905249441564082,-0.16568740580677985,-0.07378127552568912
1774472946905428200,0.16842822265625,-0.1950906104236841,0.042722704917192454,0.15390081416219473
1774472946915442200,0.178442138671875,-0.19620470914542673,0.09701923551112412,0.36132118319645523
1774472946925455000,0.188455078125,-0.18506196836233138,0.15298516062200068,0.5528758745789527
1774472946935469000,0.198468994140625,-0.2858534158885479,0.18745704680532216,0.6850858120672404
1774472946945482200,0.208482177734375,-0.3785264388889074,0.20687544850260017,0.8458810619182884
1774472946955496200,0.21849609375,-0.23910861584842202,0.46938510594367977,0.5317592906616628
1774472946965509000,0.228509033203125,0.00459317300915718,0.6288143281385302,0.09857216404154896
1774472946975523300,0.2385234375,0.11472586485445499,0.5441536389410495,-0.1163670561902225
1774472946985536000,0.248535888671875,0.13560557127594947,0.32321225568503137,-0.21770561620518564
1774472946995550200,0.25855029296875,-0.07230418871045112,0.014860300001502036,-0.22927622701153158
1774472947005563100,0.268563232421875,-0.419199225538969,-0.18968670555353165,-0.27667116152346133
1774472947015577000,0.2785771484375,-0.5036053554534912,-0.1283411332309246,-0.6391147728785872
1774472947025590300,0.28859033203125,-0.34506606783568855,-0.08417787411659955,-0.9928916781753301
1774472947035604200,0.298604248046875,-0.33440497308969497,-0.16591069316864013,-1.0131821865320205
1774472947045618200,0.3086181640625,-0.5297726468890905,-0.061815820182859894,-0.7518430341750383
1774472947055631000,0.318631103515625,-0.9127402830958365,0.4091720447823405,-0.5057587340950965
1774472947065645300,0.328645263671875,-1.040876249143481,0.8244105499967932,-0.6492445372268557
1774472947075658000,0.338657958984375,-0.7389987501710653,0.9372504549741745,-0.7749190815970302
1774472947085672200,0.348672119140625,-0.23386253188848494,1.2769085262864828,-0.9319932650983334
1774472947095685000,0.35868505859375,0.02648994751870632,1.5468398581609129,-1.2620806672498583
1774472947105699000,0.368698974609375,-0.2301999177277088,0.8474173315748572,-1.6422779619604349
1774472947115712300,0.378712158203125,-0.6833183640033006,0.18497808947116134,-1.4103876069277523
1774472947125726200,0.388726318359375,-0.5166483768999576,-0.22487580009549854,-0.7651306780323386
1774472947135739100,0.3987392578125,0.4316255763918161,0.40454876889586444,0.28329788618683815
1774472947145753000,0.408753173828125,2.074227948001027,1.811873773382604,1.386233116619289
1774472947155766300,0.418766357421875,2.9470734430819747,0.2689022810876369,-0.021777239783108235
1774472947165780000,0.428780029296875,2.0882932982325553,-1.2202315302968025,-0.7570414796009659
1774472947175793200,0.438793212890625,2.0628853007316588,-1.0042080219596623,-0.4779270165786147
1774472947185807000,0.44880712890625,2.4001591072559356,-1.832049423187971,0.16201163990348577
1774472947195820000,0.458820068359375,2.1656267132818696,-2.4762670721635223,0.7312786773130298
1774472947205834200,0.468834228515625,1.9663696308284997,-1.7900369123667477,0.6545975886926054
1774472947215847200,0.47884716796875,2.436774142947793,-0.5200350967288017,0.38561230549663306
1774472947225861000,0.488861083984375,3.304516761931777,0.5275102549150585,0.1778583205938339
1774472947235874300,0.498874267578125,4.2051533502578735,1.0666270687326789,-0.3287120221450925
1774472947245888300,0.50888818359375,3.998917660963535,0.9166498577550053,-0.6806231335699557
1774472947255901200,0.518901123046875,2.6797715829282995,0.38213790738433595,-0.3806467920437455
1774472947265915100,0.5289150390625,1.5654478202581406,-0.009791033913195133,-0.0841951175123453
1774472947275929000,0.53892919921875,-0.5546446378171443,-0.44620647493004795,0.006455167488753796
1774472947285942000,0.54894189453125,-1.106069729065895,0.7855576722502708,0.36473873655498024
1774472947295956200,0.558956298828125,-0.37451544968187805,0.8640110312402248,0.24812194338738916
1774472947305969200,0.56896923828125,-1.2036369538486003,0.015421733276546001,0.33945261186808345
1774472947315983000,0.578983154296875,-1.965906689491868,-0.740336428515613,0.4653793774336576
1774472947325996300,0.588996337890625,-2.5066554884254932,-0.76363605556041,0.41468116359263657
1774472947336010200,0.59901025390625,-2.421421090993285,-0.19538170232474802,0.4318538321897387
1774472947346023200,0.609023193359375,-2.061557266998291,0.9021350101903081,0.20916735883206128
1774472947356037000,0.619037109375,-2.0297341417580843,1.6109207006663082,-0.06812339589446782
1774472947366050300,0.62905029296875,-2.37239899367094,1.318928343631327,0.0037070378243923186
1774472947376064000,0.63906396484375,-2.6798241898983717,0.6774535636231303,0.08263736667633056
1774472947386077200,0.6490771484375,-2.6453812375485897,0.06248685131222009,0.054337154865264886
1774472947396091400,0.65909130859375,-2.1460580894589425,-0.4597922249510884,-0.027335604562610385
1774472947406104600,0.6691044921875,-1.3387304839491843,-0.8316536529928445,-0.04602613037675619
1774472947416118500,0.679118408203125,-0.47200844018459315,-0.8927680469080805,0.14853183447495102
1774472947426131500,0.68913134765625,0.41634734323918815,-0.5485220632836222,0.29579262610077856
1774472947436145700,0.699145751953125,1.0340157157242298,-0.4298173579260707,0.2548386844217777
1774472947446158600,0.70915869140625,1.355174838271737,-0.5688087722480297,0.1378477972447872
1774472947456172500,0.719172607421875,1.3374357679635285,-0.7598933619007467,0.08380728723853827
1774472947466185500,0.729185546875,0.8756821798115968,-0.7974959473252295,-0.030684184338152405
1774472947476199700,0.73919970703125,0.13492168066501617,-0.4795306523829698,-0.2692611775279045
1774472947486213400,0.74921337890625,-0.5538070179492235,-0.2447095045953989,-0.39667029060572384
1774472947496226600,0.7592265625,-0.9587725509524345,-0.26744214540719985,-0.4060698409833014
1774472947506240500,0.769240478515625,-1.0237947659611701,-0.3617985914498567,-0.21168197200149297
1774472947516253400,0.77925341796875,-0.973167571529746,-0.3712342360541224,-0.10286810766980051
1774472947526267600,0.789267578125,-0.7980734549522399,-0.264864403873682,-0.08119330534785986
1774472947536280600,0.799280517578125,-0.5254734883904457,-0.12141513336002827,-0.07137479890584945
1774472947546294500,0.80929443359375,-0.2786450919449329,-0.021510405540466307,0.12142229375317692
1774472947556307500,0.819307373046875,0.022121230915188788,0.08993219985961913,0.3722540806211531
1774472947566321700,0.82932177734375,0.39274610289931294,0.13120061431527136,0.5666138925522566
1774472947576334600,0.83933447265625,0.6398866340339183,0.05493365945369005,0.6138428228475153
1774472947586348500,0.8493486328125,0.7566074720978736,-0.01495733063519001,0.299931187210232
1774472947596361700,0.85936181640625,0.6961380980879068,-0.07246551675200462,-0.036019846277683974
1774472947606375400,0.86937548828125,0.5470084438502788,-0.1246659518495202,-0.250545809533447
1774472947616388600,0.879388671875,0.3802005095809698,-0.1510018778502941,-0.3195101862967014
1774472947626402600,0.889402587890625,0.25847031892240047,-0.1089282844915986,-0.20238515134602783
1774472947636415500,0.89941552734375,0.15612813482284546,0.04242138388305902,0.04290755996480584
1774472947646429400,0.909429443359375,0.11584639331698417,-0.1656634404093027,-0.004917582657933235
1774472947656442600,0.919442626953125,-0.0010153145223855973,-0.029282208585739135,0.06813800894170999
1774472947666456600,0.92945654296875,-0.1373696583390236,0.06668138039261103,0.2112725144177675
1774472947676469500,0.939469482421875,-0.24173604174256325,0.09532470655292272,0.17791078143343328
1774472947686483700,0.949483642578125,-0.21584873629212378,0.16010025332421063,0.1609649073295295
1774472947696496400,0.959496337890625,-0.08607610895335674,0.1432733294248581,0.061966188438981766
1774472947706510600,0.969510498046875,0.07188742460310459,0.08472527886629104,-0.056359308342635625
1774472947716524500,0.979524658203125,0.21942308764755725,0.11078355696946382,-0.024727614021301268
1774472947726537500,0.989537353515625,0.3243564572840929,0.049723231329023836,-0.07676058359742165
1774472947736551400,0.999551513671875,0.2597229493319988,-0.06306085180789232,-0.09046981386765837
1774472947746564600,1.009564697265625,0.186547238484025,-0.12150485747009515,-0.16515256827771663
1774472947756578600,1.01957861328125,0.09452011217176913,-0.06765373255610466,-0.0940837665811181
1774472947766591500,1.029591552734375,0.05812836384177208,-0.007241349430382251,0.10137699232921003
1774472947776605700,1.039605712890625,0.021038111853599547,0.018506255288422105,0.0878445799306035
1774472947786618400,1.049618408203125,-0.07518237449526786,0.002419628362357616,0.03494008821696043
1774472947796632600,1.059632568359375,-0.08936638267040252,-0.008419453299045563,-0.1669089104257524
1774472947806645500,1.0696455078125,-0.05898878006339073,0.001411328102648258,-0.2907784512005746
1774472947816659500,1.079659423828125,0.10036650011241435,-0.05545359167456627,-0.37605171933844683
1774472947826672600,1.089672607421875,0.29235914452075956,-0.10940934600681065,-0.2455123454108834
1774472947836686600,1.0996865234375,0.4518523718625307,-0.06025923839062452,0.03419350763335824
1774472947846699500,1.109699462890625,0.41585049963295456,-0.07438684020340443,0.19777385815829038
1774472947856713500,1.11971337890625,0.27978900128304957,-0.055981707201898094,0.27865809755697846
1774472947866726700,1.1297265625,0.08666939867138862,0.017694062122702598,0.2628499953113496
1774472947876740400,1.139740234375,-0.09624562079012393,0.06263619665503502,0.18206117911115288
1774472947886753500,1.14975341796875,-0.25410335588455196,0.06236643980294466,0.21438070956617591
1774472947896767700,1.159767822265625,-0.3790472478926182,0.12804536515474318,0.2637250245802104
1774472947906780400,1.169780517578125,-0.3852279823541641,0.19066461067497728,0.22183570174723863
1774472947916794600,1.179794677734375,-0.30786709477603436,0.18204057471454144,0.12010536593571304
1774472947926807600,1.1898076171875,-0.170308635866642,0.09553864156454801,0.014438275197148322
1774472947936821500,1.199821533203125,-0.02480067925751209,0.0444721789330244,-0.09711392805725336
1774472947946834700,1.209834716796875,0.13708791878819465,0.01180062016993761,-0.05934563067704439
1774472947956848600,1.2198486328125,0.33721886146664615,0.011893559150397777,0.008006634714454413
1774472947966861600,1.229861572265625,0.3388414942324161,-0.012044658058881759,0.049579292813688516
1774472947976875500,1.23987548828125,0.13077391333580016,0.0016129881545901299,0.06890460940003394
1774472947986889700,1.2498896484375,0.010318564918637274,0.05092705416083335,0.0903761442348361
1774472947996902400,1.25990234375,-0.08562836518585681,0.06221329506784677,0.10217121144682169
1774472948006916600,1.26991650390625,-0.16533377006351946,0.05914426288604736,0.05972761573195457
1774472948016929500,1.279929443359375,-0.2216343339562416,0.043971243673563004,-0.03195449653491378
1774472948026943500,1.289943603515625,-0.23313538665771483,0.04823328503221273,-0.10670037930905818
1774472948036956700,1.299956787109375,-0.22774551031291485,0.04816606501489878,-0.045505905894935125
1774472948046970600,1.309970703125,-0.209124980995059,0.0796510443419218,0.03935410526692867
1774472948056983600,1.319983642578125,-0.17169570631086825,0.08007306914627552,0.10674684879928827
1774472948066997500,1.32999755859375,-0.16086919187009333,0.07804886984229087,0.11845949842482804
1774472948077010700,1.3400107421875,-0.17715514076054095,0.05176233594119548,0.0812435742303729
1774472948087024400,1.3500244140625,-0.19403554841279982,0.0367997446089983,0.023685265361517667
1774472948097037600,1.36003759765625,-0.1251864685922861,0.00497486580312252,0.002056348007917404
1774472948107051500,1.370051513671875,-0.019575638085603714,-0.019428630830347536,0.015833967339247464
1774472948117064400,1.380064453125,0.13509586818814276,-0.030762218010425564,0.08102773952260613
1774472948127078700,1.39007861328125,0.2539928812474012,-0.02436754853725433,0.1392646783053875
1774472948137091600,1.400091552734375,0.1994569889396429,-0.05737900677919387,0.15218085850179194
1774472948147105500,1.41010546875,0.10091302807927131,-0.02561900990307331,0.07711860325485467
1774472948157118500,1.420118408203125,-0.03634323301315307,0.017682079423964023,0.03997735173180699
1774472948167132700,1.430132568359375,-0.1321013625472784,-0.011589900028705595,0.058844110895693295
1774472948177145600,1.4401455078125,-0.2092377937197685,-0.025894904235005376,-0.007940437610447406
1774472948187159600,1.45015966796875,-0.28807752167880535,0.0012310030996799469,-0.048593058255314826
1774472948197172700,1.4601728515625,-0.224444130679965,0.03940992710739374,-0.07293444943800569
1774472948207186400,1.4701865234375,-0.051718496799468994,0.005395721563696861,-0.039703941617906094
1774472948217199600,1.48019970703125,0.04991641581356525,-0.028862229607999324,-0.05570464382618665
1774472948227213600,1.490213623046875,0.0681833093881607,-0.007518412806093692,-0.05427022710889578
1774472948237226500,1.5002265625,0.034683190846443175,0.04173866231590509,-0.009446165998280048
1774472948247240400,1.510240478515625,0.062465516263246534,0.055362698520720004,0.03416545058265328
1774472948257254700,1.520254638671875,0.14466916769742966,0.014462240594625472,0.050661681222915644
1774472948267267600,1.530267578125,0.22380524825453757,0.013902853146195411,0.17080533334240317
1774472948277281500,1.540281494140625,0.2590431503742933,0.02765285381823778,0.30804727364853024
1774472948287294700,1.550294677734375,0.22728256897628307,0.04222352322340012,0.3354132733494043
1774472948297308400,1.560308349609375,0.08498539110720157,0.03507394372969866,0.3137294109381735
1774472948307321600,1.570321533203125,-0.05685878229737282,0.08350888881385325,0.2143980990923941
1774472948317335600,1.58033544921875,-0.16757716507613657,0.13719927020817993,0.0593092441894114
1774472948327348500,1.590348388671875,-0.09526888471245765,0.1469762755960226,0.049019174712896345
1774472948337362400,1.600362548828125,0.021260814693570135,0.13389701379239557,0.11283785915076731
1774472948347375600,1.610375732421875,0.04062777846455574,0.060820671665668485,0.05927490352839231
1774472948357389600,1.6203896484375,0.08445990592837334,0.016163199293613432,0.0034986557707190513
1774472948367402500,1.630402587890625,0.038972996994853015,-0.052451194988191126,-0.09683321141973138
1774472948377416700,1.640416748046875,-0.05853577559888363,-0.024195699101686476,-0.15371040615662931
1774472948387429400,1.650429443359375,-0.11398001492321491,0.06116378601491451,0.06300049992278219
1774472948397443300,1.660443359375,-0.05337327826917171,0.1738306725129485,0.2887218109317124
1774472948407456500,1.67045654296875,-0.025946342161297795,0.6652464084789157,0.729274205622822
1774472948417470500,1.680470458984375,-0.19642098224461077,0.26828999440819024,0.6004261457830667
1774472948427483400,1.6904833984375,-0.16888649410903453,0.052015141658484934,0.373077160507068
1774472948437497300,1.700497314453125,-0.10700783782303333,0.07503039880394935,-0.01057020159214735
1774472948447510500,1.710510498046875,-0.17744331005215644,0.1609559933707118,0.15615502282977103
1774472948457524200,1.720524169921875,-0.04315525111556053,0.23714462229907513,0.20107194985561072
1774472948467537400,1.730537353515625,-0.01471943022608757,0.22376111685186623,0.12572028320804238
1774472948477551400,1.74055126953125,0.008261632388830185,0.2117313641011715,0.09961107863523065
1774472948487564300,1.750564208984375,0.037323476222157474,0.12663579061776398,0.06690963619053364
1774472948497578500,1.76057861328125,-0.007414075648784637,0.06716711808294057,0.1037091616038233
1774472948507591400,1.77059130859375,-0.022615736433863637,0.10834726973325014,0.10712371928766369
1774472948517605400,1.78060546875,-0.0740261901974678,0.12069997082799673,0.13509462607912717
1774472948527618300,1.790618408203125,-0.10968962425291538,0.0912517580255866,0.20195706212706863
1774472948537632500,1.800632568359375,-0.060493923929333684,0.08373276069760321,0.2215628761552274
1774472948547645400,1.8106455078125,0.017256255227327346,0.11408639790713787,0.22017427134104073
1774472948557659400,1.820659423828125,0.060875616723299025,0.09807838917523622,0.21142390558719634
1774472948567673300,1.83067333984375,0.15817922213375568,0.07175561491698026,0.1685764052465558
1774472948577686300,1.840686279296875,0.21021277623176574,0.06791004540473222,0.13207257484421134
1774472948587700500,1.850700439453125,0.1678647498458624,0.10412497586309909,0.15034239102825522
1774472948597713400,1.86071337890625,0.1800105301916599,0.11887713931500911,0.19944858643747865
1774472948607727400,1.870727294921875,0.32205577912628647,0.06866203281581401,0.2069295898426324
1774472948617740300,1.880740234375,0.3706552671223879,0.023536650671064852,0.27703210379034277
1774472948627754500,1.89075439453125,0.22053075662851332,0.04317337129414081,0.28015016274563964
1774472948637767400,1.900767333984375,0.035493922707438466,0.0745581051170826,0.25224684129767116
1774472948647781400,1.910781494140625,-0.09664251115322113,0.09947831910103559,0.27400596090219914
1774472948657794600,1.920794677734375,-0.1599158366680145,0.1676698117956519,0.2827785384878516
1774472948667808300,1.930808349609375,-0.07121873156130314,0.1902285573452711,0.2592649033661932
1774472948677821400,1.940821533203125,0.1010959834307432,0.16955723297744987,0.19927447197958825
1774472948687835400,1.95083544921875,0.1750005930751562,0.05623802005052566,0.08843794271387159
1774472948697848300,1.960848388671875,0.19220307228863237,0.00834025058299303,-0.01865574676170945
1774472948707862300,1.9708623046875,0.22452421017885207,0.024638474433124065,0.026469050861150024
1774472948717875500,1.98087548828125,0.3394476434320211,0.030466742195189,0.08767682214826344
1774472948727889400,1.990889404296875,0.38918636459112166,-0.004554594564437866,0.08404036534205078
1774472948737902300,2.00090234375,0.22387714444696902,-0.04314911363571882,0.09455715624652802
1774472948747916500,2.01091650390625,-0.006344400590658187,0.015270049846172333,0.15245916398651896
1774472948757929200,2.02092919921875,-0.19552841731905937,0.10111702621877193,0.16507431540973483
1774472948767943400,2.030943359375,-0.2751338689535856,0.10301029261946677,0.14160166988559067
1774472948777956600,2.04095654296875,-0.2530640759646892,0.06953443173617124,0.1300417266037315
1774472948787970300,2.05097021484375,-0.22119944967031477,0.047449733439087864,0.0925662016250193
1774472948797983500,2.0609833984375,-0.11041033974289893,-0.010676876837015152,0.04750350945293903
1774472948807997400,2.07099755859375,-0.03509294069111347,-0.08323562483042478,-0.03555800091959536
1774472948818010400,2.08101025390625,-0.04838555298447609,-0.0957742038860917,-0.05231551284454763
1774472948828024300,2.0910244140625,-0.06462941629886627,-0.06382014574259519,0.027397490817680954
1774472948838037500,2.10103759765625,-0.0512912112981081,-0.04767945054173469,0.12505666820015757
1774472948848051200,2.11105126953125,0.015251345145702361,-0.029609833104908466,0.14749120284821837
1774472948858065400,2.1210654296875,0.14971125351786613,-0.03501578380167484,0.076526774841547
1774472948868078600,2.13107861328125,0.16238018095493315,-0.06560235298424959,0.05411141981799155
1774472948878092300,2.14109228515625,0.05123100554347038,-0.06995937914997338,-0.008112908100523054
1774472948888105500,2.15110546875,-0.06695522889792918,0.0018424129962921142,-0.018637699648365376
1774472948898119400,2.161119384765625,-0.11232581797540186,0.07299860071539878,0.03484981611762196
1774472948908132400,2.17113232421875,-0.1638508380293846,0.10794511867314577,0.09032843263559043
1774472948918146300,2.181146240234375,-0.2042009685963392,0.14728841028511525,0.15232887040404602
1774472948928159500,2.191159423828125,-0.17229542576968668,0.08143909680247306,0.39751565538868305
1774472948938173200,2.201173095703125,-0.0736684628009796,0.17387714200317858,0.3946202992733568
1774472948948186400,2.211186279296875,0.05414309359788894,0.22421412131637333,0.23974797319788485
1774472948958200600,2.22120068359375,0.09470540561079978,0.05664981572180986,0.13955648259250447
1774472948968213200,2.231213134765625,0.06229308230578899,-0.04685556693822145,0.01529251740630716
1774472948978227500,2.2412275390625,0.11565408561527728,0.0070674541682004925,0.00006587744359858334
1774472948988240400,2.251240478515625,0.2147673707962036,0.07539163333177566,0.10569212471512146
1774472948998254300,2.26125439453125,0.3027770781606436,0.06021335342228412,0.09260647883648052
1774472949008267500,2.271267578125,0.2920791585355997,-0.01569061334580183,0.06359570760326459
1774472949018281500,2.281281494140625,0.2071504660516977,-0.030638883891701697,0.09687460287604481
1774472949028294400,2.29129443359375,0.08070785991847515,0.044371348907053465,0.10073562568575144
1774472949038308400,2.301308349609375,-0.04250409373044967,0.12972148167341946,0.09761592276263982
1774472949048321500,2.311321533203125,-0.0765624306768179,0.11522650785297155,0.1386484461031854
1774472949058335200,2.321335205078125,-0.017078560572862625,0.1064513729840517,0.19678404340334235
1774472949068348400,2.331348388671875,-0.025553543451428413,0.13224077101796863,0.1609586602518335
1774472949078362400,2.3413623046875,-0.17286767269968986,0.037115386429429055,0.04830240474566817
1774472949088375300,2.351375244140625,-0.17523147922158241,-0.020849019022285937,0.06723371704574674
1774472949098389500,2.361389404296875,0.012897475495934486,0.03927694837749004,0.159414170756191
1774472949108402400,2.37140234375,0.045077743610739705,0.0033656770408153533,0.035485556737892325
1774472949118416400,2.38141650390625,-0.14934768090248107,-0.20036533595621583,-0.3080279844261706
1774472949128429300,2.39142919921875,-0.2854600326567888,-0.23418606475442647,-0.33588125618733466
1774472949138443500,2.401443603515625,-0.3756809863299131,-0.010075111551582812,-0.1937193951357156
1774472949148457200,2.411457275390625,-0.4326987585812807,0.14858575661927462,0.061245034557580944
1774472949158470400,2.421470458984375,-0.6010965923905373,0.19949673642814159,0.1702945342760533
1774472949168484400,2.431484375,-0.8441425476878881,0.23231267209798095,0.2672451615303755
1774472949178497300,2.441497314453125,-0.8575000419110059,0.18253683379888533,0.31854959763623775
1774472949188511500,2.451511474609375,-0.7494190218985081,0.03880173208117485,0.0005755348656326532
1774472949198524400,2.4615244140625,-0.6429921988338232,-0.10962591136693954,-0.10420308260060847
1774472949208538400,2.471538330078125,-0.5180979911863803,-0.07540507733523845,-0.04571370342671871
1774472949218551300,2.48155126953125,-0.40345045226514337,-0.029988018767535686,0.022540771501511334
1774472949228565500,2.4915654296875,-0.3345078489422798,-0.03135463094562292,-0.06266016205251217
1774472949238578400,2.501578369140625,-0.39789632526934143,-0.09007423867881298,-0.17975830899626016
1774472949248592400,2.51159228515625,-0.5221580802321434,-0.07635755575448275,-0.15261705796197056
1774472949258605600,2.52160546875,-0.6689490623891353,0.0512736756414175,-0.11268778315559029
1774472949268619300,2.531619384765625,-0.7382330264955759,0.11283084488809109,-0.08243482984155416
1774472949278632400,2.541632568359375,-0.7325847914755343,0.061328621187806125,0.030722762782871723
1774472949288646400,2.551646484375,-0.6229378373205662,0.05035042331665754,0.10379135999456048
1774472949298659300,2.561659423828125,-0.40391222455799575,0.032306817103922365,0.16815817983448506
1774472949308673300,2.57167333984375,-0.12554127337932586,-0.020745850908756254,0.12272314721867442
1774472949318686500,2.5816865234375,0.055554713961482045,-0.09706190560907126,0.007270137133449315
1774472949328700400,2.591700439453125,0.0929793124705553,-0.14140315163880585,-0.14054112798199056
1774472949338713300,2.60171337890625,0.0034054245293140407,-0.1197992225959897,-0.33498964110985396
1774472949348727600,2.6117275390625,0.013109656941890716,-0.12464783167093992,-0.2917565024524927
1774472949358740200,2.621740234375,0.1570277140110731,-0.07560732190907,-0.11183365054428576
1774472949368754400,2.63175439453125,0.23007716813087462,0.033784196180105204,-0.019998539672791957
1774472949378767600,2.641767578125,0.08666004632115364,0.07059329313933849,0.14178937447741627
1774472949388781300,2.65178125,-0.012592355069518089,0.12171908474266528,0.25337811034992336
1774472949398794200,2.661794189453125,-0.02218260571360588,0.10576689785122871,0.2038787509046495
1774472949408808200,2.67180810546875,0.061540802633762354,0.08709434608519077,0.2396883154325187
1774472949418821400,2.6818212890625,0.2219733566522598,0.15715280169546603,0.31982115194201466
1774472949428835300,2.69183544921875,0.3106961807221174,0.13390870423018933,0.3489999001532793
1774472949438848300,2.70184814453125,0.3377928619623184,0.145080671107769,0.29365897507295013
1774472949448862200,2.7118623046875,0.4199082505911588,0.17073767493367195,0.31288916072174905
1774472949458876400,2.72187646484375,0.40414018809497354,0.1941939538449049,0.21741759304404257
1774472949468889300,2.731889404296875,0.20980828708410262,0.2630693371504545,-0.07634615757763386
1774472949478903300,2.7419033203125,-0.25874036803543565,0.3082692458361387,-0.22234540483504533
1774472949488916500,2.75191650390625,-0.3763485103279352,0.4274263711363077,0.19720599514245984
1774472949498930200,2.76193017578125,-0.2592272747695446,0.6461252361625432,0.7505123700931667
1774472949508943400,2.771943359375,-0.020577508604526517,0.7791027970224619,1.0668056401699781
1774472949518957300,2.781957275390625,0.05468436086773872,0.6859066269308328,1.1097411110550164
1774472949528970200,2.79197021484375,0.11158698230683803,0.7551531816363334,0.9481465275198221
1774472949538984200,2.801984130859375,0.06494505811929703,0.4763040915518999,1.2351844770178197
1774472949548997000,2.8119970703125,0.09660802436172962,0.38063305577933787,1.569314724819362
1774472949559011300,2.82201123046875,0.5924649576455354,0.6645400137752294,1.186527998137474
1774472949569024300,2.832024169921875,0.8041706027835607,0.5470633889079094,0.5720934930071234
1774472949579038500,2.84203857421875,0.8192758174568414,0.10661737720072269,0.1443278069138527
1774472949589051100,2.852051025390625,1.03593645465374,0.086073770865798,0.12656067955493927
1774472949599065300,2.8620654296875,1.2207891641795634,0.2337333525508642,0.033523207156360146
1774472949609078300,2.872078369140625,0.894921133288741,0.2020616184800863,-0.2669502702370286
1774472949619092200,2.88209228515625,0.1927601216495037,0.004783727145195007,-0.10643149923980236
1774472949629105400,2.89210546875,-0.38578327814936636,0.01593289766907692,0.24014818802922963
1774472949639119400,2.902119384765625,-0.6913023484945297,0.019512509721517562,0.533729275560379
1774472949649132300,2.91213232421875,-0.9186743493199347,-0.17650749050676823,0.5174415731042623
1774472949659146200,2.922146240234375,-1.0601485203683376,-0.1821627397894859,0.3782914610892534
1774472949669159200,2.9321591796875,-0.9299076909959316,-0.1685305202782154,0.35248452739864583
1774472949679173000,2.942173095703125,-0.48164369901418685,-0.27035247989594935,0.1888642832547426
1774472949689186300,2.952186279296875,-0.01736848343014717,-0.4422176975548267,-0.20543284847885368
1774472949699200500,2.962200439453125,0.2597457456856966,-0.5532686732888221,-0.5763567034095526
1774472949709213200,2.972213134765625,0.35235213319063186,-0.5850304237306118,-0.6722793758556246
1774472949719227400,2.982227294921875,0.2609948689639568,-0.46811435535550117,-0.6966478011757135
1774472949729240000,2.992239990234375,-0.058013797551393506,-0.3465437391728163,-0.5795101990044117
1774472949739254300,3.002254150390625,-0.4188485124051571,-0.2550356682986021,-0.3484852286294102
1774472949749268200,3.012268310546875,-0.5751683704078198,-0.24384967289566992,-0.07433277192860842
1774472949759281400,3.022281494140625,-0.4488625423967838,-0.22463468481600282,0.19068097728788852
1774472949769295000,3.032295166015625,-0.20926701981425283,-0.23894378067553043,0.29294103606194255
1774472949779308300,3.042308349609375,0.05191021997928619,-0.24394787257313727,0.13565817824602125
1774472949789322500,3.052322509765625,0.16560323465466498,-0.19685411296486854,0.015367665001749992
1774472949799335200,3.062335205078125,0.20582418588399887,-0.16979542564749717,0.054960255199670786
1774472949809349400,3.072349365234375,0.24299101023972033,-0.05759644892215728,0.05900310084968805
1774472949819362000,3.082362060546875,0.23778292020261285,0.052661915129423136,0.12156740131229161
1774472949829376300,3.092376220703125,0.19256021516323088,0.08526011639535426,0.2410404606938362
1774472949839389400,3.102389404296875,0.024969606083631513,0.07343523856699466,0.20172902552485464
1774472949849403400,3.1124033203125,-0.20321429564654825,0.12390285852253437,0.09232406343221664
1774472949859416300,3.122416259765625,-0.3985924908399582,0.19826631785035131,0.13161767068356275
1774472949869430300,3.13243017578125,-0.6055658467590809,0.25919921771883964,0.05394874006956815
1774472949879443200,3.142443115234375,-0.6500853719651699,0.3303080591648817,-0.11079057123214006
1774472949889457200,3.15245703125,-0.559897151517868,0.3410001335710287,-0.07383505153954029
1774472949899470300,3.16247021484375,-0.455305727186799,0.3705447924852371,0.1046779335707426
1774472949909484300,3.172484375,-0.3319295228868723,0.42686639916598795,0.12103110247850417
1774472949919497200,3.182497314453125,-0.17595277923345565,0.3355658335626125,0.03703881406188011
1774472949929511400,3.192511474609375,0.000886135184764862,0.14734101725518703,0.04411240570992231
1774472949939524000,3.202524169921875,0.10042904395461082,0.10922434482872485,0.12038812839984893
1774472949949538300,3.212538330078125,-0.022094342908263204,0.21776538356840608,0.20378654257655143
1774472949959551200,3.22255126953125,-0.17798691540956496,0.25050620817542074,0.22114245878607033
1774472949969565400,3.2325654296875,-0.24510054973959922,0.26786183212399484,0.10799655659943819
1774472949979578400,3.242578369140625,-0.14272154076099394,0.265675720256567,0.046561260166764255
1774472949989592300,3.25259228515625,-0.018002105158567427,0.10458265650272369,-0.017336919248104096
1774472949999605200,3.262605224609375,0.07538695715665816,0.004525368469953537,-0.18790128344148396
1774472950009619200,3.272619140625,0.07685644518733024,0.01788695434629917,-0.2709066066473722
1774472950019632400,3.28263232421875,0.023899346503615377,0.008154080361127853,-0.21869185076355932
1774472950029646300,3.292646240234375,-0.06296469795703888,0.01293780750632286,-0.06733575264811516
1774472950039659300,3.3026591796875,-0.14770166726112366,0.07186287468373775,0.062249243164062495
1774472950049673200,3.312673095703125,-0.20927111146748065,0.12690554746985436,0.1334144909724593
1774472950059687400,3.3226875,-0.2939087120503187,0.12347732658684253,0.1080222755625844
1774472950069700400,3.332700439453125,-0.391063848900795,0.1277098495900631,0.12075228553712368
1774472950079714300,3.34271435546875,-0.2413064181536436,0.21337387061119079,0.17433248455524444
1774472950089727200,3.352727294921875,-0.007543839508295059,0.20445523561835288,0.19836451752781867
1774472950099741200,3.3627412109375,0.128676064273715,0.28678689734637736,0.3446364442467689
1774472950109754400,3.37275439453125,0.29025837284922595,0.3945166197031736,0.4279907270208001
1774472950119768300,3.382768310546875,0.49488311981558797,0.5202326651275158,0.3090437373399734
1774472950129781200,3.39278125,0.564682632228732,0.41435295455157756,-0.06641133127957582
1774472950139795200,3.402795166015625,0.37353988264799115,-0.2566477796703577,-0.5508323860526084
1774472950149808000,3.41280810546875,0.04419219294786453,-0.6071306118577718,-0.5487886052653194
1774472950159822300,3.422822265625,-0.1138712938517332,-0.4837368719011545,-0.38257600654065604
1774472950169835300,3.432835205078125,-0.4381704679906368,-0.5301508325517177,-0.34325784936994314
1774472950179849500,3.442849365234375,-0.6970452760607003,-0.6459907961279153,-0.4975155141457915
1774472950189862100,3.452862060546875,-0.5912251867175102,-0.22613281441926955,-0.2916255695492029
1774472950199876400,3.46287646484375,-0.3337175753474235,0.346380073043704,-0.027485388296842574
1774472950209889300,3.47288916015625,-0.3326046456694603,0.43769817430377006,0.18442805437296628
1774472950219903200,3.4829033203125,-0.5378384644448757,0.41802141393125053,0.1754582737147808
1774472950229916400,3.49291650390625,-0.6347200450509787,0.46643736205399033,-0.16680793426930904
1774472950239930400,3.502930419921875,-0.6967208664119243,0.4633452412575483,-0.30583091277331115
1774472950249943300,3.512943359375,-0.5771423008292913,0.45181788507103915,-0.17013415608257054
1774472950259957200,3.522957275390625,-0.3177747408062219,0.4633014021158218,-0.05981529401540756
1774472950269970200,3.53297021484375,-0.012004326048493384,0.3294727773845196,-0.15684008248448372
1774472950279984000,3.542984130859375,-0.057796939930319785,0.09205693692862987,-0.10820669221878051
1774472950289997300,3.552997314453125,-0.23703064053058623,0.015298106896877288,0.16096622250378131
1774472950300011500,3.563011474609375,-0.29621874255836006,0.1425228033185005,0.43214755443930625
1774472950310024200,3.573024169921875,-0.24131109432876108,0.17532617176771162,0.4715320548444986
1774472950320038400,3.583038330078125,-0.4172527676463127,0.5555576610088349,0.7158142739385366
1774472950330051000,3.593051025390625,0.12463234184086322,0.03194061414003372,0.10023264459967612
1774472950340065300,3.603065185546875,0.07434650819301605,-0.3705331020474434,0.04121230035424232
1774472950350078500,3.613078369140625,-0.1069347725868225,-0.3355968132227659,-0.14305121110677718
1774472950360092200,3.623092041015625,-0.22775486266314982,-0.1280056176662445,-0.10053601146042346
1774472950370106000,3.633106201171875,-0.36842999228835105,0.06580956599414348,0.28843700264096256
1774472950380119300,3.643119384765625,-0.38856267973482606,0.15133271723985672,0.22654314878582954
1774472950390133500,3.653133544921875,-0.5444833092868328,0.2278898872196674,-0.06501520074605942
1774472950400146400,3.663146484375,-0.6907488062649965,0.2856155154794454,0.00030512042641639707
1774472950410160400,3.673160400390625,-0.6090601186156273,0.41513095318675036,0.2276777057737112
1774472950420173300,3.68317333984375,-0.2773094594269991,0.4318973790705204,0.3100046913266182
1774472950430187500,3.6931875,-0.005434884530305862,0.29910452712774277,0.1240232700318098
1774472950440200400,3.703200439453125,0.048587797558307645,0.14026771786808967,0.038729835888743396
1774472950450214400,3.71321435546875,-0.019666238978505134,0.09715805945992469,0.08198270215988158
1774472950460227600,3.7232275390625,-0.10693184997737407,0.10220657502114772,0.08334989885985851
1774472950470241300,3.7332412109375,-0.16820552610754966,0.04865443305373192,-0.0532604655444622
1774472950480254500,3.74325439453125,-0.2568734051197767,-0.01846855362653732,-0.226928348711133
1774472950490268400,3.753268310546875,-0.33754385563731193,-0.10997896258831023,-0.16770166823863983
1774472950500281300,3.76328125,-0.4331844962716102,0.06601531769931315,-0.20500322488993405
1774472950510295300,3.77329541015625,-0.5535948365032672,0.35533962456881996,-0.05362345363795757
1774472950520308500,3.78330859375,-0.5388105243474245,0.3647720543026924,0.14996084436476229
1774472950530322400,3.793322509765625,-0.4241396045506,0.22556699723005294,0.16411562644541264
1774472950540335400,3.80333544921875,-0.29694705683290956,0.10203121845424175,0.16513912427425384
1774472950550349600,3.813349609375,-0.16908581607341766,-0.001717325311899185,0.278124575202167
1774472950560362200,3.8233623046875,-0.07337386376857757,-0.09019698827564716,0.28357962573766704
1774472950570376400,3.83337646484375,-0.2260258469134569,-0.13501988034248352,0.151082249610126
1774472950580389400,3.843389404296875,-0.45867783396840095,-0.12354922277927398,0.02240881568491459
1774472950590403300,3.8534033203125,-0.5318453615099191,-0.1177227085828781,-0.050880876931548115
1774472950600416500,3.86341650390625,-0.5046195009320974,-0.27170740163624285,-0.17901392036974428
1774472950610430500,3.873430419921875,-0.3874830678045749,-0.4217033173143863,-0.2782081618323922
1774472950620443400,3.883443359375,-0.24299685545861718,-0.46153439244329925,-0.1141954112395644
1774472950630457300,3.893457275390625,-0.048474400311708445,-0.4323854548484087,0.19941168849319219
1774472950640470500,3.903470458984375,0.11266191806197166,-0.2556155140131712,0.25661153931319713
1774472950650484200,3.913484130859375,0.023021979147195816,-0.2156166811019182,0.20075170492529867
1774472950660497400,3.923497314453125,-0.14645605111420154,-0.20760113242864608,0.29684651906788345
1774472950670511400,3.933511474609375,-0.17915946632027624,-0.10387246240675449,0.27425240994393824
1774472950680525300,3.943525390625,-0.26496201902925964,-0.07290040103793144,0.18009177873432636
1774472950690538500,3.95353857421875,-0.37335458920896053,-0.06593465367853642,0.18493132771998644
1774472950700552400,3.963552490234375,-0.4062286848068237,-0.003456277933716774,0.1543158247038722
1774472950710565400,3.9735654296875,-0.3481383148878813,0.00810322695672512,0.08351736438125372
1774472950720579300,3.983579345703125,-0.26952947307527064,0.07088555408418178,0.10864157650470734
1774472950730592500,3.993592529296875,-0.18890519978702067,0.12285013459920882,0.12668138332515955
1774472950740606200,4.003606201171875,-0.1315957511126995,0.18689444448649883,0.21492548396736383
1774472950750619400,4.013619384765625,-0.09530687863528728,0.21988778254985808,0.3661664312705397
1774472950760633300,4.02363330078125,-0.015492168164253233,0.2542576696634292,0.20167583403289316
1774472950770646300,4.033646240234375,-0.014478607207536697,0.15102642776966094,0.039109482856094835
1774472950780660500,4.043660400390625,-0.15581600013375282,0.024585575202107426,0.05893821891993284
1774472950790673400,4.05367333984375,-0.13466156842410565,0.1299269411176443,0.0727042939439416
1774472950800687400,4.063687255859375,-0.0595171878516674,0.16456804638803005,0.06370967110544443
1774472950810700500,4.073700439453125,-0.024622400081157684,0.13937632198631764,0.11121902577728032
1774472950820714500,4.083714599609375,0.09014379678368568,0.1365226861208677,0.0554477464556694
1774472950830727400,4.0937275390625,0.16506313642859458,0.10960077692568301,-0.08160627006292343
1774472950840741400,4.103741455078125,0.12325754635632037,0.12168693603873253,-0.09066285222172736
1774472950850754600,4.113754638671875,0.050634208694100374,0.15540157411396502,0.010457388867437838
1774472950860768300,4.123768310546875,0.06820376765429974,0.15579963352084159,0.12220920634716749
1774472950870781400,4.133781494140625,0.15715689334869384,0.14345686929821969,0.07821808892935514
1774472950880795400,4.14379541015625,0.07374854229986667,0.07580196769833564,0.04720043485313654
1774472950890808300,4.153808349609375,-0.07555646850466728,0.017726795348525046,-0.00615647680312395
1774472950900822500,4.163822509765625,-0.18590835605859754,0.05692249518334865,-0.16766893501281738
1774472950910835500,4.17383544921875,-0.21882570627629755,0.11381401070654391,-0.26687428239136934
1774472950920849400,4.183849365234375,-0.18919103099107742,0.06486264053285122,-0.2120610344469547
1774472950930862300,4.1938623046875,-0.14514964469075203,-0.0038087446331977843,-0.19201836337149142
1774472950940876500,4.20387646484375,-0.15703063662052152,-0.05072890124022961,-0.1893415453776717
1774472950950889500,4.213889404296875,-0.1089613099783659,-0.019041385078430173,-0.13638181634545327
1774472950960903400,4.2239033203125,-0.00670680416226387,0.03003916443288326,-0.026078444108366964
1774472950970916600,4.23391650390625,0.0907049377977848,-0.03744914842844009,0.04747691370695829
1774472950980930300,4.243930419921875,0.13190788580179214,-0.18352876744568347,-0.024472470216453074
1774472950990943500,4.253943603515625,0.08304770104289054,-0.3018208003491163,-0.04863631287515163
1774472951000957400,4.26395751953125,-0.0821995597809553,-0.23819033195972442,-0.1685372422799468
1774472951010971400,4.273971435546875,-0.267689982688427,-0.01229249534010887,-0.26404665775001046
1774472951020984300,4.283984375,-0.5801251160323619,0.08075169906020165,-0.103740944981575
1774472951030998500,4.29399853515625,-0.7391705996066331,0.16287001029849052,0.019977789145708084
1774472951041011500,4.304011474609375,-0.7892284697175026,0.10752689326107501,0.013365385268628597
1774472951051025400,4.314025390625,-0.7442851661413907,0.05033376444280147,-0.08307254322320222
1774472951061038600,4.32403857421875,-0.49667058775424955,0.0841126999258995,-0.17553747643083334
1774472951071052300,4.33405224609375,-0.21461422606110572,0.025149054303765295,-0.07091039626449346
1774472951081065500,4.3440654296875,0.016823124507069586,-0.08813479504883288,0.039166473740339276
1774472951091079400,4.354079345703125,0.15036621029525996,-0.06319558410346508,-0.10896627841442823
1774472951101092400,4.36409228515625,0.030636253543198107,0.04701543367505073,-0.16284604490101337
1774472951111106300,4.374106201171875,-0.02244184117168188,0.19933365482091903,-0.11270020424574613
1774472951121119500,4.384119384765625,-0.11578034234344958,0.24611118808686733,-0.23282909718751907
1774472951131133400,4.394133544921875,-0.42246261124908924,0.2567494864791632,-0.5162196300938725
1774472951141146400,4.404146484375,-0.7765873070701956,0.28927520703077314,-0.5864139870434999
1774472951151160600,4.41416064453125,-0.849232272042334,0.36579438308775425,-0.44797231555879113
1774472951161173200,4.42417333984375,-0.5905141158387065,0.2803039650678634,-0.08538812668919563
1774472951171187500,4.4341875,-0.43829847828447815,0.0328869550794363,0.20706483359485864
1774472951181200400,4.444200439453125,-0.05559679953753948,-0.04219020547568798,0.3508744618535042
1774472951191214300,4.45421435546875,0.3489110528260469,0.06646832216382026,0.2541635616391897
1774472951201227500,4.4642275390625,0.31497926486879585,0.13443068227767943,0.16213643532693386
1774472951211241500,4.474241455078125,0.08627543091773986,0.4185153349280357,0.15931874755769967
1774472951221254400,4.48425439453125,0.023428806382417677,0.6218465349525213,0.18928893840759992
1774472951231268400,4.494268310546875,-0.1126385371863842,0.41428281192481514,0.18700170425325632
1774472951241281500,4.504281494140625,-0.25000410387218,0.20644319456517696,0.1454790227755904
1774472951251295200,4.514295166015625,-0.3993541228622198,0.022444471520185468,0.1186097205504775
1774472951261308400,4.524308349609375,-0.5771767876207828,-0.10053367337286472,-0.013870996703207492
1774472951271322400,4.534322265625,-0.50141602871567,0.00860123960673809,-0.31834991034567356
1774472951281335300,4.544335205078125,-0.17388503304868935,0.06391688411533832,-0.3119134475573897
1774472951291349500,4.554349609375,0.021888298942148682,0.01655015278458595,-0.06623597471266984
1774472951301363500,4.564363525390625,0.09565291559398174,-0.0617699352145195,0.4665545586928725
1774472951311376400,4.57437646484375,0.5072527720451354,0.18974749583005904,0.35055326707512136
1774472951321390300,4.584390380859375,0.43967210472524165,0.20798516331017017,-0.11702946562170982
1774472951331403500,4.594403564453125,0.025602643290162087,-0.08972177197933197,-0.6538327417999505
1774472951341417200,4.604417236328125,-0.20770839219540357,0.0045674540460109705,-0.9509943181663751
1774472951351430400,4.614430419921875,-0.3912470965132117,-0.013359832310676573,-0.7175710544779896
1774472951361444400,4.6244443359375,-0.434288950382173,-0.1262333472967148,-0.5451686612024903
1774472951371457300,4.634457275390625,-0.3404518520385027,-0.087815646097064,-0.5786170495569706
1774472951381471500,4.644471435546875,-0.5706576149851084,-0.29966625266373154,-0.37218408412486315
1774472951391484400,4.654484375,-0.516453731110692,-0.3689624917298555,-0.33473815056681633
1774472951401498600,4.66449853515625,-0.010153437484800815,-0.27985563677847386,-0.31656711858212944
1774472951411511300,4.67451123046875,0.3646910980209708,0.10237900897860526,-0.328550694103539
1774472951421525500,4.684525390625,-0.3073094608932733,0.6556038431257009,-0.30444121198058127
1774472951431538700,4.69453857421875,-1.3467828575015068,0.8030793004155159,-0.6054287763759494
1774472951441552600,4.704552734375,-1.3248989424735307,0.9879770181268454,-0.5313441339895129
1774472951451565600,4.714565673828125,-0.9691866852000355,0.9146393947154283,-0.177865627117455
1774472951461579500,4.72457958984375,-0.23312340395897627,0.5690834975361824,-0.5506070528641342
1774472951471592400,4.734592529296875,0.3879614989712834,0.3928098157852888,-1.0277218762770295
1774472951481606400,4.7446064453125,0.3704568219408393,0.5246744469672441,-1.2152645555391908
1774472951491619600,4.75461962890625,-0.03155541421473026,0.734081167513132,-1.416574771130085
1774472951501633500,4.764633544921875,-0.502680641824007,0.8471347152411938,-1.5067618225336075
1774472951511646500,4.774646484375,-1.0482570070445536,1.1140227338969706,-1.6031360381394624
1774472951521660700,4.78466064453125,-1.7251105589479208,1.2344710680514572,-1.7144509255066513
1774472951531673300,4.79467333984375,-2.2458453283786772,1.2876228125244378,-1.1326727815702557
1774472951541687600,4.8046875,-2.826942504313588,0.6792249572098255,-0.33388153373748064
1774472951551700500,4.814700439453125,-2.4651915513977407,0.5777443583756685,-0.2846738507151603
1774472951561714700,4.824714599609375,-1.5124442520841954,0.9360749814540147,-0.6887602627962828
1774472951571727600,4.8347275390625,-0.9077145638883113,1.1380401538223028,-0.7552269775249063
1774472951581741600,4.844741455078125,-0.9898635625258088,1.1150485698133707,-0.46171851683855053
1774472951591754500,4.85475439453125,-0.3593159808538854,0.8069231163620948,0.026916502367705104
1774472951601768400,4.8647685546875,1.5533832884550094,0.1981441527754068,0.34467297686487436
1774472951611782700,4.87478271484375,2.7378675058051942,-0.23760405650436878,0.25004304764308033
1774472951621795300,4.88479541015625,2.34379073882401,-0.5245166260570288,0.13344320561029016
1774472951631809500,4.8948095703125,1.4756529830425977,-0.5005845463275909,-0.16878873282298446
1774472951641822500,4.904822509765625,0.5883405711919069,-0.11283318297564983,-0.44487939104475077
1774472951651836700,4.914836669921875,-0.1871380439840257,0.10163608165681362,-0.12590859972122126
1774472951661849600,4.924849609375,-0.7660434089630842,0.18314239847660063,0.7256861180029809
1774472951671863600,4.934863525390625,0.3732835697993636,0.43736558134853837,0.6261557764537632
1774472951681876500,4.94487646484375,2.0219120698302984,0.5293909540951252,-0.05918408343978226
1774472951691890400,4.954890380859375,2.467798519025743,0.37504736460149285,-0.3987078608479351
1774472951701903600,4.964903564453125,1.8276827524110675,0.4158282878011465,-0.5554423640660942
1774472951711917600,4.97491748046875,1.0601102341845632,0.5110048180550336,-0.8144834686137735
1774472951721930500,4.984930419921875,0.39971301930248737,0.43915304928719995,-1.072834545070678
1774472951731944400,4.9949443359375,-0.9425751571282743,0.09028758916854858,-0.8411626550942659
1774472951741957400,5.004957275390625,-1.4156786990731953,0.16573358303606509,-1.1142466057807205
1774472951751971600,5.0149716796875,-0.6862877352029084,0.6603963380992413,-1.2482102550685406
1774472951761984500,5.024984619140625,-0.11568243492692708,1.5247908156991004,-0.9832155028134584
1774472951771998700,5.034998779296875,-0.11030249545425176,2.4372370842844244,-0.42418052108287807
1774472951782011400,5.045011474609375,0.3504474686130881,2.4946517468988896,1.5276993966221808
1774472951792025600,5.055025634765625,0.7115262213557958,2.5844161889761685,1.75479345728904
1774472951802038500,5.06503857421875,0.9722814363449811,2.7857646907508373,0.40569501632153987
1774472951812052500,5.075052490234375,0.5168354239046573,3.1094431026428935,-0.7527244931846857
1774472951822065700,5.085065673828125,-0.011779869642853736,2.5830899088084696,-1.0565525417029857
1774472951832079600,5.09507958984375,-0.10060995347946881,1.8192986626863479,-1.0320780256599187
1774472951842092500,5.105092529296875,-0.14822481435239315,0.867404765331745,-0.48028293205499645
1774472951852106500,5.1151064453125,-0.2700555427759886,0.5440542702198028,0.1925502782911062
1774472951862119400,5.125119384765625,0.2072305455505848,-1.8779151023060083,7.5232713520407675
1774472951872133400,5.13513330078125,1.2928075216859578,-3.754927118292451,12.682532768571376
1774472951882146600,5.145146484375,2.369036823761463,-0.6719599346429109,4.517030849719047
1774472951892160500,5.155160400390625,0.5312608396202325,1.1976198855161666,3.548586215057969
1774472951902173400,5.16517333984375,-0.6650707596510649,1.8622826488882303,2.6339883213967084
1774472951912187600,5.175187744140625,-0.9671054950118064,2.23157247287631,-0.029127894806861877
1774472951922201600,5.18520166015625,-1.3592308356642722,1.5730121180325745,-0.031234511697292328
1774472951932214500,5.195214599609375,-1.8653312228038905,0.4028735291600227,-0.12092004331946372
1774472951942228500,5.205228515625,-2.1566598552331326,1.0700462295264006,-1.7877970244854688
1774472951952241400,5.215241455078125,-2.459320321276784,1.6575906819045543,-2.760960504361987
1774472951962255400,5.22525537109375,-2.055598358593881,1.5724468853652476,-2.2763000878751276
1774472951972268500,5.2352685546875,-0.06223112298548221,1.0855015728116035,-1.5047101507008074
1774472951982282800,5.24528271484375,0.7792766922846436,0.19510931512415408,-1.8293460094481706
1774472951992295400,5.25529541015625,0.025415011763572692,-1.2075994277387856,-2.6813667431652544
1774472952002309600,5.2653095703125,-2.6074261854246257,-0.924472221943736,-0.7662959224194288
1774472952012322300,5.275322265625,-1.6286401894912124,0.1569932272195816,0.7917804922878742
1774472952022336500,5.28533642578125,0.06674713910520076,0.7405874806672335,0.24032851303219793
1774472952032349700,5.295349609375,0.7933829590484499,0.92407299349308,-0.12906301776468754
1774472952042363600,5.30536376953125,1.0782637305125593,0.9704898767530917,0.10680910038053988
1774472952052376600,5.31537646484375,0.9432032258987426,0.8505430623799562,0.7311831079840659
1774472952062390500,5.325390625,0.33564971245378256,0.6970289094477892,1.0131506223499773
1774472952072403500,5.335403564453125,-0.2704839973211288,0.5665098476558923,0.7077320897698401
1774472952082417400,5.34541748046875,-0.1321250356838107,0.8578519240885972,-0.2703799524247646
1774472952092430600,5.3554306640625,-0.06491846237331629,0.5715197847723961,-0.8253869938135147
1774472952102444500,5.365444580078125,0.061872518806159495,0.7703823149502277,-0.48462826778292656
1774472952112457500,5.37545751953125,0.3763330204978585,1.1785165411174297,-0.257624515748024
1774472952122471700,5.3854716796875,0.9520528873085975,1.2013140638589859,-0.11837912666499614
1774472952132484400,5.395484375,1.458048937290907,1.1514672061502933,-0.48741293006539343
1774472952142498600,5.40549853515625,1.319334878605604,0.9491858074396848,-0.326922508379817
1774472952152511500,5.415511474609375,0.5277040239214897,1.0353285518884658,0.021996727752685546
1774472952162525400,5.425525390625,0.04876490769088268,1.3529121540367604,0.8916974950671196
1774472952172538600,5.43553857421875,-0.09786299285888671,1.6392717658817768,1.466014217081666
1774472952182552600,5.445552490234375,0.23162732018232343,1.5776730955809355,0.6549503476530313
1774472952192565500,5.4555654296875,-0.3447846205458045,0.0233189162671566,-0.06619359687566757
1774472952202579500,5.465579345703125,0.12218158768787979,-1.5789730722635984,-1.8296201502144336
1774472952212593700,5.47559375,0.4610458782739937,-3.1602012299776074,-2.508742816093564
1774472952222606300,5.4856064453125,0.22812793375924229,-8.053229876890779,-2.4996733744531867
1774472952232620500,5.49562060546875,1.3597802862405777,-5.532080583688616,-0.009654840312898158
1774472952242633500,5.505633544921875,1.6094903756022452,-1.8924696973592041,0.6317530119389295
1774472952252647700,5.515647705078125,-0.023535481627285477,-2.6956542117148636,-1.2726730806738138
1774472952262660600,5.52566064453125,-0.31695114946365355,-1.7240426374554634,0.18978607427477837
1774472952272674600,5.535674560546875,-0.24258535204827783,-1.2211901461958885,-0.3159720752984285
1774472952282687500,5.5456875,-0.16353066616430878,-0.9286515534549951,-0.43833004246652124
1774472952292701400,5.555701416015625,0.4346528152585029,-0.747080349817872,-0.15264467662125825
1774472952302714600,5.565714599609375,1.0646883557550608,-0.7720967176526784,0.11250234358608723
1774472952312728600,5.575728515625,1.1408411827176808,-0.8813970503270625,0.22246640086621045
1774472952322741500,5.585741455078125,0.6006197686590254,-0.8570102125674486,0.21318302421420812
1774472952332755500,5.59575537109375,0.028517069432139396,-0.6782973209708929,0.14465455465018748
1774472952342768400,5.605768310546875,0.014882511833310127,-0.3670832538545131,0.07565525270402432
1774472952352782600,5.615782470703125,0.219374133939296,-0.09621931730508804,0.014204758702218531
1774472952362795500,5.62579541015625,-0.04509001857042312,0.0729237819135189,-0.026264614330232142
1774472952372809700,5.635809814453125,-0.6114005442619324,0.17553952225744723,-0.05918225680887699
1774472952382823400,5.645823486328125,-0.6405336997658014,0.3044096477985382,-0.1290641868084669
1774472952392836600,5.655836669921875,-0.12006912557855248,0.34534196216762064,-0.028795886373519895
1774472952402850300,5.665850341796875,0.21745368727073072,0.33195757993757724,0.1644976115003228
1774472952412863200,5.67586328125,0.21696225049197673,0.36371582324802876,0.0724903589323163
1774472952422877200,5.685877197265625,0.282872938773036,0.3318973741829395,-0.006092763917148113
1774472952432890000,5.69589013671875,0.4217033173143863,0.24350071332752704,0.0023670213922858236
1774472952442904300,5.705904296875,0.362667190977931,0.34027766451537605,-0.04949994396716356
1774472952452917200,5.715917236328125,0.09966448932290077,0.35761049211025236,-0.08216390394568443
1774472952462931500,5.725931396484375,-0.28930267955958844,0.15741642106771467,0.14795885689258576
1774472952472944400,5.7359443359375,-0.6315075127452612,0.08737433207035064,0.2615530873686075
1774472952482958300,5.745958251953125,-0.5123556481420993,-0.0292313551813364,0.19380553904920816
1774472952492971300,5.75597119140625,-0.018121493754535912,0.05081716404557228,0.14816753120720386
1774472952502985200,5.765985107421875,0.1575420932739973,0.16858488081395626,-0.02168459306359291
1774472952512999400,5.77599951171875,-0.21392039857804773,0.54210138258636,-0.10953268012553453
1774472952523012400,5.786012451171875,-0.8822926839925348,0.8784142351239919,-0.12337035908102989
1774472952533026300,5.7960263671875,-0.7378144357573241,0.5514695149123668,0.14552169287353753
1774472952543039200,5.806039306640625,-0.3196586548566818,0.029707155999541282,0.13175824819803236
1774472952553053400,5.816053466796875,1.1459528997082262,-0.6473936486631632,0.16555705742537974
1774472952563066400,5.82606640625,0.8955190991818904,-0.8055991742819547,0.05643178905695676
1774472952573080300,5.836080322265625,0.02256787870414555,-1.0566653544276952,0.03675736677199602
1774472952583094300,5.84609423828125,-0.5976243862353265,-1.0298942518800496,0.3148573920547962
1774472952593107200,5.856107177734375,-0.9253214591842144,-0.7566600790679454,0.4121425850257277
1774472952603121400,5.866121337890625,-0.919546382914111,-0.5008908357977867,0.48578006816655395
1774472952613134300,5.87613427734375,-0.717926736047864,-0.35365561700463294,0.44584991657733913
1774472952623148300,5.886148193359375,-0.31708493191115555,-0.35501170778870583,0.2606628605306148
1774472952633161200,5.8961611328125,0.28515085710976273,-0.49513037257492537,0.14651158069372175
1774472952643175400,5.906175537109375,0.4910709411162883,-0.6378922453463077,0.19681290417164563
1774472952653188400,5.916188232421875,0.04283730774018913,-0.6073422087818384,0.3251519915759563
1774472952663202300,5.926202392578125,-0.6539981614947319,-0.31179099022150036,0.45394262214004993
1774472952673216300,5.93621630859375,-0.5641793588817119,-0.1393038412719965,0.46249841516986484
1774472952683229200,5.946229248046875,0.3441448613375425,-0.08088672361671924,0.6919649040564895
1774472952693243400,5.956243408203125,0.5879774369679391,0.17382628859877586,0.8038308494351804
1774472952703256300,5.96625634765625,0.14730594594180582,0.45304421199560163,0.6000108429804444
1774472952713270300,5.976270263671875,-0.4483206906050443,0.5120470205843448,0.6701314040414988
1774472952723283200,5.986283203125,-0.898874108698219,0.41518765181004996,0.6002731471784413
1774472952733297400,5.99629736328125,-1.3413000421762467,0.2045861685216427,0.5269345008537173
1774472952743311000,6.00631103515625,-1.9362872117757797,-0.04612228422760963,0.6487582150146365
1774472952753324300,6.01632421875,-0.7569400650531053,0.13155483458042144,0.7278510409519076
1774472952763338200,6.026338134765625,-0.4768354950148612,-0.07003565925657748,0.47358328828588125
1774472952773351200,6.03635107421875,-0.4768658901531249,-0.2867407201170921,0.6711858815304934
1774472952783365400,6.046365478515625,-0.823607782246545,0.042293665850162504,1.1928192072361707
1774472952793379300,6.05637939453125,-0.5351941604811697,0.5787105730593204,1.036050874813646
1774472952803392300,6.066392333984375,0.23383155222833155,0.8164952468276023,0.7361375155210494
1774472952813406200,6.07640625,0.25979133839309215,0.5776461586982011,0.56740460453853
1774472952823419400,6.08641943359375,-0.043112069560959934,0.2567524090886116,0.5406096827238798
1774472952833433300,6.096433349609375,0.02053250041902065,-0.009614800563454628,0.4445514011994004
1774472952843446300,6.1064462890625,0.05979892740249634,-0.4123246635943651,0.22296529029905796
1774472952853460200,6.116460205078125,0.11518478760309517,-0.7174217091351747,-0.06252382232174276
1774472952863474400,6.126474365234375,0.09968560517616569,-0.831078483453393,-0.3289047682382166
1774472952873487400,6.1364873046875,0.13736900075189767,-0.825807849574089,-0.53593730699867
1774472952883501300,6.146501220703125,0.49057117490060625,-0.7581944490283727,-0.5204302335262299
1774472952893514500,6.156514404296875,0.6704916887212544,-0.6657984894037247,-0.5944567159846424
1774472952903528200,6.166528076171875,0.594355374502018,-0.5610428144216537,-0.5663564106598497
1774472952913542100,6.176542236328125,0.5683557677835226,-0.44673312915265556,-0.40272009216397997
1774472952923555300,6.186555419921875,0.9701070879805832,-0.44324937869012354,-0.47002603419572114
1774472952933569300,6.1965693359375,1.53344042449221,-0.5230693498581648,-0.4892568043664097
1774472952943582200,6.206582275390625,1.2936071476310491,-0.552218871974945,-0.25110505085140467
1774472952953596400,6.216596435546875,1.1475748748868704,-0.6339291869342327,-0.23647183760404586
1774472952963609300,6.226609375,1.1435085022307931,-0.6165273857563733,-0.5456725190714001
1774472952973623300,6.236623291015625,1.1147061861164866,-0.47085459397435186,-0.6306538185253739
1774472952983637200,6.24663720703125,1.5957751539826392,-0.49277591840326784,-0.6186456930845976
1774472952993650200,6.256650146484375,1.988534700885415,-0.43790275696516034,-0.5914870525240897
1774472953003664100,6.2666640625,2.497116091185808,-0.4331991093188524,-0.6115025433316826
1774472953013677300,6.27667724609375,2.8264208185270427,-0.3756733875453472,-0.5227338342934846
1774472953023691300,6.286691162109375,2.4869994785800573,-0.2579407420903444,-0.4779518587589264
1774472953033705200,6.296705322265625,2.1137541949644683,-0.07151333059370517,-0.6211313724204898
1774472953043718400,6.306718505859375,1.7762138464584944,0.04007189814746379,-0.6602988690741359
1774472953053732400,6.316732421875,1.0590484501719475,0.17411036623716353,-0.07135200255215167
1774472953063745300,6.326745361328125,0.1437561445057392,0.4670183768123388,0.10450973739698528
1774472953073759200,6.33675927734375,-0.7620259900152683,0.5990700549989938,-0.3359729530587792
1774472953083773400,6.3467734375,-1.131249470768869,0.15411328786909578,-0.4306830348446965
1774472953093786000,6.3567861328125,-1.542087987458706,-0.2305751807808876,-0.13432356864139436
1774472953103800300,6.36680029296875,-2.1452122862845657,-0.12401567124724387,-0.46432431542277336
1774472953113813200,6.376813232421875,-5.6925470399767155,1.1316431462615728,-1.3160755845487118
1774472953123827200,6.3868271484375,-6.651137804621458,2.0295769053697583,-2.110221490793675
1774472953133841200,6.396841064453125,-1.523046017858386,0.20010814632475374,-1.71457455188632
1774472953143854300,6.406854248046875,1.6890806296676397,-1.0504881270974873,-0.9309699133999645
1774472953153868300,6.416868408203125,1.3207698798447847,-0.9512409864038228,-0.19538740141317248
1774472953163881200,6.426881103515625,-0.0589595539689064,-0.5650105490088463,-0.2895657144099474
1774472953173895400,6.4368955078125,-0.6555401302397251,-0.32928280777037144,-0.11945201659351587
1774472953183908400,6.446908447265625,-1.2223965993762016,-0.022232874596118925,0.059518649156391615
1774472953193922300,6.45692236328125,-0.9722492876410483,0.2892518261551857,-0.03259031022042036
1774472953203936300,6.466936279296875,-0.56159051143229,0.1802811638265848,0.05451864891201257
1774472953213949200,6.47694921875,-0.41345980510413644,0.21877368382811546,-0.019327362412959338
1774472953223963100,6.486963134765625,-0.2642272750139236,0.29340134705007076,-0.08384045885577797
1774472953233976300,6.496976318359375,-0.25638942099511625,-0.04381225371956825,-0.07130640984475613
1774472953243990300,6.506990234375,-0.22475684989094732,-0.3491010224401951,-0.40290830821245904
1774472953254004200,6.517004150390625,0.014268763849139212,-0.3091495358020067,-0.5239249437741935
1774472953264017400,6.527017333984375,0.12573065847158432,-0.08604980546832085,-0.45303617481961844
1774472953274031000,6.537031005859375,0.3614174831777811,-0.041675241690874096,-0.5798387003064155
1774472953284044300,6.547044189453125,1.2370488095849752,-0.008444587740302085,-1.844450055077672
1774472953294058200,6.557058349609375,0.5792500867635011,-0.08910743947327136,-1.0664674942567944
1774472953304072400,6.567072509765625,-0.008562076640129089,-0.22644611815214155,-0.09491656414344907
1774472953314085000,6.577085205078125,-0.19659633881151675,-0.3308703692227602,0.2327510635152459
1774472953324099300,6.587099365234375,-0.20395371583700178,-0.40817046652436256,0.09400909390971064
1774472953334112300,6.5971123046875,-0.35825112810134885,-0.1756932515144348,0.33298736137673257
1774472953344126200,6.607126220703125,-0.5648275936573743,0.499912930676341,1.1727204220592975
1774472953354140200,6.61714013671875,-0.42816462228298185,1.2427701098412274,2.4102533618994055
1774472953364153300,6.6271533203125,-0.5932528931528329,-0.2672574364900589,0.5630624836809933
1774472953374167300,6.637167236328125,-0.3521452124416828,-0.6480781237959862,0.4460345524292439
1774472953384180200,6.64718017578125,-0.155987265047431,-0.06909516353607177,0.8890954228099435
1774472953394194400,6.6571943359375,-0.03237900555729866,-0.19581074139177798,0.4810101503510028
1774472953404208400,6.66720849609375,0.046830140236020085,-0.16310732618570326,0.22094079873412847
1774472953414221600,6.6772216796875,-0.12932020739614963,0.06370294910371303,0.21233543094154447
1774472953424235500,6.687235595703125,-0.42744098418354987,0.23599194513261318,0.32325642362032087
1774472953434248400,6.69724853515625,-0.7706628854572772,0.30168109961748124,0.41488337163385003
1774472953444262400,6.707262451171875,-0.9365291549623012,0.37002865965664383,0.3892488719007
1774472953454275600,6.717275634765625,-0.973941478511691,0.48016661219894885,0.43465285179112106
1774472953466792700,6.729792724609375,-0.8155395535379648,0.6879243964940309,0.631184783596918
1774472953476806700,6.739806640625,-0.5420096126496792,0.8852993184626102,0.366505453966558
1774472953486819600,6.749819580078125,-0.4958616094589233,0.6442799005568027,-0.8607746066022663
1774472953496833500,6.75983349609375,-0.994971407058835,0.7318564772009849,-1.6962942143082618
1774472953506846500,6.769846435546875,0.2326087324351072,0.43840778387784957,-1.1467862817924468
1774472953516860400,6.7798603515625,0.3295937734156847,0.08092179493010043,-0.4810148995913565
1774472953526874600,6.78987451171875,0.30401918717622756,-0.033387305817008016,-0.11827537402957677
1774472953536887600,6.799887451171875,0.693944387435913,0.06234276666641235,-0.0335242300696671
1774472953546901500,6.809901611328125,0.8839327062845229,0.12280921806693076,-0.017283727756142616
1774472953556914700,6.819914794921875,1.087792898619175,0.16830138769745825,-0.04194923632666468
1774472953566928600,6.8299287109375,0.9382371279239654,0.29496552762687206,-0.2798819402635097
1774472953576942300,6.8399423828125,0.5939256778478622,0.4802244798660278,-0.6292451207712292
1774472953586955500,6.84995556640625,0.49517070458531376,0.6077092885285615,-0.5822527757108211
1774472953596969700,6.8599697265625,0.24252806890308856,0.6095663145720959,-0.36186098916158077
1774472953606982400,6.869982421875,0.2889969746112823,0.5008563490062952,-0.23692937211319803
1774472953616996600,6.87999658203125,0.4107084605693817,0.5455687664359807,-0.41244945901781316
1774472953627010600,6.890010498046875,1.3254162443459032,1.24034083686769,-1.61240947791934
1774472953637023500,6.9000234375,2.2013269722163677,1.902617581886053,-2.248212934292853
1774472953647037400,6.910037353515625,0.4582464568138122,1.2259645209908485,-0.8187005017869174
1774472953657050600,6.920050537109375,-0.3071890493839979,1.0530740519374608,-0.462996135558933
1774472953667064300,6.930064208984375,-0.3961544500380754,0.9701578683197498,-0.16799363692253827
1774472953677078500,6.94007861328125,-0.48436172580122944,0.9010586131304502,0.05563844672217965
1774472953687091700,6.950091796875,-0.1140104100614786,0.8333785770893096,-0.07559051690474151
1774472953697105700,6.960105712890625,-0.0019102175354957578,0.5581231275826692,-0.12163856685236096
1774472953707118600,6.97011865234375,-0.13238777827322482,0.400181805858016,0.038218671496212483
1774472953717132500,6.980132568359375,-0.19383505740463733,0.42480186785161494,0.318162571080029
1774472953727145500,6.9901455078125,-0.16726444586515427,0.3086772421151399,0.3707463064067065
1774472953737159400,7.000159423828125,0.06458499263525008,0.26457506553828714,0.08879325895756482
1774472953747173600,7.010173583984375,0.22570845152735708,0.2403384499043226,-0.11880787347108125
1774472953757186300,7.020186279296875,0.12564531827569006,0.27899171342551704,-0.2991080342590809
1774472953767200500,7.030200439453125,-0.20635493175983427,0.2311848371118307,-0.22576617306396363
1774472953777213700,7.040213623046875,-0.5832160677850247,0.010051438415050505,0.01817176263704896
1774472953787227600,7.0502275390625,-0.5722077670365572,-0.18509820871949195,0.22521204631254077
1774472953797241300,7.060241455078125,-0.5253039770424366,-0.22181904287338255,0.1645981492653489
1774472953807254500,7.070254638671875,-0.20173370169997215,-0.20424363869428633,-0.09242869285047053
1774472953817268700,7.080268798828125,0.45881168948113915,-0.15759586928784847,-0.43286797766834495
1774472953827281400,7.090281494140625,0.07296352940201759,-0.22232582335174084,-0.6481158254578709
1774472953837295600,7.100295654296875,-0.0702700525343418,-0.10606617305874824,-0.7821333968900144
1774472953847309600,7.1103095703125,0.13749182341396807,0.017084990313649177,-0.6981232805557549
1774472953857322500,7.120322509765625,-0.16077800645530224,0.011291209343075752,-0.7291403501100838
1774472953867336400,7.13033642578125,-0.4379232152312994,-0.04997311443686485,-0.7453790988579392
1774472953877349600,7.140349609375,-0.5372919364780188,-0.04450374311506748,-0.5728869814723729
1774472953887363300,7.15036328125,-0.34980654036104675,-0.02567687757015228,-0.4313961515501141
1774472953897377500,7.16037744140625,-0.17313772181272505,-0.07483399944901466,-0.40678777999430893
1774472953907390700,7.170390625,-0.08530629362463951,-0.08212941715419292,-0.4622006012670696
1774472953917404400,7.180404296875,-0.06177110425829887,-0.07404840202927589,-0.46028687660023565
1774472953927417600,7.19041748046875,-0.07695639843046664,-0.037787002080678936,-0.3979170757964253
1774472953937431600,7.200431640625,-0.07268997315764426,0.019960838010907173,-0.3346272375382483
1774472953947445500,7.210445556640625,-0.09155424810349941,0.09001403292417526,-0.3800295369282365
1774472953957458400,7.22045849609375,-0.08194353919327259,0.22101240266561506,-0.4692677631743252
1774472953967472600,7.23047265625,0.011496961048245428,0.22072657146155833,-0.5716985023401677
1774472953977485300,7.2404853515625,0.09472118770182132,0.17798633088767526,-0.6646363137565553
1774472953987499500,7.25049951171875,0.01179974338710308,0.03960954133272171,-0.6260011704139411
1774472953997512700,7.2605126953125,0.010717793369293212,-0.07716156561374664,-0.46945422565713524
1774472954007526700,7.270526611328125,-0.06232581553161144,-0.03585223462581634,-0.4609957555219531
1774472954017540400,7.280540283203125,-0.11731938847899437,0.05006897602677345,-0.5073334360659122
1774472954027553500,7.290553466796875,-0.09641454761624335,0.1650017616301775,-0.44980464555248617
1774472954037567500,7.3005673828125,-0.17974632629752157,0.3084200524836778,-0.42844826152995225
1774472954047580400,7.310580322265625,-0.2456108373492956,0.38140462467372416,-0.4073020131267607
1774472954057594600,7.3205947265625,-0.2652782453715801,0.4042985935270786,-0.1850114072188735
1774472954067608600,7.330608642578125,-0.32637013519406316,0.394469273430109,0.014203151267021893
1774472954077621500,7.34062158203125,-0.36923078727722164,0.3273123844802379,0.06557312688976526
1774472954087635500,7.350635498046875,-0.31896307380795474,0.2543395027279854,0.037932694161683315
1774472954097648600,7.360648681640625,-0.25002280857264997,0.19009879348576067,-0.06904241043552756
1774472954107662300,7.370662353515625,-0.20820728162825106,0.10509060602486132,-0.06709697545617818
1774472954117676500,7.380676513671875,-0.20612346109151838,-0.0894850406140089,-0.04618497420027852
1774472954127689500,7.390689453125,-0.0804617762029171,-0.21048750151991844,0.02793152462914586
1774472954137703400,7.400703369140625,0.0689805972456932,-0.27836101430654525,-0.005651888281852007
1774472954147716600,7.410716552734375,0.054635845550894735,-0.2803255923777819,-0.13309212715029717
1774472954157730600,7.42073046875,0.13345453072190283,-0.2768605466157198,-0.15425737251490354
1774472954167744500,7.43074462890625,0.17052900061905382,-0.2734685660898685,-0.182152364525944
1774472954177757400,7.44075732421875,0.05192892467975616,-0.17790391330122945,-0.27074191760495303
1774472954187771600,7.450771728515625,-0.03360883961319923,-0.06025660804212093,-0.3554639816008508
1774472954197784300,7.460784423828125,-0.01089431897997856,0.024018004447221755,-0.3448438033871353
1774472954207798500,7.470798583984375,0.024124387431144714,0.05886544594466686,-0.2539014035716653
1774472954217812500,7.4808125,0.07138298221230506,0.10840776774883269,-0.21052549544274807
1774472954227825700,7.49082568359375,0.06465747334957123,0.23741584045588968,-0.18675547440722584
1774472954237839400,7.50083935546875,0.0020154314756393433,0.2343482695788145,-0.0908224266976118
1774472954247852500,7.5108525390625,-0.008116670960187911,0.13346797472536562,-0.06338043915107845
1774472954257866500,7.520866455078125,0.1261848319798708,0.06311959625780582,-0.12700959236621856
1774472954267880400,7.53088037109375,0.24030162502527236,0.005157236632704735,-0.1787932633563876
1774472954277893600,7.5408935546875,0.18684008395075796,0.03628945699930191,-0.10674889462590217
1774472954287907600,7.550907470703125,0.04076864823997021,0.023299042522907255,0.02183466905876994
1774472954297920500,7.56092041015625,-0.03637187458574772,0.04674070838689804,0.158570267277956
1774472954307934500,7.5709345703125,-0.07100421202778816,0.10445523073077201,0.2010442581310868
1774472954317948700,7.58094873046875,-0.04018237278461456,0.20222060843408107,0.26294322655275465
1774472954327961300,7.59096142578125,5.845218896865844e-7,0.3506365614444017,0.2748321095280349
1774472954337975600,7.6009755859375,-0.053534021788835526,0.4631482573807239,0.2180659739501774
1774472954347989500,7.610989501953125,-0.07732756983041762,0.525920647636056,0.09940510773435235
1774472954358002400,7.62100244140625,0.10255962624251842,0.5594511613160371,-0.08685951441600918
1774472954368016400,7.631016357421875,0.05836918686032295,0.5479430943518877,-0.1292816289514303
1774472954378029600,7.641029541015625,-0.048963645133376116,0.6529524518340826,-0.1588862013593316
1774472954388043500,7.65104345703125,-0.23220716589689253,0.475574608233571,0.14876564323082567
1774472954398057500,7.661057373046875,-0.19141689034700393,0.15112228935956953,0.21543986323028802
1774472954408070700,7.671070556640625,0.1938362264484167,-0.018134791627526282,0.12999080013409256
1774472954418084600,7.681084716796875,0.3363596142888069,-0.18193126912117003,0.3415785179808736
1774472954428098600,7.6910986328125,0.3902735753059387,-0.12656243312060833,-0.11771014136224985
1774472954438111500,7.701111572265625,0.28345921422839165,0.08871464076340198,-0.4094150597579777
1774472954448125700,7.711125732421875,0.05210545029044151,0.17100713952481747,-0.19575944959595798
1774472954458138600,7.721138671875,-0.0949789618551731,0.007002572238445281,-0.04105053392127156
1774472954468152800,7.73115283203125,-0.2173912895590067,-0.05305296027362346,0.036697599408775566
1774472954478166500,7.74116650390625,-0.32285482054948805,0.09645955580174922,-0.052120355598628515
1774472954488179700,7.7511796875,-0.322599384483695,0.17469722621440886,-0.12012947746366262
1774472954498193700,7.761193603515625,-0.2596118901729584,0.1234872634589672,-0.09679317167028784
1774472954508207600,7.77120751953125,-0.2491664840042591,-0.00969488006234169,-0.09166092334836722
1774472954518220500,7.781220458984375,-0.1957014357984066,-0.06299509309530257,-0.0836550192862749
1774472954528234800,7.79123486328125,-0.11233809293508529,-0.12572072159945963,-0.05801759694367647
1774472954538247700,7.80124755859375,-0.03739946406781673,-0.06275953077375888,-0.16904168467074632
1774472954548261600,7.81126171875,-0.01794482201337814,0.037326983353495595,-0.24411869909539818
1774472954558275600,7.821275634765625,-0.05661386762559414,0.11191373004317283,-0.24560703795701264
1774472954568288500,7.83128857421875,-0.12298691272139549,0.17350713964700698,-0.16932678522244093
1774472954578302700,7.841302734375,-0.26241058098077774,0.14320552488565444,-0.06603738340064882
1774472954588316700,7.851316650390625,-0.3403676808863878,0.04036766622364521,0.03503872628584504
1774472954598329600,7.86132958984375,-0.3173579766988754,-0.011873977667093276,0.0480548597253859
1774472954608343600,7.871343505859375,-0.20783669475018976,-0.05648936446309089,-0.05853343751132488
1774472954618356700,7.881356689453125,-0.08498539110720157,-0.07262626027166844,-0.2420503683887422
1774472954628370700,7.89137060546875,-0.01023380924463272,0.0011567688196897506,-0.26143530620783567
1774472954638384600,7.901384521484375,-0.07423486451208591,0.02536766549050808,-0.1955389387130737
1774472954648397600,7.9113974609375,-0.0978068787574768,-0.03776946642398834,-0.16351254598572848
1774472954658411800,7.921411865234375,-0.045021044987440105,-0.04101531647741794,-0.18447803099453447
1774472954668425500,7.931425537109375,-0.004299743020534515,0.02326923190653324,-0.07785480857491493
1774472954678438700,7.941438720703125,-0.08830898257195949,0.10473054054081439,-0.007668634931743144
1774472954688452600,7.95145263671875,-0.19402151988744734,0.10583002621531486,-0.039958939292281864
1774472954698466600,7.961466552734375,-0.22288170366883275,0.03287701820731163,-0.02158873147368431
1774472954708479700,7.971479736328125,-0.09031389265358447,-0.009846271231770514,0.006908025822788476
1774472954718493700,7.98149365234375,0.04916179805397987,0.07544131769239902,-0.056389995741844175
1774472954728507600,7.991507568359375,0.013543956705927849,0.1364104579180479,-0.09720701316818595
1774472954738520600,8.0015205078125,-0.0871451994895935,0.12281389424204826,-0.09424626366645097
1774472954748534800,8.01153466796875,-0.126611532959342,0.10106208116114139,-0.12127850136831402
1774472954758548700,8.021548828125,-0.12238953135013579,0.13755319821238518,-0.09585033786222338
1774472954768561700,8.031561767578125,-0.11916706217229366,0.17457213853001594,0.02151420493274927
1774472954778575600,8.04157568359375,-0.061544309765100474,0.11375906564891337,-0.001424187584221363
1774472954788588800,8.0515888671875,0.07462824774384498,0.0700391663879156,-0.07597396326437592
1774472954798602500,8.0616025390625,0.07788754180073737,0.14724515566527843,-0.05918050324320793
1774472954808616700,8.07161669921875,0.03601706979870796,0.1914361795693636,-0.010315788439661263
1774472954818629600,8.081629638671876,-0.06396306134462357,0.13061726146936417,-0.012619096945971249
1774472954828643600,8.0916435546875,-0.11926818445920943,0.04844342065155506,-0.07027195223048328
1774472954838657500,8.101657470703126,-0.1153571484953165,-0.0008136544704437256,-0.17507175861522553
1774472954848670700,8.111670654296875,-0.10104454550445079,-0.06672901892662048,-0.23404738693609833
1774472954858684400,8.121684326171875,-0.04193184680044651,-0.13030746486783026,-0.18823826031088828
1774472954868698600,8.13169873046875,-0.0051198272317647935,-0.13645721966922283,-0.13942308373749254
1774472954878711800,8.1417119140625,-0.024003975921869276,-0.10776830080151557,-0.14599690916985272
1774472954888725800,8.151725830078124,-0.02114332579374313,-0.05653729525804519,-0.12047887542322278
1774472954898739500,8.161739501953125,-0.06638765814304351,-0.030891981869935987,-0.0830203746445477
1774472954908752600,8.171752685546876,-0.12179624163210391,-0.032711598512530325,-0.06537351266443729
1774472954918766800,8.181766845703125,-0.14933657498657701,0.029240707531571385,-0.08186360582485795
1774472954928780500,8.191780517578126,-0.12875672829449175,0.10502864670455456,-0.11833484913185238
1774472954938793700,8.201793701171875,-0.06108312199413776,0.07573240959346295,-0.16987345931977033
1774472954948807700,8.2118076171875,0.03677227208018303,-0.026833646389842033,-0.271158827842772
1774472954958822000,8.22182177734375,0.03531681257486343,-0.09149404234886169,-0.29382994772568344
1774472954968834600,8.23183447265625,0.05048340204656124,-0.13323591953516006,-0.2898581214852631
1774472954978848800,8.241848876953124,0.030761048966646193,-0.1943108582228422,-0.2675776083551347
1774472954988862700,8.25186279296875,-0.03277706496417522,-0.22658464983999727,-0.16313085319176315
1774472954998875600,8.261875732421874,-0.07719780597090721,-0.2757464478939772,-0.11275851030424236
1774472955008889600,8.2718896484375,-0.17469722621440886,-0.20055939722359178,-0.09518807456120848
1774472955018903800,8.28190380859375,-0.2171113035738468,-0.0629109219431877,0.05438493952974677
1774472955028917500,8.29191748046875,-0.33559915131032464,-0.17154665322899817,0.1900894411355257
1774472955038930700,8.3019306640625,-0.3414315107256174,-0.26293665068149563,0.13015563530698418
1774472955048944600,8.311944580078125,-0.3132715841680765,-0.24714754539728162,0.16193477527499198
1774472955058958800,8.321958740234376,-0.21577450201213358,-0.16342179896235465,0.11177607513815165
1774472955068971500,8.331971435546874,-0.08415361645817757,-0.17645955971181393,0.0031703005991876123
1774472955078985700,8.34198583984375,0.013715221619606017,-0.2104623670786619,-0.040797143682092425
1774472955088999700,8.351999755859374,0.058819268715381616,-0.13384674490988255,-0.03758928755149245
1774472955099012600,8.3620126953125,0.05293196424245834,-0.03818272339999675,-0.03981821564733982
1774472955109026600,8.372026611328126,0.1804424918681383,0.10078034161031246,-0.14411182607561349
1774472955119040800,8.382040771484375,0.10391220989525317,0.21210019741356373,-0.11825067797973751
1774472955129053700,8.3920537109375,-0.028913959795236584,0.22514731051325795,-0.0753162300080061
1774472955139067600,8.402067626953125,-0.14974866291880606,0.24083704707622527,-0.06158814890682697
1774472955149081600,8.41208154296875,-0.16618483393490313,0.2656400644212961,-0.029396774876117703
1774472955159094500,8.422094482421874,-0.10852350308299064,0.321737799218297,0.01647007328569889
1774472955169108700,8.432108642578125,0.021612112349271774,0.3713689683496952,0.04364011202305555
1774472955179122700,8.442122802734374,0.13268997609019278,0.32780338286757466,0.03585121171250939
1774472955189136600,8.45213671875,0.15919979735314846,0.19647300469279289,0.009558978722989558
1774472955199149600,8.462149658203124,0.24817922653257846,-0.0000415010541677475,0.06906783713772892
1774472955209163800,8.472163818359375,0.2890893290698528,-0.09379530502855778,0.13930150318443774
1774472955219177700,8.482177734375,0.296371887293458,-0.0842085615158081,0.18858239757344125
1774472955229190700,8.492190673828125,0.174808869895339,-0.12947218308746813,0.3078337770283222
1774472955239204600,8.50220458984375,-0.02205050376653671,-0.2484861005246639,0.43159766547158357
1774472955249218800,8.51221875,-0.11134206763505936,-0.29438626643419263,0.5052509307034313
1774472955259231500,8.5222314453125,-0.14730653046369552,-0.20806407376527786,0.6041456046976149
1774472955269245700,8.53224560546875,-0.17502455847263335,-0.053718146184086796,0.6708848527573049
1774472955279259600,8.542259765625,-0.25480127502083777,0.04488485138714313,0.6514043456092476
1774472955289273900,8.55227392578125,-0.33004443979263304,0.08405015608370303,0.6142869133532047
1774472955299286500,8.56228662109375,-0.37489129725694653,0.10535597896277904,0.5857169446900486
1774472955309300700,8.57230078125,-0.25062369707524773,0.11380115122497081,0.4935863580033183
1774472955319314700,8.582314697265625,-0.18854805691242216,0.10917349142432212,0.41873920681178567
1774472955329327600,8.59232763671875,-0.19654080923199652,0.13493804727792738,0.4165256224155426
1774472955339341600,8.602341552734375,-0.22266426152586935,0.1465530817478895,0.36746056273430583
1774472955349355800,8.612355712890626,-0.32416064245104786,0.14148527696430682,0.2863134346157312
1774472955359369700,8.62236962890625,-0.43680385581254955,0.13796236353516578,0.18436171113848684
1774472955369382700,8.632382568359375,-0.46154900549054145,0.15700082600414753,0.09576806640624999
1774472955379396600,8.642396728515624,-0.44765959634780883,0.21870704833269117,0.023631343217194078
1774472955389410800,8.652410888671875,-0.4165671234697103,0.2359942832201719,-0.11482523357570171
1774472955399423500,8.662423583984374,-0.40447570365965363,0.2364128008931875,-0.1709925264775753
1774472955409437700,8.672437744140625,-0.3636345747053623,0.21206337253451346,-0.2159481050133705
1774472955419451600,8.68245166015625,-0.3318231399029493,0.2221007824242115,-0.2711705182805657
1774472955429465900,8.6924658203125,-0.27731881177723405,0.26972879503965375,-0.3633671559408307
1774472955439478500,8.702478515625,-0.217019533637166,0.21209435219466685,-0.4926230659291148
1774472955449492700,8.71249267578125,-0.155772745513916,0.19548983887434004,-0.5562646402344107
1774472955459506700,8.722506591796876,-0.10189502485394478,0.2625596340626478,-0.6290344006299973
1774472955469519600,8.73251953125,0.03737725223600864,0.23439269324243067,-0.7438505741164088
1774472955479533600,8.742533447265625,0.10946809045672416,0.21490999413728712,-0.9161673349350691
1774472955489547800,8.7525478515625,0.20466858610808847,0.1684469336479902,-1.0102668836072086
1774472955499561500,8.7625615234375,0.2262263379216194,0.12551964606940746,-1.0272820235550404
1774472955509574700,8.77257470703125,0.2628337748289108,0.20228490584194658,-0.9940215589880943
1774472955519588600,8.782588623046875,0.33489304886758325,0.39865386563837524,-0.972371160455048
1774472955529602800,8.792602783203124,0.31004560785889623,0.5160369670033454,-0.9881184724241494
1774472955539615700,8.80261572265625,0.18382979621887205,0.5085913271725178,-0.9783265617281198
1774472955549629700,8.812629638671876,0.09522972174584865,0.4968628954559564,-0.9140013890728353
1774472955559643600,8.8226435546875,0.0744879624903202,0.5052665666639805,-0.7970894123509525
1774472955569657600,8.83265771484375,0.0902256298482418,0.5381675502687693,-0.7019324635803699
1774472955579670800,8.8426708984375,0.14310849425196648,0.516384757527709,-0.6250491303861141
1774472955589684700,8.852684814453125,0.16077333028018473,0.5257926373422146,-0.49011546702235936
1774472955599698400,8.862698486328124,0.146753572756052,0.5220329925477505,-0.38996260966062546
1774472955609711600,8.872711669921875,0.10833645607829093,0.5191682507663965,-0.4571835037574172
1774472955619725800,8.882725830078124,0.1751484771132469,0.45402737781405444,-0.5484238636061549
1774472955629739800,8.89273974609375,0.28135376638174053,0.3010252660572529,-0.5752028571993112
1774472955639753500,8.90275341796875,0.20802958697378635,0.22890461722016334,-0.5492974315702915
1774472955649766700,8.9127666015625,0.0036070845812559127,0.2512058808773756,-0.45418578324615955
1774472955659780900,8.92278076171875,-0.08453238664269447,0.3374047394275665,-0.3304033362329006
1774472955669794600,8.932794677734375,-0.1472726281940937,0.41176176901459693,-0.32510143043249845
1774472955679808500,8.94280859375,-0.12231003637313842,0.4069306955963373,-0.3239838245794177
1774472955689821700,8.95282177734375,-0.08842471790611743,0.31736323739588257,-0.335339331330359
1774472955699835600,8.962835693359375,-0.05846446392834186,0.22581541903316973,-0.3754141520872712
1774472955709849600,8.972849609375,0.07560556834340094,0.17998714931607246,-0.37555443734079597
1774472955719862800,8.98286279296875,0.18365093252062797,0.19420096810758114,-0.3227580821767449
1774472955729876700,8.992876708984374,0.20795067651867866,0.17256781297028065,-0.2695779883921146
1774472955739890700,9.002890625,0.22865268828570842,0.17890169216692448,-0.3421814523100853
1774472955749904600,9.012904541015626,0.19454817411005496,0.09329904594421386,-0.34324703571498394
1774472955759917800,9.022917724609375,-0.026872224834561347,0.07323240947127342,-0.3338055458918214
1774472955769931500,9.032931640625,-0.01796235767006874,0.1421440331339836,-0.24117665429413318
1774472955779945700,9.04294580078125,-0.07841536506712436,0.09853343946635723,0.03566547988206148
1774472955789958700,9.052958740234375,-0.03568973754048347,0.07190963643491267,0.10591361284554004
1774472955799972900,9.062972900390625,-0.23589140736758707,0.0742401252090931,0.10238573098033665
1774472955809986600,9.072986572265625,-0.1774281124830246,0.1115618478655815,-0.023024901756644248
1774472955820000800,9.083000732421874,-0.18376491428911684,0.009961422044038772,0.12335282342433929
1774472955830013700,9.093013671875,0.10252864658236503,-0.06874854205548762,0.32485797706544395
1774472955840027600,9.103027587890624,0.11140461147725582,-0.12867957140505312,0.24108751470595596
1774472955850041600,9.11304150390625,0.05062427182197571,-0.10293021312057972,0.10818740299642085
1774472955860055800,9.123055908203124,-0.015616086804866789,-0.024757424637675284,0.14674159005731344
1774472955870068500,9.133068359375,-0.07543839508295058,-0.010216858109831809,0.22707506370544434
1774472955880082700,9.143082763671876,-0.05316986465156078,-0.035680385190248486,0.2536778239488601
1774472955890096600,9.1530966796875,0.0002034136176109314,-0.00923603037893772,0.22306787389069793
1774472955900109800,9.16310986328125,0.01907762543559074,0.02008475665152073,0.25373043091893194
1774472955910123500,9.17312353515625,0.03515197740197182,0.04005202440321445,0.27194851691573857
1774472955920137700,9.1831376953125,-0.0348912806391716,0.06880290259122848,0.207813898396492
1774472955930151700,9.193151611328124,-0.13582885863780975,0.06577917085587978,0.179490013448894
1774472955940164600,9.20316455078125,-0.08928630317151547,-0.009234861335158348,0.24610446608513592
1774472955950178600,9.213178466796874,-0.19178280104994772,-0.04012216702997684,0.19361089325994252
1774472955960192800,9.22319287109375,-0.11239946773350239,-0.03191314161121845,0.22394027281105516
1774472955970206700,9.233206787109374,-0.0553998156607151,-0.05575578949153423,0.2411816227301955
1774472955980219600,9.2432197265625,-0.22265257108807562,-0.12610241439342498,0.179352066282928
1774472955990233600,9.253233642578126,-0.2798614819973707,-0.11049100376367568,0.049180210493504996
1774472956000247800,9.263247802734375,-0.25113632277250286,-0.17582944511473178,0.034331016407907006
1774472956010260500,9.273260498046875,-0.1991127055466175,-0.2616413501739502,0.012308861953020096
1774472956020274700,9.283274658203124,-0.1846557256489992,-0.31429157486557957,-0.052231999279558655
1774472956030288600,9.29328857421875,-0.09582184242010117,-0.37631051640510554,-0.05700841990113258
1774472956040302800,9.303302734375,-0.04247837476730346,-0.42044834881722926,-0.007043196509778499
1774472956050315500,9.3133154296875,-0.006284779357910156,-0.38577860197424885,0.006924538566172122
1774472956060329700,9.323329833984374,-0.042910920965671534,-0.3387771968245506,0.042459670066833495
1774472956070343700,9.33334375,-0.10537526818513869,-0.2762555664598942,0.06994242801517248
1774472956080357600,9.343357666015624,-0.1278881287664175,-0.24090309804975985,0.07018237425088882
1774472956090370600,9.35337060546875,-0.05221826301515102,-0.18031448157429694,0.06679506990015506
1774472956100384800,9.363384765625,-0.024437106642127036,-0.1257575464785099,0.06354775854200125
1774472956110398700,9.373398681640625,-0.04768997193574905,-0.04978548291027546,0.027935470151901242
1774472956120411600,9.38341162109375,-0.029317864421010014,0.03479775713682175,0.017319968113303184
1774472956130425600,9.393425537109374,-0.04878185882568359,0.0391349095582962,-0.05221534040570259
1774472956140439800,9.403439697265625,0.02036123550534248,0.03320902664065361,-0.11778583694696426
1774472956150453500,9.41345361328125,0.13362287302613257,0.04822714755237102,-0.12483195606619119
1774472956160466700,9.423466796875,0.19148469488620756,0.07476444134414195,-0.14760434436649084
1774472956170480600,9.433480712890624,0.1820019962698221,0.05033317992091178,-0.16645459078699348
1774472956180494600,9.44349462890625,0.16119360151886938,0.05631985311508178,-0.15449965683817862
1774472956190508500,9.453508544921876,0.08813362600505352,0.08724515273272991,-0.12160188810378313
1774472956200521700,9.463521728515625,0.032556115689873696,0.12616846536695955,-0.0769169432029128
1774472956210535700,9.47353564453125,-0.007287818920612334,0.14795534976124763,-0.05598316850662231
1774472956220549600,9.483549560546875,-0.0011135141998529433,0.15747779586613178,-0.04612169970571994
1774472956230562600,9.4935625,0.012707505881786346,0.17164309934079647,-0.06850538094937801
1774472956240576800,9.50357666015625,0.03649287061691284,0.18818156168758868,-0.020133564229309557
1774472956250590500,9.513590576171875,-0.007331658062338829,0.1460954011082649,0.05098141469657421
1774472956260604700,9.523604736328124,-0.07093933009803295,0.13462240545749662,0.09485328964889049
1774472956270617600,9.53361767578125,-0.12333353420197964,0.12275602657496928,0.11277268496006726
1774472956280631600,9.543631591796874,-0.14722645096480846,0.10386252553462981,0.14574673380106687
1774472956290645500,9.5536455078125,-0.1386842480689287,0.11548749687671661,0.12739011611640452
1774472956300659700,9.56365966796875,-0.10640636479854583,0.16254501612782477,0.0693991149187088
1774472956310672600,9.573672607421875,-0.0472433972120285,0.19695698881745338,0.05046352830231189
1774472956320686600,9.5836865234375,-0.02729951033592224,0.2182137118577957,0.08144085036814212
1774472956330700500,9.593700439453125,-0.005964461362361908,0.2420645430445671,0.12210720727741718
1774472956340713700,9.603713623046875,-0.03220832516551018,0.2815957584440708,0.16542524773925543
1774472956350727700,9.613727783203124,-0.06544014815986156,0.3392436452925205,0.20421791973114012
1774472956360741600,9.62374169921875,-0.12843757934272287,0.3607663257926702,0.17937252454906702
1774472956370755600,9.633755615234374,-0.15267361045479774,0.3957967226415872,0.13585662342756985
1774472956380768500,9.6437685546875,-0.1879278791874647,0.3296311828166246,0.11806757649779319
1774472956390782700,9.65378271484375,-0.19448329218029975,0.21407295879125593,0.0679828183799982
1774472956400796700,9.663796630859375,-0.13814239627718924,0.10052549006640911,0.01127951890528202
1774472956410809900,9.673809814453126,-0.0969832874149084,-0.046939445829391475,-0.07803396453410387
1774472956420822500,9.683822509765625,-0.021625556352734564,-0.08888649019896984,-0.16465835501998663
1774472956430836700,9.693836669921875,-0.014821721556782722,-0.11653145297169684,-0.23589666806459425
1774472956440850700,9.7038505859375,-0.07530512409210205,-0.14940554856956004,-0.26514000594466924
1774472956450865000,9.713864990234375,-0.08986556436419486,-0.14563245977163314,-0.2501487730398774
1774472956460877600,9.723877685546874,-0.15939444314241408,-0.12195523158609867,-0.15906681862324476
1774472956470891800,9.733891845703125,-0.20073533831238746,-0.10112520952522754,-0.07738309940993786
1774472956480905700,9.74390576171875,-0.241846516379714,-0.10635141974091529,-0.02490004797875881
1774472956490918700,9.753918701171875,-0.2549497435808182,-0.12134908238649368,0.02223141329139471
1774472956500932600,9.7639326171875,-0.20336744038164614,0.007190203765034675,-0.09617226329296827
1774472956510946800,9.77394677734375,-0.10928104345202445,0.10072247394323348,-0.263959856249392
1774472956520960800,9.783960693359376,-0.0344470440030098,0.04357786044180393,-0.16665771214365957
1774472956530973700,9.7939736328125,-0.04694996722340584,0.011795067211985588,-0.14314590365290641
1774472956540987600,9.803987548828125,-0.11852817974686622,-0.02085924815535545,-0.2181657810628414
1774472956551001900,9.814001953125,-0.12251812616586684,0.04463642958402633,-0.21540888357013463
1774472956561014500,9.8240146484375,-0.13239771514534948,0.130240829372406,-0.1466448516845703
1774472956571028700,9.83402880859375,-0.1307335813254118,0.18473989680111408,-0.06832388690263033
1774472956581042700,9.844042724609375,-0.12686112380623818,0.06043254913091659,0.04676116665303707
1774472956591056600,9.854056640625,-0.1713409015238285,-0.14151917923390864,0.17212211502939462
1774472956601069600,9.864069580078125,-0.09502046290934085,-0.21091420249938964,0.33171266526579857
1774472956611083800,9.874083740234376,-0.02779226228892803,-0.15110533822476863,0.2942334139600396
1774472956621097700,9.88409765625,-0.016665888118743897,0.0043874213039875026,0.07866115652173757
1774472956631111700,9.894111572265626,0.030934067445993422,0.1071878705650568,-0.025794366469979284
1774472956641124600,9.90412451171875,0.06844400615096091,0.2311976965934038,-0.09152940592318773
1774472956651138800,9.914138916015625,0.05809387705028057,0.2928460512548685,-0.10473024827986956
1774472956661152500,9.924152587890624,0.04167115003764629,0.26173487367630005,-0.17355507044196128
1774472956671165700,9.934165771484375,0.03093991266489029,0.26662147667407987,-0.1987561471939087
1774472956681179600,9.9441796875,0.013570260190963744,0.2586503516644239,-0.14902619386315344
1774472956691193600,9.954193603515625,-0.016659458377957344,0.21337971583008766,-0.11109919878989458
1774472956701207600,9.96420751953125,-0.04735913254618644,0.18277999490499494,-0.07775777794122696
1774472956711220700,9.974220703125,-0.04687514842152595,0.137303607365489,-0.014290975680947303
1774472956721234700,9.984234619140626,-0.06299626213908195,0.11062369023263453,-0.0061859951585531234
1774472956731248600,9.99424853515625,-0.08056231396794318,0.12797171539664268,0.022565467551350592
1774472956741262600,10.0042626953125,-0.14082710531651974,0.1300976215094328,0.019517185896635054
1774472956751275800,10.01427587890625,-0.19418635506033896,0.14155775767862797,0.006638122840225696
1774472956761289500,10.02428955078125,-0.2651601719498634,0.14219488653838633,-0.011226619674265383
1774472956771303700,10.0343037109375,-0.28353227946460247,0.11497487117946147,-0.0479494996547699
1774472956781316900,10.04431689453125,-0.2457587213873863,0.054797173592448234,-0.03346329366266727
1774472956791330800,10.054330810546874,-0.2110766995847225,-0.03454349011480808,0.04001666082888841
1774472956801344500,10.064344482421875,-0.18423662345409392,-0.1102805758833885,0.08585779002755879
1774472956811358700,10.074358642578124,-0.16959961081445216,-0.08088497005105018,0.10322422763109207
1774472956821372000,10.084371826171875,-0.19873978058099745,-0.06549217060804367,0.14781769485622642
1774472956831385600,10.094385498046876,-0.20287936460375786,-0.049404374638199806,0.1079088783159852
1774472956841399600,10.104399658203125,-0.15390461355447768,0.002547346395254135,-0.005492752197384834
1774472956851413800,10.114413818359376,-0.06163958683311939,0.11439034928977489,-0.04450549668073654
1774472956861426700,10.1244267578125,-0.02073649855852127,0.1815671119838953,-0.020469956576824187
1774472956871440600,10.134440673828125,-0.05539513948559761,0.1584872651696205,0.020838789889216423
1774472956881454600,10.14445458984375,-0.08989420593678951,0.18762918850183485,0.03501023084372282
1774472956891467800,10.1544677734375,-0.10402502261996269,0.23380466422140597,0.01052314758002758
1774472956901481700,10.164481689453124,-0.16015081446766852,0.2361643790900707,-0.0331461905375123
1774472956911495700,10.17449560546875,-0.1148211419224739,0.21952830158770084,-0.07187310381680727
1774472956921509600,10.184509521484374,-0.027725042271614073,0.22648235850930212,-0.1351911452561617
1774472956931522600,10.1945224609375,0.02721533918380737,0.21733225284814833,-0.1944140263363719
1774472956941536800,10.204536865234376,0.029492636466026304,0.2470838325113058,-0.16719810263067483
1774472956951550700,10.21455078125,-0.03315525062680244,0.2528396195590496,-0.07078063240498304
1774472956961563600,10.224563720703125,-0.09841478152275085,0.20388941842913627,0.013827157561480998
1774472956971577600,10.23457763671875,-0.12552139963507652,0.18148937057256698,0.06866524768620728
1774472956981591800,10.244591796875,-0.12199907072782516,0.19098375962674616,0.14654109904915094
1774472956991605800,10.254605712890625,-0.18391747450232504,0.20406009882092474,0.21588146951794623
1774472957001618700,10.26461865234375,-0.24180852245688436,0.1416822608411312,0.19251725280433893
1774472957011632600,10.274632568359374,-0.2364309210717678,0.050637715825438495,0.1392708157852292
1774472957021646800,10.284646728515625,-0.14298282204568386,0.015410335099697112,0.10368950705528258
1774472957031659500,10.294659423828126,-0.1173439383983612,-0.07459083834290504,0.1358244747236371
1774472957041673700,10.304673828125,-0.19555062915086746,-0.25460253757834433,0.2365045708298683
1774472957051687700,10.314687744140626,-0.09976035091280937,-0.24868366892337798,0.09420914652645587
1774472957061702000,10.324701904296875,-0.017776479709148404,-0.15367840358316898,-0.11109276904910802
1774472957071714600,10.334714599609375,0.021353753674030303,-0.14548925190865994,-0.1251034664839506
1774472957081728800,10.344728759765625,-0.03963116864264011,-0.15463409687280655,-0.1644455890521407
1774472957091742700,10.35474267578125,-0.062084992513060565,-0.1476250948935747,-0.16804975102394817
1774472957101757000,10.3647568359375,-0.07614683561325072,-0.11226268961131572,-0.10885755734294653
1774472957111769600,10.37476953125,-0.10677402906715869,-0.06117664549648762,-0.036549276979267596
1774472957121783800,10.38478369140625,-0.24308570278584957,-0.1310422088831663,0.2009638863712549
1774472957131797800,10.3947978515625,-0.13957213681936262,-0.01607961266338825,0.12277239318788051
1774472957141810700,10.404810791015626,-0.04165829055607319,0.19562310986518858,-0.007738193036615848
1774472957151824600,10.41482470703125,-0.006081365740299225,0.25560849975049493,0.054665363906323906
1774472957161838800,10.4248388671875,-0.0765185915350914,0.22366262491345404,0.110740302349627
1774472957171852500,10.4348525390625,-0.11781506304144859,0.18340601784884927,0.14128683178275822
1774472957181865700,10.44486572265625,-0.11210136156976222,0.1824076544612646,0.12607231151610612
1774472957191879700,10.454879638671875,-0.02113689605295658,0.24542612843215464,0.059172904458642005
1774472957201894000,10.464893798828125,0.12788403711318969,0.30259879898428915,-0.10202508097440004
1774472957211906600,10.474906494140624,0.20418284841775894,0.369465180554986,-0.29899083762019874
1774472957221920800,10.484920654296875,0.13210370063483715,0.25148937399387356,-0.2757575538098812
1774472957231934700,10.494934814453124,0.10556932945251464,0.10875497375130652,-0.1872770140632987
1774472957241948700,10.50494873046875,0.0514957939594984,0.08861644108593464,-0.23235768028348683
1774472957251961600,10.514961669921876,0.02317161675095558,0.0704623602360487,-0.2339189382508397
1774472957261975800,10.524975830078125,0.09142273067831992,0.04681611171066761,-0.22091157263964414
1774472957271989500,10.534989501953126,0.12335165438055991,0.083472063934803,-0.30275603537261486
1774472957282002700,10.545002685546875,-0.022053426375985143,0.07822071927785873,-0.2051446791872382
1774472957292016600,10.5550166015625,-0.1804997750133276,0.015777414846420288,0.006767886699736118
1774472957302030800,10.56503076171875,-0.1214005203127861,0.030167174726724623,0.08150339421033859
1774472957312044500,10.57504443359375,-0.11825696159005164,0.20847323908805845,-0.042697862736880775
1774472957322057700,10.5850576171875,-0.12431202384531498,0.4026291990101337,-0.16152619447410105
1774472957332071700,10.59507177734375,-0.12009177580177784,0.47368192635476586,-0.1286199501723051
1774472957342085600,10.605085693359374,-0.1175268937498331,0.4645177921682596,-0.15340864673107862
1774472957352098800,10.615098876953125,-0.07250701780617237,0.3966740899980068,-0.25587796434164045
1774472957362112800,10.62511279296875,-0.08707388781905173,0.2793132004648447,-0.26829993128031493
1774472957372126500,10.63512646484375,-0.12250585120618343,0.17736381507515905,-0.23346359569877384
1774472957382139600,10.6451396484375,-0.3798509654909372,0.19308862295150755,-0.3288289265230298
1774472957392153900,10.65515380859375,-0.577407673767209,-0.023242343899607658,-0.07882453038990497
1774472957402167800,10.665167724609375,-0.17965630992650986,-0.14242168103158473,0.2612748549491167
1774472957412182300,10.675182373046875,-0.05161620546877384,-0.16390169143378733,0.047476329185068604
1774472957422195500,10.685195556640625,-0.09645897127985954,-0.2067588363856077,-0.20687398719787597
1774472957432209400,10.69520947265625,-0.12292261531352996,-0.1550198813199997,-0.4163447128906846
1774472957442223600,10.7052236328125,-0.021846505627036092,-0.10378361507952212,-0.34471097078770396
1774472957452236300,10.715236328125,0.000012274959683418274,-0.1262321782529354,-0.20748159770220517
1774472957462250500,10.72525048828125,0.057874681341648096,-0.10588204866349696,-0.2608513688400388
1774472957472264400,10.735264404296874,0.056663551986217496,-0.04282499624788761,-0.32565731074959037
1774472957482278400,10.7452783203125,0.11220482194423675,-0.052744917237758634,-0.1495887961819768
1774472957492291300,10.755291259765626,-0.008052373552322387,-0.12609072395563126,0.05226999320238828
1774472957502305500,10.765305419921875,-0.1290554189801216,-0.17585633312165735,0.11307488277703523
1774472957512319500,10.775319580078126,0.06199439162015914,-0.17186171052753924,0.19745441694557667
1774472957522332400,10.78533251953125,0.09232055630087851,-0.08197861050665378,0.22917583537697792
1774472957532346400,10.795346435546875,0.05702127938270569,-0.010319149440526962,0.2115276582226157
1774472957542360600,10.805360595703124,0.023703531670570373,0.017397125002741813,0.20218407581597567
1774472957552373500,10.81537353515625,0.02937339400053024,-0.00350830038189888,0.12007248657941817
1774472957562387500,10.825387451171874,0.07362462365925311,-0.009704232412576674,0.06883738938272
1774472957572401400,10.8354013671875,0.09214403069019317,-0.058275663357973094,0.05986030220091343
1774472957582415400,10.845415283203126,0.16509645417630672,-0.13316285429894922,0.11093524039983749
1774472957592428500,10.855428466796875,0.1314659872531891,-0.1856102498948574,0.1411246269583702
1774472957602442500,10.8654423828125,0.00745966835618019,-0.22653788808882236,0.17789689903855324
1774472957612456400,10.87545654296875,-0.031626141363382335,-0.19210078095793723,0.08107844679653645
1774472957622469400,10.885469482421875,-0.04206219518184662,-0.13208558045625685,0.13217062839120625
1774472957632483600,10.895483642578125,-0.11473930885791778,-0.06967267116308212,0.22532792777717112
1774472957642497500,10.90549755859375,-0.11534311996996402,-0.06468786848783492,0.18850597133636474
1774472957652510500,10.915510498046874,-0.0488555085837841,-0.11880407407879828,0.10388795223683119
1774472957662524400,10.9255244140625,0.0018114333361387252,-0.17964812662005422,0.005075403568148612
1774472957672538600,10.93553857421875,-0.02651215935051441,-0.14649404503703117,0.008062310424447059
1774472957682551300,10.94555126953125,-0.02644552385509014,-0.07600421227216721,0.057495911157131194
1774472957692565500,10.9555654296875,-0.07567629549205303,-0.012967618122696875,0.11175474008917807
1774472957702579500,10.965579345703125,-0.10594693059325218,0.020288754791021345,0.11701426805257796
1774472957712593700,10.97559375,-0.11621698019504546,0.05646247645616531,0.04262275167405605
1774472957722606300,10.9856064453125,-0.12596797435879706,0.06450491313636303,-0.032658114759624005
1774472957732620500,10.99562060546875,-0.16069091269373892,0.04272036682963371,-0.03332446971386671
1774472957742634500,11.005634521484374,-0.11726619698703289,0.034114451047778126,-0.0012964695513248442
1774472957752647400,11.0156474609375,-0.060469958531856535,0.04277823449671268,0.0018950199663639068
1774472957762661400,11.025661376953124,-0.07119768877327441,0.020351883155107497,-0.04058920001983642
1774472957772675600,11.035675537109375,-0.11558686559796333,0.001308159989118576,-0.11248217758089303
1774472957782688300,11.045688232421876,-0.11752338661849498,0.030602059012651443,-0.13463555720001458
1774472957792702500,11.055702392578125,-0.11944529459178448,0.05186930344700813,-0.07480214300602674
1774472957802716400,11.06571630859375,-0.13840660017132758,0.0822913297176361,-0.08796177656948566
1774472957812729300,11.075729248046875,-0.13738368686437605,0.09653963530063629,-0.1309165366768837
1774472957822743300,11.085743408203125,-0.12841244490146636,0.05229366633892059,-0.10513356838375329
1774472957832757500,11.095757568359375,-0.11958850245475769,0.076937109208107,-0.07127221531420946
1774472957842770400,11.1057705078125,-0.12732815679609774,0.12209200970828532,-0.10114069935530423
1774472957852784400,11.115784423828124,-0.10005261185765266,0.1501046367496252,-0.08013327490091324
1774472957862798300,11.12579833984375,-0.06705109048783779,0.14699381125271319,-0.07852145579010247
1774472957872812500,11.1358125,-0.0683574969112873,0.1569055489361286,-0.06248480548560619
1774472957882825500,11.145825439453125,-0.06882511442303657,0.13527940806150435,-0.0543824553117156
1774472957892839400,11.15583935546875,-0.11168927363753318,0.13368424782454966,-0.06688391722738743
1774472957902853400,11.165853271484375,-0.11142565426528453,0.1531809754550457,-0.08258943588137627
1774472957912866300,11.1758662109375,-0.10226268912255763,0.14031214153170585,-0.13580577002316713
1774472957922880500,11.185880615234375,-0.08807225120663642,0.19089608134329317,-0.2556301270604133
1774472957932894500,11.19589453125,-0.0810667563587427,0.24984862104952335,-0.31726182284802196
1774472957942907400,11.205907470703124,-0.10326046798825263,0.2485907299429178,-0.1982148799240589
1774472957952921300,11.21592138671875,-0.1623439405977726,0.20985154170393944,-0.11433043579608201
1774472957962935600,11.225935546875,-0.07317980250120162,0.19849252782166002,-0.13587503586709498
1774472957972948500,11.235948486328125,-0.07632102313637733,0.16316987002789973,-0.1405015266239643
1774472957982962400,11.24596240234375,-0.2002104376554489,0.058708794078230854,-0.1282648531243205
1774472957992976400,11.255976318359375,-0.17967384558320043,0.0733902303814888,-0.11355974368453026
1774472958002989600,11.265989501953126,-0.09722703304290771,0.1512368556499481,-0.17219985644072294
1774472958013003300,11.276003173828125,-0.08312544245421886,0.22805472239255903,-0.2798144279852509
1774472958023017500,11.286017578125,-0.09449322416484356,0.22507015362381932,-0.2493590839669108
1774472958033030400,11.296030517578124,-0.10549567969441413,0.18313830682337284,-0.14672346987873314
1774472958043044400,11.30604443359375,-0.1637678359210491,0.16842472181618212,-0.11366846475601196
1774472958053058300,11.316058349609374,-0.17002338918447493,0.1372995157122612,-0.1572071622312069
1774472958063071500,11.326071533203125,-0.13242168054282666,0.08632979145348071,-0.08795973074287175
1774472958073085400,11.33608544921875,-0.15222177503407,0.07479483648240566,-0.041759120582044125
1774472958083099400,11.346099365234375,-0.14487842653393745,0.048293198525905606,-0.061567398379743093
1774472958093112600,11.356112548828126,-0.12383973015844821,0.04790682955682277,-0.13199790217280388
1774472958103126500,11.36612646484375,-0.08075637523531913,-0.008155833926796913,-0.12764905931353568
1774472958113140200,11.37614013671875,-0.11156535499691962,-0.05450841977894306,-0.10414718769490718
1774472958123153400,11.3861533203125,-0.09314707025289536,-0.04061550350487232,-0.17661445801258085
1774472958133167600,11.396167724609375,-0.05280570751428604,-0.034492052188515664,-0.24208003287464377
1774472958143181600,11.406181640625,-0.045083004307746886,-0.060629533007740974,-0.20708003116399049
1774472958153194500,11.416194580078125,-0.037217093238234515,-0.08469897538125515,-0.1706765923961997
1774472958163208400,11.42620849609375,-0.053064650711417194,-0.05171498966813087,-0.15686843179613352
1774472958173222700,11.43622265625,-0.06450900478959083,0.019817045626044274,-0.10663695868402719
1774472958183235300,11.4462353515625,-0.06202361771464347,0.06057867960333824,-0.06245324130356311
1774472958193249500,11.45624951171875,-0.0582972906678915,0.07099719776511192,-0.056042205217480656
1774472958203263500,11.466263427734376,-0.02599018130302429,0.04946341134905815,-0.06117781454026699
1774472958213276400,11.4762763671875,-0.08022212222814559,0.05805120695233345,-0.069967562456429
1774472958223290400,11.486290283203125,-0.10122983894348143,0.1249427229642868,-0.04400923759639263
1774472958233304600,11.4963046875,-0.103740944981575,0.1949035634189844,-0.013354863874614238
1774472958243317200,11.506317138671875,-0.08505728729963302,0.2244359473735094,0.05847995375841856
1774472958253331500,11.51633154296875,-0.09726327340006828,0.2118266411691904,0.11108020182847976
1774472958263345400,11.526345458984375,-0.09748597624003887,0.16411854905486106,0.07911328420341014
1774472958273358300,11.5363583984375,-0.017934300619363783,0.10951602125167846,-0.01772358047813177
1774472958283372300,11.546372314453125,0.08632219266891479,0.03783084122240543,-0.07953969292193651
1774472958293386500,11.556386474609376,0.10223170946240424,0.024769115075469014,-0.11257540882229804
1774472958303399700,11.566399658203125,0.04449614433050155,0.023976503393054006,-0.1385477622076869
1774472958313413400,11.576413330078125,-0.06955459774136542,0.022237550771236417,-0.09041150780916213
1774472958323427300,11.58642724609375,-0.16159107640385625,0.054231356403231616,-0.03651946636289358
1774472958333440500,11.5964404296875,-0.21756489256024358,0.08663608092367649,0.012907996889948843
1774472958343454500,11.606454345703124,-0.19438333893716334,0.14341829085350036,0.030014029991626737
1774472958353468400,11.616468505859375,-0.16929390586614607,0.14580197111964224,0.007511398543417453
1774472958363481600,11.626481689453126,-0.12238017899990081,0.12106266666054726,-0.00833762023448944
1774472958373495300,11.636495361328125,-0.07005027230381965,0.09865326645374298,-0.021023498806357382
1774472958383509500,11.646509521484376,-0.02231938383579254,0.11521452515423297,-0.09976970326304435
1774472958393522400,11.6565224609375,0.034442367827892305,0.09819441677033901,-0.1318956108421087
1774472958403536600,11.66653662109375,0.05610358001589775,0.049835751792788506,-0.10683131221234798
1774472958413550000,11.676550048828124,-0.004085808008909226,0.03539104685485363,-0.09718319390118121
1774472958423563000,11.68656298828125,-0.04177227232456207,-0.012679448831081389,-0.10553981109708548
1774472958433577000,11.696576904296874,-0.058823360368609426,-0.09539280335307121,-0.13382248725146054
1774472958443591200,11.706591064453125,-0.019689619854092597,-0.1264116264730692,-0.15735446174740791
1774472958453604000,11.71660400390625,-0.06764204211831093,-0.12365969741642474,-0.04640811543166637
1774472958463618000,11.7266181640625,-0.20756723015904424,-0.039406712237000464,0.04266249916255474
1774472958473632000,11.736632080078126,0.028912790751457213,0.06511106233596801,-0.15790625041127204
1774472958483645000,11.74664501953125,0.0005482815325260162,0.17882044362425803,-0.2573544666349888
1774472958493659100,11.7566591796875,0.10971534321606159,0.28995032981336116,-0.3550841885030269
1774472958503672000,11.766672119140624,0.1880669953972101,0.3063087594181299,-0.2796913861274719
1774472958513686000,11.77668603515625,0.05144435603320598,0.2825906147003174,-0.2945624997839331
1774472958523700000,11.786699951171874,-0.11082301219701766,0.14277414773106575,-0.04546060544848442
1774472958533713200,11.796713134765625,-0.3709703244209289,-0.08315291498303413,0.332543563131988
1774472958543726800,11.806726806640626,-0.2140530850470066,-0.15341536873281,0.30784079129099845
1774472958553741000,11.816740966796875,0.03501052310466766,-0.13857494247555732,0.17162819403260945
1774472958563754000,11.82675390625,0.1399964997112751,-0.07801905922591686,0.12018354573845863
1774472958573768200,11.836768310546875,0.11341595129966735,0.00026069676280021664,0.04828092356622219
1774472958583782000,11.846781982421875,-0.05176350498497486,0.018722820648550985,0.0033536943420767783
1774472958593795000,11.856795166015624,-0.1259106912136078,0.02505260819196701,0.06136661511063576
1774472958603809000,11.86680908203125,-0.12076339145302772,0.07611001073420047,0.026050094796717164
1774472958613823000,11.876822998046874,-0.08047229759693145,0.12003566170036792,-0.039008068308234216
1774472958623836200,11.886836181640625,-0.046963995748758314,0.1676414624840021,-0.06816402016580105
1774472958633850000,11.89685009765625,-0.07883388274013996,0.17507833448648452,-0.10316665222495794
1774472958643863800,11.90686376953125,-0.11230652875304221,0.1853477995663881,-0.10717676464915275
1774472958653877000,11.916876953125,-0.0971837784230709,0.11472761842012405,-0.06659983958899975
1774472958663891200,11.92689111328125,-0.09365209716558456,-0.0010118073910474776,-0.039651042386889455
1774472958673903900,11.93690380859375,-0.03299333806335926,-0.09734569098651409,-0.06379296547472477
1774472958683918000,11.94691796875,-0.007998597538471222,-0.1369721834540367,-0.11694441768676042
1774472958693932000,11.95693212890625,0.008461538875102996,-0.11156360143125056,-0.1146834870174527
1774472958703945000,11.966945068359376,-0.05346154107451439,-0.07444587691426277,-0.1204284604102373
1774472958713959000,11.976958984375,-0.11347264992296695,0.0019628245055675507,-0.12203560334593057
1774472958723973000,11.98697314453125,-0.06891454627215862,0.051557753279805184,-0.08981734130829572
1774472958733986000,11.996986083984375,-0.07854629797041415,0.07542436655759811,-0.11314853253513574
1774472958744000000,12.007,-0.1399573367446661,0.08299100241959094,-0.11557955907434224
1774472958754014000,12.017013916015625,-0.10835925243198871,0.05229892703592777,-0.08865560405254364
1774472958764027100,12.027027099609375,-0.06363982073962689,-0.013314239603281021,-0.05184358448386192
1774472958774040800,12.037040771484374,-0.03998772699534893,-0.04977846864759922,-0.01937280898988247
1774472958784055000,12.047054931640625,-0.03482815227508545,-0.02958966709971428,-0.006373626685142517
1774472958794068200,12.057068115234374,-0.08880757974386215,-0.022934885385632514,-0.00468815781623125
1774472958804082000,12.06708203125,-0.07777882072925567,0.007564297774434089,-0.03893120367974043
1774472958814095000,12.07709521484375,-0.018750293177366255,0.03537234215438366,-0.054198330916464324
1774472958824109000,12.087109130859375,-0.013688333612680435,0.07383271345198154,-0.05861614735871553
1774472958834123000,12.097123046875,-0.04133621899485588,0.09140110336840153,-0.015575462533533571
1774472958844136000,12.107135986328124,-0.029394436788558957,0.11338730972707271,0.01946720927506685
1774472958854150100,12.117150146484375,-0.04260170888602734,0.09514321250617504,0.032897476473450656
1774472958864164000,12.1271640625,-0.05121113179922104,0.08828092552125454,0.015841127732396126
1774472958874177000,12.137177001953125,-0.001603343543410301,0.11918459782898426,0.026036943054199218
1774472958884191000,12.14719091796875,-0.014653379252552985,0.1089390981465578,0.0628068770468235
1774472958894205200,12.157205078125,0.025099369943141936,0.04946224230527878,0.030988720242679117
1774472958904217900,12.1672177734375,0.00504325486421585,0.05197743999660015,-0.02671791105568409
1774472958914232000,12.177232177734375,-0.05796820484399795,0.011770517292618752,-0.08352730125337839
1774472958924245000,12.187244873046875,-0.074971362093091,-0.021298224094510078,-0.16858721890151498
1774472958934259000,12.197259033203125,-0.03816109609007835,-0.036598084557056425,-0.14734189403802156
1774472958944273000,12.20727294921875,0.0025929391026496885,-0.04252805912792682,-0.065623980294168
1774472958954286000,12.2172861328125,0.013827449822425841,-0.022233459118008614,-0.040999534386396405
1774472958964300000,12.227300048828125,-0.030800211933255193,0.04057809410393238,-0.04743424360901117
1774472958974314000,12.23731396484375,-0.1417559105992317,0.11764730525910853,0.002080021144449711
1774472958984327200,12.2473271484375,-0.22308745537400243,0.14422083940804004,0.0425704369649291
1774472958994341000,12.257341064453126,-0.16004560052752495,0.16848200496137142,0.011146540175378321
1774472959004355000,12.26735498046875,-0.041082536494731904,0.13840309303998946,-0.09349544529914855
1774472959014368000,12.277367919921875,0.05615735602974891,0.09095920481979847,-0.11759878994226455
1774472959024382200,12.28738232421875,-0.023281506866216658,0.03202069363892078,-0.047341304628551004
1774472959034395000,12.297394775390625,-0.12706044577062128,0.012077975806593894,0.06063742405325174
1774472959044409000,12.3074091796875,-0.13355506848692894,0.01814531302154064,0.0667217124029994
1774472959054423000,12.317423095703125,-0.03288344794809818,0.05299333904087543,-0.090818335044384
1774472959064436000,12.32743603515625,-0.03750409348607063,0.08509411217868328,-0.19707623128294943
1774472959074450000,12.337449951171875,-0.15631050565242766,0.06770283239483833,-0.11081512115150689
