time,seconds_elapsed,z,y,x
1774471241928484600,0.065484619140625,-0.916900634765625,-0.40350341796875,0.0546875
1774471241938512600,0.0755126953125,-0.9084625244140625,-0.3968048095703125,0.0496826171875
1774471241948539400,0.085539306640625,-0.9041290283203125,-0.3924407958984375,0.0399322509765625
1774471241958567700,0.095567626953125,-0.8987884521484375,-0.3927154541015625,0.0273895263671875
1774471241968594400,0.105594482421875,-0.9017791748046875,-0.39752197265625,0.01416015625
1774471241978621400,0.115621337890625,-0.90545654296875,-0.398590087890625,0.0120086669921875
1774471241988649700,0.125649658203125,-0.9107208251953125,-0.39593505859375,0.0199127197265625
1774471241998676500,0.135676513671875,-0.92034912109375,-0.3907012939453125,0.025848388671875
1774471242008703500,0.145703369140625,-0.936614990234375,-0.3855743408203125,0.02886962890625
1774471242018731500,0.1557314453125,-0.9571990966796875,-0.3859100341796875,0.028839111328125
1774471242028758500,0.165758544921875,-0.9634552001953125,-0.3867950439453125,0.0241851806640625
1774471242038786600,0.17578662109375,-0.9642181396484375,-0.3760528564453125,0.0178985595703125
1774471242048813600,0.1858134765625,-0.9631500244140625,-0.3707733154296875,0.015350341796875
1774471242058840600,0.195840576171875,-0.9688568115234375,-0.38641357421875,0.021881103515625
1774471242068868600,0.20586865234375,-0.98773193359375,-0.404876708984375,0.034759521484375
1774471242078895600,0.2158955078125,-0.9943389892578125,-0.38873291015625,0.0373687744140625
1774471242088923400,0.22592333984375,-0.9942474365234375,-0.3832855224609375,0.059844970703125
1774471242098950700,0.23595068359375,-0.9847259521484375,-0.4576416015625,0.0540618896484375
1774471242108977700,0.245977783203125,-0.957916259765625,-0.4700927734375,0.030487060546875
1774471242119005700,0.256005615234375,-0.9199981689453125,-0.4572296142578125,0.0099334716796875
1774471242129032700,0.26603271484375,-0.8986358642578125,-0.4488525390625,0.00079345703125
1774471242139059500,0.2760595703125,-0.895782470703125,-0.4523162841796875,-0.0007781982421875
1774471242149087700,0.286087646484375,-0.9137115478515625,-0.4452972412109375,0.0047760009765625
1774471242159114500,0.296114501953125,-0.9763031005859375,-0.4277191162109375,-0.0037994384765625
1774471242169142500,0.306142578125,-1.1356048583984375,-0.37091064453125,0.0553131103515625
1774471242179169500,0.31616943359375,-1.1459808349609375,-0.2722320556640625,0.1907196044921875
1774471242189196500,0.326196533203125,-1.1042938232421875,-0.381195068359375,0.0988616943359375
1774471242199224600,0.336224609375,-0.933563232421875,-0.48809814453125,0.0291290283203125
1774471242209251600,0.34625146484375,-0.803466796875,-0.5193939208984375,-0.1014251708984375
1774471242219279600,0.356279541015625,-0.6807861328125,-0.4949188232421875,-0.2058563232421875
1774471242229306400,0.366306396484375,-0.5793914794921875,-0.4661407470703125,-0.271026611328125
1774471242239333600,0.376333740234375,-0.6356353759765625,-0.368865966796875,-0.1471710205078125
1774471242249361400,0.386361328125,-0.802642822265625,-0.243682861328125,0.0793304443359375
1774471242259388700,0.396388671875,-0.98321533203125,-0.165496826171875,0.155670166015625
1774471242269416400,0.40641650390625,-1.0514373779296875,-0.2436981201171875,0.2122039794921875
1774471242279443500,0.416443359375,-0.964080810546875,-0.41400146484375,0.103973388671875
1774471242289470700,0.426470703125,-0.892547607421875,-0.5536651611328125,-0.31427001953125
1774471242299498500,0.43649853515625,-0.87982177734375,-0.5240631103515625,-0.5401458740234375
1774471242309525500,0.446525390625,-0.87457275390625,-0.3888092041015625,-0.3913421630859375
1774471242319553500,0.456553466796875,-0.7801055908203125,-0.2706451416015625,-0.1190032958984375
1774471242329580500,0.46658056640625,-0.696044921875,-0.215606689453125,-0.0355682373046875
1774471242339607600,0.476607666015625,-0.7296905517578125,-0.1987457275390625,-0.10589599609375
1774471242349635600,0.486635498046875,-0.7830963134765625,-0.2708740234375,-0.1448211669921875
1774471242359662600,0.49666259765625,-0.8318328857421875,-0.4549713134765625,-0.1660919189453125
1774471242369689300,0.506689453125,-0.8135223388671875,-0.591278076171875,-0.19708251953125
1774471242379717600,0.516717529296875,-0.7254486083984375,-0.5808563232421875,-0.22674560546875
1774471242389744600,0.52674462890625,-0.7073822021484375,-0.4967041015625,-0.2506866455078125
1774471242399772700,0.536772705078125,-0.965301513671875,-0.42218017578125,-0.2503662109375
1774471242409799700,0.546799560546875,-0.9882049560546875,-0.4163665771484375,-0.0868682861328125
1774471242419826400,0.556826416015625,-1.546173095703125,-0.4765625,0.432464599609375
1774471242429854700,0.566854736328125,-0.8212127685546875,-0.5089111328125,-0.1656494140625
1774471242439881500,0.576881591796875,-0.7987060546875,-0.6310272216796875,-0.06805419921875
1774471242449909800,0.58690966796875,-0.853179931640625,-0.4944305419921875,-0.0374908447265625
1774471242459936500,0.5969365234375,-0.7190704345703125,-0.56768798828125,-0.1385650634765625
1774471242469963500,0.606963623046875,-0.7712249755859375,-0.533782958984375,-0.0220184326171875
1774471242479991600,0.616991455078125,-0.82647705078125,-0.3808746337890625,0.08074951171875
1774471242490018600,0.6270185546875,-0.90057373046875,-0.3222503662109375,0.095672607421875
1774471242500046600,0.637046630859375,-0.803985595703125,-0.3818206787109375,0.13372802734375
1774471242510073600,0.647073486328125,-0.7335968017578125,-0.4438934326171875,0.1026153564453125
1774471242520100600,0.6571005859375,-0.7775115966796875,-0.4502716064453125,-0.1024627685546875
1774471242530128400,0.66712841796875,-0.8611907958984375,-0.4362945556640625,-0.2715911865234375
1774471242540155600,0.67715576171875,-0.9668426513671875,-0.477935791015625,-0.2534637451171875
1774471242550183400,0.687183349609375,-0.9759368896484375,-0.4633636474609375,-0.0744476318359375
1774471242560210400,0.69721044921875,-0.9792938232421875,-0.39031982421875,0.0595550537109375
1774471242570237700,0.70723779296875,-1.0235748291015625,-0.3448486328125,0.0332794189453125
1774471242580265500,0.717265380859375,-1.066070556640625,-0.3534088134765625,-0.04339599609375
1774471242590292500,0.72729248046875,-1.0703887939453125,-0.3814849853515625,-0.0719451904296875
1774471242600320500,0.737320556640625,-0.990447998046875,-0.3860321044921875,-0.1038970947265625
1774471242610347500,0.747347412109375,-0.9212493896484375,-0.4150848388671875,-0.181793212890625
1774471242620374800,0.757374755859375,-0.8821258544921875,-0.4180908203125,-0.2124786376953125
1774471242630402600,0.767402587890625,-0.8553466796875,-0.37408447265625,-0.205352783203125
1774471242640429600,0.7774296875,-0.8297576904296875,-0.3167572021484375,-0.16796875
1774471242650456600,0.78745654296875,-0.863067626953125,-0.274261474609375,-0.0871429443359375
1774471242660484600,0.797484619140625,-0.8964080810546875,-0.267669677734375,-0.016082763671875
1774471242670511400,0.807511474609375,-0.9285736083984375,-0.2740631103515625,-0.0218658447265625
1774471242680539600,0.81753955078125,-0.918212890625,-0.3046875,-0.04290771484375
1774471242690566700,0.827566650390625,-0.8338623046875,-0.364898681640625,-0.0830230712890625
1774471242700593400,0.837593505859375,-0.746429443359375,-0.4117584228515625,-0.1564483642578125
1774471242710621700,0.84762158203125,-0.7079315185546875,-0.44464111328125,-0.218170166015625
1774471242720648400,0.8576484375,-0.7592010498046875,-0.444000244140625,-0.17095947265625
1774471242730676700,0.8676767578125,-0.8954925537109375,-0.41400146484375,-0.0141754150390625
1774471242740703500,0.877703369140625,-1.0337066650390625,-0.366058349609375,0.1020660400390625
1774471242750730500,0.88773046875,-1.0579833984375,-0.330474853515625,0.1549530029296875
1774471242760758500,0.897758544921875,-1.0387115478515625,-0.3311004638671875,0.12451171875
1774471242770785500,0.90778564453125,-0.9810791015625,-0.3787078857421875,0.0764312744140625
1774471242780813600,0.9178134765625,-0.897216796875,-0.413726806640625,0.0645751953125
1774471242790840600,0.927840576171875,-0.8870849609375,-0.427398681640625,0.062347412109375
1774471242800867600,0.93786767578125,-0.8852996826171875,-0.4295654296875,0.0871734619140625
1774471242810895600,0.9478955078125,-0.8965911865234375,-0.4196319580078125,0.166290283203125
1774471242820922600,0.957922607421875,-0.9235076904296875,-0.399688720703125,0.3193359375
1774471242830950400,0.967950439453125,-0.8884735107421875,-0.3990020751953125,0.513702392578125
1774471242840977700,0.977977783203125,-0.819488525390625,-0.4257659912109375,0.56988525390625
1774471242851004700,0.988004638671875,-0.817840576171875,-0.5106353759765625,0.3154144287109375
1774471242861032400,0.998032470703125,-0.8806915283203125,-0.581787109375,-0.10101318359375
1774471242871059700,1.008059814453125,-1.036407470703125,-0.6038055419921875,-0.264556884765625
1774471242881087500,1.01808740234375,-1.1327667236328125,-0.443328857421875,-0.13037109375
1774471242891117600,1.02811767578125,-1.0884552001953125,-0.2960052490234375,-0.0161895751953125
1774471242901144600,1.03814453125,-1.0644378662109375,-0.3307037353515625,0.089691162109375
1774471242911172600,1.048172607421875,-0.9850921630859375,-0.3548126220703125,0.1417083740234375
1774471242921199600,1.05819970703125,-0.878021240234375,-0.36474609375,0.0696868896484375
1774471242931227600,1.0682275390625,-0.8496246337890625,-0.38330078125,0.0006103515625
1774471242941254700,1.078254638671875,-0.8925933837890625,-0.3955230712890625,0.0295562744140625
1774471242951281700,1.08828173828125,-0.91766357421875,-0.4287567138671875,0.0894317626953125
1774471242961309700,1.098309814453125,-0.9363555908203125,-0.417083740234375,0.141082763671875
1774471242971336700,1.108336669921875,-0.9325103759765625,-0.3699798583984375,0.19488525390625
1774471242981364500,1.118364501953125,-0.97772216796875,-0.27984619140625,0.2451934814453125
1774471242991391700,1.128391845703125,-0.9930267333984375,-0.21685791015625,0.22271728515625
1774471243001418500,1.13841845703125,-0.9539642333984375,-0.2252349853515625,0.1526336669921875
1774471243011446500,1.148446533203125,-0.900726318359375,-0.2913055419921875,0.1020965576171875
1774471243021473500,1.1584736328125,-0.8575286865234375,-0.37725830078125,0.103271484375
1774471243031500500,1.16850048828125,-0.8600006103515625,-0.423095703125,0.11651611328125
1774471243041528600,1.178528564453125,-0.8927001953125,-0.41473388671875,0.143707275390625
1774471243051555600,1.1885556640625,-0.9827728271484375,-0.38250732421875,0.1861419677734375
1774471243061583600,1.19858349609375,-1.0661163330078125,-0.369659423828125,0.2237396240234375
1774471243071610600,1.208610595703125,-1.0868682861328125,-0.3937530517578125,0.210113525390625
1774471243081637600,1.2186376953125,-0.977935791015625,-0.4319610595703125,0.16119384765625
1774471243091665400,1.22866552734375,-0.8960113525390625,-0.45751953125,0.1388702392578125
1774471243101692700,1.238692626953125,-0.892608642578125,-0.475128173828125,0.1371917724609375
1774471243111720400,1.248720458984375,-0.929229736328125,-0.4824371337890625,0.1405487060546875
1774471243121747500,1.25874755859375,-0.94219970703125,-0.4700469970703125,0.170074462890625
1774471243131774700,1.268774658203125,-0.9420166015625,-0.464813232421875,0.1925048828125
1774471243141802500,1.278802490234375,-0.9449615478515625,-0.4510040283203125,0.1914825439453125
1774471243151829500,1.28882958984375,-0.916961669921875,-0.4406280517578125,0.1533660888671875
1774471243161857500,1.298857421875,-0.8848419189453125,-0.413421630859375,0.1422119140625
1774471243171884500,1.308884521484375,-0.84893798828125,-0.394561767578125,0.1369781494140625
1774471243181911600,1.31891162109375,-0.7920379638671875,-0.386505126953125,0.1074676513671875
1774471243191939600,1.328939697265625,-0.7693328857421875,-0.377410888671875,0.10638427734375
1774471243201966600,1.338966552734375,-0.80584716796875,-0.3561859130859375,0.1208343505859375
1774471243211994600,1.34899462890625,-0.7812042236328125,-0.318267822265625,0.1460113525390625
1774471243222021600,1.359021728515625,-0.8286895751953125,-0.2265472412109375,0.2077178955078125
1774471243232048400,1.36904833984375,-0.95782470703125,-0.268035888671875,0.1495819091796875
1774471243242076700,1.37907666015625,-0.9788665771484375,-0.3887786865234375,0.1267852783203125
1774471243252103700,1.389103759765625,-0.946990966796875,-0.4494781494140625,0.1417236328125
1774471243262131700,1.399131591796875,-0.871673583984375,-0.4353485107421875,0.1188201904296875
1774471243272158700,1.40915869140625,-0.78179931640625,-0.3989410400390625,0.085418701171875
1774471243282185500,1.419185546875,-0.755584716796875,-0.3963623046875,0.0466156005859375
1774471243292213800,1.4292138671875,-0.7130584716796875,-0.427978515625,0.0355682373046875
1774471243302240500,1.439240478515625,-0.7235107421875,-0.4295501708984375,0.09130859375
1774471243312268500,1.4492685546875,-0.78826904296875,-0.4085540771484375,0.176055908203125
1774471243322295600,1.459295654296875,-0.86553955078125,-0.34588623046875,0.25360107421875
1774471243332322600,1.469322509765625,-0.930877685546875,-0.3174591064453125,0.26470947265625
1774471243342350600,1.4793505859375,-0.9572601318359375,-0.3635101318359375,0.2166748046875
1774471243352377600,1.489377685546875,-0.9573822021484375,-0.364410400390625,0.1963653564453125
1774471243362405600,1.499405517578125,-0.9506378173828125,-0.37042236328125,0.19866943359375
1774471243372432400,1.509432373046875,-0.9833526611328125,-0.383026123046875,0.2119903564453125
1774471243382459600,1.519459716796875,-0.99041748046875,-0.3791046142578125,0.22210693359375
1774471243392487400,1.5294873046875,-0.989013671875,-0.36761474609375,0.2169647216796875
1774471243402514400,1.539514404296875,-0.9722442626953125,-0.3514404296875,0.21575927734375
1774471243412542500,1.54954248046875,-0.9501190185546875,-0.38433837890625,0.177825927734375
1774471243422569500,1.559569580078125,-0.9017486572265625,-0.3911895751953125,0.1636199951171875
1774471243432596700,1.5695966796875,-0.878570556640625,-0.37396240234375,0.1522674560546875
1774471243442624500,1.57962451171875,-0.89483642578125,-0.37908935546875,0.156158447265625
1774471243452651500,1.589651611328125,-0.9131622314453125,-0.3579864501953125,0.1937713623046875
1774471243462679600,1.599679443359375,-0.926971435546875,-0.3752593994140625,0.1793212890625
1774471243472706600,1.60970654296875,-0.906951904296875,-0.39453125,0.166107177734375
1774471243482733600,1.619733642578125,-0.895904541015625,-0.3823699951171875,0.16217041015625
1774471243492761600,1.62976171875,-0.8859100341796875,-0.38848876953125,0.158477783203125
1774471243502788600,1.63978857421875,-0.8880615234375,-0.3643951416015625,0.1706390380859375
1774471243512816600,1.649816650390625,-0.897430419921875,-0.37261962890625,0.17730712890625
1774471243522843600,1.65984375,-0.909515380859375,-0.350372314453125,0.1976318359375
1774471243532870700,1.66987060546875,-0.9167633056640625,-0.3492431640625,0.2090606689453125
1774471243542898700,1.679898681640625,-0.8930816650390625,-0.3466644287109375,0.2047576904296875
1774471243552925700,1.68992578125,-0.8528594970703125,-0.3553924560546875,0.199981689453125
1774471243562953500,1.699953369140625,-0.870819091796875,-0.4163970947265625,0.183013916015625
1774471243572980700,1.709980712890625,-0.8954620361328125,-0.4145050048828125,0.2077178955078125
1774471243583007500,1.720007568359375,-0.9246063232421875,-0.39825439453125,0.226348876953125
1774471243593035500,1.730035400390625,-0.9487152099609375,-0.371185302734375,0.253326416015625
1774471243603062500,1.7400625,-0.9638519287109375,-0.3812255859375,0.258331298828125
1774471243613090600,1.750090576171875,-0.9491424560546875,-0.4011077880859375,0.236114501953125
1774471243623117600,1.76011767578125,-0.9387664794921875,-0.382659912109375,0.2274322509765625
1774471243633144600,1.77014453125,-0.9514312744140625,-0.3648681640625,0.231536865234375
1774471243643172600,1.780172607421875,-0.943603515625,-0.36724853515625,0.241729736328125
1774471243653199600,1.79019970703125,-0.9525909423828125,-0.3968963623046875,0.211395263671875
1774471243663227600,1.8002275390625,-0.91156005859375,-0.4118194580078125,0.172393798828125
1774471243673254400,1.81025439453125,-0.8132781982421875,-0.3936614990234375,0.1551513671875
1774471243683282700,1.82028271484375,-0.7038116455078125,-0.329925537109375,0.2010040283203125
1774471243693309400,1.830309326171875,-0.655670166015625,-0.2361297607421875,0.2794036865234375
1774471243703336400,1.84033642578125,-0.751312255859375,-0.264984130859375,0.20648193359375
1774471243713364500,1.850364501953125,-0.774169921875,-0.27880859375,0.1593017578125
1774471243723391500,1.8603916015625,-0.823760986328125,-0.3358001708984375,0.1029510498046875
1774471243733419800,1.870419677734375,-0.9489593505859375,-0.343994140625,0.1644439697265625
1774471243743446500,1.880446533203125,-1.022613525390625,-0.2370758056640625,0.3360443115234375
1774471243753473500,1.8904736328125,-1.092529296875,-0.1807403564453125,0.3835296630859375
1774471243763501600,1.90050146484375,-1.1521759033203125,-0.261871337890625,0.2681884765625
1774471243773528600,1.910528564453125,-1.1438751220703125,-0.3341064453125,0.2152862548828125
1774471243783556400,1.920556396484375,-1.086944580078125,-0.346405029296875,0.237396240234375
1774471243793583600,1.93058349609375,-0.997772216796875,-0.3563079833984375,0.240814208984375
1774471243803610600,1.940610595703125,-0.91290283203125,-0.38946533203125,0.2012939453125
1774471243813638700,1.950638671875,-0.8297119140625,-0.435394287109375,0.170928955078125
1774471243823665700,1.960665771484375,-0.73431396484375,-0.489898681640625,0.12200927734375
1774471243833693400,1.970693359375,-0.7607574462890625,-0.5708770751953125,0.069244384765625
1774471243843720700,1.980720703125,-0.8050994873046875,-0.53704833984375,0.1688079833984375
1774471243853747700,1.990747802734375,-0.85382080078125,-0.4649505615234375,0.2832794189453125
1774471243863775500,2.000775390625,-0.9005279541015625,-0.3550872802734375,0.379241943359375
1774471243873802800,2.010802734375,-0.8523712158203125,-0.2847442626953125,0.386322021484375
1774471243883830500,2.02083056640625,-0.8343505859375,-0.248321533203125,0.4142913818359375
1774471243893854700,2.030854736328125,-0.861846923828125,-0.35760498046875,0.3212890625
1774471243903881500,2.040881591796875,-0.9061279296875,-0.4160614013671875,0.255615234375
1774471243913909800,2.05090966796875,-0.93646240234375,-0.41448974609375,0.2385406494140625
1774471243923936500,2.0609365234375,-0.9552154541015625,-0.3941802978515625,0.2426300048828125
1774471243933964800,2.07096484375,-0.99310302734375,-0.364044189453125,0.2621307373046875
1774471243943991600,2.080991455078125,-1.0159912109375,-0.3968658447265625,0.261199951171875
1774471243954019600,2.09101953125,-0.9976043701171875,-0.42669677734375,0.2665557861328125
1774471243964046600,2.101046630859375,-1.0092620849609375,-0.42706298828125,0.2719879150390625
1774471243974073600,2.111073486328125,-0.99212646484375,-0.407989501953125,0.28900146484375
1774471243984102000,2.121101806640625,-0.9485321044921875,-0.3934478759765625,0.29669189453125
1774471243994128600,2.131128662109375,-0.912841796875,-0.3980865478515625,0.28558349609375
1774471244004156700,2.14115673828125,-0.888519287109375,-0.3948211669921875,0.256011962890625
1774471244014183700,2.15118359375,-0.85498046875,-0.380828857421875,0.2125244140625
1774471244024210700,2.161210693359375,-0.82598876953125,-0.3548583984375,0.1888427734375
1774471244034238500,2.171238525390625,-0.811065673828125,-0.320068359375,0.166717529296875
1774471244044265700,2.181265625,-0.8336334228515625,-0.2928314208984375,0.149017333984375
1774471244054293800,2.191293701171875,-0.87591552734375,-0.2722320556640625,0.152435302734375
1774471244064320500,2.201320556640625,-0.8590087890625,-0.229736328125,0.1728363037109375
1774471244074347800,2.21134765625,-0.8619537353515625,-0.2004852294921875,0.14794921875
1774471244084375600,2.22137548828125,-0.895050048828125,-0.1849212646484375,0.119598388671875
1774471244094402600,2.231402587890625,-0.904510498046875,-0.2051849365234375,0.141937255859375
1774471244104430600,2.2414306640625,-0.943267822265625,-0.2457733154296875,0.150482177734375
1774471244114457600,2.25145751953125,-1.0161590576171875,-0.2372894287109375,0.1331634521484375
1774471244124484600,2.261484619140625,-1.040252685546875,-0.223236083984375,0.1652069091796875
1774471244134512600,2.2715126953125,-1.045440673828125,-0.21392822265625,0.1950836181640625
1774471244144539600,2.28153955078125,-1.06048583984375,-0.20428466796875,0.2235565185546875
1774471244154567700,2.291567626953125,-1.0627593994140625,-0.2158660888671875,0.2396392822265625
1774471244164594700,2.3015947265625,-1.0552520751953125,-0.22625732421875,0.229217529296875
1774471244174622700,2.311622802734375,-1.0191802978515625,-0.2595672607421875,0.1907958984375
1774471244184649700,2.321649658203125,-0.998382568359375,-0.345916748046875,0.0909271240234375
1774471244194676700,2.3316767578125,-0.94281005859375,-0.371612548828125,0.0262451171875
1774471244204704800,2.341704833984375,-0.84368896484375,-0.339019775390625,0.04156494140625
1774471244214731800,2.351731689453125,-0.7836456298828125,-0.3168487548828125,0.09429931640625
1774471244224759600,2.361759521484375,-0.789398193359375,-0.300628662109375,0.12060546875
1774471244234786800,2.371786865234375,-0.84454345703125,-0.272125244140625,0.1447906494140625
1774471244244813600,2.3818134765625,-0.9322967529296875,-0.2522735595703125,0.201690673828125
1774471244254841600,2.391841552734375,-0.9959564208984375,-0.2590484619140625,0.2133941650390625
1774471244264868900,2.401868896484375,-0.97064208984375,-0.2644500732421875,0.216583251953125
1774471244274896600,2.411896728515625,-0.9494781494140625,-0.262664794921875,0.2080078125
1774471244284923600,2.421923583984375,-0.9549713134765625,-0.2887115478515625,0.1412200927734375
1774471244294951700,2.43195166015625,-0.9145355224609375,-0.33441162109375,0.0412139892578125
1774471244304978700,2.441978759765625,-0.91278076171875,-0.272918701171875,0.0007171630859375
1774471244315005400,2.45200537109375,-0.8948516845703125,-0.0701904296875,0.193695068359375
1774471244325033700,2.46203369140625,-0.880157470703125,-0.2539215087890625,0.230377197265625
1774471244335060500,2.472060546875,-0.9407806396484375,-0.40899658203125,0.07421875
1774471244345088800,2.4820888671875,-1.05120849609375,-0.3575897216796875,0.0611419677734375
1774471244355115800,2.49211572265625,-0.9945068359375,-0.21771240234375,0.160797119140625
1774471244365142500,2.502142578125,-0.91058349609375,-0.15765380859375,0.1576080322265625
1774471244375170800,2.5121708984375,-0.900177001953125,-0.204864501953125,0.07366943359375
1774471244385197600,2.522197509765625,-0.8508148193359375,-0.2399749755859375,0.0312957763671875
1774471244395225900,2.532225830078125,-0.8497161865234375,-0.2274932861328125,0.0439453125
1774471244405252600,2.542252685546875,-0.8980712890625,-0.218536376953125,0.09881591796875
1774471244415280600,2.55228076171875,-0.9710845947265625,-0.2255859375,0.15771484375
1774471244425307600,2.5623076171875,-1.000701904296875,-0.2591552734375,0.16650390625
1774471244435334700,2.572334716796875,-0.952545166015625,-0.3073577880859375,0.1668548583984375
1774471244445362700,2.58236279296875,-0.917755126953125,-0.3570709228515625,0.158447265625
1774471244455389700,2.5923896484375,-0.9398193359375,-0.378936767578125,0.1380462646484375
1774471244465417700,2.602417724609375,-0.9545440673828125,-0.3703155517578125,0.1402740478515625
1774471244475444500,2.612444580078125,-0.9575347900390625,-0.4384765625,0.15106201171875
1774471244485471700,2.6224716796875,-0.9407806396484375,-0.46917724609375,0.1744842529296875
1774471244495499500,2.63249951171875,-0.939208984375,-0.433074951171875,0.1898956298828125
1774471244505526500,2.642526611328125,-0.9157867431640625,-0.37677001953125,0.2564544677734375
1774471244515554600,2.652554443359375,-0.915985107421875,-0.3397979736328125,0.2407379150390625
1774471244525581600,2.66258154296875,-0.899017333984375,-0.3529052734375,0.2194366455078125
1774471244535608800,2.67260888671875,-0.86578369140625,-0.4043121337890625,0.1719970703125
1774471244545636600,2.68263671875,-0.8796539306640625,-0.447235107421875,0.125030517578125
1774471244555663600,2.69266357421875,-0.924652099609375,-0.459014892578125,0.1543121337890625
1774471244565691600,2.702691650390625,-0.9383087158203125,-0.4870147705078125,0.1850128173828125
1774471244575718700,2.71271875,-0.9311065673828125,-0.488250732421875,0.230010986328125
1774471244585746700,2.72274658203125,-0.9146270751953125,-0.519805908203125,0.2316741943359375
1774471244595773700,2.732773681640625,-0.9142608642578125,-0.513702392578125,0.2408294677734375
1774471244605800700,2.74280078125,-0.9272613525390625,-0.48828125,0.249420166015625
1774471244615828700,2.752828857421875,-0.8961181640625,-0.509185791015625,0.206787109375
1774471244625855700,2.762855712890625,-0.8516998291015625,-0.486572265625,0.1783599853515625
1774471244635883500,2.772883544921875,-0.8321685791015625,-0.4686279296875,0.153717041015625
1774471244645910800,2.782910888671875,-0.8408660888671875,-0.4446258544921875,0.1541595458984375
1774471244655938600,2.7929384765625,-0.84869384765625,-0.425262451171875,0.173370361328125
1774471244665965600,2.802965576171875,-0.7914276123046875,-0.44122314453125,0.1874542236328125
1774471244675992800,2.812992919921875,-0.7516021728515625,-0.485870361328125,0.1636505126953125
1774471244686020600,2.8230205078125,-0.70660400390625,-0.5194854736328125,0.132415771484375
1774471244696047600,2.833047607421875,-0.6719818115234375,-0.5419769287109375,0.0977020263671875
1774471244706075600,2.84307568359375,-0.634674072265625,-0.558197021484375,0.07110595703125
1774471244716102700,2.8531025390625,-0.6268768310546875,-0.5334014892578125,0.0879974365234375
1774471244726129700,2.863129638671875,-0.5980072021484375,-0.4921112060546875,0.14569091796875
1774471244736157700,2.87315771484375,-0.5806732177734375,-0.4415740966796875,0.21392822265625
1774471244746184700,2.883184814453125,-0.57440185546875,-0.394744873046875,0.2790679931640625
1774471244756212700,2.893212646484375,-0.5635223388671875,-0.348358154296875,0.3621063232421875
1774471244766239700,2.90323974609375,-0.5908203125,-0.3363037109375,0.440277099609375
1774471244776267800,2.913267822265625,-0.6617431640625,-0.35272216796875,0.4526824951171875
1774471244786294800,2.923294677734375,-0.7033538818359375,-0.3728485107421875,0.4527435302734375
1774471244796321500,2.933321533203125,-0.715728759765625,-0.38958740234375,0.4498748779296875
1774471244806349800,2.943349853515625,-0.6949005126953125,-0.333953857421875,0.4315338134765625
1774471244816376600,2.95337646484375,-0.771697998046875,-0.3322296142578125,0.3928375244140625
1774471244826404600,2.963404541015625,-0.87054443359375,-0.370391845703125,0.3280487060546875
1774471244836431600,2.973431640625,-0.9579925537109375,-0.4249725341796875,0.2985382080078125
1774471244846459600,2.983459716796875,-0.9631805419921875,-0.4583892822265625,0.289031982421875
1774471244856486700,2.993486572265625,-0.9303131103515625,-0.4444427490234375,0.285247802734375
1774471244866513700,3.003513671875,-0.9181671142578125,-0.421600341796875,0.3047332763671875
1774471244876541700,3.013541748046875,-0.9752349853515625,-0.4683380126953125,0.308807373046875
1774471244886568000,3.02356787109375,-1.064361572265625,-0.5420684814453125,0.278045654296875
1774471244896596000,3.033595947265625,-1.12713623046875,-0.557220458984375,0.257568359375
1774471244906623000,3.043623046875,-1.164398193359375,-0.498138427734375,0.239593505859375
1774471244916651000,3.053651123046875,-1.170074462890625,-0.4374237060546875,0.2167205810546875
1774471244926678000,3.063677978515625,-1.1203765869140625,-0.4151611328125,0.2017974853515625
1774471244936704800,3.073704833984375,-1.0596466064453125,-0.4211883544921875,0.187408447265625
1774471244946733000,3.083733154296875,-1.0003662109375,-0.432098388671875,0.1653289794921875
1774471244956759800,3.093759765625,-0.9598541259765625,-0.43701171875,0.1388092041015625
1774471244966787800,3.103787841796875,-0.9296875,-0.4374542236328125,0.127532958984375
1774471244976815000,3.113815185546875,-0.916748046875,-0.4325408935546875,0.1187744140625
1774471244986841900,3.123841796875,-0.899200439453125,-0.41326904296875,0.11279296875
1774471244996870000,3.133869873046875,-0.8840789794921875,-0.37579345703125,0.1187744140625
1774471245006897000,3.14389697265625,-0.8791961669921875,-0.3351287841796875,0.147491455078125
1774471245016925000,3.153925048828125,-0.8927154541015625,-0.3023223876953125,0.1878662109375
1774471245026951700,3.16395166015625,-0.89886474609375,-0.27569580078125,0.2351531982421875
1774471245036980000,3.17397998046875,-0.9078216552734375,-0.261962890625,0.269378662109375
1774471245047006700,3.1840068359375,-0.912139892578125,-0.2593841552734375,0.2904815673828125
1774471245057034000,3.194033935546875,-0.9197998046875,-0.246063232421875,0.3193817138671875
1774471245067062000,3.20406201171875,-0.9429779052734375,-0.2191009521484375,0.3519439697265625
1774471245077088800,3.2140888671875,-0.9514007568359375,-0.20989990234375,0.35382080078125
1774471245087117000,3.224116943359375,-0.937255859375,-0.2107086181640625,0.33929443359375
1774471245097143800,3.234143798828125,-0.900146484375,-0.19952392578125,0.313873291015625
1774471245107172000,3.244172119140625,-0.8521575927734375,-0.196807861328125,0.289642333984375
1774471245117198800,3.25419873046875,-0.7836456298828125,-0.206512451171875,0.2791748046875
1774471245127225900,3.264225830078125,-0.7041473388671875,-0.2026824951171875,0.3006439208984375
1774471245137254000,3.27425390625,-0.6384735107421875,-0.1829681396484375,0.343017578125
1774471245147281000,3.284281005859375,-0.5791778564453125,-0.1637115478515625,0.3898468017578125
1774471245157309000,3.294308837890625,-0.5128326416015625,-0.1359100341796875,0.43853759765625
1774471245167336000,3.3043359375,-0.4617462158203125,-0.0795440673828125,0.523101806640625
1774471245177364000,3.314364013671875,-0.44158935546875,-0.00506591796875,0.616180419921875
1774471245187390700,3.324390625,-0.429351806640625,0.0780029296875,0.6731109619140625
1774471245197418000,3.33441796875,-0.384796142578125,0.1444091796875,0.70599365234375
1774471245207445800,3.34444580078125,-0.3248748779296875,0.1969757080078125,0.7445220947265625
1774471245217472800,3.35447265625,-0.2920989990234375,0.2162017822265625,0.7757720947265625
1774471245227500800,3.364500732421875,-0.283111572265625,0.2025909423828125,0.80682373046875
1774471245237527800,3.37452783203125,-0.2918853759765625,0.1802825927734375,0.8452606201171875
1774471245247556000,3.38455615234375,-0.347930908203125,0.1506195068359375,0.9157867431640625
1774471245257582800,3.394582763671875,-0.457733154296875,0.1247711181640625,1.00823974609375
1774471245267609900,3.40460986328125,-0.5457305908203125,0.134124755859375,1.08392333984375
1774471245277638000,3.414637939453125,-0.659576416015625,0.118438720703125,1.1646881103515625
1774471245287665000,3.424664794921875,-0.8555145263671875,0.093353271484375,1.2073822021484375
1774471245297693000,3.43469287109375,-1.015167236328125,0.1112518310546875,1.201629638671875
1774471245307720000,3.444719970703125,-1.083587646484375,0.1588134765625,1.1717987060546875
1774471245317747700,3.454747802734375,-1.041595458984375,0.173828125,1.1001739501953125
1774471245327775000,3.46477490234375,-0.9383087158203125,0.1887969970703125,1.0250396728515625
1774471245337802000,3.474802001953125,-0.839508056640625,0.21820068359375,0.9370880126953125
1774471245347829800,3.484829833984375,-0.7938079833984375,0.274444580078125,0.91571044921875
1774471245357857000,3.49485693359375,-0.7671051025390625,0.3654937744140625,1.002838134765625
1774471245367884800,3.504884765625,-0.7017669677734375,0.4336090087890625,1.067657470703125
1774471245377911800,3.514911865234375,-0.6108551025390625,0.3979339599609375,1.1002197265625
1774471245387939800,3.52493994140625,-0.5318450927734375,0.236846923828125,0.939361572265625
1774471245397966800,3.534966796875,-0.1305389404296875,0.2273101806640625,1.0553741455078125
1774471245407993900,3.544993896484375,-0.064666748046875,0.1965179443359375,1.215972900390625
1774471245418022000,3.55502197265625,-0.1290130615234375,0.083770751953125,1.2452545166015625
1774471245428049000,3.565048828125,-0.1572418212890625,-0.0419921875,1.3149261474609375
1774471245438077000,3.575076904296875,-0.1568603515625,-0.1921234130859375,1.3974151611328125
1774471245448104000,3.58510400390625,-0.0307464599609375,-0.27490234375,1.4705963134765625
1774471245458131700,3.595131591796875,0.0505828857421875,-0.2891845703125,1.5968170166015625
1774471245468159000,3.605158935546875,0.0971221923828125,-0.3948822021484375,1.69329833984375
1774471245478186000,3.61518603515625,0.2272796630859375,-0.5959625244140625,1.6849822998046875
1774471245488214000,3.625214111328125,0.3577728271484375,-0.81884765625,1.644073486328125
1774471245498241000,3.635240966796875,0.484893798828125,-1.0276641845703125,1.5723419189453125
1774471245508268800,3.645268798828125,0.5489959716796875,-1.1775360107421875,1.5272216796875
1774471245518296000,3.655296142578125,0.552886962890625,-1.178253173828125,1.600189208984375
1774471245528323800,3.66532373046875,0.600067138671875,-1.10321044921875,1.658294677734375
1774471245538350800,3.675350830078125,0.63909912109375,-1.0006866455078125,1.6628265380859375
1774471245548378000,3.685378173828125,0.6101531982421875,-0.7797088623046875,1.666046142578125
1774471245558406000,3.695406005859375,0.6055908203125,-0.4245452880859375,1.6272125244140625
1774471245568433000,3.705432861328125,0.554840087890625,-0.0157928466796875,1.515960693359375
1774471245578461000,3.7154609375,0.503814697265625,0.2796630859375,1.4452972412109375
1774471245588488000,3.725488037109375,0.6491851806640625,0.2297515869140625,1.357452392578125
1774471245598516000,3.735515869140625,0.8320770263671875,0.0343170166015625,1.166351318359375
1774471245608543000,3.74554296875,1.0249481201171875,-0.077239990234375,1.0508880615234375
1774471245618569700,3.75556982421875,1.1000213623046875,-0.05908203125,1.0283966064453125
1774471245628598000,3.765597900390625,0.9535675048828125,0.0030670166015625,1.085784912109375
1774471245638625000,3.775625,0.7337646484375,0.1707611083984375,1.1151275634765625
1774471245648652800,3.78565283203125,0.5758819580078125,0.4073028564453125,1.08905029296875
1774471245658680000,3.79568017578125,0.49896240234375,0.544403076171875,1.010528564453125
1774471245668707800,3.805707763671875,0.426544189453125,0.5333099365234375,0.87677001953125
1774471245678735000,3.815735107421875,0.398834228515625,0.4774932861328125,0.7337188720703125
1774471245688761900,3.825761962890625,0.3863067626953125,0.428802490234375,0.6563873291015625
1774471245698790000,3.835789794921875,0.33306884765625,0.4586181640625,0.6324920654296875
1774471245708817000,3.84581689453125,0.3051300048828125,0.539642333984375,0.632598876953125
1774471245718845000,3.855844970703125,0.2680511474609375,0.606231689453125,0.6195831298828125
1774471245728872000,3.865871826171875,0.269744873046875,0.638671875,0.6400299072265625
1774471245738900000,3.87589990234375,0.247711181640625,0.62615966796875,0.712493896484375
1774471245748927000,3.885927001953125,0.24053955078125,0.59063720703125,0.747802734375
1774471245758953700,3.89595361328125,0.25714111328125,0.5699920654296875,0.8719482421875
1774471245768982000,3.90598193359375,0.1192169189453125,0.494873046875,1.0087432861328125
1774471245779008800,3.9160087890625,-0.0293731689453125,0.422119140625,1.09619140625
1774471245789037000,3.926037109375,0.068878173828125,0.3755340576171875,1.280364990234375
1774471245799063800,3.936063720703125,0.1851654052734375,0.2236785888671875,1.4412384033203125
1774471245809091800,3.946091796875,0.25787353515625,0.14984130859375,1.478118896484375
1774471245819119000,3.956119140625,0.3345184326171875,0.119720458984375,1.4382781982421875
1774471245829145900,3.966145751953125,0.518402099609375,0.052947998046875,1.2213134765625
1774471245839174000,3.976173828125,0.696136474609375,-0.040069580078125,1.0061187744140625
1774471245849201000,3.986200927734375,0.79534912109375,-0.107452392578125,0.909942626953125
1774471245859229000,3.99622900390625,0.805633544921875,-0.1396942138671875,0.8657379150390625
1774471245869256000,4.006255859375,0.692413330078125,-0.1652069091796875,0.8021697998046875
1774471245879284000,4.016283935546875,0.6337738037109375,-0.20587158203125,0.7433319091796875
1774471245889310700,4.026310791015625,0.684906005859375,-0.2588348388671875,0.6901397705078125
1774471245899338800,4.0363388671875,0.68780517578125,-0.2453155517578125,0.65081787109375
1774471245909366000,4.046365966796875,0.5452728271484375,-0.2364349365234375,0.6508636474609375
1774471245919392800,4.056392822265625,0.31646728515625,-0.2729949951171875,0.6026611328125
1774471245929420800,4.0664208984375,0.1654052734375,-0.2705078125,0.5691070556640625
1774471245939447800,4.07644775390625,0.139617919921875,-0.234405517578125,0.518707275390625
1774471245949475800,4.086475830078125,0.3882904052734375,-0.1967010498046875,0.5137176513671875
1774471245959502600,4.096502685546875,0.5590362548828125,-0.217926025390625,0.5886993408203125
1774471245969531000,4.10653076171875,0.55364990234375,-0.307952880859375,0.6493377685546875
1774471245979557600,4.1165576171875,0.4091644287109375,-0.306060791015625,0.7400665283203125
1774471245989584600,4.126584716796875,0.2743072509765625,-0.243621826171875,0.807861328125
1774471245999613000,4.136613037109375,0.16998291015625,-0.171142578125,0.8901214599609375
1774471246009639700,4.1466396484375,0.1320343017578125,-0.1271820068359375,0.9015655517578125
1774471246019668000,4.15666796875,0.21868896484375,-0.1055908203125,0.8649139404296875
1774471246029694700,4.16669482421875,0.3300628662109375,-0.0684356689453125,0.8363800048828125
1774471246039722800,4.17672265625,0.48028564453125,-0.04559326171875,0.778350830078125
1774471246049749800,4.186749755859375,0.580657958984375,-0.002960205078125,0.7808074951171875
1774471246059776800,4.19677685546875,0.6828765869140625,0.0222930908203125,0.83673095703125
1774471246069804500,4.206804443359375,0.8110504150390625,0.0152435302734375,0.860260009765625
1774471246079831800,4.216831787109375,0.818695068359375,-0.017822265625,0.8783111572265625
1774471246089859800,4.22685986328125,0.7524871826171875,-0.120269775390625,0.854827880859375
1774471246099886800,4.236886962890625,0.7222137451171875,-0.2715606689453125,0.8653106689453125
1774471246109915000,4.246914794921875,0.7313995361328125,-0.3545684814453125,0.894073486328125
1774471246119941600,4.256941650390625,0.5876312255859375,-0.175750732421875,0.930908203125
1774471246129969000,4.266968994140625,0.3686676025390625,-0.03118896484375,0.9906005859375
1774471246139996700,4.27699658203125,0.260894775390625,0.0671844482421875,1.13623046875
1774471246150023700,4.287023681640625,0.08428955078125,0.20751953125,1.327880859375
1774471246160051700,4.2970517578125,-0.21905517578125,0.3667449951171875,1.437286376953125
1774471246170078700,4.30707861328125,-0.3592681884765625,0.3996429443359375,1.3782958984375
1774471246180106800,4.317106689453125,-0.191070556640625,0.3527679443359375,1.3194122314453125
1774471246190133800,4.3271337890625,0.028106689453125,0.3365936279296875,1.2897186279296875
1774471246200161800,4.337161865234375,0.2151336669921875,0.3299713134765625,1.255859375
1774471246210188800,4.347188720703125,0.3278656005859375,0.22686767578125,1.1817474365234375
1774471246220215800,4.3572158203125,0.3660430908203125,0.1978302001953125,1.0510101318359375
1774471246230243600,4.36724365234375,0.4342193603515625,0.2394561767578125,0.9497833251953125
1774471246240270800,4.377270751953125,0.4161834716796875,0.1593170166015625,0.8211212158203125
1774471246250298600,4.387298583984375,0.3335723876953125,0.1044769287109375,0.6531524658203125
1774471246260325600,4.39732568359375,0.2933349609375,0.125823974609375,0.6019287109375
1774471246270354000,4.40735400390625,0.249176025390625,0.220001220703125,0.6559295654296875
1774471246280380700,4.417380615234375,0.1681671142578125,0.27777099609375,0.7809295654296875
1774471246290408000,4.427407958984375,0.1155853271484375,0.2135162353515625,0.8857574462890625
1774471246300435700,4.437435791015625,0.05828857421875,0.1868743896484375,0.9736785888671875
1774471246310462700,4.447462646484375,0.005889892578125,0.229217529296875,0.9867401123046875
1774471246320490800,4.45749072265625,-0.0055084228515625,0.2990875244140625,0.991607666015625
1774471246330517800,4.467517822265625,-0.0511932373046875,0.3585052490234375,1.0213470458984375
1774471246340545800,4.4775458984375,-0.086700439453125,0.3879852294921875,1.02001953125
1774471246350572800,4.48757275390625,-0.0304718017578125,0.3650970458984375,1.047607421875
1774471246360599800,4.497599853515625,0.0559234619140625,0.409576416015625,1.036651611328125
1774471246370627800,4.5076279296875,0.079010009765625,0.467041015625,0.9618072509765625
1774471246380654800,4.51765478515625,0.00128173828125,0.526214599609375,0.9051055908203125
1774471246390682600,4.5276826171875,-0.1276397705078125,0.555206298828125,0.8870086669921875
1774471246400710000,4.5377099609375,-0.3622283935546875,0.5850372314453125,0.887054443359375
1774471246410737700,4.547737548828125,-0.338653564453125,0.4831695556640625,0.8668975830078125
1774471246420764700,4.5577646484375,-0.3548736572265625,0.473724365234375,0.8643951416015625
1774471246430792700,4.567792724609375,-0.44647216796875,0.4605560302734375,0.900482177734375
1774471246440819700,4.57781982421875,-0.4159088134765625,0.4001922607421875,0.83758544921875
1774471246450846700,4.5878466796875,-0.319122314453125,0.2965240478515625,0.7532958984375
1774471246460874800,4.597874755859375,-0.2275390625,0.171539306640625,0.7073516845703125
1774471246470901800,4.60790185546875,-0.3628387451171875,0.1030731201171875,0.65301513671875
1774471246480929800,4.6179296875,-0.4281158447265625,0.1410980224609375,0.6294097900390625
1774471246490956800,4.627956787109375,-0.563201904296875,0.190277099609375,0.70916748046875
1774471246500984600,4.637984619140625,-0.79534912109375,0.1595306396484375,0.8233642578125
1774471246511011800,4.64801171875,-0.87286376953125,0.0587005615234375,0.8367919921875
1774471246521039600,4.65803955078125,-0.62054443359375,0.0354156494140625,0.647796630859375
1774471246531067000,4.66806689453125,-0.3621063232421875,-0.051788330078125,0.75067138671875
1774471246541094000,4.678093994140625,-0.32427978515625,0.0065155029296875,0.865325927734375
1774471246551121700,4.68812158203125,-0.474395751953125,0.2514801025390625,1.0467681884765625
1774471246561149000,4.69814892578125,-0.4639129638671875,0.21826171875,1.2274017333984375
1774471246571176700,4.7081767578125,-0.5966949462890625,0.18927001953125,1.3136138916015625
1774471246581203700,4.71820361328125,-0.627471923828125,0.3155517578125,1.328857421875
1774471246591231700,4.728231689453125,-0.5440216064453125,0.4969329833984375,1.192535400390625
1774471246601258800,4.7382587890625,-0.341461181640625,0.6242218017578125,0.9666748046875
1774471246611285800,4.74828564453125,-0.125,0.4732818603515625,0.7624969482421875
1774471246621313800,4.758313720703125,0.121978759765625,0.1492919921875,0.632568359375
1774471246631340800,4.7683408203125,0.2899169921875,0.0123443603515625,0.6140289306640625
1774471246641368800,4.778368896484375,0.22698974609375,0.216766357421875,0.80523681640625
1774471246651395800,4.788395751953125,0.082977294921875,0.3517303466796875,0.9018707275390625
1774471246661423600,4.798423583984375,-0.1219329833984375,0.2650909423828125,0.8570556640625
1774471246671451000,4.808450927734375,-0.243865966796875,0.1702423095703125,0.8908843994140625
1774471246681478000,4.818477783203125,-0.2581787109375,0.0005950927734375,0.947021484375
1774471246691505700,4.828505615234375,-0.2869110107421875,0.0381011962890625,1.12115478515625
1774471246701533000,4.838532958984375,-0.4053497314453125,0.0309600830078125,1.1314697265625
1774471246711560700,4.848560791015625,-0.4184112548828125,-0.1889495849609375,0.984344482421875
1774471246721588000,4.858587890625,-0.4097747802734375,-0.18487548828125,1.0086212158203125
1774471246731615700,4.86861572265625,-0.297515869140625,-0.2027435302734375,0.9997711181640625
1774471246741642800,4.878642822265625,-0.1804046630859375,-0.3292694091796875,0.9315185546875
1774471246751669800,4.888669677734375,-0.1524505615234375,-0.28399658203125,1.0945587158203125
1774471246761697800,4.89869775390625,-0.0746612548828125,-0.393463134765625,0.9889984130859375
1774471246771724800,4.908724853515625,0.0288238525390625,-0.409271240234375,0.9384765625
1774471246781752800,4.9187529296875,0.12701416015625,-0.38360595703125,0.89892578125
1774471246791779800,4.92877978515625,0.0352020263671875,-0.3340606689453125,0.944244384765625
1774471246801808000,4.938807861328125,-0.0244903564453125,-0.2663421630859375,1.0184173583984375
1774471246811835000,4.9488349609375,0.0781707763671875,-0.2895355224609375,0.8677215576171875
1774471246821861600,4.958861572265625,0.0146026611328125,-0.1700897216796875,0.8891448974609375
1774471246831890000,4.968889892578125,-0.0409698486328125,-0.05572509765625,0.9072418212890625
1774471246841916700,4.978916748046875,0.0861053466796875,-0.1529388427734375,0.8324127197265625
1774471246851944700,4.98894482421875,0.2426300048828125,-0.35107421875,0.89202880859375
1774471246861972000,4.998971923828125,0.153961181640625,-0.43902587890625,0.900726318359375
1774471246871999700,5.008999755859375,-0.018585205078125,-0.2760162353515625,0.9841461181640625
1774471246882026800,5.01902685546875,-0.1934051513671875,-0.112091064453125,1.0378570556640625
1774471246892053500,5.029053466796875,-0.2415008544921875,-0.145355224609375,0.9802093505859375
1774471246902081500,5.03908154296875,-0.12298583984375,-0.2114715576171875,0.9351043701171875
1774471246912108500,5.049108642578125,-0.0254058837890625,-0.215362548828125,0.9578399658203125
1774471246922136600,5.059136474609375,0.0061798095703125,-0.324737548828125,0.95892333984375
1774471246932163600,5.06916357421875,-0.0464019775390625,-0.4100341796875,0.9971771240234375
1774471246942190600,5.079190673828125,-0.0595855712890625,-0.418548583984375,1.0470428466796875
1774471246952218600,5.089218505859375,0.071319580078125,-0.4743194580078125,1.0009307861328125
1774471246962245400,5.099245361328125,0.038665771484375,-0.5105133056640625,1.0302886962890625
1774471246972273700,5.109273681640625,-0.1042633056640625,-0.50823974609375,1.0377655029296875
1774471246982300400,5.119300537109375,-0.171356201171875,-0.438873291015625,1.0531768798828125
1774471246992328700,5.12932861328125,-0.24169921875,-0.31011962890625,1.056854248046875
1774471247002355500,5.13935546875,-0.2104339599609375,-0.4313812255859375,1.0479888916015625
1774471247012382500,5.149382568359375,-0.107574462890625,-0.5124969482421875,0.961517333984375
1774471247022410800,5.15941064453125,-0.1310882568359375,-0.3066864013671875,1.0040283203125
1774471247032437500,5.1694375,-0.253448486328125,-0.136474609375,1.020660400390625
1774471247042465500,5.179465576171875,-0.15948486328125,-0.172882080078125,0.99090576171875
1774471247052492500,5.189492431640625,-0.12408447265625,-0.2621612548828125,1.0088653564453125
1774471247062520600,5.1995205078125,-0.241943359375,-0.2360382080078125,1.0247039794921875
1774471247072547300,5.20954736328125,-0.2858428955078125,-0.2162017822265625,1.00006103515625
1774471247082574600,5.21957470703125,-0.262176513671875,-0.1439666748046875,1.0001220703125
1774471247092602400,5.229602294921875,-0.251678466796875,-0.1645660400390625,0.994354248046875
1774471247102629400,5.23962939453125,-0.2526397705078125,-0.269073486328125,1.0263824462890625
1774471247112657700,5.24965771484375,-0.3439483642578125,-0.33447265625,1.0803680419921875
1774471247122684400,5.259684326171875,-0.2883758544921875,-0.2821044921875,1.0732269287109375
1774471247132712700,5.269712646484375,-0.1135711669921875,-0.212371826171875,1.043060302734375
1774471247142739500,5.279739501953125,0.0023956298828125,-0.2398529052734375,0.95758056640625
1774471247152766500,5.289766357421875,-0.0131988525390625,-0.2829132080078125,0.945343017578125
1774471247162794500,5.29979443359375,-0.34320068359375,-0.1905059814453125,1.1125640869140625
1774471247172821500,5.309821533203125,-0.48419189453125,-0.087432861328125,1.10546875
1774471247182849500,5.319849609375,-0.4453582763671875,0.0417938232421875,1.0722198486328125
1774471247192876500,5.32987646484375,-0.5792083740234375,0.1041412353515625,1.0157928466796875
1774471247202904600,5.339904541015625,-0.6415863037109375,0.1681671142578125,0.9751739501953125
1774471247212931600,5.349931640625,-0.7674102783203125,0.2899017333984375,1.0195159912109375
1774471247222959600,5.359959716796875,-0.7691497802734375,0.3426971435546875,0.893707275390625
1774471247232986400,5.369986328125,-0.473480224609375,0.3867034912109375,0.78997802734375
1774471247243013600,5.380013671875,-0.1689300537109375,0.308197021484375,0.5663604736328125
1774471247253041400,5.39004150390625,-0.0473785400390625,0.2643585205078125,0.4146270751953125
1774471247263068400,5.400068359375,-0.0487213134765625,0.25335693359375,0.35430908203125
1774471247273096400,5.410096435546875,-0.3847503662109375,0.2722625732421875,0.61236572265625
1774471247283123500,5.42012353515625,-0.821502685546875,0.1314849853515625,0.732147216796875
1774471247293151700,5.43015185546875,-1.0545501708984375,0.191650390625,0.8438568115234375
1774471247303178500,5.440178466796875,-0.9311981201171875,0.3275299072265625,0.78369140625
1774471247313205500,5.45020556640625,-0.78173828125,0.440887451171875,0.7399139404296875
1774471247323233500,5.460233642578125,-0.5852203369140625,0.364410400390625,0.6865386962890625
1774471247333260500,5.470260498046875,-0.477630615234375,0.2310028076171875,0.5874786376953125
1774471247343288300,5.480288330078125,-0.2681427001953125,0.115447998046875,0.3951263427734375
1774471247353315600,5.490315673828125,0.03314208984375,0.069091796875,0.2943878173828125
1774471247363343400,5.50034326171875,0.035400390625,0.136016845703125,0.196441650390625
1774471247373370600,5.51037060546875,-0.0547637939453125,0.2289276123046875,0.3255767822265625
1774471247383398700,5.520398681640625,-0.273712158203125,0.2645263671875,0.5524749755859375
1774471247393425400,5.53042529296875,-0.4920654296875,0.2454986572265625,0.6303253173828125
1774471247403452700,5.54045263671875,-0.6983642578125,0.3774566650390625,0.7342376708984375
1774471247413480400,5.55048046875,-0.8721466064453125,0.5613861083984375,0.9262847900390625
1774471247423507500,5.560507568359375,-0.6721649169921875,0.5784912109375,0.8996429443359375
1774471247433535500,5.570535400390625,-0.33551025390625,0.555572509765625,0.859375
1774471247443562500,5.5805625,-0.3076324462890625,0.596435546875,0.94329833984375
1774471247453590500,5.590590576171875,-0.2723388671875,0.511566162109375,0.9962158203125
1774471247463617500,5.600617431640625,-0.261688232421875,0.2801513671875,1.0555419921875
1774471247473644500,5.61064453125,-0.662872314453125,0.3065643310546875,1.2133026123046875
1774471247483672600,5.620672607421875,-0.956298828125,0.3985137939453125,1.329010009765625
1774471247493699600,5.630699462890625,-0.7370147705078125,0.42041015625,1.2873382568359375
1774471247503727400,5.640727294921875,-0.511077880859375,0.5207061767578125,1.0648651123046875
1774471247513754600,5.650754638671875,-0.0025177001953125,0.566070556640625,0.8610076904296875
1774471247523782400,5.660782470703125,0.5106048583984375,0.6249847412109375,0.7313385009765625
1774471247533809400,5.670809326171875,0.63848876953125,0.57354736328125,0.6630401611328125
1774471247543836700,5.680836669921875,0.493988037109375,0.4708709716796875,0.7047119140625
1774471247553864400,5.690864501953125,0.2130279541015625,0.3369293212890625,0.7812652587890625
1774471247563891700,5.7008916015625,-0.1566162109375,0.3273162841796875,0.93524169921875
1774471247573919500,5.71091943359375,-0.3075714111328125,0.30194091796875,1.0134735107421875
1774471247583946500,5.720946533203125,-0.248382568359375,0.34100341796875,1.0276641845703125
1774471247593974500,5.730974609375,-0.136016845703125,0.4633941650390625,1.0228118896484375
1774471247604001500,5.74100146484375,0.009857177734375,0.6361541748046875,1.0325164794921875
1774471247614029600,5.751029541015625,0.11749267578125,0.6922607421875,1.0670013427734375
1774471247624056600,5.761056640625,0.181121826171875,0.5337371826171875,0.9701080322265625
1774471247634083600,5.77108349609375,0.273590087890625,0.46002197265625,0.882781982421875
1774471247644111600,5.781111572265625,0.1635284423828125,0.3521728515625,0.7942352294921875
1774471247654138600,5.791138671875,0.00970458984375,0.233062744140625,0.7207183837890625
1774471247664166400,5.80116650390625,-0.0477294921875,0.2037200927734375,0.724090576171875
1774471247674193700,5.811193603515625,-0.0803070068359375,0.25543212890625,0.687103271484375
1774471247684221400,5.821221435546875,-0.1600341796875,0.3558349609375,0.59375
1774471247694248400,5.83124853515625,-0.228485107421875,0.4950714111328125,0.6359710693359375
1774471247704275700,5.841275634765625,-0.160308837890625,0.61553955078125,0.790313720703125
1774471247714303500,5.851303466796875,-0.13409423828125,0.661834716796875,0.88092041015625
1774471247724330500,5.86133056640625,-0.126953125,0.6018829345703125,0.9215850830078125
1774471247734358500,5.871358642578125,-0.07806396484375,0.5612335205078125,0.960601806640625
1774471247744385500,5.881385498046875,-0.063690185546875,0.6410064697265625,1.0318603515625
1774471247754413600,5.89141357421875,-0.051177978515625,0.6336669921875,1.0664520263671875
1774471247764440600,5.901440673828125,0.0475311279296875,0.6534271240234375,1.0410614013671875
1774471247774467600,5.911467529296875,0.146728515625,0.69915771484375,0.950164794921875
1774471247784495600,5.92149560546875,0.1862945556640625,0.7234344482421875,0.74969482421875
1774471247794522600,5.931522705078125,0.1547088623046875,0.7327880859375,0.53070068359375
1774471247804550700,5.941550537109375,-0.0092620849609375,0.771942138671875,0.38433837890625
1774471247814577700,5.95157763671875,-0.136810302734375,0.8121337890625,0.307159423828125
1774471247824605400,5.96160546875,-0.0662841796875,0.7888336181640625,0.35247802734375
1774471247834632700,5.9716328125,0.12200927734375,0.679840087890625,0.5242919921875
1774471247844659500,5.981659423828125,0.2730712890625,0.564971923828125,0.684326171875
1774471247854687500,5.9916875,0.4045257568359375,0.354278564453125,0.740081787109375
1774471247864714500,6.001714599609375,0.55908203125,0.2106781005859375,0.8029632568359375
1774471247874742500,6.011742431640625,0.5999298095703125,0.183074951171875,0.9481201171875
1774471247884769500,6.02176953125,0.4665069580078125,0.1379852294921875,0.92803955078125
1774471247894798000,6.031798095703125,0.32757568359375,0.1766815185546875,1.030517578125
1774471247904825000,6.0418251953125,0.1078643798828125,0.2294158935546875,1.05975341796875
1774471247914852000,6.05185205078125,-0.2030487060546875,0.492340087890625,1.1614990234375
1774471247924880100,6.061880126953125,-0.5309600830078125,0.653045654296875,1.314453125
1774471247934907000,6.071906982421875,-0.659698486328125,0.576263427734375,1.29931640625
1774471247944935200,6.08193505859375,-0.4859161376953125,0.3464813232421875,1.2292327880859375
1774471247954962000,6.0919619140625,-0.18890380859375,0.0862274169921875,1.191070556640625
1774471247964990200,6.101990234375,0.1153411865234375,-0.0821380615234375,1.2109527587890625
1774471247975017000,6.112016845703125,0.2567596435546875,-0.09771728515625,1.1989593505859375
1774471247985045000,6.122044921875,0.248260498046875,-0.0202484130859375,1.20050048828125
1774471247995072000,6.132072021484375,0.128265380859375,0.1199493408203125,1.1656341552734375
1774471248005099000,6.14209912109375,0.0127716064453125,0.2509613037109375,1.05841064453125
1774471248015127000,6.152126953125,0.0559539794921875,0.3094482421875,0.93914794921875
1774471248025154000,6.162154052734375,0.1361541748046875,0.3034210205078125,0.8379974365234375
1774471248035182000,6.17218212890625,0.3415679931640625,0.272491455078125,0.81982421875
1774471248045208800,6.182208740234375,0.487060546875,0.283538818359375,0.859893798828125
1774471248055237000,6.192237060546875,0.5752716064453125,0.352630615234375,0.9580230712890625
1774471248065263900,6.202263916015625,0.615478515625,0.4081268310546875,1.0511016845703125
1774471248075292200,6.212292236328125,0.617523193359375,0.485260009765625,1.092437744140625
1774471248085319200,6.222319091796875,0.6285400390625,0.5063018798828125,1.1287078857421875
1774471248095346000,6.232345947265625,0.592620849609375,0.602569580078125,1.073944091796875
1774471248105374200,6.242374267578125,0.467742919921875,0.688323974609375,0.962493896484375
1774471248115401000,6.25240087890625,0.3293304443359375,0.67510986328125,0.831024169921875
1774471248125429000,6.262428955078125,0.1717376708984375,0.6499176025390625,0.712677001953125
1774471248135456000,6.2724560546875,-0.0243988037109375,0.58807373046875,0.6586456298828125
1774471248145484000,6.282484130859375,-0.236358642578125,0.5632476806640625,0.6411895751953125
1774471248155511000,6.292510986328125,-0.31756591796875,0.632080078125,0.55633544921875
1774471248165539000,6.3025390625,-0.2061767578125,0.712921142578125,0.523956298828125
1774471248175566000,6.312566162109375,0.0258331298828125,0.7353363037109375,0.6071014404296875
1774471248185593000,6.322593017578125,0.1345062255859375,0.747100830078125,0.7266693115234375
1774471248195621000,6.33262109375,0.1244964599609375,0.7166290283203125,0.7834320068359375
1774471248205648000,6.34264794921875,0.1699676513671875,0.5676727294921875,0.814117431640625
1774471248215676200,6.35267626953125,0.200836181640625,0.464111328125,0.83306884765625
1774471248225703000,6.362702880859375,0.2051544189453125,0.3816986083984375,0.8405609130859375
1774471248235731200,6.372731201171875,0.2495574951171875,0.2630767822265625,0.8737030029296875
1774471248245758000,6.382758056640625,0.279754638671875,0.104888916015625,0.984100341796875
1774471248255785000,6.392784912109375,0.2835235595703125,-0.038848876953125,0.95654296875
1774471248265813000,6.40281298828125,0.2740020751953125,-0.0319671630859375,0.8514862060546875
1774471248275840000,6.412840087890625,0.193115234375,0.040130615234375,0.7953948974609375
1774471248285868000,6.422867919921875,0.2216644287109375,0.0957183837890625,0.79052734375
1774471248295895000,6.43289501953125,0.219390869140625,0.1917266845703125,0.803314208984375
1774471248305923000,6.442923095703125,0.13494873046875,0.32427978515625,0.7629547119140625
1774471248315949800,6.45294970703125,0.168792724609375,0.3348388671875,0.761016845703125
1774471248325978000,6.46297802734375,0.15618896484375,0.3703460693359375,0.8028717041015625
1774471248336004900,6.4730048828125,0.08831787109375,0.374298095703125,0.8683929443359375
1774471248346032000,6.4830322265625,0.0294952392578125,0.3665313720703125,0.970977783203125
1774471248356060000,6.493059814453125,0.0566864013671875,0.3353729248046875,1.0745849609375
1774471248366087000,6.5030869140625,0.11749267578125,0.2478179931640625,1.1499176025390625
1774471248376115200,6.513115234375,0.08648681640625,0.10772705078125,1.23931884765625
1774471248386142000,6.523141845703125,-0.150390625,0.0335693359375,1.38043212890625
1774471248396170200,6.533170166015625,-0.633636474609375,0.0904083251953125,1.30780029296875
1774471248406197000,6.543197021484375,-0.45550537109375,0.0534515380859375,1.041259765625
1774471248416225000,6.55322509765625,0.077789306640625,-0.039154052734375,0.7716217041015625
1774471248426252000,6.563251953125,0.1783294677734375,-0.0863037109375,0.6276092529296875
1774471248436279000,6.573279052734375,-0.0344085693359375,-0.0190582275390625,0.61181640625
1774471248446306800,6.583306884765625,-0.130615234375,0.1450653076171875,0.6577301025390625
1774471248456334000,6.593333984375,0.0131378173828125,0.264434814453125,0.8552398681640625
1774471248466362000,6.603362060546875,0.06585693359375,0.14837646484375,1.057525634765625
1774471248476388900,6.613388916015625,0.027740478515625,-0.01171875,1.1780548095703125
1774471248486417200,6.623417236328125,0.074462890625,-0.1532440185546875,1.244232177734375
1774471248496444000,6.63344384765625,0.111541748046875,-0.227691650390625,1.275177001953125
1774471248506472200,6.64347216796875,0.0299835205078125,-0.1775360107421875,1.2924041748046875
1774471248516499000,6.6534990234375,-0.010528564453125,0.020050048828125,1.1684417724609375
1774471248526526000,6.66352587890625,0.063751220703125,0.215484619140625,0.984375
1774471248536554000,6.673553955078125,0.108245849609375,0.319091796875,0.8936614990234375
1774471248546581000,6.6835810546875,0.108001708984375,0.31024169921875,0.855743408203125
1774471248556609000,6.693609130859375,0.130889892578125,0.307769775390625,0.856903076171875
1774471248566636000,6.703635986328125,0.080047607421875,0.2807769775390625,0.92205810546875
1774471248576664000,6.7136640625,-0.0698089599609375,0.2020416259765625,0.9722900390625
1774471248586691000,6.723691162109375,-0.1874542236328125,0.208404541015625,1.00323486328125
1774471248596719000,6.733718994140625,-0.2200164794921875,0.2607421875,1.0139007568359375
1774471248606745900,6.743745849609375,-0.195770263671875,0.275970458984375,1.0243377685546875
1774471248616773000,6.753773193359375,-0.143646240234375,0.231903076171875,1.094482421875
1774471248626801000,6.76380078125,-0.1192169189453125,0.139892578125,1.223358154296875
1774471248636828000,6.773827880859375,-0.074127197265625,0.010955810546875,1.233001708984375
1774471248646856200,6.783856201171875,0.04547119140625,-0.0062408447265625,1.1317138671875
1774471248656883000,6.793883056640625,0.1881561279296875,0.0596923828125,1.0966796875
1774471248666911200,6.8039111328125,0.234344482421875,0.1081390380859375,1.053009033203125
1774471248676938000,6.81393798828125,0.1845855712890625,0.1152801513671875,0.98895263671875
1774471248686965000,6.823965087890625,0.0917510986328125,0.1069793701171875,0.920440673828125
1774471248696993000,6.833992919921875,-0.02557373046875,0.1269378662109375,0.8650054931640625
1774471248707020000,6.84402001953125,-0.1195220947265625,0.1584014892578125,0.9048004150390625
1774471248717047800,6.8540478515625,-0.1871795654296875,0.1534881591796875,0.968017578125
1774471248727075000,6.864074951171875,-0.18157958984375,0.096435546875,1.0093231201171875
1774471248737103000,6.87410302734375,-0.124053955078125,0.0272369384765625,1.0378570556640625
1774471248747129900,6.8841298828125,-0.0996856689453125,0.008514404296875,1.0384063720703125
1774471248757158100,6.894158203125,-0.0888519287109375,0.0143890380859375,1.0455780029296875
1774471248767185000,6.904184814453125,-0.076263427734375,0.0572052001953125,1.0322113037109375
1774471248777212200,6.914212158203125,-0.0945587158203125,0.0774688720703125,1.0315399169921875
1774471248787240000,6.924239990234375,-0.12738037109375,0.0807952880859375,1.034881591796875
1774471248797267000,6.934266845703125,-0.1389617919921875,0.0898284912109375,1.024261474609375
1774471248807295000,6.944294921875,-0.1300811767578125,0.093231201171875,1.0125579833984375
1774471248817322000,6.954322021484375,-0.1083831787109375,0.087738037109375,0.9883270263671875
1774471248827350000,6.96435009765625,-0.1202850341796875,0.0923309326171875,0.9729766845703125
1774471248837377000,6.974376953125,-0.151123046875,0.1078643798828125,0.972930908203125
1774471248847405000,6.984405029296875,-0.17596435546875,0.1128692626953125,0.984954833984375
1774471248857432000,6.99443212890625,-0.1959381103515625,0.1131591796875,0.980712890625
1774471248867459000,7.004458984375,-0.194671630859375,0.1072845458984375,0.9715423583984375
1774471248877486800,7.01448681640625,-0.173004150390625,0.1008148193359375,0.963104248046875
1774471248887514000,7.02451416015625,-0.15228271484375,0.0988311767578125,0.9548492431640625
1774471248897542000,7.0345419921875,-0.1484527587890625,0.1020965576171875,0.9639892578125
1774471248907569000,7.04456884765625,-0.163726806640625,0.10693359375,0.97784423828125
1774471248917597000,7.054596923828125,-0.153167724609375,0.10369873046875,0.97369384765625
1774471248927624000,7.0646240234375,-0.1136016845703125,0.110595703125,0.9740753173828125
1774471248937652200,7.07465234375,-0.09173583984375,0.105682373046875,0.9922027587890625
1774471248947679000,7.084678955078125,-0.111602783203125,0.09307861328125,1.003753662109375
1774471248957706000,7.0947060546875,-0.1275634765625,0.09442138671875,0.99725341796875
1774471248967734000,7.104734130859375,-0.1240692138671875,0.105560302734375,1.000030517578125
1774471248977761000,7.114760986328125,-0.1251678466796875,0.09979248046875,1.0035400390625
1774471248987788800,7.124788818359375,-0.1274871826171875,0.0922698974609375,0.9920806884765625
1774471248997816000,7.134816162109375,-0.1232757568359375,0.09686279296875,0.9817962646484375
1774471249007844000,7.144843994140625,-0.1202545166015625,0.107452392578125,0.975799560546875
1774471249017871000,7.15487109375,-0.1183929443359375,0.113067626953125,0.991973876953125
1774471249027899100,7.164899169921875,-0.1274566650390625,0.1058502197265625,1.003631591796875
1774471249037926000,7.17492578125,-0.1443939208984375,0.0999755859375,0.9949798583984375
1774471249047953200,7.184953125,-0.1488800048828125,0.0966339111328125,0.98553466796875
1774471249057981000,7.19498095703125,-0.1374359130859375,0.0884857177734375,0.99322509765625
1774471249068008000,7.205008056640625,-0.13323974609375,0.0760498046875,1.000732421875
1774471249078036000,7.215035888671875,-0.135162353515625,0.0711669921875,1.000396728515625
1774471249088063000,7.22506298828125,-0.132904052734375,0.06756591796875,0.9897003173828125
1774471249098091000,7.235091064453125,-0.1240081787109375,0.07244873046875,0.975433349609375
1774471249108118000,7.245117919921875,-0.1164093017578125,0.0661468505859375,0.967559814453125
1774471249118146000,7.25514599609375,-0.1135406494140625,0.0738525390625,0.974151611328125
1774471249128173000,7.265173095703125,-0.1203765869140625,0.0836639404296875,0.975677490234375
1774471249138200000,7.275199951171875,-0.1256256103515625,0.0764312744140625,1.002838134765625
1774471249148227800,7.285227783203125,-0.1378631591796875,0.072540283203125,1.01446533203125
1774471249158255000,7.295255126953125,-0.1422119140625,0.0707550048828125,1.00994873046875
1774471249168283000,7.305282958984375,-0.1344757080078125,0.0601654052734375,0.9998779296875
1774471249178310000,7.315309814453125,-0.12060546875,0.0537567138671875,0.994781494140625
1774471249188338000,7.325337890625,-0.1130523681640625,0.0535125732421875,0.9921112060546875
1774471249198365000,7.335364990234375,-0.1083526611328125,0.0532989501953125,0.9871826171875
1774471249208393200,7.345393310546875,-0.1110076904296875,0.05181884765625,0.9786376953125
1774471249218420000,7.355419921875,-0.1225128173828125,0.05645751953125,0.9752349853515625
1774471249228447000,7.365447021484375,-0.1263275146484375,0.0618438720703125,0.9795684814453125
1774471249238475000,7.37547509765625,-0.1191864013671875,0.072784423828125,0.9792327880859375
1774471249248502000,7.385501953125,-0.1184539794921875,0.0842742919921875,0.984161376953125
1774471249258530000,7.395530029296875,-0.1212158203125,0.0815582275390625,1.0099945068359375
1774471249268557000,7.40555712890625,-0.11724853515625,0.0734710693359375,1.0193939208984375
1774471249278584800,7.415584716796875,-0.10723876953125,0.07177734375,1.00970458984375
1774471249288612000,7.425612060546875,-0.1087493896484375,0.0696258544921875,0.985992431640625
1774471249298640100,7.43564013671875,-0.1118011474609375,0.0734405517578125,0.974517822265625
1774471249308667000,7.4456669921875,-0.110321044921875,0.0784454345703125,0.9771270751953125
1774471249318694100,7.455694091796875,-0.1109466552734375,0.0765838623046875,0.98199462890625
1774471249328722000,7.465721923828125,-0.11236572265625,0.0707855224609375,0.9895172119140625
1774471249338749000,7.4757490234375,-0.1122283935546875,0.0681304931640625,0.991668701171875
1774471249348777000,7.48577685546875,-0.1191253662109375,0.063140869140625,0.9920806884765625
1774471249358804000,7.495803955078125,-0.12457275390625,0.0598602294921875,0.9974822998046875
1774471249368832000,7.50583203125,-0.1267242431640625,0.0643157958984375,0.9893646240234375
1774471249378859000,7.51585888671875,-0.12188720703125,0.064727783203125,0.9832305908203125
1774471249388887000,7.525886962890625,-0.112213134765625,0.058135986328125,0.991119384765625
1774471249398914000,7.5359140625,-0.101318359375,0.060943603515625,1.0034332275390625
1774471249408942000,7.545942138671875,-0.103729248046875,0.0626068115234375,1.008697509765625
1774471249418968800,7.55596875,-0.107086181640625,0.064300537109375,1.0106658935546875
1774471249428996000,7.56599609375,-0.11376953125,0.05914306640625,1.0116119384765625
1774471249439023900,7.57602392578125,-0.111083984375,0.0587615966796875,1.0016937255859375
1774471249449051100,7.586051025390625,-0.1100311279296875,0.062286376953125,0.9782867431640625
1774471249459079000,7.596078857421875,-0.1158905029296875,0.06280517578125,0.98406982421875
1774471249469106000,7.60610595703125,-0.1277008056640625,0.065185546875,1.0006866455078125
1774471249479134200,7.61613427734375,-0.1226043701171875,0.0604095458984375,0.9993133544921875
1774471249489161000,7.626160888671875,-0.10931396484375,0.0559234619140625,0.9851837158203125
1774471249499188000,7.63618798828125,-0.099639892578125,0.0430450439453125,0.98223876953125
1774471249509216000,7.646216064453125,-0.09735107421875,0.0283660888671875,0.9817352294921875
1774471249519243000,7.656242919921875,-0.101226806640625,0.009552001953125,1.0010223388671875
1774471249529271000,7.66627099609375,-0.1048736572265625,0.0192413330078125,0.9783935546875
1774471249539298000,7.676298095703125,-0.0476531982421875,0.062286376953125,0.957427978515625
1774471249549325800,7.686325927734375,-0.0081634521484375,0.0650177001953125,0.9546356201171875
1774471249559353000,7.69635302734375,-0.03228759765625,0.058929443359375,0.9387969970703125
1774471249569381000,7.706381103515625,-0.09661865234375,0.0650177001953125,0.938812255859375
1774471249579408000,7.716407958984375,-0.1352996826171875,0.0631866455078125,0.945526123046875
1774471249589435100,7.72643505859375,-0.11529541015625,0.059814453125,0.9705810546875
1774471249599463000,7.736462890625,-0.11688232421875,0.0484161376953125,1.0048828125
1774471249609490000,7.746489990234375,-0.126983642578125,0.040374755859375,1.015350341796875
1774471249619518000,7.75651806640625,-0.1187896728515625,0.05181884765625,1.013763427734375
1774471249629545000,7.766544921875,-0.11151123046875,0.04931640625,1.009765625
1774471249639573000,7.776572998046875,-0.104034423828125,0.0421295166015625,1.0162200927734375
1774471249649600000,7.78660009765625,-0.0829315185546875,0.0391998291015625,1.0233154296875
1774471249659628000,7.7966279296875,-0.08697509765625,0.0420074462890625,1.0404815673828125
1774471249669655000,7.806655029296875,-0.0951690673828125,0.0549774169921875,1.0680389404296875
1774471249679682000,7.81668212890625,-0.0847015380859375,0.03778076171875,1.094024658203125
1774471249689710000,7.8267099609375,-0.0706939697265625,0.0352020263671875,1.0870208740234375
1774471249699737000,7.836737060546875,-0.0815887451171875,0.0594482421875,1.081268310546875
1774471249709764900,7.846764892578125,-0.0872650146484375,0.048095703125,1.1108245849609375
1774471249719792000,7.856792236328125,-0.0913848876953125,0.0064697265625,1.1310577392578125
1774471249729820000,7.86681982421875,-0.1381683349609375,0.0059356689453125,1.091552734375
1774471249739847000,7.876846923828125,-0.1946868896484375,0.025726318359375,1.04986572265625
1774471249749875000,7.886875,-0.12591552734375,0.0355987548828125,1.041229248046875
1774471249759902000,7.89690185546875,-0.115081787109375,0.00665283203125,1.02301025390625
1774471249769930200,7.90693017578125,-0.116546630859375,0.0278167724609375,0.990081787109375
1774471249779957000,7.91695703125,-0.095855712890625,0.0488433837890625,0.969085693359375
1774471249789984000,7.92698388671875,-0.088775634765625,0.049468994140625,0.96929931640625
1774471249800012000,7.937011962890625,-0.118377685546875,0.046905517578125,0.993743896484375
1774471249810039000,7.9470390625,-0.0937652587890625,-0.0024871826171875,0.98956298828125
1774471249820066800,7.95706689453125,-0.0454559326171875,-0.067291259765625,0.972442626953125
1774471249830094000,7.967093994140625,-0.00244140625,-0.1164398193359375,0.9625701904296875
1774471249840122000,7.9771220703125,-0.0522003173828125,-0.107696533203125,0.9443359375
1774471249850148900,7.98714892578125,-0.122528076171875,-0.057342529296875,0.9539031982421875
1774471249860177200,7.99717724609375,-0.1482086181640625,-0.04937744140625,0.968505859375
1774471249870204000,8.007203857421874,-0.096588134765625,-0.0778961181640625,0.954315185546875
1774471249880231200,8.017231201171874,-0.0417327880859375,-0.1221160888671875,0.9320526123046875
1774471249890259000,8.027259033203125,0.0045623779296875,-0.1741485595703125,0.940673828125
1774471249900285400,8.037285400390624,-0.0017242431640625,-0.186279296875,0.93634033203125
1774471249910313500,8.0473134765625,0.0123291015625,-0.1819000244140625,0.9669647216796875
1774471249920340200,8.05734033203125,-0.0143890380859375,-0.1911163330078125,1.01092529296875
1774471249930368500,8.067368408203125,-0.008270263671875,-0.202484130859375,1.0294647216796875
1774471249940395300,8.077395263671875,0.0121002197265625,-0.2010498046875,1.0118560791015625
1774471249950423600,8.087423583984375,-0.00262451171875,-0.1876678466796875,0.98895263671875
1774471249960450300,8.0974501953125,-0.0317535400390625,-0.15093994140625,0.9588775634765625
1774471249970478300,8.107478271484375,-0.0525970458984375,-0.102752685546875,0.940277099609375
1774471249980505300,8.11750537109375,-0.047515869140625,-0.0550994873046875,0.9156951904296875
1774471249990532400,8.127532470703125,-0.0331268310546875,-0.0376129150390625,0.9036102294921875
1774471250000560600,8.137560546875,-0.086212158203125,0.006744384765625,0.8969268798828125
1774471250010587400,8.14758740234375,-0.137542724609375,0.0807647705078125,0.884429931640625
1774471250020615400,8.157615478515625,-0.1124114990234375,0.1087799072265625,0.90301513671875
1774471250030642400,8.167642333984375,-0.132720947265625,0.06890869140625,0.9068450927734375
1774471250040670500,8.17767041015625,-0.2733306884765625,0.060760498046875,0.9001007080078125
1774471250050697200,8.187697265625,-0.357818603515625,0.0661468505859375,0.9586639404296875
1774471250060725500,8.1977255859375,-0.1489410400390625,0.012664794921875,1.05853271484375
1774471250070752300,8.207752197265625,0.015869140625,-0.0210723876953125,0.99554443359375
1774471250080779300,8.217779296875,-0.07470703125,0.03826904296875,0.953277587890625
1774471250090807600,8.2278076171875,-0.20306396484375,0.0906219482421875,0.9874725341796875
1774471250100834300,8.237834228515625,-0.346038818359375,0.113006591796875,1.008636474609375
1774471250110862600,8.247862548828126,-0.4042510986328125,0.1197967529296875,1.044189453125
1774471250120889300,8.257889404296876,-0.2363739013671875,0.1058807373046875,1.0962371826171875
1774471250130917400,8.26791748046875,0.0015869140625,0.0926666259765625,1.099639892578125
1774471250140944400,8.2779443359375,0.17352294921875,0.115264892578125,1.0749359130859375
1774471250150972400,8.287972412109376,0.0709075927734375,0.102935791015625,1.0717315673828125
1774471250160999400,8.29799951171875,-0.0942840576171875,-0.0326385498046875,1.0888671875
1774471250171026400,8.3080263671875,-0.1669769287109375,-0.05035400390625,1.0567626953125
1774471250181054500,8.318054443359374,-0.185546875,0.05792236328125,1.0021820068359375
1774471250191081500,8.32808154296875,-0.1007537841796875,-0.0051727294921875,1.0444793701171875
1774471250201109500,8.338109619140624,-0.0980072021484375,-0.04339599609375,0.995880126953125
1774471250211136300,8.34813623046875,-0.0650482177734375,-0.038665771484375,0.97198486328125
1774471250221164500,8.35816455078125,-0.06982421875,-0.004669189453125,0.981170654296875
1774471250231191300,8.36819140625,-0.0810546875,-0.0015411376953125,1.0055694580078125
1774471250241219600,8.378219482421875,-0.0426788330078125,0.018035888671875,1.0271759033203125
1774471250251246300,8.388246337890624,-0.0157623291015625,0.033538818359375,0.9769439697265625
1774471250261273300,8.3982734375,-0.04315185546875,0.0504608154296875,0.88446044921875
1774471250271301600,8.408301513671875,-0.0878448486328125,0.0924530029296875,0.8398284912109375
1774471250281328400,8.418328369140625,-0.1370697021484375,0.10784912109375,0.9326324462890625
1774471250291356400,8.4283564453125,-0.23358154296875,0.140625,0.980560302734375
1774471250301383400,8.438383544921875,-0.255645751953125,0.0861968994140625,0.933563232421875
1774471250311411500,8.448411376953125,-0.130889892578125,0.0670623779296875,0.8965301513671875
1774471250321438200,8.458438232421875,-0.068756103515625,0.1040802001953125,0.9615478515625
1774471250331466500,8.468466552734375,-0.1225433349609375,0.0432891845703125,1.0022430419921875
1774471250341493200,8.4784931640625,-0.132659912109375,-0.0017242431640625,0.9840240478515625
1774471250351520300,8.488520263671875,-0.064971923828125,-0.05169677734375,0.99822998046875
1774471250361548500,8.498548583984375,-0.0248260498046875,-0.0881805419921875,1.01849365234375
1774471250371575300,8.5085751953125,-0.0264892578125,-0.09466552734375,1.00830078125
1774471250381603600,8.518603515625,-0.064697265625,-0.0975494384765625,1.0009002685546875
1774471250391630300,8.52863037109375,-0.0992889404296875,-0.109954833984375,1.006805419921875
1774471250401658400,8.538658447265625,-0.1051177978515625,-0.0959014892578125,1.0047454833984375
1774471250411685400,8.548685302734375,-0.0766754150390625,-0.06134033203125,0.9647064208984375
1774471250421712400,8.55871240234375,-0.0457611083984375,-0.023529052734375,0.9377593994140625
1774471250431740400,8.568740478515625,-0.0500946044921875,0.0303802490234375,0.932769775390625
1774471250441767400,8.578767333984375,-0.0994415283203125,0.0458831787109375,0.9674835205078125
1774471250451795500,8.58879541015625,-0.120086669921875,0.03302001953125,1.0515289306640625
1774471250461822500,8.598822509765625,-0.11669921875,-0.00323486328125,1.1367034912109375
1774471250471850500,8.6088505859375,-0.1281890869140625,-0.0349273681640625,1.1768798828125
1774471250481877200,8.618877197265626,-0.09478759765625,-0.0521240234375,1.1636199951171875
1774471250491905500,8.628905517578126,-0.0556640625,-0.0649871826171875,1.1021881103515625
1774471250501932300,8.638932373046876,-0.02325439453125,-0.0511474609375,1.02587890625
1774471250511959300,8.648959228515626,0.01849365234375,0.001556396484375,0.9372406005859375
1774471250521987300,8.6589873046875,0.0353851318359375,-0.0173187255859375,0.939422607421875
1774471250532014300,8.669014404296876,0.0208587646484375,-0.0404815673828125,0.9405059814453125
1774471250542042400,8.67904248046875,0.0218963623046875,-0.0460357666015625,0.9449615478515625
1774471250552069400,8.6890693359375,0.01715087890625,-0.0455169677734375,0.9950103759765625
1774471250562097400,8.699097412109374,0.0236358642578125,-0.015106201171875,1.0694122314453125
1774471250572124400,8.70912451171875,0.03118896484375,-0.033935546875,1.08831787109375
1774471250582152400,8.71915234375,0.03607177734375,-0.0642242431640625,1.04119873046875
1774471250592179200,8.72917919921875,0.04364013671875,-0.0738677978515625,0.9882049560546875
1774471250602206500,8.73920654296875,0.0328521728515625,-0.0914154052734375,0.958648681640625
1774471250612234200,8.749234130859374,0.0279083251953125,-0.08953857421875,0.9930267333984375
1774471250622261500,8.759261474609374,0.0763397216796875,-0.081939697265625,1.018585205078125
1774471250632289500,8.76928955078125,0.119781494140625,-0.1242218017578125,0.9879608154296875
1774471250642316300,8.77931640625,0.1166839599609375,-0.1245880126953125,0.987030029296875
1774471250652344600,8.789344482421875,-0.0342559814453125,-0.0940704345703125,1.0064544677734375
1774471250662371300,8.799371337890625,-0.1509246826171875,-0.097625732421875,1.0471343994140625
1774471250672399600,8.809399658203125,-0.1224822998046875,-0.134033203125,1.0986328125
1774471250682426400,8.81942626953125,-0.0888824462890625,-0.1439056396484375,1.0988311767578125
1774471250692453400,8.829453369140625,-0.104522705078125,-0.1349029541015625,1.06695556640625
1774471250702481400,8.8394814453125,-0.0758819580078125,-0.1060333251953125,1.0009613037109375
1774471250712508400,8.84950830078125,-0.0648040771484375,-0.0908203125,0.8968353271484375
1774471250722536400,8.859536376953125,-0.0477142333984375,-0.0670166015625,0.8272552490234375
1774471250732563500,8.8695634765625,-0.0782623291015625,-0.069732666015625,0.8914947509765625
1774471250742591500,8.879591552734375,-0.141754150390625,-0.1093292236328125,0.9907989501953125
1774471250752618200,8.8896181640625,-0.1897735595703125,-0.098052978515625,1.0861053466796875
1774471250762645500,8.8996455078125,-0.20947265625,-0.08648681640625,1.0917816162109375
1774471250772673300,8.90967333984375,-0.1674041748046875,-0.067230224609375,1.0791015625
1774471250782700300,8.9197001953125,-0.129486083984375,-0.0391082763671875,1.0547637939453125
1774471250792728300,8.929728271484375,-0.1571044921875,0.0027008056640625,1.037628173828125
1774471250802755300,8.93975537109375,-0.2212982177734375,0.029510498046875,1.0424652099609375
1774471250812783400,8.949783447265625,-0.24163818359375,0.031463623046875,1.0359649658203125
1774471250822810400,8.959810302734375,-0.2295074462890625,0.0593719482421875,1.009368896484375
1774471250832838400,8.96983837890625,-0.1754913330078125,0.08856201171875,0.9496002197265625
1774471250842865400,8.979865478515626,-0.140167236328125,0.0940704345703125,0.9405364990234375
1774471250852892400,8.989892333984375,-0.1483306884765625,0.112152099609375,0.964630126953125
1774471250862920400,8.99992041015625,-0.183807373046875,0.1411285400390625,1.0087890625
1774471250872947500,9.009947509765626,-0.21563720703125,0.136688232421875,1.0277862548828125
1774471250882975200,9.019975341796876,-0.18353271484375,0.11383056640625,1.0364837646484375
1774471250893002200,9.030002197265626,-0.1586151123046875,0.084991455078125,1.0651397705078125
1774471250903030300,9.0400302734375,-0.1713714599609375,0.0719146728515625,1.0720977783203125
1774471250913057300,9.050057373046876,-0.203887939453125,0.0909271240234375,1.04742431640625
1774471250923085300,9.060085205078124,-0.2148284912109375,0.10943603515625,0.983184814453125
1774471250933112300,9.0701123046875,-0.1745758056640625,0.092926025390625,0.97918701171875
1774471250943139300,9.080139404296874,-0.1694183349609375,0.1082305908203125,1.00140380859375
1774471250953167000,9.0901669921875,0.2429046630859375,0.190887451171875,1.01556396484375
1774471250963194400,9.1001943359375,0.813690185546875,0.1570281982421875,0.8111419677734375
1774471250973222100,9.11022216796875,0.1242828369140625,0.2123565673828125,0.57574462890625
1774471250983249200,9.120249267578124,-0.5708160400390625,0.305572509765625,0.76214599609375
1774471250993277200,9.130277099609375,-0.8521270751953125,0.277740478515625,1.0534210205078125
1774471251003304200,9.14030419921875,-0.829681396484375,0.19598388671875,1.2030487060546875
1774471251013332500,9.15033251953125,-0.5580596923828125,0.120513916015625,1.1663818359375
1774471251023359200,9.160359130859375,-0.3807830810546875,0.0484161376953125,1.054443359375
1774471251033386200,9.17038623046875,-0.37103271484375,0.0138092041015625,0.978363037109375
1774471251043414300,9.180414306640625,-0.2352447509765625,-0.054656982421875,1.055450439453125
1774471251053441300,9.190441162109375,-0.1066436767578125,-0.09014892578125,0.958984375
1774471251063469000,9.200468994140625,-0.104644775390625,0.0005950927734375,0.788726806640625
1774471251073496300,9.210496337890625,-0.1061553955078125,0.116943359375,0.68646240234375
1774471251083524400,9.2205244140625,-0.1904144287109375,0.1581878662109375,0.7105712890625
1774471251093551400,9.23055126953125,-0.351806640625,0.1354522705078125,0.87677001953125
1774471251103578400,9.240578369140625,-0.4647979736328125,0.1383056640625,0.9741058349609375
1774471251113606100,9.250606201171875,-0.4528961181640625,0.1139678955078125,0.9665374755859375
1774471251123633400,9.26063330078125,-0.3016815185546875,0.1008758544921875,0.9055633544921875
1774471251133661200,9.2706611328125,-0.0916290283203125,0.13323974609375,0.697998046875
1774471251143688200,9.280688232421875,-0.03240966796875,0.10601806640625,0.6358489990234375
1774471251153716200,9.29071630859375,-0.2559051513671875,0.02947998046875,0.963653564453125
1774471251163743200,9.3007431640625,-0.423797607421875,0.008880615234375,1.1077880859375
1774471251173771300,9.310771240234375,-0.5024871826171875,-0.0299072265625,1.14202880859375
1774471251183798300,9.32079833984375,-0.5057220458984375,-0.0422515869140625,1.0609588623046875
1774471251193825300,9.3308251953125,-0.45855712890625,-0.0095977783203125,0.9994964599609375
1774471251203853300,9.340853271484375,-0.4561920166015625,-0.00927734375,0.984405517578125
1774471251213880300,9.35088037109375,-0.4634246826171875,-0.0207061767578125,0.9832916259765625
1774471251223908000,9.360908203125,-0.534912109375,-0.0117950439453125,1.00457763671875
1774471251233935400,9.370935302734376,-0.60247802734375,-0.0209808349609375,1.0858001708984375
1774471251243963100,9.380963134765626,-0.507354736328125,-0.11419677734375,1.0764312744140625
1774471251253990100,9.390990234375,-0.4002227783203125,-0.179443359375,0.8428802490234375
1774471251264018200,9.40101806640625,-0.50750732421875,0.0020904541015625,0.7823944091796875
1774471251274045200,9.411045166015626,-0.2896728515625,0.3243560791015625,0.7322540283203125
1774471251284072400,9.421072509765626,0.359832763671875,0.324432373046875,0.7798004150390625
1774471251294100200,9.431100341796874,0.41064453125,0.0821533203125,0.9441375732421875
1774471251304127200,9.441127197265626,-0.235382080078125,-0.067291259765625,0.906829833984375
1774471251314155300,9.4511552734375,-0.6399688720703125,-0.0378265380859375,1.06646728515625
1774471251324182300,9.461182373046874,-0.592864990234375,0.086029052734375,1.230255126953125
1774471251334210300,9.471210205078124,-0.521087646484375,0.0614013671875,1.054718017578125
1774471251344237300,9.4812373046875,-0.50054931640625,0.0289459228515625,0.925933837890625
1774471251354265000,9.49126513671875,-0.3858184814453125,0.08392333984375,0.91143798828125
1774471251364292400,9.501292236328124,-0.3603363037109375,0.1107635498046875,0.818695068359375
1774471251374319400,9.5113193359375,-0.239410400390625,0.173980712890625,0.739288330078125
1774471251384347100,9.52134716796875,-0.001861572265625,0.2686920166015625,0.484283447265625
1774471251394374400,9.53137451171875,-0.3233642578125,0.167327880859375,0.4696197509765625
1774471251404402200,9.541402099609375,-0.0184173583984375,0.3461761474609375,0.67041015625
1774471251414429200,9.55142919921875,0.2561798095703125,0.247772216796875,0.7993621826171875
1774471251424457200,9.561457275390625,0.03240966796875,0.0816650390625,0.9697265625
1774471251434484200,9.571484130859375,-0.29937744140625,0.0144805908203125,1.0476837158203125
1774471251444511200,9.58151123046875,-0.4192962646484375,-0.003814697265625,1.1379852294921875
1774471251454539300,9.591539306640625,-0.3430023193359375,0.1151885986328125,1.156768798828125
1774471251464566300,9.601566162109375,-0.1996612548828125,0.0188140869140625,1.161895751953125
1774471251474594300,9.61159423828125,-0.2317962646484375,-0.1681671142578125,1.297210693359375
1774471251484621300,9.621621337890625,-0.1671142578125,-0.0836944580078125,1.310577392578125
1774471251494649000,9.631649169921875,-0.12286376953125,-0.0093536376953125,1.0922393798828125
1774471251504676400,9.64167626953125,0.0001220703125,0.13751220703125,0.80792236328125
1774471251514704100,9.6517041015625,-0.0396728515625,0.215484619140625,0.71337890625
1774471251524731400,9.6617314453125,-0.0753936767578125,0.12530517578125,0.71478271484375
1774471251534758400,9.67175830078125,-0.1745758056640625,0.026275634765625,0.85400390625
1774471251544786200,9.6817861328125,-0.11444091796875,0.0479278564453125,1.021575927734375
1774471251554813400,9.6918134765625,-0.04290771484375,0.0421905517578125,1.0974884033203125
1774471251564841200,9.70184130859375,-0.10760498046875,0.076904296875,1.0909271240234375
1774471251574868200,9.7118681640625,-0.281402587890625,0.136749267578125,1.1309814453125
1774471251584896300,9.721896240234376,-0.4688262939453125,0.148681640625,1.196929931640625
1774471251594923300,9.73192333984375,-0.46826171875,0.1041107177734375,1.1928253173828125
1774471251604951300,9.741951416015626,-0.2831268310546875,0.0477752685546875,1.0800323486328125
1774471251614978300,9.751978271484376,-0.1555938720703125,0.0652313232421875,0.9718017578125
1774471251625006000,9.762006103515626,-0.135467529296875,0.06689453125,0.9305419921875
1774471251635033300,9.772033447265626,-0.201263427734375,0.010223388671875,0.95513916015625
1774471251645060400,9.782060302734376,-0.2676239013671875,-0.0302886962890625,0.993865966796875
1774471251655088000,9.792088134765624,-0.2949066162109375,-0.014556884765625,1.050262451171875
1774471251665115400,9.802115478515624,-0.3305816650390625,0.0387725830078125,1.0957489013671875
1774471251675143200,9.81214306640625,-0.293548583984375,0.025115966796875,1.049560546875
1774471251685170200,9.822170166015624,-0.240966796875,0.1156158447265625,1.062286376953125
1774471251695198200,9.8321982421875,-0.431365966796875,0.217315673828125,1.1348419189453125
1774471251705225200,9.84222509765625,-0.498748779296875,0.1608123779296875,1.105377197265625
1774471251715253200,9.852253173828124,-0.2905731201171875,0.11334228515625,1.0380706787109375
1774471251725280300,9.8622802734375,-0.183258056640625,0.1643829345703125,0.98809814453125
1774471251735307300,9.872307373046874,-0.288604736328125,0.1706085205078125,0.8943328857421875
1774471251745335300,9.882335205078125,-0.43511962890625,0.1638946533203125,0.8731231689453125
1774471251755362300,9.8923623046875,-0.4007568359375,0.1737518310546875,0.88873291015625
1774471251765390300,9.902390380859375,-0.3841094970703125,0.155029296875,0.917205810546875
1774471251775417300,9.912417236328125,-0.4279022216796875,0.1114959716796875,1.002593994140625
1774471251785445000,9.922445068359375,-0.4342041015625,-0.0010833740234375,1.1396026611328125
1774471251795472400,9.932472412109375,-0.494049072265625,0.05609130859375,1.0020294189453125
1774471251805500200,9.942500244140625,-0.393402099609375,0.124725341796875,0.7542877197265625
1774471251815527200,9.952527099609375,-0.0266876220703125,0.1621246337890625,0.5450439453125
1774471251825554400,9.962554443359375,0.4543609619140625,0.206024169921875,0.538787841796875
1774471251835582200,9.972582275390625,0.44110107421875,0.158050537109375,0.7554779052734375
1774471251845609200,9.982609130859375,0.0165252685546875,0.105377197265625,0.94110107421875
1774471251855637200,9.99263720703125,-0.30633544921875,0.127471923828125,1.042877197265625
1774471251865664300,10.002664306640625,-0.29229736328125,0.1312103271484375,0.9987030029296875
1774471251875692300,10.0126923828125,-0.0931243896484375,0.0789337158203125,0.954437255859375
1774471251885719300,10.02271923828125,0.005340576171875,0.082794189453125,0.9369659423828125
1774471251895746800,10.032746826171875,-0.0348968505859375,0.0775146484375,0.9565277099609375
1774471251905774600,10.042774658203125,-0.1519012451171875,0.0390625,0.9832611083984375
1774471251915801900,10.0528017578125,-0.3806915283203125,0.0803680419921875,1.0410919189453125
1774471251925829600,10.06282958984375,-0.550140380859375,0.1370849609375,1.0638885498046875
1774471251935856600,10.072856689453126,-0.5897216796875,0.009674072265625,1.011627197265625
1774471251945884700,10.082884765625,-0.4547576904296875,-0.123779296875,0.9163055419921875
1774471251955911700,10.09291162109375,-0.3369140625,-0.137451171875,0.851715087890625
1774471251965939700,10.102939697265626,-0.2425689697265625,-0.1044464111328125,0.8799591064453125
1774471251975966700,10.112966796875,-0.1621551513671875,-0.0671234130859375,0.8597412109375
1774471251985993700,10.12299365234375,-0.1388702392578125,-0.0179595947265625,0.8812713623046875
1774471251996021800,10.133021728515626,-0.1614837646484375,-0.0077667236328125,0.914398193359375
1774471252006048800,10.143048828125,-0.19854736328125,-0.01763916015625,0.91217041015625
1774471252016076500,10.15307666015625,-0.2185821533203125,0.0348968505859375,0.895782470703125
1774471252026103800,10.163103759765624,-0.180328369140625,0.0574798583984375,0.90277099609375
1774471252036131600,10.173131591796874,-0.2064361572265625,0.039093017578125,0.9656219482421875
1774471252046158600,10.18315869140625,-0.3160552978515625,0.1199188232421875,1.0111236572265625
1774471252056186600,10.1931865234375,-0.32269287109375,0.0764007568359375,1.0304107666015625
1774471252066213600,10.203213623046874,-0.2043609619140625,0.0456390380859375,1.0429229736328125
1774471252076240600,10.21324072265625,-0.09722900390625,0.0255889892578125,1.04412841796875
1774471252086268700,10.2232685546875,-0.093353271484375,-0.006378173828125,1.1124725341796875
1774471252096295700,10.233295654296874,-0.024169921875,0.02105712890625,1.1492462158203125
1774471252106323700,10.24332373046875,0.0113525390625,0.0015716552734375,1.1775970458984375
1774471252116350700,10.253350830078125,0.0631256103515625,-0.0377197265625,1.1424560546875
1774471252126378500,10.26337841796875,0.1198272705078125,0.046356201171875,1.0608062744140625
1774471252136405800,10.27340576171875,0.0697174072265625,0.1337738037109375,1.0265960693359375
1774471252146433500,10.28343359375,-0.0235137939453125,0.157470703125,0.9924774169921875
1774471252156460800,10.293460693359375,-0.4361572265625,-0.038055419921875,1.131988525390625
1774471252166487800,10.30348779296875,-0.45733642578125,-0.0627899169921875,1.12908935546875
1774471252176515600,10.313515625,-0.3777618408203125,-0.0933074951171875,1.1120758056640625
1774471252186542800,10.32354296875,-0.104217529296875,0.0607147216796875,1.031341552734375
1774471252196570600,10.333570556640625,0.1354827880859375,0.129913330078125,1.039459228515625
1774471252206597600,10.34359765625,0.132171630859375,0.1182861328125,1.007354736328125
1774471252216625700,10.353625732421875,0.214935302734375,0.2491455078125,0.9686737060546875
1774471252226652700,10.363652587890625,0.222198486328125,0.3604888916015625,0.8774871826171875
1774471252236679700,10.3736796875,0.14166259765625,0.34942626953125,0.78070068359375
1774471252246707700,10.383707763671875,0.0836029052734375,0.35552978515625,0.787139892578125
1774471252256734700,10.393734619140625,0.040802001953125,0.2755889892578125,0.7735748291015625
1774471252266762800,10.4037626953125,-0.0523681640625,0.17279052734375,0.78125
1774471252276789800,10.413789794921875,-0.1064910888671875,0.1539306640625,0.8057861328125
1774471252286817500,10.423817626953126,-0.157806396484375,0.0491943359375,0.85845947265625
1774471252296844800,10.4338447265625,-0.2364501953125,-0.0394744873046875,0.7718048095703125
1774471252306872600,10.44387255859375,-0.26947021484375,0.050384521484375,0.713134765625
1774471252316899600,10.453899658203126,-0.1873779296875,0.2545928955078125,0.8462677001953125
1774471252326926600,10.463926513671876,-0.0626678466796875,0.3298492431640625,0.957763671875
1774471252336954600,10.47395458984375,0.0238037109375,0.360748291015625,1.078582763671875
1774471252346982000,10.48398193359375,0.0148773193359375,0.1717376708984375,1.2132568359375
1774471252357009700,10.494009765625,0.02886962890625,-0.0065460205078125,1.3800048828125
1774471252367036700,10.50403662109375,0.2451171875,-0.007232666015625,1.52325439453125
1774471252377064700,10.514064697265624,0.0777740478515625,0.3176727294921875,1.343780517578125
1774471252387091700,10.524091796875,-0.27178955078125,0.375335693359375,1.0645904541015625
1774471252397118500,10.534118408203126,-0.2750701904296875,0.3049774169921875,0.8289031982421875
1774471252407146800,10.544146728515624,0.0323028564453125,0.2926483154296875,0.7738037109375
1774471252417173500,10.554173583984374,0.215728759765625,0.28594970703125,0.731201171875
1774471252427201800,10.564201904296874,0.1627655029296875,0.2216339111328125,0.738555908203125
1774471252437228800,10.574228759765624,0.029632568359375,0.3670196533203125,0.8740692138671875
1774471252447256600,10.584256591796875,-0.0169677734375,0.438140869140625,0.9714508056640625
1774471252457283800,10.594283935546875,0.083648681640625,0.408782958984375,0.966827392578125
1774471252467311600,10.6043115234375,-0.0540771484375,0.400238037109375,0.9779052734375
1774471252477338600,10.614338623046875,-0.1828155517578125,0.47113037109375,1.014007568359375
1774471252487365600,10.62436572265625,-0.173980712890625,0.5547332763671875,0.9509735107421875
1774471252497393700,10.6343935546875,-0.127349853515625,0.5677490234375,0.915008544921875
1774471252507420400,10.64442041015625,-0.2319488525390625,0.42169189453125,0.932586669921875
1774471252517448700,10.65444873046875,-0.335540771484375,0.2668914794921875,0.9616241455078125
1774471252527475700,10.664475830078125,-0.3554229736328125,0.2185211181640625,1.0788116455078125
1774471252537503700,10.674503662109375,-0.2613067626953125,0.20574951171875,1.160247802734375
1774471252547530800,10.68453076171875,-0.079803466796875,0.2446746826171875,0.9871063232421875
1774471252557558500,10.69455859375,-0.161376953125,0.1894378662109375,0.7127532958984375
1774471252567585800,10.704585693359375,-0.41900634765625,0.2166290283203125,0.655120849609375
1774471252577612500,10.714612548828125,-0.3087310791015625,0.4829864501953125,0.9510650634765625
1774471252587640800,10.724640869140625,-0.2116241455078125,0.4490814208984375,0.9611968994140625
1774471252597667600,10.73466748046875,-0.194427490234375,0.3246002197265625,0.924346923828125
1774471252607695600,10.744695556640625,-0.170135498046875,0.336212158203125,0.9361114501953125
1774471252617722600,10.75472265625,-0.1649017333984375,0.3352203369140625,0.882965087890625
1774471252627750700,10.764750732421875,-0.188995361328125,0.26617431640625,0.8340911865234375
1774471252637777700,10.774777587890625,-0.160736083984375,0.219696044921875,0.816558837890625
1774471252647805700,10.7848056640625,-0.08740234375,0.2745361328125,0.722686767578125
1774471252657832700,10.794832763671875,-0.117889404296875,0.3511810302734375,0.681304931640625
1774471252667859500,10.804859375,-0.1935882568359375,0.4014739990234375,0.8112640380859375
1774471252677887700,10.8148876953125,-0.158233642578125,0.4090576171875,0.88525390625
1774471252687914500,10.82491455078125,-0.0348052978515625,0.48748779296875,0.8971099853515625
1774471252697942800,10.83494287109375,0.34942626953125,0.443939208984375,0.76678466796875
1774471252707969800,10.8449697265625,-0.089447021484375,0.542388916015625,1.202880859375
1774471252717997600,10.85499755859375,-0.2882080078125,0.612579345703125,1.3686370849609375
1774471252728024800,10.86502490234375,-0.2428436279296875,0.4300537109375,1.1293792724609375
1774471252738052600,10.875052490234374,-0.410858154296875,0.4028778076171875,1.2056884765625
1774471252748079600,10.88507958984375,-0.350799560546875,0.361328125,1.030120849609375
1774471252758106600,10.895106689453126,-0.3538360595703125,0.4531707763671875,0.9062652587890625
1774471252768134700,10.905134765625,-0.4686431884765625,0.5047607421875,0.868316650390625
1774471252778161700,10.91516162109375,-0.3321075439453125,0.4654083251953125,0.8156280517578125
1774471252788189700,10.925189697265624,-0.143524169921875,0.467071533203125,0.8527984619140625
1774471252798216700,10.935216796875,-0.0869598388671875,0.505706787109375,0.8453826904296875
1774471252808244700,10.94524462890625,-0.171539306640625,0.5395050048828125,0.8507232666015625
1774471252818271700,10.955271728515624,-0.2825469970703125,0.48956298828125,0.8341522216796875
1774471252828299800,10.9652998046875,-0.2446136474609375,0.3802032470703125,0.8498992919921875
1774471252838326800,10.975326904296875,-0.193695068359375,0.3935546875,0.852142333984375
1774471252848353500,10.985353515625,-0.2767181396484375,0.5002899169921875,0.86279296875
1774471252858381800,10.9953818359375,-0.4640045166015625,0.4977264404296875,0.89642333984375
1774471252868408600,11.00540869140625,-0.513214111328125,0.4091644287109375,0.945281982421875
1774471252878436600,11.0154365234375,-0.4572296142578125,0.38311767578125,0.9654998779296875
1774471252888463600,11.025463623046875,-0.28619384765625,0.2930450439453125,0.9270782470703125
1774471252898491600,11.03549169921875,-0.1496429443359375,0.175689697265625,0.916046142578125
1774471252908518700,11.0455185546875,-0.10699462890625,0.18865966796875,0.952728271484375
1774471252918546700,11.055546630859375,-0.09423828125,0.2338714599609375,0.9366455078125
1774471252928573700,11.06557373046875,-0.087921142578125,0.3367462158203125,0.8736572265625
1774471252938600400,11.075600341796875,-0.0567779541015625,0.239715576171875,0.83154296875
1774471252948628700,11.085628662109375,-0.1465301513671875,0.07196044921875,0.86199951171875
1774471252958655500,11.095655517578125,-0.264923095703125,0.2822723388671875,0.829193115234375
1774471252968683800,11.105683837890625,-0.2004241943359375,0.4031524658203125,0.7889556884765625
1774471252978710500,11.11571044921875,-0.2889251708984375,0.4236907958984375,0.8932952880859375
1774471252988738600,11.125738525390625,-0.4051361083984375,0.440704345703125,0.988494873046875
1774471252998765800,11.135765869140625,-0.2068023681640625,0.3414154052734375,1.0446319580078125
1774471253008792600,11.14579248046875,-0.07611083984375,0.2898406982421875,1.05535888671875
1774471253018820900,11.15582080078125,-0.0233917236328125,0.2874755859375,1.0481109619140625
1774471253028847600,11.16584765625,0.0409698486328125,0.2077789306640625,0.982513427734375
1774471253038875600,11.175875732421876,-0.0495758056640625,0.183837890625,0.8834381103515625
1774471253048902700,11.185902587890626,-0.216094970703125,0.4429931640625,0.881072998046875
1774471253058930700,11.1959306640625,-0.2870941162109375,0.5259857177734375,0.8781280517578125
1774471253068957400,11.20595751953125,-0.2322845458984375,0.4207916259765625,0.909515380859375
1774471253078984700,11.215984619140626,-0.2434234619140625,0.359039306640625,0.945556640625
1774471253089012700,11.2260126953125,-0.2385406494140625,0.336669921875,0.966278076171875
1774471253099039500,11.23603955078125,-0.2234649658203125,0.36163330078125,0.9474029541015625
1774471253109067800,11.24606787109375,-0.223541259765625,0.347900390625,0.9502716064453125
1774471253119094500,11.256094482421876,-0.2566680908203125,0.3412017822265625,0.9432830810546875
1774471253129122800,11.266122802734374,-0.2360076904296875,0.3495025634765625,0.9365081787109375
1774471253139149600,11.276149658203124,-0.144256591796875,0.3420867919921875,0.9241790771484375
1774471253149176600,11.286176513671874,-0.127685546875,0.31646728515625,0.9313201904296875
1774471253159204600,11.29620458984375,-0.111846923828125,0.2996673583984375,0.9250030517578125
1774471253169231600,11.306231689453124,-0.0848388671875,0.2766571044921875,0.898590087890625
1774471253179259600,11.316259765625,-0.15093994140625,0.240936279296875,0.8824920654296875
1774471253189286700,11.32628662109375,-0.2620086669921875,0.218170166015625,0.9514007568359375
1774471253199313700,11.336313720703124,-0.2069854736328125,0.2932281494140625,0.987640380859375
1774471253209341700,11.346341796875,-0.1915740966796875,0.3953399658203125,0.945281982421875
1774471253219368700,11.35636865234375,-0.22027587890625,0.364532470703125,0.9076995849609375
1774471253229396500,11.366396484375,-0.1350250244140625,0.2988128662109375,0.8318634033203125
1774471253239423700,11.376423828125,-0.191802978515625,0.247406005859375,0.80865478515625
1774471253249451500,11.386451416015625,-0.19720458984375,0.18328857421875,0.7939300537109375
1774471253259478500,11.396478515625,-0.2057647705078125,0.2445831298828125,0.8550262451171875
1774471253269505800,11.406505859375,-0.131103515625,0.39251708984375,0.9612884521484375
1774471253279533600,11.416533447265625,-0.054718017578125,0.287841796875,1.036163330078125
1774471253289560600,11.426560546875,-0.1219940185546875,0.1722869873046875,1.0938262939453125
1774471253299588600,11.436588623046875,-0.0851287841796875,0.18438720703125,1.1086273193359375
1774471253309615600,11.44661572265625,-0.076171875,0.187347412109375,1.0808563232421875
1774471253319643600,11.4566435546875,-0.1640777587890625,0.1967926025390625,1.028656005859375
1774471253329670700,11.466670654296875,-0.186126708984375,0.28509521484375,0.944091796875
1774471253339697700,11.47669775390625,-0.1987762451171875,0.3809356689453125,0.8636932373046875
1774471253349725700,11.4867255859375,-0.2115631103515625,0.4084320068359375,0.812530517578125
1774471253359752700,11.496752685546875,-0.2710113525390625,0.3492889404296875,0.75958251953125
1774471253369780500,11.506780517578125,-0.30255126953125,0.3293609619140625,0.732513427734375
1774471253379807700,11.516807861328125,-0.3076019287109375,0.3107147216796875,0.695404052734375
1774471253389834800,11.526834716796875,-0.292633056640625,0.3193511962890625,0.69732666015625
1774471253399862800,11.53686279296875,-0.322479248046875,0.35406494140625,0.8252105712890625
1774471253409889800,11.546889892578125,-0.117156982421875,0.3455657958984375,0.97601318359375
1774471253419917600,11.55691748046875,0.0956878662109375,0.2696685791015625,1.0668182373046875
1774471253429944800,11.56694482421875,-0.0855712890625,0.0552520751953125,1.0869598388671875
1774471253439972600,11.57697265625,-0.175872802734375,-0.07244873046875,1.0549774169921875
1774471253449999600,11.58699951171875,-0.2694549560546875,-0.004486083984375,1.1238555908203125
1774471253460026600,11.597026611328126,-0.273406982421875,0.0250244140625,1.1154022216796875
1774471253470054700,11.6070546875,-0.2118988037109375,0.022857666015625,1.04913330078125
1774471253480081700,11.61708154296875,-0.285614013671875,0.095550537109375,1.042449951171875
1774471253490109700,11.627109619140626,-0.2981109619140625,0.137237548828125,1.02593994140625
1774471253500136700,11.63713671875,-0.230133056640625,0.147491455078125,1.0067596435546875
1774471253510164700,11.647164794921874,-0.1477813720703125,0.2620697021484375,1.027008056640625
1774471253520191700,11.657191650390626,-0.1765899658203125,0.426605224609375,1.12786865234375
1774471253530218500,11.667218505859376,-0.1699676513671875,0.23089599609375,1.00750732421875
1774471253540246800,11.677246826171874,-0.21038818359375,0.275238037109375,0.89788818359375
1774471253550273500,11.6872734375,-0.3165283203125,0.256805419921875,0.8784942626953125
1774471253560301600,11.697301513671874,-0.3761749267578125,0.298919677734375,0.8873138427734375
1774471253570328800,11.707328857421874,-0.387481689453125,0.4873199462890625,0.9613037109375
1774471253580355600,11.71735546875,-0.3914794921875,0.574127197265625,0.905364990234375
1774471253590383900,11.7273837890625,-0.3480072021484375,0.4160919189453125,0.8253021240234375
1774471253600410600,11.73741064453125,-0.1884307861328125,0.173370361328125,0.80908203125
1774471253610438700,11.747438720703125,-0.001007080078125,0.0946044921875,0.9200592041015625
1774471253620465700,11.757465576171874,-0.1835174560546875,0.1998443603515625,0.73089599609375
1774471253630493700,11.76749365234375,-0.2107086181640625,0.3736572265625,0.622314453125
1774471253640520400,11.7775205078125,-0.1649322509765625,0.4385986328125,0.7107391357421875
1774471253650548700,11.787548828125,-0.33551025390625,0.4441375732421875,0.6424560546875
1774471253660575700,11.79757568359375,-0.3874969482421875,0.35626220703125,0.675262451171875
1774471253670602500,11.8076025390625,-0.3204498291015625,0.2762603759765625,0.9438934326171875
1774471253680630800,11.817630859375,-0.0024261474609375,0.283905029296875,1.4225921630859375
1774471253690657500,11.827657470703125,-0.083465576171875,0.3567047119140625,1.478424072265625
1774471253700685800,11.837685791015625,-0.208251953125,0.316497802734375,0.59185791015625
1774471253710712600,11.847712646484375,-0.0853729248046875,-0.0491180419921875,0.50775146484375
1774471253720740600,11.85774072265625,-0.12530517578125,-0.0678558349609375,0.6642608642578125
1774471253730767600,11.867767578125,-0.1046905517578125,0.0299224853515625,0.95037841796875
1774471253740794600,11.877794677734375,0.043792724609375,0.0841064453125,1.1119232177734375
1774471253750822700,11.88782275390625,0.0132904052734375,0.1912078857421875,0.66064453125
1774471253760849700,11.897849609375,0.08929443359375,-0.0738067626953125,0.5073699951171875
1774471253770877700,11.907877685546875,0.135345458984375,-0.2378082275390625,0.5666351318359375
1774471253780904700,11.91790478515625,0.141082763671875,-0.1314239501953125,0.52764892578125
1774471253790931700,11.927931640625,0.3621826171875,-0.0426025390625,0.3328857421875
1774471253800959500,11.93795947265625,1.3348236083984375,0.3074951171875,0.1304473876953125
1774471253810986800,11.94798681640625,0.8728485107421875,-0.1531219482421875,1.4672393798828125
1774471253821014500,11.9580146484375,-1.81689453125,-0.1899261474609375,2.9451904296875
1774471253831041500,11.96804150390625,-2.331085205078125,-0.3933868408203125,2.1811676025390625
1774471253841069800,11.97806982421875,-1.083343505859375,-0.6531219482421875,1.5213165283203125
1774471253851096600,11.9880966796875,-0.03070068359375,-0.770050048828125,1.29193115234375
1774471253861124900,11.998124755859376,0.3050994873046875,-0.7625885009765625,1.1445159912109375
1774471253871151600,12.008151611328126,-0.0278167724609375,-0.6807708740234375,1.085723876953125
1774471253881178600,12.0181787109375,-0.3457794189453125,-0.5529632568359375,1.159820556640625
1774471253891206700,12.02820654296875,-0.4366607666015625,-0.3509521484375,1.12652587890625
1774471253901233200,12.038233154296876,-0.36962890625,-0.1543121337890625,1.0048675537109375
1774471253911261200,12.04826123046875,-0.2212677001953125,0.0076141357421875,0.883209228515625
1774471253921288200,12.0582880859375,-0.0615997314453125,0.13055419921875,0.84075927734375
1774471253931316200,12.068316162109374,0.0653533935546875,0.2357025146484375,0.8208770751953125
1774471253941343200,12.07834326171875,0.144012451171875,0.340606689453125,0.8477325439453125
1774471253951370200,12.088370361328124,0.141448974609375,0.420166015625,0.87188720703125
1774471253961398000,12.09839794921875,0.064300537109375,0.474639892578125,0.891021728515625
1774471253971425300,12.10842529296875,-0.03643798828125,0.4382476806640625,0.908843994140625
1774471253981453000,12.118453125,-0.11767578125,0.333648681640625,0.914520263671875
1774471253991480000,12.12847998046875,-0.193084716796875,0.259918212890625,0.92755126953125
1774471254001507300,12.13850732421875,-0.3438720703125,0.1376800537109375,0.7779998779296875
1774471254011535000,12.14853515625,-0.14215087890625,0.0384674072265625,0.901214599609375
1774471254021562000,12.15856201171875,-0.242706298828125,0.08349609375,1.10992431640625
1774471254031590100,12.168590087890625,-0.2549896240234375,0.062591552734375,1.4567413330078125
1774471254041617200,12.1786171875,-0.1173553466796875,-0.0573883056640625,1.7070770263671875
1774471254051645200,12.188645263671875,-0.1944580078125,-0.2530517578125,1.34686279296875
1774471254061672200,12.198672119140625,-0.19873046875,-0.35406494140625,1.0009613037109375
1774471254071699200,12.20869921875,-0.109405517578125,-0.24072265625,0.8971099853515625
1774471254081727200,12.218727294921875,-0.0364837646484375,-0.1614227294921875,0.856201171875
1774471254091754200,12.228754150390625,-0.0560150146484375,-0.18115234375,0.8671875
1774471254101782000,12.238781982421875,-0.266693115234375,-0.1238861083984375,1.0860595703125
1774471254111809300,12.248809326171875,-0.4669952392578125,-0.074432373046875,1.1315460205078125
1774471254121836300,12.258836181640625,-0.37060546875,-0.0496826171875,0.916748046875
1774471254131864300,12.2688642578125,-0.2118988037109375,-0.0614013671875,0.8287200927734375
1774471254141891300,12.278891357421875,-0.1874542236328125,-0.10162353515625,0.8739166259765625
1774471254151919000,12.288919189453125,-0.264373779296875,-0.120880126953125,0.981475830078125
1774471254161946400,12.2989462890625,-0.1984710693359375,-0.0691986083984375,1.044769287109375
1774471254171974100,12.30897412109375,-0.0679779052734375,-0.002105712890625,1.1025848388671875
1774471254182001200,12.319001220703125,-0.0401153564453125,0.0383758544921875,1.1101226806640625
1774471254192028200,12.329028076171875,-0.096954345703125,0.0382537841796875,1.079833984375
1774471254202056200,12.33905615234375,-0.151123046875,0.00079345703125,1.0145416259765625
1774471254212083200,12.349083251953125,-0.1054840087890625,-0.0283050537109375,0.965576171875
1774471254222111200,12.359111328125,-0.01959228515625,-0.0487060546875,0.94464111328125
1774471254232138200,12.36913818359375,0.0799102783203125,-0.0342254638671875,0.9786376953125
1774471254242166300,12.379166259765626,0.0036468505859375,0.042449951171875,0.9483489990234375
1774471254252193300,12.389193359375,0.04766845703125,0.1351318359375,0.8422088623046875
1774471254262220000,12.399219970703125,0.0262298583984375,0.102020263671875,1.0013275146484375
1774471254272248300,12.409248291015626,0.0483551025390625,0.0494842529296875,1.0513763427734375
1774471254282275000,12.419275146484376,0.1118927001953125,-0.000823974609375,0.9198150634765625
1774471254292303000,12.42930322265625,0.1233062744140625,0.01416015625,0.824127197265625
1774471254302330400,12.439330322265626,0.111572265625,0.04937744140625,0.78424072265625
1774471254312357000,12.449357177734376,0.08489990234375,0.1083984375,0.7827911376953125
1774471254322385400,12.459385498046874,0.0516815185546875,0.1599578857421875,0.7854461669921875
1774471254332412200,12.469412109375,0.102081298828125,0.2012176513671875,0.809844970703125
1774471254342440200,12.479440185546874,0.1234130859375,0.1952667236328125,0.8822021484375
1774471254352467200,12.48946728515625,0.127899169921875,0.149688720703125,0.93060302734375
1774471254362495200,12.4994951171875,0.189300537109375,0.140594482421875,0.909515380859375
1774471254372522200,12.509522216796874,0.338958740234375,0.167327880859375,0.773834228515625
1774471254382549200,12.51954931640625,0.7281646728515625,0.44561767578125,0.381927490234375
1774471254392577300,12.529577392578124,0.62762451171875,0.4243927001953125,0.2613983154296875
1774471254402604000,12.53960400390625,-0.2822418212890625,-0.0195770263671875,1.220245361328125
1774471254412632300,12.54963232421875,0.333892822265625,0.180633544921875,1.34405517578125
1774471254422659000,12.5596591796875,-0.9475555419921875,-0.0672760009765625,0.9712982177734375
1774471254432686000,12.56968603515625,-1.045623779296875,-0.11663818359375,1.7704315185546875
1774471254442714000,12.579714111328125,-0.147857666015625,-0.210906982421875,1.5523223876953125
1774471254452741000,12.5897412109375,-0.0466461181640625,-0.3139190673828125,1.131011962890625
1774471254462769200,12.59976904296875,-0.07666015625,-0.226531982421875,0.936859130859375
1774471254472796200,12.609796142578125,-0.0169219970703125,-0.1362762451171875,0.6452484130859375
1774471254482824200,12.61982421875,-0.0277862548828125,-0.103485107421875,0.5615997314453125
1774471254492851200,12.629851318359375,-0.0561065673828125,0.0081634521484375,0.801605224609375
1774471254502878200,12.639878173828125,-0.1151275634765625,0.0686492919921875,1.005035400390625
1774471254512906200,12.64990625,-0.093994140625,0.10797119140625,1.0318450927734375
1774471254522933200,12.659933349609375,-0.0077667236328125,0.1459808349609375,1.0599517822265625
1774471254532961000,12.6699609375,0.0721588134765625,0.1435546875,1.122222900390625
1774471254542988300,12.67998828125,0.07342529296875,0.1488189697265625,1.1451568603515625
1774471254553015300,12.690015380859375,0.0623931884765625,0.096038818359375,1.1578216552734375
1774471254563043000,12.70004296875,0.06732177734375,-0.028533935546875,1.158477783203125
1774471254573070300,12.7100703125,0.009185791015625,-0.0738677978515625,1.1325531005859375
1774471254583098000,12.72009814453125,-0.0465545654296875,-0.0538330078125,1.071746826171875
1774471254593125000,12.730125,-0.0338287353515625,-0.0001220703125,1.066253662109375
1774471254603153200,12.740153076171875,0.0044708251953125,0.0623016357421875,1.05291748046875
1774471254613180200,12.75018017578125,0.0309600830078125,0.160400390625,0.891448974609375
1774471254623207200,12.760207275390625,-0.00164794921875,0.0461578369140625,1.01153564453125
1774471254633235200,12.770235107421875,-0.0477447509765625,0.0175933837890625,1.0371856689453125
1774471254643262200,12.78026220703125,-0.0569000244140625,-0.0256500244140625,0.9835052490234375
1774471254653290200,12.790290283203126,0.0054473876953125,-0.045745849609375,0.9637603759765625
1774471254663317200,12.800317138671875,0.0283203125,-0.0858154296875,1.00555419921875
1774471254673345000,12.810344970703126,-0.0031890869140625,-0.08056640625,1.0551300048828125
1774471254683372300,12.820372314453126,0.0041046142578125,-0.072021484375,1.06036376953125
1774471254693399300,12.8303994140625,0.0374755859375,-0.06103515625,1.078582763671875
1774471254703427300,12.84042724609375,0.12750244140625,-0.049957275390625,1.1274261474609375
1774471254713454300,12.850454345703126,0.158966064453125,-0.06170654296875,1.158416748046875
1774471254723482000,12.860482177734376,-0.0264739990234375,-0.0354766845703125,1.182403564453125
1774471254733509400,12.87050927734375,-0.490509033203125,0.001739501953125,0.740081787109375
1774471254743536000,12.8805361328125,-0.1308135986328125,0.1199493408203125,0.554107666015625
1774471254753564200,12.890564208984374,-0.01708984375,-0.0161285400390625,1.121856689453125
1774471254763591200,12.900591064453126,-0.0560455322265625,0.0388946533203125,1.3840484619140625
1774471254773619200,12.910619140625,0.0583038330078125,0.1336212158203125,1.278778076171875
1774471254783646200,12.920646240234374,0.124359130859375,0.0590667724609375,1.2040252685546875
1774471254793673200,12.930673095703124,0.2084503173828125,0.0312652587890625,1.073272705078125
1774471254803701200,12.940701171875,0.1382598876953125,-0.1117401123046875,0.9960174560546875
1774471254813728000,12.95072802734375,-0.0424652099609375,-0.357391357421875,0.8660430908203125
1774471254823756300,12.96075634765625,-0.0802459716796875,-0.363372802734375,0.7978668212890625
1774471254833783000,12.970782958984374,-0.192291259765625,-0.21063232421875,0.7890625
1774471254843811300,12.980811279296875,-0.3001251220703125,-0.0686492919921875,0.845184326171875
1774471254853838000,12.990838134765625,-0.350860595703125,0.05401611328125,0.884185791015625
1774471254863865000,13.000864990234374,-0.2552642822265625,0.13525390625,0.956085205078125
1774471254873893400,13.010893310546875,-0.0901947021484375,0.260406494140625,1.1716766357421875
1774471254883920100,13.020920166015625,0.027862548828125,0.5702362060546875,1.4689483642578125
1774471254893948200,13.0309482421875,0.118438720703125,0.8321075439453125,1.3616180419921875
1774471254903975700,13.0409755859375,0.1270294189453125,0.2920684814453125,1.28509521484375
1774471254914003700,13.051003662109375,0.01031494140625,-0.1427001953125,1.3112335205078125
1774471254924030500,13.061030517578125,-0.124664306640625,-0.1967620849609375,1.1713409423828125
1774471254934057700,13.0710576171875,-0.1654510498046875,-0.1453704833984375,1.0659942626953125
