time,seconds_elapsed,z,y,x
1774470098842940000,0.06793994140625,-0.3268167099177837,-0.23812764198705552,0.062398442376404996
1774470098852952800,0.077952880859375,-0.5572282245695591,-0.0917493322841823,0.057873220036923884
1774470098862965800,0.0879658203125,-0.6897860987126827,0.08250701829493046,0.002151771206408739
1774470098872978700,0.097978759765625,-0.7101613627433776,0.18122472828701136,-0.002421381928026676
1774470098882990800,0.107990966796875,-0.6661293287932872,0.20784926197081802,0.11639818198084831
1774470098893003800,0.118003662109375,-0.48230187066197394,0.22196254299730062,0.22719138356149196
1774470098903016700,0.1280166015625,-0.29889117663800713,0.18425956593826412,0.23051234467774628
1774470098913029600,0.138029541015625,-0.19142799626290796,0.09549012624770402,0.17226181576102972
1774470098923042800,0.148042724609375,-0.104582071980834,-0.003409223921597004,0.08684373232498764
1774470098933056000,0.158055908203125,-0.04568038567900658,-0.09253463744297623,0.008174100235849618
1774470098943068700,0.168068603515625,0.016086042404174803,-0.1541964361079037,-0.024694734665006397
1774470098953081900,0.178081787109375,0.040457682594656943,-0.18272680341303346,-0.10658552075773477
1774470098963094800,0.1880947265625,0.026633155381679534,-0.17157120314836502,-0.1510774273045361
1774470098973107700,0.198107666015625,0.025049101060628888,-0.12596768209785222,-0.13148279225751758
1774470098983120600,0.20812060546875,0.09030687839090823,-0.11868234739527106,-0.09165858526080846
1774470098993133800,0.2181337890625,0.16183891368508338,-0.11599193926751612,-0.047010319108515976
1774470099003147000,0.22814697265625,0.21449030742049216,-0.12100962129905819,0.0016169336773455142
1774470099013159700,0.23815966796875,0.26470599844157694,-0.08898527439832687,0.013245412150770425
1774470099023172900,0.2481728515625,0.294415492528677,-0.07186755085885524,0.031126959669589994
1774470099033185800,0.258185791015625,0.2986217120468616,-0.059078942564874885,0.03249021084681153
1774470099043198700,0.26819873046875,0.29949206514060495,-0.06664280194789171,0.03869213422685861
1774470099053211600,0.278211669921875,0.2393459317356348,-0.09127148563936352,0.03922010362371802
1774470099063224800,0.288224853515625,0.10805237843990326,-0.08141761562302709,0.0051307870171964165
1774470099073238000,0.298238037109375,0.024818799436092377,-0.06298427944034338,-0.04674129290878772
1774470099083250700,0.308250732421875,0.01368365743756294,-0.04225391836166382,-0.05339417492672801
1774470099093264000,0.318263916015625,-0.012186696878075599,-0.03720715636610985,-0.01541720323190093
1774470099103275800,0.32827587890625,-0.03982055373489857,-0.00046221068426966665,-0.007425181564688682
1774470099113289000,0.3382890625,-0.033575521865487096,0.05926204404681921,0.014013473913818597
1774470099123301600,0.348301513671875,-0.032251579785346984,0.032050065863877535,0.05765650854632258
1774470099133314800,0.358314697265625,-0.07222352468967437,0.01030044474005699,0.05814122332334518
1774470099143327700,0.36832763671875,-0.06559621550440788,0.03696078038960695,0.04698796114623546
1774470099153341000,0.3783408203125,-0.039297406643629074,0.040244039843976495,0.037017917404323815
1774470099163353600,0.388353515625,0.04336158734261989,-0.01036255019083619,0.028303134420514107
1774470099173366800,0.39836669921875,0.10628244615793228,-0.0558858456119895,0.0614864420980215
1774470099183380000,0.4083798828125,0.10201251375377178,-0.10599895304143428,0.09629822776019573
1774470099193392600,0.418392578125,0.06408230381011963,-0.13439517257288097,0.0550588932685554
1774470099203405800,0.42840576171875,0.10248714552819728,-0.14299918865859507,-0.04439019973799586
1774470099213418800,0.438418701171875,0.16081716942191124,-0.18955577265024184,-0.13106427458450198
1774470099223432000,0.448431884765625,0.16374913122057913,-0.21237389978840945,-0.14476765963584184
1774470099233444600,0.458444580078125,0.1474117444038391,-0.195044140933454,-0.09054755527898668
1774470099243457800,0.468457763671875,0.17425357410013675,-0.17847206857800482,-0.026002894654124975
1774470099253470700,0.478470703125,0.20625965469181537,-0.1572431103274226,0.023245704900473355
1774470099263483600,0.488483642578125,0.264454069507122,-0.14717501303851604,0.07425283856019377
1774470099273496800,0.498496826171875,0.3072983549773693,-0.19928864663541315,0.13971125302910803
1774470099283509800,0.508509765625,0.34670039103925226,-0.23705504431948066,0.16455124138370156
1774470099293523000,0.51852294921875,0.37096097207069395,-0.25986966432631015,0.17180545029565691
1774470099303534800,0.528534912109375,0.3957663275033235,-0.2775150650016963,0.19292422617003321
1774470099313547800,0.5385478515625,0.425566422483325,-0.28316417680457234,0.19699512887075543
1774470099323560700,0.548560791015625,0.4313905985921621,-0.3058724138274789,0.15312135422229767
1774470099333574000,0.558573974609375,0.37064357668459413,-0.3412526470273733,0.06598112316876649
1774470099343586600,0.568586669921875,0.3044119858860969,-0.3397327439837158,-0.0059309974841773505
1774470099353599700,0.578599853515625,0.2957353429555893,-0.3459108480967581,-0.05453545391634106
1774470099363613000,0.588613037109375,0.2924409775853157,-0.3780361711539328,-0.04414221632629633
1774470099373625900,0.5986259765625,0.2031079126626253,-0.37680443740189073,-0.004607786056399345
1774470099383638800,0.608638671875,-0.03164543058574199,-0.3221330821461975,-0.011102701033651827
1774470099393651700,0.618651611328125,-0.30412264755070206,-0.2326294829621911,-0.05258651180565357
1774470099403665000,0.628664794921875,-0.4662158282577991,-0.1391197168767452,-0.09946633640229702
1774470099413677600,0.638677490234375,-0.47587914413809773,-0.13104454697072504,-0.12206424491852522
1774470099423690800,0.648690673828125,-0.4048766856759786,-0.14679478154927492,-0.07485416545420885
1774470099433703700,0.65870361328125,-0.2939735939800739,-0.15781258077844976,-0.031124329321086403
1774470099443716900,0.668716796875,-0.16693477551937103,-0.1727531064093113,0.006242839912325143
1774470099453729800,0.678729736328125,-0.09378887528777122,-0.18705723383277653,-0.009006605537235736
1774470099463742700,0.68874267578125,-0.10237900897860526,-0.14325330955013632,-0.006322042628377675
1774470099473756000,0.698755859375,-0.1565092430949211,-0.09249415930211544,-0.02929711389392614
1774470099483768600,0.7087685546875,-0.2798831093072891,-0.04866100892499089,-0.023604893601685762
1774470099493781800,0.71878173828125,-0.4729571192115545,0.06285992240831255,0.03808876150622963
1774470099503794700,0.728794677734375,-0.8025204974889755,0.27664222768992186,0.10963920923992991
1774470099513808000,0.738807861328125,-1.2382377271085976,0.4887364337541163,0.15779358381703495
1774470099523819800,0.74881982421875,-1.6158943974256514,0.595252250276506,0.16170929595604538
1774470099533832700,0.758832763671875,-1.7299211741000413,0.5900671027235687,0.18326997037902473
1774470099543846000,0.768845947265625,-1.681882827118039,0.5697805398896336,0.20508359664976594
1774470099553858300,0.7788583984375,-1.566918477332592,0.45416240237057204,0.286575008161366
1774470099563871200,0.788871337890625,-1.349706635993719,0.3977596932776272,0.031118337971717116
1774470099573884200,0.79888427734375,-1.0480284589856863,0.3685986268535256,-0.35216713201254607
1774470099583897000,0.80889697265625,-0.7536328402012586,0.17404168491512537,-0.38402474404424425
1774470099593910300,0.81891015625,-0.6577291647166014,0.11861132798567414,-0.3546145251646638
1774470099603923200,0.828923095703125,-0.4272779025763273,0.21040406102016568,-0.5644380098178983
1774470099613936000,0.83893603515625,-0.3850502876996994,0.3309961875595152,-0.6790940243065356
1774470099623949300,0.84894921875,-0.3452490231871605,0.3519588960893452,-0.738827777518332
1774470099633962200,0.858962158203125,-0.23349779022932052,0.2159035352192819,-0.8515911101281642
1774470099643975200,0.86897509765625,-0.035679216146469114,-0.010422317554056643,-0.8692971549496055
1774470099653988000,0.878988037109375,0.13981588244736193,-0.20938027093037961,-0.74386694072932
1774470099664001300,0.889001220703125,0.08672551277279854,-0.3415009227000177,-0.6339712725102901
1774470099674014200,0.89901416015625,-0.05122925197780132,-0.36672684163227676,-0.5822019223064184
1774470099684027100,0.909027099609375,-0.1219143150538206,-0.31929961228594184,-0.5332578586563468
1774470099694040300,0.919040283203125,-0.04569441420435905,-0.21113310594707727,-0.486339455614984
1774470099704053200,0.92905322265625,0.228640413326025,-0.12758739225417376,-0.36072774734795093
1774470099714066200,0.939066162109375,0.5661906987041234,-0.08071063639745116,-0.19131255318969487
1774470099724078000,0.949078125,0.8417898470818996,-0.01645779832601547,-0.2008300308585167
1774470099734091300,0.95909130859375,1.0068640894263983,0.0017339841857552528,-0.3639756432279944
1774470099744104200,0.969104248046875,1.1958031914830207,-0.21399813998937606,-0.3758876148179173
1774470099754117400,0.979117431640625,1.4220733685463667,-0.4950371413335204,-0.17999270227402447
1774470099764130000,0.989130126953125,1.5534575227349996,-0.6804635590940713,0.014304711945354938
1774470099774143200,0.999143310546875,1.515134514081478,-0.6477388088390231,0.1119777351900935
1774470099784156200,1.00915625,1.2980828317403792,-0.40888416775166986,0.07665507739633322
1774470099794169000,1.019169189453125,1.0215554626017809,-0.15521540389209984,-0.04236351621598005
1774470099804182300,1.029182373046875,0.7510352249234914,0.004730535653233528,-0.10234013827294111
1774470099814195200,1.0391953125,0.45007074914276596,0.032705461032688614,-0.10602116487324237
1774470099824208400,1.04920849609375,0.21566694998443126,0.026717618794739245,-0.09205372205823659
1774470099834221000,1.059220947265625,0.0880120454519987,0.03590250350832939,-0.05252718283385038
1774470099844234200,1.069234130859375,-0.029219080221652982,0.041937107497453684,-0.005660802240669727
1774470099854247200,1.0792470703125,-0.06049275488555431,0.03704056762754917,0.013344927002489565
1774470099864260000,1.089260009765625,-0.11781681660711765,0.015696458564698694,0.07965688956081866
1774470099874273300,1.099273193359375,-0.1922153472483158,-0.04751490762978792,0.10227174921184777
1774470099884286200,1.1092861328125,-0.2076174990415573,-0.15712182203531264,0.005523147335648537
1774470099894299400,1.11929931640625,-0.17366437603533266,-0.24151626151204109,-0.1281082012578845
1774470099904312000,1.12931201171875,-0.1279436583459377,-0.25858108582049605,-0.2104723039507866
1774470099914325200,1.1393251953125,-0.1822206074565649,-0.16124474718421697,-0.23734949722141027
1774470099924337200,1.149337158203125,-0.3588853343516588,0.404051633028686,-0.05207739323973656
1774470099934350300,1.159350341796875,-0.5647358237206935,1.180076922301948,0.38671938995569943
1774470099944363000,1.169363037109375,-0.94425244269073,0.46383010216504333,0.31088410450965165
1774470099954376200,1.179376220703125,-1.2722294285595417,-0.16627631161063908,-0.004334522072970867
1774470099964389000,1.18938916015625,-1.1279267560869455,-0.40374446677565573,-0.3474909568950534
1774470099974402300,1.19940234375,-0.9517302312254905,-0.5471317779690027,-0.8217182421728968
1774470099984415200,1.209415283203125,-0.7008429147779941,-0.5399047493249177,-1.304004915265739
1774470099994428200,1.21942822265625,0.04711421787440777,-0.44961219172030686,-1.3545119904488325
1774470100004441300,1.22944140625,0.8955530014514923,0.12178718154281377,-1.1622907979816197
1774470100014454000,1.2394541015625,1.6972797182142734,0.3739101772651076,-0.6464540297254919
1774470100024467200,1.24946728515625,2.598464003551006,0.19153028759360313,-0.006931845089793205
1774470100034480000,1.259480224609375,3.3125942699253557,-0.24667291362285612,0.35785745260864493
1774470100044493300,1.269493408203125,4.495805106338858,0.2672495454445481,0.5993754676863551
1774470100054506200,1.27950634765625,5.49840978475511,1.1819298566922545,0.22824878365993498
1774470100064519200,1.289519287109375,5.165723306021094,0.5943041557714343,0.3527338259845972
1774470100074532400,1.299532470703125,4.2067566938012835,0.6755716953992843,0.46674788930788635
1774470100084545000,1.309544921875,2.585992644512653,0.6681091044336557,0.3675252254683524
1774470100094558200,1.31955810546875,0.8792489323824644,0.9266289615862071,0.5877972946280613
1774470100104571100,1.329571044921875,-4.266552114072442,1.003087785758078,0.14739567005187273
1774470100114583300,1.339583251953125,-7.416970201182365,1.5684969786956906,-0.6464539566602557
1774470100124596200,1.34959619140625,-4.949654789498448,1.6235932813651859,-1.2136105777870863
1774470100134609200,1.359609130859375,-5.074049230930209,0.15396394252628087,-1.3313384740017353
1774470100144622000,1.3696220703125,-3.4535604914516207,0.14551394795849917,-0.4953903021527454
1774470100154635300,1.37963525390625,-1.7428899612665176,-0.09279577259719371,0.5584853119585663
1774470100164648200,1.389648193359375,1.149843404340744,-1.1315401242785155,2.7380896241232753
1774470100174661000,1.3996611328125,1.3712854305952786,-2.0086491220228373,5.444056847798824
1774470100184674300,1.40967431640625,0.32776188181340693,0.8388027940951287,2.9342966713562606
1774470100194687200,1.419687255859375,-2.4860206966757774,0.29816943823471664,1.8232170051738619
1774470100204700200,1.4297001953125,-1.7147282811433076,-0.601768500302732,0.9331960650168358
1774470100214713000,1.439713134765625,-1.2084528296977282,-1.4120738064490257,-1.3816548489183187
1774470100224726300,1.449726318359375,-0.6789560771405696,-1.806663783649355,-2.517126029035449
1774470100234739200,1.4597392578125,-0.057286652320623396,-1.5182177209191023,-1.993230457486212
1774470100244752100,1.469752197265625,-0.05956628769040107,-1.2692187024362385,-0.5889764579426496
1774470100254765300,1.479765380859375,-0.24971768814623355,-0.9949772522777318,0.9828066297516226
1774470100264778200,1.4897783203125,-0.17074761180579662,-0.5886246488302945,1.1777623617492616
1774470100274791200,1.499791259765625,-0.1366454357177019,-0.4812821722254157,0.7646132300294936
1774470100284804000,1.50980419921875,-0.15529519113004206,-0.6424225822523236,0.14977891192659734
1774470100294816300,1.519816162109375,-0.030254268488287925,-0.7932941117212176,-0.23521029323562978
1774470100304829200,1.5298291015625,-0.07349252171218394,-0.6554045211613178,-0.3000936842955649
1774470100314842000,1.539842041015625,-0.16542086382508278,-0.38420711487382647,-0.0692674513630569
1774470100324855000,1.54985498046875,-0.33827859965264795,-0.1753200342878699,0.137460259231925
1774470100334868200,1.5598681640625,-0.2714016966879368,-0.036275136213004586,-0.017045827347040174
1774470100344881400,1.56988134765625,-0.06197101074457168,-0.23120500311702488,0.00534589107260108
1774470100354894000,1.57989404296875,0.06979951241314411,-0.2879530185163021,0.2950404925592244
1774470100364907300,1.5899072265625,-0.04592705391645431,-0.09320756826847791,0.7590992889136076
1774470100374920200,1.599920166015625,-0.053230654928088185,0.06744184337109327,0.7364288996830582
1774470100384933000,1.60993310546875,0.009751578685641289,0.11407295390367507,0.39078415517657994
1774470100394946000,1.619946044921875,-0.12482874119579791,0.3330208252549171,-0.13529840502291918
1774470100404959200,1.629959228515625,-0.19281389766335486,0.3687868429020047,-0.30486455195918677
1774470100414972400,1.639972412109375,0.14219839366972445,0.1670271299779415,0.0014776713371276854
1774470100424985000,1.649985107421875,0.5879448498725891,-0.008893208290636539,0.4252928662389517
1774470100434998300,1.659998291015625,0.7911644062161445,-0.08442425009310245,0.4697060084611177
1774470100445011200,1.67001123046875,0.861815567022562,0.08489566699713468,0.580675151130557
1774470100455024000,1.680024169921875,0.055205169871449467,0.42996641100794075,0.44420068806558843
1774470100465037000,1.690037109375,-1.0620914711296559,0.2878220856130123,-0.06056377429515123
1774470100475049200,1.70004931640625,-0.9415577967792749,0.22521628409624098,-0.4361889387845993
1774470100485062100,1.710062255859375,0.018064064478874205,0.20323504617363214,-0.7146481527686118
1774470100495075300,1.720075439453125,0.8898784629464149,0.07069383090436458,-0.917312413316965
1774470100505088000,1.730087890625,0.8957821340322494,-0.15915858855992554,-1.1884653959408402
1774470100515101200,1.74010107421875,0.8348667698204517,-0.45885289827436204,-1.1383823913887143
1774470100525114400,1.7501142578125,0.6745826843619346,-0.3858338392928242,-1.0823477849557994
1774470100535127000,1.760126953125,0.6000660802990198,-0.36624621850848194,-0.5249798596546054
1774470100545140200,1.77014013671875,0.9137743023186922,-0.2352373273730278,0.2442795887455344
1774470100555153200,1.780153076171875,1.1036661750555037,0.20636106923967598,0.17147738738507032
1774470100565166300,1.790166259765625,1.0559493151128292,0.5635857769027351,-0.2976028903931379
1774470100575179000,1.800178955078125,0.97317867744565,0.30465163986086846,-0.8136217372179031
1774470100585192200,1.810192138671875,0.53451078132689,-0.3190650728777051,-1.1595049666553736
1774470100595205000,1.820205078125,0.06823007113933563,-0.6194198923274874,-1.4428633508577942
1774470100605218000,1.830218017578125,-0.0184521870136261,0.5278098223835229,-1.5230176685467363
1774470100615231000,1.84023095703125,-0.07330898183882235,1.813852672240138,-1.217483108371496
1774470100625244200,1.850244140625,-0.14600772282481192,1.7402406158015131,0.22018881132304668
1774470100635257300,1.86025732421875,-0.3787053025871515,1.5311898690864443,1.153968959838152
1774470100645269200,1.870269287109375,-0.6758698015630245,1.8379677073210476,1.3324381058067083
1774470100655282200,1.8802822265625,-0.9474503619492053,2.144305985094607,1.4428215575426817
1774470100665295000,1.890295166015625,-0.9367021734416484,2.1691575177565214,0.7936193981528281
1774470100675308300,1.900308349609375,-0.8349684766292571,1.8697648213371634,-0.07330430566370487
1774470100685321200,1.9103212890625,-0.8506178811818361,1.308652156549692,-0.48413493130803104
1774470100695334100,1.920334228515625,-0.7811328415453433,0.4277575027868151,-0.6285322963267564
1774470100705347000,1.93034716796875,-1.1363146452039479,-0.04209872779995203,-0.6517606117010116
1774470100715360300,1.9403603515625,-1.782203734523058,0.49774610803127284,-0.36603169897496696
1774470100725373200,1.950373291015625,-2.4796067379802462,1.1935714869081973,-0.1688748036712408
1774470100735386000,1.96038623046875,-2.7032126642704006,1.503032572877407,-0.31118191841244697
1774470100745399300,1.9703994140625,-2.032960702589154,1.679827648153901,-0.8219219480514526
1774470100755412200,1.980412109375,-0.9388450306892394,1.372638598769903,-1.3001216440916061
1774470100765425200,1.990425048828125,-0.2795540234833956,0.2811637967675924,-1.6686463289260862
1774470100775438000,2.00043798828125,-0.2603676769763231,-1.277726856932044,-2.196555520030856
1774470100785451300,2.010451171875,-0.517285505759716,-1.1444336542516946,-2.1466081245571376
1774470100795464000,2.0204638671875,-0.9978466702342033,-0.1302571959853172,-1.498576762512326
1774470100805477000,2.03047705078125,-1.2881103037804364,0.6700263362318277,-0.9443746077656745
1774470100815490300,2.040490234375,-1.2215820681229232,1.1033119547903536,-0.6575964782476424
1774470100825502200,2.050502197265625,-0.9857216404154896,1.3665566485077143,-0.5761281553506851
1774470100835515100,2.06051513671875,-1.1609265238910913,1.609155444559455,-0.5109545491725206
1774470100845528000,2.070528076171875,-1.346829034730792,1.6715519872397184,-0.3750537943422794
1774470100855541200,2.080541259765625,-1.0913277947470545,1.7344933043211697,-0.3064572279781103
1774470100865554200,2.09055419921875,-0.9765718270152807,2.1696225049197673,0.0009779051214456557
1774470100875567000,2.100567138671875,-1.0844213763594626,1.9384692319899797,0.5540028327822685
1774470100885580000,2.110580078125,-0.8458686408281326,1.1122305897831917,1.1169248850792646
1774470100895593200,2.12059326171875,-0.24134879599064588,1.0820482174873352,1.3321896840035914
1774470100905606100,2.130606201171875,-0.2264537169367075,0.9542688097923994,1.0591142088845371
1774470100915619000,2.140619140625,-0.6869511675477028,0.7986381030976771,0.6346922802612185
1774470100925632300,2.15063232421875,-0.08339753739386796,1.2165180627316237,0.3801405960872769
1774470100935645200,2.160645263671875,0.91314418772161,0.5399404051601886,0.27282120809704064
1774470100945658000,2.170658203125,1.4650442030057311,-0.6814262666463852,0.4024874524518847
1774470100955671000,2.180671142578125,1.8520827419131993,-0.558339985203743,1.5411425233021379
1774470100965684200,2.190684326171875,2.057852859522402,-0.4470242210537195,2.069581875760853
1774470100975697200,2.200697265625,1.5335332173421978,-0.6604208880186081,1.6432979526579379
1774470100985710000,2.2107099609375,0.4923489251628518,-0.5580319421678781,0.6501590217232703
1774470100995722000,2.220721923828125,-0.7359969380065798,-0.005541267514228821,-0.6397247214704752
1774470101005735200,2.230735107421875,-1.3201438569009303,0.01979483379423618,-1.075482721491903
1774470101015748400,2.240748291015625,-0.8198486489087343,0.1574900708258152,-0.6039435062542557
1774470101025761000,2.250760986328125,-1.5269412717312574,0.4748445403933525,0.1417984345667064
1774470101035774200,2.260774169921875,-3.2322087738290426,0.374582669699192,0.8707865167245268
1774470101045787100,2.270787109375,-3.8220375377520917,-0.010436638340353965,1.2752461460322142
1774470101055800300,2.28080029296875,-2.4320117508515713,-0.47844519523382184,1.1269950281947851
1774470101065813000,2.29081298828125,-0.363462579139322,-0.7959487178832292,1.5518851588517426
1774470101075826200,2.300826171875,0.7298492290318012,-0.18884090237915516,2.0833952970579266
1774470101085839000,2.310839111328125,-0.25762904579266904,2.81962779738605,1.3620702968738971
1774470101095852000,2.32085205078125,-1.6212426265858113,5.507174105969071,-0.12754311472103
1774470101105865200,2.330865234375,0.10268763653635977,2.397369768798351,-2.8674834812775254
1774470101115878100,2.340878173828125,1.620558443713933,-0.2135784532725811,-3.6027751936241983
1774470101125891300,2.350891357421875,0.4736924477487802,-0.5017126735746861,-2.197046226157248
1774470101135904000,2.360904052734375,0.9523137302018702,-0.7642576945900916,-1.6745574526660143
1774470101145917200,2.370917236328125,3.5163989326804876,-0.8379244038254022,-0.6119044021308422
1774470101155930000,2.38093017578125,3.9444226851880546,-1.0912029993236065,-0.04710577883962542
1774470101165942300,2.3909423828125,1.7899733456112443,-2.20180744920969,-0.20152502738535402
1774470101175955000,2.400954833984375,0.04360832864530384,-1.670795615914464,-0.9079578711248933
1774470101185968000,2.410968017578125,-1.3021814992308616,-0.3495008354127407,-1.9875044810548423
1774470101195981300,2.420981201171875,-1.9875394062377512,0.8990379209578037,-1.7110707815490662
1774470101205994200,2.430994140625,-1.8253098857998846,1.0995324362516403,-0.5866773141548037
1774470101216007200,2.441007080078125,-1.107657728909701,0.7612117510229349,0.6918405470244586
1774470101226020000,2.45102001953125,-0.0006740998692810536,-0.09239362153708934,3.1203549572795626
1774470101236033300,2.461033203125,0.5661112037271261,-0.05774900913536548,4.530485959097743
1774470101246046000,2.4710458984375,-0.01854629503786564,1.1912474278748035,4.929245038676261
1774470101256059100,2.48105908203125,-0.9611948096632957,2.023174052590132,4.092511013679206
1774470101266072000,2.491072021484375,-1.0937807408571243,2.1025065325021743,2.4404348574124275
1774470101276085200,2.501085205078125,-1.1081827026318758,2.2148282588243484,0.24273747387006878
1774470101286098200,2.51109814453125,-2.137124841418862,1.120704403617978,0.08588570094779133
1774470101296111000,2.521111083984375,-1.7354162643849849,-0.07712532525658607,-0.3372485259525478
1774470101306124300,2.531124267578125,-0.7652244937956333,-0.02594926477074623,-0.7061795996308327
1774470101316137000,2.541136962890625,0.12645250647272913,1.191884556734562,-0.6789698134049773
1774470101326150100,2.551150146484375,0.35553602392375466,1.829595015773177,-0.2443842181637883
1774470101336163000,2.5611630859375,-0.13020457988209092,2.004861566308141,-0.46198725077733394
1774470101346176300,2.57117626953125,-1.1121890887290238,1.7678683351784943,-1.0735476617760955
1774470101356189200,2.581189208984375,-1.8320763111948966,2.5559265920728444,-1.0517026174537838
1774470101366202000,2.5912021484375,-1.7980805180907249,2.772010890686512,-1.8541025573030112
1774470101376215300,2.60121533203125,-1.4050164352834225,2.7008295685261485,-2.241849244479835
1774470101386227200,2.611227294921875,0.3493570064952597,1.1958844400256872,-1.7228148492261766
1774470101396240100,2.621240234375,2.1779238847970963,-0.5751765537142753,-0.5124985637441277
1774470101406253000,2.631253173828125,2.4679987177729603,-1.238404900369048,1.0488786460742354
1774470101416266200,2.641266357421875,2.095413943892717,-1.171591125768423,1.8450097347870469
1774470101426279200,2.651279052734375,1.9559107806563376,-1.9314473705291746,2.2612422194749118
1774470101436292000,2.6612919921875,1.5439362456738948,-2.178983622983098,0.9547355505213141
1774470101446305000,2.671304931640625,0.4161921526774764,-1.6770388942182064,-0.24190847570002078
1774470101456318200,2.681318115234375,-1.7152258554019033,-0.7941197488903999,0.1805105886682868
1774470101466331100,2.6913310546875,-1.6037131073750555,-0.5344178423464298,1.5162641026332973
1774470101476344000,2.701343994140625,0.2104838482581079,0.7837678662240505,0.9939178063526749
1774470101486357200,2.711357177734375,0.6104666244126856,2.5420845292031764,0.5152890712454915
1774470101496370200,2.7213701171875,-0.9127719934083521,3.583298047477007,0.017992168286442754
1774470101506383000,2.731383056640625,-1.6376853734731673,3.5153649134576317,0.21074059949815271
1774470101516396000,2.74139599609375,-2.7032126642704006,3.958527198386192,2.0578090203806756
1774470101526409200,2.7514091796875,-1.978526809351146,3.278540609154105,-0.7428548410773277
1774470101536422100,2.761422119140625,-0.5586755007684231,1.7763339657068251,-2.111158479382843
1774470101546435000,2.77143505859375,-0.06269903275817633,1.0532406406760215,-1.2506995876662432
1774470101556448800,2.78144873046875,0.5549146869301795,0.562813915747404,-0.6367557886622845
1774470101566461400,2.79146142578125,2.1306971464589237,-0.637559652391076,1.3967634245924652
1774470101576474600,2.801474609375,2.8641154661491512,-2.291491811788082,2.4703543409883975
1774470101586487800,2.81148779296875,2.582159349960089,-4.353239632922411,0.749777041555941
1774470101596500700,2.821500732421875,0.6373369495511054,-5.4288984416335815,-0.3021536855652928
1774470101606513700,2.831513671875,-0.35816812599301334,-5.421733956831694,-0.5132949748188257
1774470101616526600,2.841526611328125,0.15978753411322832,-3.6765865720272064,-0.8885127275511622
1774470101626539800,2.851539794921875,1.2051453125849365,-2.2353642663747073,-0.6314154505476355
1774470101636552400,2.861552490234375,1.0079396097034214,-1.3943161775708197,-0.1724149604961276
1774470101646565600,2.871565673828125,0.29839696338027716,-0.6427297485053539,0.13774930530637503
1774470101656578600,2.88157861328125,0.09967968689203262,-0.08283259698748588,-0.2958475711584091
1774470101666591700,2.891591796875,-0.5191802334651351,1.097095564493537,-0.1380231538116932
1774470101676604700,2.901604736328125,-5.900126545095444,9.955671517688035,5.5585623479008675
1774470101686617600,2.91161767578125,-5.316016158819198,8.097277108410001,0.5917277294121682
1774470101696630800,2.921630859375,1.6638228542923927,6.0351914336234325,-0.5211451037973165
1774470101706643500,2.9316435546875,0.4468076556935906,2.9318367109835144,-1.7797141096644102
1774470101716656600,2.94165673828125,0.7120341708779334,0.3546674243956804,-0.7944735307641327
1774470101726669600,2.951669677734375,2.195393782775104,-2.2912299459815024,0.7170457154296338
1774470101736682800,2.961682861328125,2.1717218152865767,-3.8069542426496743,0.039741789410263295
1774470101746695700,2.97169580078125,2.52791308824867,-4.50596585034728,0.2184871219716966
1774470101756708600,2.98170849609375,3.339606487752497,-3.4288258631676434,1.9353078453496098
1774470101766721800,2.9917216796875,2.409684768231213,-2.4387054032713174,1.1594354085505008
1774470101776734500,3.001734375,0.15307196212261914,-2.2390900088995696,-0.3544641569085419
1774470101786747600,3.01174755859375,-1.874248688752949,-2.245761741748452,-1.3194346857182682
1774470101796760600,3.021760498046875,-3.4828339322090147,-2.125185397300124,-1.5833346284739673
1774470101806773800,3.031773681640625,-4.312513362519443,-1.243177521598339,-1.4607783622547983
1774470101816786700,3.04178662109375,-3.010666209809482,0.15874971549808978,-0.20628727335110306
1774470101826799600,3.051799560546875,-2.006743142271042,0.9001362375885248,0.06961027345135808
1774470101836812800,3.061812744140625,-1.3863105657696724,0.8620902923107147,-0.5731925402902066
1774470101846825500,3.071825439453125,-0.8577803201571106,0.12243512405753135,-0.9861638312250375
1774470101856838700,3.081838623046875,0.589990968747437,-0.826382434591651,-1.3071167636759577
1774470101866851600,3.0918515625,2.786167718593776,-1.3860767570137977,-0.7796214140690862
1774470101876864800,3.10186474609375,2.769972078335285,-1.7111843249261378,-0.06217194014415144
1774470101886877400,3.11187744140625,1.4447896427452562,-1.8606465721189975,0.48905689788013695
1774470101896890600,3.121890625,0.01587356869727373,-1.464703134483099,0.45262510980069637
1774470101906903800,3.13190380859375,-1.4584370598256586,-1.119727083018422,0.3570680557966232
1774470101916916700,3.141916748046875,-1.9467289646826684,-0.9275053060293197,0.22796660571768879
1774470101926930700,3.1519306640625,-1.6844646603047846,-0.8323369590818881,0.4955779702119529
1774470101936943900,3.16194384765625,-1.07341819017753,-0.3509463580459356,0.22862243927791714
1774470101946956500,3.17195654296875,-0.03518704871535301,0.42165889365077014,-0.1901319651030004
1774470101956969700,3.1819697265625,0.0975064345061779,0.7962532537877559,-0.18867840529382227
1774470101966982700,3.191982666015625,-0.5735924993932247,0.9849608851760625,-0.17975494799539446
1774470101976995600,3.20199560546875,-1.5170377173542975,1.0048387210786343,-0.03895107742398977
1774470101987008500,3.212008544921875,-1.6213422875680028,1.0450877293586731,0.04417012724652886
1774470101997021700,3.222021728515625,-0.6467513321716338,0.7128156766444445,-0.2907058243557811
1774470102007034600,3.23203466796875,0.6094762251358479,0.18482289890944956,-0.5572726482331752
1774470102017047600,3.242047607421875,1.3079554064571857,-0.09371171839833259,-0.3585819674909115
1774470102027060700,3.252060791015625,1.3279355336904526,-0.4340916742444038,-0.3762560097388923
1774470102037073700,3.26207373046875,1.014014472637698,-0.6249912627190352,-0.2881469336532056
1774470102047086600,3.272086669921875,0.7472246536593884,-0.41956279815435404,-0.19561931047290562
1774470102057099500,3.282099609375,-0.008951441283896565,-0.493005050984025,-0.35423385528400536
1774470102067112700,3.29211279296875,-1.2886264366090296,-0.3791320035666227,0.3695112116537988
1774470102077125600,3.302125732421875,-1.788810147050768,0.12953823406100273,0.9883397139593958
1774470102087138600,3.312138671875,-0.9423954166471957,0.34332010095119475,0.600935702740401
1774470102097151700,3.32215185546875,0.0965559288483113,0.257478969797492,0.17280775920599697
1774470102107164700,3.33216455078125,0.5375274257343262,0.21270985374450682,-0.04265899203121662
1774470102117177600,3.342177490234375,0.7272282328784465,0.3717079910457134,-0.31555823380053044
1774470102127190500,3.3521904296875,0.7667243038993329,0.5000350957512856,-0.3687847970753908
1774470102137203700,3.36220361328125,0.004962590843439102,0.48685938783586025,-0.48255263055264946
1774470102147216600,3.372216552734375,-0.20362411855645476,0.7222749943852425,-0.21307138053327798
1774470102157229600,3.3822294921875,-0.3515608366824686,0.7335106741487979,-0.15204992559850214
1774470102167242800,3.39224267578125,-0.3668717299956828,0.74314885558784,-0.5051245278447866
1774470102177256700,3.402256591796875,-0.4574514339786023,0.5296557425111532,-0.45982115878462787
1774470102187269600,3.41226953125,-0.9062591043829917,-0.03366086206138134,-0.200932029928267
1774470102197282600,3.422282470703125,-1.4377426468431949,-0.30986499059498307,0.11611644243001937
1774470102207295700,3.432295654296875,-1.592823318439722,-0.5310656093090772,0.21747838332056998
1774470102217308700,3.44230859375,-1.185330897307396,-0.5148439578264952,0.17315204259902237
1774470102227321600,3.452321533203125,-0.6061960344213992,-0.4952203889459371,0.29490619865506884
1774470102237334800,3.462334716796875,-0.30260011415854093,-0.6551315494388341,0.39572906423285603
1774470102247347700,3.47234765625,-0.16702610706463455,-0.7135814003199339,0.5169001597039401
1774470102257360600,3.482360595703125,-0.3237866945721209,-0.7026134315818547,0.18276158246546984
1774470102267373600,3.49237353515625,-0.826172445102781,-0.2481681206166744,-0.35259105651304123
1774470102277386800,3.50238671875,-1.2235992531642317,0.2103016235589981,-0.26717735699117184
1774470102287399700,3.512399658203125,-1.0091501545369626,0.19614391886889934,-0.27437895893305536
1774470102297412600,3.52241259765625,-0.8504673667952418,-0.05310732080936432,-0.3460118242532015
1774470102307425800,3.53242578125,-0.4764031680122018,-0.3067828066706657,-0.6665642130792141
1774470102317438700,3.542438720703125,-0.3398410266637802,0.008985270488262176,-0.6044809741318226
1774470102327451600,3.55245166015625,0.29402853903770443,0.3549339663773775,-0.634804362333566
1774470102337464600,3.562464599609375,1.6598007591694592,0.46624797696173187,-0.43459465533047914
1774470102347477800,3.572477783203125,2.3977742579460144,0.46010991259813305,0.43260874221026896
1774470102357490400,3.582490478515625,1.2463663807675243,0.04787760346233844,-0.11199439406394958
1774470102367503600,3.592503662109375,0.07656593780815601,-0.18590484892725945,-0.141776807256788
1774470102377516800,3.602516845703125,-0.31713293577134605,-0.677724489519,-0.16843027477413414
1774470102387529700,3.61252978515625,-0.27085049254596233,-1.0404378577262163,0.035134441745281214
1774470102397543700,3.622543701171875,0.03736117788404226,-1.0974486157149075,0.29433833563923834
1774470102407556600,3.632556640625,0.5044897370725869,-0.9319698842227458,0.37721842503026126
1774470102417569500,3.642569580078125,0.9163941294282675,-0.7829395987063645,0.3047654754988849
1774470102427582700,3.652582763671875,1.217955402058363,-0.876606893441081,0.25092253389135
1774470102437595600,3.662595703125,1.1275520775556565,-1.1568904002428053,0.561872250983119
1774470102447608800,3.67260888671875,1.0745973169595002,-1.1220797836244105,0.8400256138883531
1774470102457621500,3.68262158203125,0.9228507582217454,-1.01159813221097,0.950004138085246
1774470102467634700,3.692634765625,0.8096785525500774,-0.8857003004789352,0.8912732783056795
1774470102477647600,3.702647705078125,0.9734200849860906,-1.1965046177506447,0.9113859458774328
1774470102487660500,3.71266064453125,1.068876016703248,-1.6640829665333032,1.055168832259625
1774470102497673700,3.722673828125,0.3896861308068037,-1.6986504220455885,1.1455512601047753
1774470102507686700,3.732686767578125,-0.5937362927556038,-1.299172380542755,0.8729968862503766
1774470102517699800,3.742699951171875,-1.1119593716263771,-1.1611200006365776,0.5518504770539701
1774470102527712500,3.75271240234375,-1.1144722312301396,-1.492271524888277,0.4445785814672708
1774470102537725700,3.7627255859375,-0.7235498366266488,-1.29144207855165,0.40840208332315087
1774470102547738600,3.772738525390625,0.6289437997370958,-0.7331593764930963,0.4503577493906021
1774470102557751600,3.78275146484375,0.6904775881081819,-0.6684072105973958,0.2951763938985765
1774470102567764700,3.7927646484375,0.21728958275020122,-0.43680736294388767,0.34202582335695625
1774470102577777700,3.802777587890625,0.1565928297251463,-0.2934802575051784,0.3753665135532617
1774470102587790800,3.812790771484375,0.0380588047593832,-0.24890111106634139,0.18485694730952382
1774470102597803500,3.822803466796875,-0.13176876959204673,-0.3861445126771927,0.08963307078257203
1774470102607816700,3.832816650390625,-0.00269873756468296,-0.3232102098584175,-0.05813333227783441
1774470102617830700,3.84283056640625,0.23748013786375521,-0.07072130343317985,-0.19867197604179382
1774470102627843600,3.852843505859375,0.5021481423825025,0.5422983664631843,-0.4310866472095251
1774470102637856800,3.862856689453125,0.4896580786436796,1.21046358499825,-0.5826058269321918
1774470102647869700,3.87286962890625,0.03696341073811054,1.1003794084697962,-0.2603027950465679
1774470102657882600,3.882882568359375,-0.741369570955634,0.6092793143242597,-0.26358137832581996
1774470102667895600,3.8928955078125,-0.8395242402374744,0.2530751818805933,-0.361949105836451
1774470102677908700,3.90290869140625,-0.4369444333270192,0.07685001544654368,-0.4415352682486176
1774470102687921700,3.912921630859375,0.08037935861647129,0.5049515093654394,-0.5484644878774881
1774470102697934600,3.9229345703125,0.8981959171757101,1.0198884061723947,-0.4525871158778667
1774470102707947800,3.93294775390625,1.9628619149684905,1.3714923513442276,-0.2794131537079811
1774470102717960700,3.942960693359375,3.6615304571926592,1.76780169968307,-0.15755992119163273
1774470102727973600,3.9529736328125,3.897213774767518,2.891632126367092,0.30525048253685233
1774470102737986600,3.962986572265625,2.7510008358836173,3.8274551788866518,0.4484560074225068
1774470102747999700,3.972999755859375,2.0129548563927413,3.9431273846805093,0.28283085319697854
1774470102758012400,3.983012451171875,1.6462804756000637,3.1932787391930817,-0.27153993611484767
1774470102768025600,3.993025634765625,1.2214496739149092,2.1914292630583048,-0.21193214737027882
1774470102778038800,4.003038818359375,0.7283996147453784,1.922386696717143,-0.08510404905080794
1774470102788051700,4.0130517578125,-0.06084960549920797,1.9357447754621504,0.17464871089756487
1774470102798064600,4.023064697265625,-0.3259074861183762,2.056120628902316,0.1349018069207668
1774470102808077600,4.03307763671875,-0.07103636073172093,2.553221424767375,-0.08584493054598569
1774470102818090800,4.0430908203125,-0.40846623460054393,2.196658395883441,0.06418401061892509
1774470102828103400,4.053103515625,-1.0894161159068345,0.9288689955979585,-0.6560600624606013
1774470102838116600,4.06311669921875,-1.6044807307466864,0.4777408463567495,-0.7709478398784995
1774470102848130800,4.073130859375,-1.9811244246289132,-0.07412029822170733,-0.5117603125974536
1774470102858143500,4.0831435546875,-2.4289012176156044,-0.3240402309417724,-0.7448343244567514
1774470102868156700,4.09315673828125,-3.101362964300811,-0.8820569755405188,-1.0698089136391877
1774470102878169600,4.103169677734375,-3.678576576800644,-1.362608787664771,-1.278367639053613
1774470102888182500,4.1131826171875,-4.386807848264277,-1.4634510885953902,-1.5828969677090643
1774470102898195700,4.12319580078125,-4.217761487418413,-1.6181103199094533,-1.6557070601150392
1774470102908208600,4.133208740234375,-2.10938723192662,-1.1214040763199329,-1.3113396420679986
1774470102918221800,4.143221923828125,-2.4362603482067584,-0.7363327458322048,-0.7030515307381748
1774470102928234500,4.153234375,-2.446041152986884,-0.9627028761386871,-0.37821810359209773
1774470102938247700,4.16324755859375,-2.4683923932656646,-1.0151070171147585,-0.6309905031338334
1774470102948260600,4.173260498046875,-2.4252713366806504,-1.0494400793492793,-0.6532933742262422
1774470102958273500,4.1832734375,-1.8005496846832334,-0.9524643907189368,-0.4847659226879477
1774470102968286700,4.19328662109375,-1.051406410986185,-0.48552609340548514,-0.4295813572131097
1774470102978299600,4.203299560546875,-0.5085979030437767,0.08542495156824588,-0.3746756086796522
1774470102988312800,4.213312744140625,-0.008127338484674692,0.5508113432645797,-0.34104835662692784
1774470102998325500,4.223325439453125,0.34327085498198867,0.8014636819124221,-0.28971725170984863
1774470103008338700,4.233338623046875,0.4449566209994256,0.672832625824213,-0.21025325437262654
1774470103018351600,4.2433515625,0.2472317165493965,0.2779968571692705,-0.182661483091861
1774470103028364500,4.253364501953125,0.14005612094402312,0.08241115670502186,-0.2421604046344757
1774470103038377700,4.263377685546875,0.03451367949843406,0.018117255970835685,-0.3536073939487338
1774470103048390700,4.273390625,-0.09533902733922005,-0.030058453655242918,-0.24716771140247581
1774470103058403800,4.28340380859375,0.027701697928644714,-0.09759995800852775,-0.0310864815287292
1774470103068416500,4.29341650390625,-0.26265021668924016,0.06581658025681972,0.021045710638165474
1774470103078429700,4.3034296875,-0.7901087596833706,0.13230302259922028,-0.1520475144457072
1774470103088442600,4.313442626953125,-1.0513736777603626,-0.05994388883113861,-0.24213439341038465
1774470103098455600,4.32345556640625,-0.5543944624483585,-0.2934779194176197,-0.10931341135166585
1774470103108468500,4.333468505859375,0.33775077638626094,-0.2521808633893728,-0.07514628026857972
1774470103118481700,4.343481689453125,0.9032552463918924,-0.023466800305247306,-0.1181999707058072
1774470103128494800,4.353494873046875,0.9662029932141304,0.02420505145192146,-0.12507409425899385
1774470103138507500,4.363507568359375,0.8875397908657788,-0.11599135474562644,0.036780893778055906
1774470103148521700,4.373521728515625,0.6913209801297634,0.02687807005345821,0.14552088915593922
1774470103158534700,4.38353466796875,0.2767027987707406,0.24160043266415596,0.18236250014528632
1774470103168547600,4.393547607421875,0.21630700145363807,0.3356967664659023,0.28589908166117967
1774470103178560800,4.403560791015625,0.28641631046831606,0.5630225900620222,0.3855094296440482
1774470103188573700,4.41357373046875,0.21729433199055492,0.9248375481247901,0.12773717598840595
1774470103198586600,4.423586669921875,0.4006413861937821,0.8322107023537159,0.010487491744756699
1774470103208599600,4.433599609375,0.8434132105000317,0.4380313517808914,0.00805529616177082
1774470103218612700,4.44361279296875,1.2381887734003365,0.15170856481492517,-0.05940729773640632
1774470103228625400,4.45362548828125,0.9085669429339468,-0.18491992954313755,-0.3474501864932477
1774470103238638600,4.463638671875,0.5278099685139954,-0.8198533250838518,-0.4748782234672457
1774470103248651800,4.47365185546875,0.7190887655645608,-1.2834662773668766,-0.3208871737383306
1774470103258664700,4.483664794921875,0.5055293092533946,-1.2966092520564794,-0.3011023133488372
1774470103268677600,4.493677734375,-0.14559738845825196,-1.1945172433257103,-0.4290108273161575
1774470103278690600,4.503690673828125,-0.04476882379204034,-1.1037614521235226,-0.21690712277125565
1774470103288703700,4.513703857421875,0.5738854909904301,-0.8895844484359026,0.20934742810670284
1774470103298716700,4.523716552734375,0.793470345070958,-0.5080342778116465,0.34087661678921427
1774470103308729600,4.5337294921875,1.1630948078408836,-0.2697013225108385,0.530374814033322
1774470103318742800,4.54374267578125,1.4194500343054532,-0.42982583349347114,0.6750982326686382
1774470103328755700,4.553755615234375,1.253552785140276,-0.8052940538555383,0.4356100429181009
1774470103342523600,4.567523681640625,1.2848302591964602,-1.2976140451848506,0.23424731168868018
1774470103352536600,4.57753662109375,1.5529764612197876,-1.6366887636512517,0.13452672653067857
1774470103362549500,4.587549560546875,1.0416033943742513,-1.7777298039793967,-0.1603627036526799
1774470103372562700,4.597562744140625,0.6813394651457667,-2.1090572693198917,-0.3390777506737038
1774470103382575900,4.607575927734375,1.2722913878798483,-2.283839835730195,-0.23770470386724918
1774470103392588500,4.617588623046875,1.8756024414494632,-2.109651728081703,-0.16283227210398762
1774470103402601700,4.627601806640625,1.9483985053300856,-1.983165282806754,-0.20716297847339882
1774470103412614700,4.63761474609375,1.8763716722562909,-1.7657032660990952,-0.19063576817298306
1774470103422627600,4.647627685546875,1.696687305279076,-1.422348678356409,-0.2529438836511224
1774470103432640500,4.657640625,1.6105506983101368,-1.1652712750971317,-0.1658436923470348
1774470103442653700,4.66765380859375,1.2795949888914824,-1.0067483540922402,-0.13870350075867027
1774470103452667000,4.6776669921875,1.07452308267951,-0.6878472396045923,-0.07614525557751767
1774470103462679600,4.687679443359375,0.8668214124858379,-0.30412790824770924,0.18013704264815897
1774470103472692700,4.697692626953125,1.2735340814173222,-0.6503191807210446,0.3074053224831819
1774470103482705700,4.70770556640625,1.354773856255412,-0.7178992635190486,0.528037895518355
1774470103492718600,4.717718505859375,1.1640355958223343,-0.8695446999698877,0.4787884191809222
1774470103502731500,4.7277314453125,1.6547762090057134,-0.8996820640802383,0.266436804289557
1774470103512744700,4.73774462890625,1.7676742739111184,-0.3100859398692846,0.12749627990461884
1774470103522758000,4.7477578125,1.4322224221169948,0.6274526843965054,0.24843776787091046
1774470103532770600,4.7577705078125,-2.0939368570774795,2.973720042467117,0.017741079602204262
1774470103542783700,4.76778369140625,-1.67182846609354,3.777149471494555,-0.6035080374464392
1774470103552796700,4.777796630859375,-2.486636198225617,4.197707125905156,0.04359766112081706
1774470103562809300,4.787809326171875,-0.5373474660575389,3.6472324672490357,-0.10219320408292114
1774470103572822000,4.797822021484375,2.7041630968630312,2.7605507545173165,-0.5989410217918455
1774470103582835200,4.807835205078125,3.069820701828599,2.197588370209932,-0.2093148044787347
1774470103592848100,4.81784814453125,2.0415520053237675,2.164598539277911,-0.09592431641388684
1774470103602861000,4.827861083984375,1.3897177438646555,1.762466183874011,0.1466751006923616
1774470103612874200,4.837874267578125,0.8496884913772345,1.2115016958743332,0.27450671349857003
1774470103622887200,4.84788720703125,-0.21400106259882448,0.835390209172666,0.3335942412286997
1774470103632900400,4.857900390625,-0.7187538345217704,0.4505445041343569,0.022855618737498296
1774470103642913000,4.8679130859375,-0.7588783396393061,0.6293880363732576,0.21004618749320506
1774470103652926200,4.87792626953125,-0.7245388476639986,0.6232195768713951,0.30860110813900826
1774470103662939100,4.887939208984375,1.3242688278764485,0.21986264810860157,-0.38999176268987357
1774470103672952000,4.8979521484375,2.1891040349811313,-0.3099634825333953,-0.8982271890968084
1774470103682965000,4.907965087890625,1.7865104918062686,-0.7313675246402621,-1.2705335844270884
1774470103692978200,4.917978271484375,1.6715654312431811,-1.0404919260010124,-1.2334632061831652
1774470103702991400,4.927991455078125,1.2688240040302277,-1.0143351559594274,-0.6665757573865354
1774470103713004000,4.938004150390625,0.007559621599316596,-0.8044931127361953,-0.6694676794357597
1774470103723017200,4.948017333984375,-3.2488392983734604,0.33315760337710376,-1.1523450118981302
1774470103733030100,4.958030029296875,-10.586505076694488,3.281865954184532,-2.5010148521900177
1774470103743043000,4.96804296875,-12.373124289572239,4.2803588133677835,-3.6761028801634907
1774470103753057300,4.978057373046875,-5.162008084890246,1.713535856488347,-2.5614883178532124
1774470103763070200,4.9880703125,-0.5536258161634207,0.811764418913424,-0.2620379300097935
1774470103773083100,4.998083251953125,1.1929542317926882,1.344853643004596,-0.01074349406613037
1774470103783096000,5.008095947265625,2.4116513921290634,1.3820716130256652,-0.0013033924824558199
1774470103793109200,5.018109130859375,2.8100732025772333,0.7497837635576725,0.3192790078893304
1774470103803122000,5.028121826171875,2.2094208468228578,0.25456483591645956,0.2822283755254932
1774470103813135000,5.038135009765625,1.184200431972742,0.06686988870203495,0.1193907879255712
1774470103823148300,5.048148193359375,0.5172328987896442,-0.3069086250074208,0.19263430331274867
1774470103833161200,5.0581611328125,0.28457331295013427,-0.7183373626753687,0.1600202834231779
1774470103843174100,5.068174072265625,-0.21265373964309692,-1.0288333446502684,-0.38457540019694714
1774470103853187000,5.07818701171875,-0.6982710184633731,-1.2746446730077265,-0.9997907900393008
1774470103863200300,5.0882001953125,-0.8224532784491777,-1.4041884600266814,-1.197500496920198
1774470103873213000,5.098212890625,-0.3957499608904123,-1.4813317593313753,-1.490928585846722
1774470103883226000,5.10822607421875,-0.0228004453510046,-1.5942840386420487,-1.4235362807057796
1774470103893239300,5.1182392578125,0.3898603183299303,-1.7072011005088685,-0.8255041904523969
1774470103903252200,5.128252197265625,0.5010550864487886,-1.4174185284778476,0.03094215942090377
1774470103913265200,5.13826513671875,0.6783160256713628,-0.6435270363628864,0.5634774211574346
1774470103923278000,5.148278076171875,0.3947241249740123,0.25748656858205793,0.570040944391489
1774470103933291300,5.158291259765625,-0.6538339108437299,1.0822919631153345,0.8621976982079446
1774470103943304000,5.168303955078125,-1.1217921988546848,1.6829064710773527,1.5313219710335135
1774470103953317000,5.178317138671875,-0.5177881945848465,1.691376047128439,1.5810967864193022
1774470103963330300,5.188330322265625,0.848620569884777,0.9200365775838494,0.518107233938761
1774470103973343200,5.19834326171875,1.3290157301425933,0.8334903669007122,0.4552834422897547
1774470103983356200,5.208356201171875,1.2323375631541014,1.3530362188078462,0.8583465026725083
1774470103993369000,5.218369140625,0.620526684525609,1.909945878947526,0.7164087327003479
1774470104003382300,5.22838232421875,-0.3083744597762823,2.167092109659314,0.6300891703799366
1774470104013395000,5.23839501953125,-1.1267314088225364,1.9621530360467732,0.37592232080511745
1774470104023408000,5.248408203125,-1.3488655089944601,1.4943912935212254,-0.02267703816704452
1774470104033421000,5.258421142578125,-0.8996206892818212,1.3752486351378261,0.039319253149256106
1774470104043434200,5.268434326171875,-0.024736966371536252,2.0842427076675,1.460229642330855
1774470104053447200,5.278447265625,1.1955126841038466,1.8935053240172564,2.159097603774071
1774470104063460000,5.288460205078125,0.16240297730863093,0.5551604783847928,1.1794494380533695
1774470104073473300,5.298473388671875,-0.473127799603343,-0.4903149351172149,0.0504316809924785
1774470104083486200,5.308486328125,-0.582543867611885,-0.9024906917601824,-0.6057413859890773
1774470104093499100,5.3184990234375,-0.49010406884551044,-0.9503180263400077,-1.2007247196637094
1774470104103512000,5.328511962890625,-0.4013929352134466,-0.8946865938805043,-1.69372830934301
1774470104113525200,5.338525146484375,-0.35363165160715576,-0.9666656422898173,-1.8880344913907348
1774470104123538200,5.3485380859375,-0.16927169403433798,-1.3380547766447066,-2.0826102841600775
1774470104133551000,5.358551025390625,-0.16478139687776563,-1.5350858536116778,-2.066596137948334
1774470104143564300,5.368564208984375,-0.5273708464443684,-1.347664608772099,-1.086343576593697
1774470104153577200,5.3785771484375,-0.4872352354109287,-1.04896763953194,-0.7178088087566197
1774470104163590100,5.388590087890625,-0.4008621893376112,-0.6469353835016489,-0.6610705840989947
1774470104173603000,5.39860302734375,-0.021653028881549834,-0.3297399038881063,-1.317846978135407
1774470104183616300,5.4086162109375,-0.18809563696980475,-0.28746611178219317,-0.3084171298742294
1774470104193629200,5.418629150390625,-0.5553863960951566,-0.4338059891708195,1.257877662602067
1774470104203642000,5.42864208984375,-0.5616267517894507,-0.524518818014115,1.918555009599775
1774470104213655300,5.4386552734375,0.4936263977527618,-0.2789696477241814,1.6256538671568035
1774470104223668200,5.448668212890625,1.072491869112849,0.18047127957120537,1.4075287103652954
1774470104233682200,5.45868212890625,0.6280085647135972,0.692159549845755,1.1804828727543353
1774470104243695400,5.4686953125,-0.051666474351286885,0.9764736273378133,0.8297427048049867
1774470104253708000,5.4787080078125,-0.5647545284211635,0.9999344362936914,0.43130500266794114
1774470104263721200,5.48872119140625,-0.7290992874473333,0.8537240305036305,0.024426512182876465
1774470104273734100,5.498734130859375,-0.511554268631339,0.5787516357220709,-0.48751361396089193
1774470104283747000,5.5087470703125,-0.11470891371965408,0.6466219336383044,-1.1947422842532396
1774470104293760000,5.518760009765625,-0.010618424648046493,0.5180918537065387,-1.6470897461563347
1774470104303773200,5.528773193359375,-0.09035948536098003,0.06553571748882532,-1.5691659639984368
1774470104313786400,5.538786376953125,-0.3351923240751028,-0.012598784810304641,-1.2689829939842223
1774470104323799000,5.548799072265625,-0.6073574063509702,0.1160848782479763,-0.8469389004081487
1774470104333812200,5.558812255859375,-0.5982862111449241,0.28036972378045316,-0.4860620269130915
1774470104343825200,5.5688251953125,-0.555161939689517,0.2951451219774783,-0.24180024781888348
1774470104353838000,5.578838134765625,-0.5778425580531359,0.1250089200682938,-0.05548677242496051
1774470104363851000,5.58885107421875,-0.6370557945221662,-0.16244769323319197,0.09206792411352507
1774470104373864200,5.5988642578125,-0.6089601653724909,-0.41443595665991306,0.23636799363708122
1774470104383877000,5.608877197265625,-0.33170915813446045,-0.44911118339560924,0.37630123712010677
1774470104393890000,5.61889013671875,0.23222820868492125,-0.2960539804507047,0.4170918779961765
1774470104403903200,5.6289033203125,0.5999708032310008,-0.2808565574493259,0.17884342264104633
1774470104413916200,5.638916259765625,0.3597212006539106,-0.35865357142239807,-0.405803883523494
1774470104423929000,5.64892919921875,-0.2431622751533985,-0.354125937930122,-1.0539850293025375
1774470104433942000,5.65894189453125,-0.8124708136171102,-0.16859489075131714,-1.4481303314752876
1774470104443955200,5.668955078125,-1.0281675742179155,0.12041180153638124,-1.4501821494385598
1774470104453969200,5.67896923828125,-0.8291349481701851,0.3705466191161424,-1.1680837021693586
1774470104463982000,5.688982177734375,-0.3998328462898731,0.4937733684753999,-0.8734843775063753
1774470104473995300,5.698995361328125,0.030478140372037887,0.5472068159665912,-0.6140162797182798
1774470104484008200,5.70900830078125,0.37347032454311846,0.5739517611596733,-0.38021296720374376
1774470104494021000,5.719021240234375,0.4528665173411369,0.5524240756908432,-0.13067337557077408
1774470104504034000,5.729033935546875,0.21891864525675772,0.39460185030121353,0.1929485203610733
1774470104514047200,5.739047119140625,0.0963905822187662,0.37765177494622765,0.4409482256082818
1774470104524060200,5.74906005859375,0.2220920145958662,0.5913591152954846,0.6222602303199469
1774470104534073000,5.759072998046875,-0.07440262229442596,0.07967316484218463,1.131088727249205
1774470104544086300,5.769086181640625,-0.1539735871374607,-0.027443229655548927,1.1882190199643372
1774470104554099200,5.77909912109375,0.41770811019837856,0.3692021822372451,0.9188364810790866
1774470104564112100,5.789112060546875,0.5691735139071941,0.7513082697112112,0.6325221696805209
1774470104574125300,5.799125244140625,0.26327918050885196,0.7905261083126067,0.2392494125586003
1774470104584138200,5.80913818359375,0.12449614824056625,0.5926814499404282,-0.11921700226124375
1774470104594151200,5.819151123046875,0.3378782021582126,0.04916581664197146,0.21428419038914143
1774470104604165000,5.8291650390625,0.5927279924958944,-0.4529704891722649,1.4330552196793258
1774470104614178300,5.83917822265625,1.0867518651336432,-0.1002922475661151,2.397327390961349
1774470104624191200,5.849191162109375,2.1738316470474004,0.827803041979298,2.2254368927307424
1774470104634204200,5.8592041015625,2.0996973203003404,0.21337503965497015,2.61282716768533
1774470104644217300,5.86921728515625,0.7107178275823592,-0.9118618928261101,2.5054309150666
1774470104654230000,5.87922998046875,-1.5597878948003052,-0.951319385402277,1.4278645191684365
1774470104664243200,5.8892431640625,-1.5155881030678748,-0.40236941556278616,-0.24496318709552287
1774470104674256100,5.899256103515625,-0.38233752160966394,0.11660733121950179,-1.6149613543592392
1774470104684269300,5.909269287109375,-0.017675357422232627,0.37977811945043505,-2.2566242042854427
1774470104694282200,5.9192822265625,0.5593132141500711,0.6217638981703668,-2.6387860770672558
1774470104704295200,5.929295166015625,0.6922294002115726,0.24423034277632832,-1.9772490445002913
1774470104714308400,5.939308349609375,0.8141501450061798,-0.03250201088245958,-0.10476415054947137
1774470104724322000,5.949322021484375,1.7134569460332392,0.36559604750405994,1.1690262437164782
1774470104734335200,5.959335205078125,1.5863398016393184,0.7684192712489515,1.914283177499473
1774470104744348200,5.96934814453125,-0.21849545140862464,0.6279718859650194,2.685576469814777
1774470104754361000,5.979361083984375,-1.830109979557991,-0.11619073150893673,2.8367314924001694
1774470104764374300,5.989374267578125,-1.44327222391963,-0.7131551377318799,1.1613717103753238
1774470104774387200,5.99938720703125,0.8626812439411878,-0.5811453259255737,-1.2988858186863361
1774470104784400100,6.009400146484375,1.0201502719789743,0.02785456866910681,-1.2809228764943779
1774470104794413000,6.0194130859375,-0.2563286307185888,-0.496341501930356,0.31510548506435004
1774470104804426200,6.02942626953125,-0.6327601431548595,-0.2645141839302145,0.15415683474987743
1774470104814439400,6.039439453125,-0.3791366797417402,0.12167287098076193,0.15551628653481603
1774470104824452000,6.0494521484375,0.2984966243624687,-0.0419149321982637,0.6372318817414343
1774470104834466300,6.05946630859375,0.4229506870269775,-0.30630295073185115,-0.6818374777957796
1774470104844479000,6.06947900390625,-0.20946751082241533,-0.7147516131430864,-2.37529062345922
1774470104854492200,6.0794921875,-0.48798751508295535,-0.48548897626549004,-3.568485386009514
1774470104864505300,6.08950537109375,-0.18716390907764432,-0.1387124512501061,-3.205249162971973
1774470104874518300,6.099518310546875,1.0295984838038683,0.1123368508260697,-2.168963602619618
1774470104884531200,6.10953125,1.619597343596816,-0.35359091773796825,-0.44481443604975934
1774470104894544100,6.119544189453125,1.792839694827795,-0.7718509261980653,-0.14844985527992247
1774470104904557300,6.129557373046875,0.869163591697812,-0.842598898442462,-0.023076339682936667
1774470104914570000,6.139570068359375,0.4572743969112634,-0.8520674954682588,0.3964535791151225
1774470104924583200,6.149583251953125,0.6194511642485857,-0.8043843185994773,0.4978998372882604
1774470104934597400,6.159597412109375,-0.20317104102671146,-1.4421340136699377,0.4825697278179228
1774470104944610000,6.169610107421875,-0.6755418847829103,-0.800459254110232,-0.8100456322968006
1774470104954623200,6.179623291015625,-0.9475754496335983,0.5453793082784861,-1.7065110724180936
1774470104964636200,6.18963623046875,-0.6473708523094653,1.1542938809435814,-1.3656126456558704
1774470104974649000,6.199649169921875,0.1179231995910406,1.43317796927616,-0.9121639445126056
1774470104984662300,6.209662353515625,0.4988718971908092,0.193090851441212,-0.06859539732038974
1774470104994675200,6.21967529296875,0.2803139019399881,-1.2038204937219619,-0.4396189132332802
1774470105004688400,6.2296884765625,-0.30955227138400077,-0.618667320394516,-1.7177723250143229
1774470105014701000,6.239701171875,-0.2416623919844627,0.17837967758681625,-2.1903014280721544
1774470105024715300,6.24971533203125,-0.7970265762478113,0.4769866669885814,-2.073727158872038
1774470105034728200,6.259728271484375,-1.1034504864782095,0.13683091181982307,-0.18133812553361056
1774470105044741000,6.2697412109375,-0.278256969410181,-0.14508589527215807,0.2719548005260527
1774470105054754300,6.27975439453125,-0.2953857988655567,-0.15839633548315613,-0.3659444590829313
1774470105064767200,6.289767333984375,0.07418576467335224,-0.32392946404367684,-0.3344545113198459
1774470105074780200,6.2997802734375,0.13380115220248698,-0.49499461736604566,0.16544512148350476
1774470105084793000,6.30979296875,0.20212357780039308,-0.4713560406904667,0.7296366091944276
1774470105094806300,6.31980615234375,0.4382108000010252,-0.36292328463084994,1.1746271324634552
1774470105104820200,6.3298203125,0.641871670371294,-0.3946566857609898,1.3542296663761137
1774470105114833200,6.339833251953125,0.5260960042029619,-0.06923716582264751,0.13958587308377027
1774470105124846300,6.349846435546875,-0.35935295186340804,0.24651231623366474,-0.7285314244315028
1774470105134859000,6.35985888671875,-0.24971476553678512,0.33377858481965955,-0.3120635235525667
1774470105144872200,6.3698720703125,-0.6845920372009276,0.6301170813001692,0.1609162458822131
1774470105154885400,6.379885498046875,-0.44989831518530843,0.17747436277754602,1.2756943281911313
1774470105164898000,6.38989794921875,-0.06622808366715907,0.15405015950500964,0.6295256912782788
1774470105174911200,6.3999111328125,0.6582599105924367,0.33911877680383623,-0.33384003268331286
1774470105184925200,6.40992529296875,0.5886977140665054,0.2549593151267618,-1.5625341247685254
1774470105194938000,6.419938232421875,0.293242357096076,0.03702084001377225,-1.327411363685876
1774470105204951300,6.429951416015625,0.7286006902754306,0.1455059838477522,-1.4275811721824108
1774470105214964200,6.439964111328125,-0.2529039169669151,0.19304675657115875,-0.9831247557900845
1774470105224977200,6.44997705078125,0.511248563683033,-0.2785977456718683,0.22211692984141407
1774470105234990000,6.459989990234375,-0.12396890949606895,-0.37336379542872306,0.6882386500749736
1774470105245003300,6.470003173828125,0.859585031491518,-1.0277914343819021,0.32006592048332094
1774470105255017200,6.480017333984375,-0.2756973480552435,-0.5798674880094826,-0.8134178121436387
1774470105265030100,6.490030029296875,0.5073796132951974,-0.6553443884719162,0.2636532014530152
1774470105275043300,6.500043212890625,-0.17454875765442848,-1.0698358016461134,-0.2007402336832136
1774470105285056000,6.510055908203125,-0.685980861210823,-1.0046095154326409,-0.17283442801721394
1774470105295069200,6.520069091796875,0.09617138651013374,-0.3480117658987641,0.3351827525291592
1774470105305082000,6.53008203125,0.20972060880064963,0.21607947630807756,0.4040368738509714
1774470105315095300,6.54009521484375,0.40709786885678767,0.4356774090658873,-0.15899112303853033
1774470105325109200,6.550109130859375,0.2459638885706663,0.3548753680579364,-0.5365595305502414
1774470105335122200,6.5601220703125,0.22707447918355464,0.22635968197770415,-0.03094992260225117
1774470105345135000,6.570135009765625,-0.3136421710461378,0.22913886436745523,0.9136581285931169
1774470105355148000,6.58014794921875,0.3717302028775215,0.3018301526993513,1.71893859231472
1774470105365161200,6.5901611328125,-0.3596750234246254,0.5900262592565267,0.8107565570451318
1774470105375174400,6.60017431640625,-0.27386779454052446,0.7056552104305476,0.2730446050567552
1774470105385187000,6.61018701171875,-0.250531927138567,1.0049832441158593,0.6842783681418746
1774470105395200300,6.6202001953125,0.7384960613459348,1.250332800180465,1.0042200777236372
1774470105405214200,6.630214111328125,0.8365852641761302,1.2943705332189797,0.1691238465288654
1774470105415227100,6.64022705078125,0.6974030034571885,0.8093410642240196,0.34085867927372454
1774470105425240300,6.650240234375,0.12333119611442088,0.379860610102117,0.9855682034194468
1774470105435253200,6.660253173828125,-0.4749433245927095,0.19829634766243398,1.468129747930914
1774470105445266200,6.67026611328125,-0.8037041543155908,0.11552001090683042,1.669668949972093
1774470105455279000,6.680279052734375,-1.0433107828140258,0.033495150105655194,1.3000666990339755
1774470105465293000,6.69029296875,-1.2960323289513587,-0.02785590210966766,0.6249046804141253
1774470105475306200,6.70030615234375,-1.2355121015369892,-0.29344387101754543,0.060259603716805575
1774470105485319200,6.710319091796875,-0.6824398276031017,-0.46975167423374947,0.05643646523207426
1774470105495332400,6.720332275390625,-0.1308329500466585,-0.3710574181824922,0.16501768985167145
1774470105505345000,6.730344970703125,0.28727848025560376,-0.11278780946396291,-0.08850655097067356
1774470105515358200,6.740358154296875,0.19897651194632052,0.23731369525566695,-0.70689330085814
1774470105525371100,6.75037109375,-0.4694827210992574,0.11625395120456813,-0.9440374847657979
1774470105535385000,6.760385009765625,-0.8903244531482457,0.20118176690563558,-0.8458657912839204
1774470105545398300,6.770398193359375,-0.9204857826560735,0.4514772549398243,-0.6675855920162052
1774470105555411200,6.7804111328125,-0.8883405858546495,0.601311038858816,-0.4316605746399611
1774470105565423900,6.790423828125,-0.40814357851743693,0.5607785374622791,-0.31054552020505066
1774470105575437000,6.80043701171875,0.4026046490907669,0.6715649439759552,-0.4770204231277108
1774470105585450000,6.810449951171875,0.38156127654016014,0.7182802256606519,-0.5707075916066765
1774470105595463000,6.820462890625,0.2901917373538017,0.7925811411462724,-0.4914105483341962
1774470105605477000,6.83047705078125,0.3122656219959259,0.8952997573427856,-0.33803207754567266
1774470105615490000,6.840489990234375,0.3731687112480402,0.7009620111130177,-0.16285283996798097
1774470105625503000,6.8505029296875,0.36962884668409823,0.49113231591470535,-0.19856844260208306
1774470105635516000,6.860515869140625,-0.07432429636120796,0.18571743659637868,-0.21306926164142787
1774470105645529000,6.870529052734375,-0.07182488076090812,-0.1253943391893059,0.033829642757028336
1774470105655542000,6.8805419921875,0.10516600934863089,-0.2544883366141468,0.5325805439166724
1774470105665556000,6.890555908203125,0.6608072569876909,-0.21886296954676507,0.9169431416131556
1774470105675569200,6.900569091796875,1.1669757409274577,-0.1122213346876204,0.9067330055050551
1774470105685581800,6.910581787109375,1.273709437984228,-0.22156462972089647,0.33197803820371624
1774470105695595000,6.920594970703125,0.590434913122654,-0.26681005804874003,-0.48531361969858405
1774470105705608200,6.930608154296875,0.11097966406345366,-0.31468883055485786,-0.9319713455274701
1774470105715621000,6.94062109375,-0.42416883064508437,-0.3658065119169652,-1.0413367062620817
1774470105725634000,6.950634033203125,-0.7655489034444093,-0.3020915070492774,-1.0035033808216451
1774470105735648000,6.96064794921875,-0.7059697562724352,-0.11623838830925523,-0.790657187346369
1774470105745661000,6.970660888671875,-0.5837193411320447,0.04471950475759804,-0.5765691771164536
1774470105755674000,6.980674072265625,-0.3040139264792204,0.08169555578157306,-0.5012302968852221
1774470105765687000,6.99068701171875,-0.12837386645674706,0.010513502968847751,-0.4833559097595513
1774470105775700000,7.000699951171875,0.13482757264077663,-0.3260569045264274,-0.3105537035115063
1774470105785713000,7.010712890625,0.47754736961126326,-0.6551707124054431,-0.1741620964244008
1774470105795726000,7.02072607421875,0.55123979780972,-0.5988792816672474,-0.09448737894594669
1774470105805740000,7.030739990234375,0.5658230344355106,-0.6300128902733325,0.08514934949725866
1774470105815753000,7.0407529296875,0.5357108047664165,-0.25589031236656007,-0.2673763866946101
1774470105825766100,7.05076611328125,0.005436053574085236,-0.0028501287341117856,-0.7849937547571957
1774470105835779000,7.060779052734375,-0.6258756443381309,0.0911767930932343,-1.094752070107311
1774470105845792000,7.0707919921875,-0.4118535389512777,-0.09491218022927642,-1.0162813215911388
1774470105855805000,7.080804931640625,0.0006073182433843612,0.04039513875246048,-0.5744352338276804
1774470105865818000,7.090818115234375,0.2032826847076416,0.23911139232739806,-0.09692571200877427
1774470105875832000,7.10083203125,0.7252998951643705,0.6927274128615856,-0.18646306733191012
1774470105885845000,7.110844970703125,-0.08839373824596404,0.9590634967230259,0.3073275810718536
1774470105895858200,7.120858154296875,-0.6528934151232242,0.5691456029869616,0.6338415086507797
1774470105905870800,7.130870849609375,-0.283852012938261,0.25189693188145756,0.572751810785383
1774470105915884000,7.140884033203125,-0.38808395630717274,-0.04862316113263368,0.6414397086948156
1774470105925897200,7.150897216796875,-0.9353916753649711,-0.4687064760297537,0.5957718902364373
1774470105935910000,7.160909912109375,-1.0658581301867962,-0.7485645970262587,0.4141068708360195
1774470105945924000,7.170924072265625,-0.4439747703552246,-0.720380120549351,0.2591679457977414
1774470105955937000,7.18093701171875,-0.021671733582019806,-0.2519084761887789,0.599386865863204
1774470105965950000,7.190949951171875,0.0018459201276302337,0.18214476574137806,0.7272957451567054
1774470105975963100,7.200963134765625,0.8115496071189642,-0.12493833905011414,-0.08005158796682954
1774470105985976000,7.21097607421875,1.0376374133527277,-0.0861784002840519,-0.5720633901298046
1774470105995989000,7.220989013671875,-0.11268822154700756,0.47799978955388067,-1.294516517560929
1774470106006002000,7.231001953125,-1.0461462985008954,0.8566586226508021,-1.7437568072289227
1774470106016016100,7.24101611328125,-0.7196674422353506,0.8666381648734212,-1.6188080929152666
1774470106026029000,7.251029052734375,0.4529512730151415,0.8112227132521569,-1.0092832793973385
1774470106036042000,7.2610419921875,0.851727888250351,0.6797840523973107,-0.0733463912397623
1774470106046055200,7.27105517578125,0.7198311083644628,0.6216771697349845,0.6278793853759765
1774470106056067800,7.28106787109375,0.4274427377492189,0.6848229233473538,0.8597514740996062
1774470106066081000,7.2910810546875,0.13266367260515688,0.6798501033708453,0.7741640254460275
1774470106076094000,7.301093994140625,-0.09504325926303862,0.3527329492017627,0.6975435809716581
1774470106086108000,7.31110791015625,-0.42628655345141886,-0.4001020186200738,0.33560148939788337
1774470106096121000,7.32112109375,-0.18556874884068963,-0.3193270848147571,0.1522486630409956
1774470106106134000,7.331134033203125,0.19239245738089084,-0.19018661789968608,-0.013304302731156348
1774470106116147000,7.34114697265625,0.769980748412013,-0.22900734694227576,-0.09450111521035433
1774470106126160100,7.35116015625,1.1085212138712406,-0.06340630424469709,-0.0588994943447411
1774470106136173000,7.361173095703125,0.805488699644804,0.06647270607799291,0.07685323031693697
1774470106146186200,7.371186279296875,0.010177695143222809,0.0244071498952806,0.16897227269634604
1774470106156200000,7.381199951171875,-1.0522639045983553,-0.8128663888059556,-0.44432825996801256
1774470106166213000,7.391213134765625,-0.5618091226190328,-0.6479644342884421,-0.38276962941661474
1774470106176226000,7.40122607421875,-0.06866729351282119,-0.4435778799921274,0.018937340182065963
1774470106186239000,7.411239013671875,0.4530179085105657,-0.007188742460310459,0.6956694576628506
1774470106196252200,7.421252197265625,0.24353110846579074,-0.17230960042551158,0.8571325237728655
1774470106206265000,7.43126513671875,0.20252280625104904,-0.6576349105618894,0.7658363420836627
1774470106216278000,7.441278076171875,0.24767478414177893,-0.9837247675098478,0.6787789670079946
1774470106226291000,7.451291015625,0.36899464043378827,-1.2400927073255181,0.5896377713955938
1774470106236305000,7.461304931640625,0.3992757969290018,-1.9513200918652116,-0.3867630829669535
1774470106246318000,7.471318115234375,1.0427876357227563,-0.828941179163754,-0.7468065013125539
1774470106256331000,7.4813310546875,1.5612907005786896,0.5622385270122439,-0.4114708232440054
1774470106266344200,7.49134423828125,1.3979308609366417,0.8497294809747487,-0.3994279187507927
1774470106276356900,7.50135693359375,0.4943032741010189,1.2227601719915866,-0.05466726360246539
1774470106286370000,7.5113701171875,-0.5011749134361744,1.5011941054038702,0.8657698576062918
1774470106296383200,7.52138330078125,-0.7442407424777746,1.4853700749367476,1.654387940340489
1774470106306397000,7.53139697265625,0.10643968254625796,1.6826947280228137,1.6945729434736072
1774470106316410000,7.54141015625,0.6935720469921827,1.5642808223053812,1.0116995467588306
1774470106326423000,7.551423095703125,0.7458212896674871,1.0977570971421897,-0.05571764943823218
1774470106336436000,7.56143603515625,0.4082558067202568,0.4012889633823186,-1.1479817021220922
1774470106346449200,7.57144921875,0.37577100270092484,-0.23817213871590792,-1.7593825386449693
1774470106356462000,7.581462158203125,0.3874906665891409,-0.68193253566809,-1.7543312466047702
1774470106366475000,7.59147509765625,0.09473170909583568,-0.6144065211448818,-1.4042599178276955
1774470106376488000,7.601488037109375,-0.4094634289443493,-0.13465217954125255,-0.9434697678804397
1774470106386502100,7.611502197265625,-0.7913590520054101,0.12425116050355135,-0.44989904583767054
1774470106396515000,7.62151513671875,-0.6653998454749583,0.636749358921498,0.16589710303470492
1774470106406528000,7.631528076171875,-0.40255788733959197,1.1407489013243466,0.2874453612551093
1774470106416541200,7.641541259765625,-0.16766192075014114,1.124299067109078,-0.2633963771477342
1774470106426553900,7.651553955078125,0.18818974499404428,0.4192897168340161,-1.0080009845018387
1774470106436567000,7.661567138671875,0.7454711610555649,0.10027146050641313,-1.2635824501149355
1774470106446580000,7.671580078125,0.6909872911959886,-0.026218729361891745,-1.0424145646266638
1774470106456593200,7.68159326171875,0.21185119108855724,-0.5742998439449817,-0.7442064018167555
1774470106466607000,7.691607177734375,-0.31690672580003737,-1.1021927415020762,-0.2742716991662979
1774470106476620000,7.7016201171875,-0.8104454452693461,-1.1118024274989962,0.24024828740283846
1774470106486633000,7.711633056640625,-0.9405658631324767,-0.8394155191659927,0.6527485998250544
1774470106496646000,7.72164599609375,-0.8391191665679216,-0.6304679405644535,0.7963589061193168
1774470106506659000,7.7316591796875,-0.626297084620595,-0.5008055686671287,0.8643160055361687
1774470106516672300,7.74167236328125,-0.27093992439508435,-0.20472652684040366,1.1933916002966463
1774470106526685000,7.751684814453125,-0.26857553335130213,0.03787712804954499,1.9067820080891251
1774470106536698000,7.761697998046875,-0.5119207638561726,0.10216423371676354,2.4651550187796354
1774470106546711800,7.7717119140625,-0.5193184728920459,-0.1415600227009505,2.0556509655639528
1774470106556725000,7.78172509765625,-0.45706338450908657,-0.5764016019972041,0.9815746037386357
1774470106566738000,7.791738037109375,-0.007399462601542473,-0.6902548852682113,-0.2654876503385603
1774470106576751000,7.801751220703125,0.4924819038927555,-0.5759370532253757,-1.3688316077023743
1774470106586763800,7.811763671875,0.49637189706861967,0.16866178197506815,-1.8638677261225878
1774470106596777000,7.82177685546875,-0.10806465339958667,1.1376307693038135,-1.5517125787638126
1774470106606790000,7.831789794921875,-0.5429337417572736,1.8103598616883159,-1.0548916227534413
1774470106616802800,7.841802734375,-0.45273850704729557,1.7729804174952208,-0.9433828202493488
1774470106626817000,7.851817138671875,0.04484978007376194,1.1632784938447176,-0.9965155677609145
1774470106636830000,7.861829833984375,0.5228934087693691,0.6928199134506284,-0.6744947138175368
1774470106646843000,7.8718427734375,0.5772241338938474,0.23313341389633713,-0.23964491468220947
1774470106656855800,7.881855712890625,0.32447219261825083,-0.2349079127555713,-0.2466039400398731
1774470106666869000,7.891868896484375,-0.0591600449770689,-0.3086807857790962,-0.6755107589922845
1774470106676881700,7.901881591796875,-0.20363982758224008,-0.13349376675374805,-1.1696522666603326
1774470106686894800,7.911894775390625,-0.12303601256012915,0.01220865298155695,-1.114842087455839
1774470106696908000,7.921907958984375,0.05232347695529461,-0.043255533152259884,-0.7553412515543401
1774470106706921000,7.9319208984375,0.2044815391033888,-0.1669089469583705,-0.663007689641416
1774470106716935000,7.941934814453125,0.21101064861118793,-0.5605786675086245,-0.7854583035290241
1774470106726947800,7.95194775390625,-0.04312076432406902,-1.0660524837151168,-0.5209235700011253
1774470106736960800,7.961960693359375,-0.05982932254076004,-1.0588307157680392,-0.29006913388743993
1774470106746974000,7.971973876953125,-0.31092882043421266,-0.22206074267476797,-0.016127689588814973
1774470106756987000,7.98198681640625,-0.6690028384029865,0.4045840959375724,0.39058804808259007
1774470106767000000,7.992,-0.46278059311211106,0.5258130590757355,0.4798202829793095
1774470106777012700,8.0020126953125,-0.37421675899624823,0.46069366730283945,-0.0937671018473804
1774470106787026000,8.01202587890625,-0.5196440515846014,-0.27813232011720534,-0.12213204945772886
1774470106797039900,8.022039794921875,-0.6457651706784964,-0.6097269119612873,-0.3395022962287068
1774470106807052800,8.032052734375,-0.8102139746010303,-0.14048716930504887,-0.570370541672036
1774470106817066000,8.04206591796875,-0.7684107226163148,0.11401800884604453,-0.1707664261041209
1774470106827079000,8.052078857421876,-0.5835018989890813,0.5753983067061752,0.5672126621630043
1774470106837091800,8.062091796875,-0.12199907072782516,0.8478808574333786,1.5458517239063978
1774470106847104800,8.072104736328125,0.08606617208123206,0.7796966712623834,1.909464525171369
1774470106857118000,8.082117919921876,-0.19039689964950082,0.7035828611359,1.4633604877024888
1774470106867131000,8.092130859375,-0.6179179633319377,0.22667194453096015,1.095715508311987
1774470106877144800,8.102144775390625,-0.12764087600708007,-0.5560489516571164,1.8872109000481665
1774470106887158000,8.112157958984374,0.9063561350166797,-0.4983140806449577,2.7454908402904867
1774470106897171000,8.1221708984375,2.8543887296438215,-0.5285985250758007,3.976526673196256
1774470106907183900,8.132183837890626,4.112568005540966,-1.0524905529610813,4.017986810831725
1774470106917197000,8.142197021484375,2.5695500437557697,-1.2714163586109877,1.557390916661173
1774470106927209700,8.152209716796875,0.34500293947160243,-0.869648087279126,-2.6431530401051044
1774470106937223000,8.162222900390624,-0.42566286859512326,-0.16372699245400726,-4.940054017460346
1774470106947235800,8.17223583984375,0.21022212858200073,-0.04655060634200926,-4.317093383786082
1774470106957249800,8.182249755859376,0.6897136179983615,-0.5647973446495831,-2.025774882738292
1774470106967263000,8.192262939453125,0.49913610108494755,-1.066778240706399,-0.23382541474848983
1774470106977276000,8.20227587890625,0.1846031186789274,-1.0718516715131698,-0.1504139949597418
1774470106987288800,8.212288818359376,0.11086626681685446,-0.18542696574982254,-1.0137412817195057
1774470106997301800,8.2223017578125,0.2272463286191225,0.8372795300506055,-1.6625795762330293
1774470107007315000,8.23231494140625,-0.03358078256249428,1.4383043723791837,-1.8417749906495213
1774470107017327900,8.242327880859374,-0.08049684751629829,1.6419763486653565,-1.4807600969232617
1774470107027340800,8.2523408203125,0.43579672459661956,1.3383892692960797,-0.8223894194327295
1774470107037355000,8.26235498046875,0.9174848472744226,0.8184010073836893,-0.18555793518573044
1774470107047368000,8.272367919921875,1.08983463357985,0.3425570806894451,0.35999066524505613
1774470107057380900,8.282380859375,0.7468208220988511,-0.18451010663323103,0.9598849691737442
1774470107067394000,8.29239404296875,0.30671909378468987,-0.9603041444338858,1.0840038085345178
1774470107077407000,8.302406982421875,0.043595980620384216,-1.4298432718954979,0.7066612456679344
1774470107087420000,8.312419921875,0.11174363417327403,-1.1877268525332212,0.19163082535862921
1774470107097432800,8.322432861328124,0.1833534108787775,-0.49863173175938424,-0.21035605715997516
1774470107107446000,8.332446044921875,0.2834223893493414,-0.06780484973089769,-0.22056546261571347
1774470107117460000,8.3424599609375,-0.09475099831819533,0.2212650622524321,0.16749883914291858
1774470107127473000,8.352472900390625,-0.2771352719038725,0.6368766385629773,0.6165834998577833
1774470107137486000,8.362486083984376,-0.14595102420151232,0.9110790718853473,0.5533459763087332
1774470107147498800,8.372498779296874,-0.24112521636784076,0.7858794515505433,-0.3553082065172493
1774470107157512000,8.382511962890625,-0.19453882175981999,0.41807193854209035,-1.5478087031930685
1774470107167524900,8.39252490234375,0.16777356443107128,-0.11003792623393237,-1.933873428632319
1774470107177537800,8.402537841796875,-0.13945932409465311,-0.4978204884417355,-1.6360254774369298
1774470107187550700,8.41255078125,-0.44488136380612847,-0.5338839546654373,-1.3775177491135895
1774470107197564000,8.42256396484375,-0.7676005752772093,-0.9281837898127734,-1.2647411186307669
1774470107207577900,8.432577880859375,-0.9245604847490787,-1.290543083885312,-1.5586770109489558
1774470107217590800,8.4425908203125,-0.7673053917229176,-0.9767204417057335,-1.6314067315950989
1774470107227604000,8.45260400390625,-0.5452653995752335,-0.19139296148214488,-1.2410536613121628
1774470107237617000,8.462616943359375,-0.8969050005823374,-0.07280037472955882,-0.45880416376180944
1774470107247629800,8.4726298828125,-0.946139863872528,-0.14951098170541227,-0.6396758408274501
1774470107257643000,8.48264306640625,-1.076727314725518,0.1755606198444031,-1.6367036689594388
1774470107267656000,8.492656005859375,-1.193982405796647,0.17567471121074632,-1.8055317108795046
1774470107277670000,8.502669921875,-0.6843576439231633,0.0203110579543747,-1.5796423498272896
1774470107287683000,8.51268310546875,-0.9909674321144819,0.30293774861507117,-1.372003369606286
1774470107297696000,8.522696044921876,-1.0734335338771344,0.4411067406382411,-0.846904705877602
1774470107307709000,8.532708984375,-0.3285772898495197,0.49486726465933023,0.700500823342055
1774470107317721900,8.542721923828125,-0.20751053153574464,0.09873716361122205,1.1424974254921079
1774470107327735000,8.552735107421874,-1.3613830452620983,0.07173711114590987,0.5912487867888063
1774470107337747700,8.562747802734375,-0.7680980034053325,-0.04612933502290398,0.7898436790063976
1774470107347761000,8.572760986328126,0.6554746637880802,-0.3576949555233121,0.04735789043717086
1774470107357774000,8.582774169921874,0.3660749535948038,-0.424881947350502,-1.2106450059797613
1774470107367787800,8.592787841796875,-0.17791911087036133,-0.21113924342691898,-1.5186450064204633
1774470107377801000,8.602801025390624,0.031492870372533795,-0.10880012806728481,-0.5024169493865221
1774470107387814000,8.61281396484375,0.480600911962986,0.029182912929728626,0.60024983936809
1774470107397826800,8.622826904296875,0.7412877378910779,-0.05174523867592215,0.8020830559197812
1774470107407840000,8.632840087890624,0.27906828579306603,-0.11951740997992455,0.34000323148816824
1774470107417853000,8.64285302734375,0.32198680554330344,-0.22655608133263885,0.058663164838217194
1774470107427865900,8.652865966796876,0.46733460315465924,-0.26617775149457157,-0.13544289152752606
1774470107437878800,8.662878662109375,0.6736281601160764,-0.17627601983845234,0.3599681976849213
1774470107447893000,8.67289306640625,1.2834773832827806,-0.06594999737814068,-0.09666994714941829
1774470107457906000,8.682906005859374,0.5705757819205522,-0.06565883241184055,-0.7324085581257939
1774470107467918800,8.6929189453125,0.11267594658732413,-0.3274761236745864,-0.5430164150720462
1774470107477932000,8.70293212890625,0.28291736243665216,-0.3898603183299303,-0.4502840996325016
1774470107487945000,8.712945068359375,0.11002630886137485,-0.30164274036847055,-0.684020301727578
1774470107497958000,8.7229580078125,0.2702320683866739,-0.220007317276299,-0.4633594889786094
1774470107507970800,8.732970703125,0.605589812156558,-0.11797361460402607,0.2736472836576402
1774470107517984000,8.74298388671875,0.3631681262373924,-0.05986088672280311,0.7191901801124214
1774470107527997000,8.752996826171875,0.13830021718740462,0.21373992744460701,0.8710992359355092
1774470107538011000,8.763010986328124,0.35795009932816024,0.2876020131215453,0.23592114491872487
1774470107548024000,8.773024169921875,-0.27757190975546836,0.35593656754866243,0.13256751875430345
1774470107558036700,8.78303662109375,0.11301964545845984,0.36217692324295636,0.821377977367863
1774470107568051000,8.793051025390625,-0.3350993850946426,0.07378799752742052,0.5084327756099403
1774470107578063600,8.803063720703125,-0.27370295936763284,-0.07070479068979621,0.5097088599603623
1774470107588076800,8.813076904296874,0.013709960922598838,-0.14143895360454917,0.688792922956869
1774470107598090000,8.823090087890625,-0.14864683915674687,0.03273746360614896,0.9925906494021415
1774470107608103000,8.83310302734375,-0.24102058694958686,0.24068214877545832,1.2929670961618422
1774470107618116900,8.843116943359375,0.01763385636806488,0.36355054968371986,1.3191282501175998
1774470107628129800,8.8531298828125,-0.011810264781117439,0.4256273588903248,1.0434599820263684
1774470107638142700,8.863142822265624,-0.15061960053443907,0.2829234999164939,0.37440592489279806
1774470107648156000,8.873156005859375,-0.2913841620087623,0.01564823550879955,0.011288213668391108
1774470107658168800,8.8831689453125,-0.2579226219117641,-0.019827128628641364,0.2555890643976629
1774470107668182000,8.89318212890625,-0.4349813165605068,0.24762962982580064,0.37810814041160046
1774470107678194700,8.903194580078125,-0.40105975773632524,0.37983240692093967,0.15059300478845833
1774470107688208000,8.913207763671876,0.04816460371017456,0.45207653600722547,0.0722628337867558
1774470107698221800,8.923221923828125,0.35984628833830357,0.34490517818555233,0.22265797791555522
1774470107708234800,8.93323486328125,0.13582067533135414,0.15976678358614443,0.5569309951886534
1774470107718248000,8.943248046875,-0.0715910720050335,-0.02140665290504694,0.667436173608154
1774470107728260900,8.9532607421875,-0.07241700143516064,-0.1935572633765638,0.5597567201338708
1774470107738273800,8.963273681640626,-0.02179740578830242,-0.3884934138908982,0.27143179956525565
1774470107748286700,8.97328662109375,0.5333721326857805,-0.32777094190269707,0.07786854483932257
1774470107758300000,8.9832998046875,1.2084329559534788,-0.024466332736611366,-0.19581717113256453
1774470107768312800,8.993312744140624,1.1156132179588079,-0.015425824929773806,-0.263191502225399
1774470107778325800,9.00332568359375,0.662906859615445,-0.18449995056539772,0.08375248831138014
1774470107788340000,9.013340087890626,0.38863574497103687,-0.15821838510036468,0.255585995657742
1774470107798352600,9.0233525390625,0.3166010208517313,-0.04731953118816018,0.2635667652785778
1774470107808365800,9.03336572265625,0.5269377157241105,0.05452376347854733,0.6082260058790445
1774470107818379000,9.04337890625,0.6816442933112382,0.2658522458672523,1.0570702819667757
1774470107828391700,9.0533916015625,0.6483183622926473,0.6428624349743127,1.198257014375925
1774470107838404900,9.06340478515625,0.3685352062284946,0.8948553745761513,0.8197649161480367
1774470107848417800,9.073417724609374,-0.0053355158090591425,0.6028175709642469,0.013432020764052867
1774470107858431000,9.083430908203125,-0.14141454981565474,0.017259908489137887,-0.7832993719294666
1774470107868443600,9.093443603515626,0.17979951778948305,-0.28227365770563484,-1.1252733189687132
1774470107878457900,9.103457763671875,0.603439356124401,-0.27865882820934057,-1.1293979976832866
1774470107888470800,9.113470703125,0.5712637641847134,-0.29308833557814357,-0.8209358596235513
1774470107898483700,9.123483642578124,0.3738444185525179,-0.1703134581722319,-0.26993878452852366
1774470107908497000,9.133496826171875,0.12526654809117316,-0.007738923688977956,0.0953353740774095
1774470107918509800,9.143509765625,-0.3366998060286045,-0.05202595531344414,0.052334290610253804
1774470107928522800,9.153522705078124,-0.615147914096713,-0.14343962590247392,-0.2783928707495332
1774470107938536000,9.163535888671875,-0.6096902332127094,-0.21916677479892968,-0.8264297808647155
1774470107948548900,9.173548828125,-0.022240473380684852,-0.2801730321645737,-1.0095971676521003
1774470107958561800,9.183561767578125,0.3830184896111488,-0.12886048092991112,-0.5931761746548115
1774470107968575700,9.19357568359375,0.009572130465507507,0.21383213577270507,-0.10690277001336217
1774470107978589000,9.2035888671875,-0.08800912284255027,0.6556449057884514,0.14404153731837868
1774470107988601900,9.213601806640625,-0.3364250807404518,0.7936090228892863,0.1293719375833869
1774470107998614800,9.22361474609375,-1.0620581533819435,0.46793519939631223,-0.20440087508261204
1774470108008628000,9.2336279296875,-1.1420388680696487,0.013096943590790033,-0.48304655154943466
1774470108018640600,9.243640625,-0.6727104607492685,-0.14865078467950224,-0.2651201322004199
1774470108028653800,9.25365380859375,-0.3900117094993591,-0.0031755612961947917,0.03885682326927781
1774470108038666800,9.263666748046875,0.06134323423504829,0.32306568682119247,0.24450594484731553
1774470108048680000,9.273679931640626,0.533152936977148,0.42810310135409235,0.6901904417298734
1774470108058694000,9.28369384765625,0.6444517499923705,0.8170033424802124,0.8822503061555326
1774470108068706800,9.293706787109375,0.6164157420754433,1.0085793689116835,0.7830955199204385
1774470108078719700,9.3037197265625,0.33990941572487354,0.5730727133028208,0.6447511713303625
1774470108088732700,9.313732666015625,-0.1375210495084524,-0.048383068766444916,0.4974990014024079
1774470108098745900,9.323745849609375,-0.3142220167607069,-0.467080482263118,0.4329473265148699
1774470108108759000,9.333759033203124,-0.4745131164819002,-0.5882441250801086,0.3732408997014165
1774470108118771700,9.343771728515625,-0.8080103270769119,-0.3189996064260602,0.5002706580728292
1774470108128785000,9.353784912109376,-1.9528139836847782,0.003595686404407024,0.25999548266306516
1774470108138797800,9.3637978515625,-2.674019303011894,0.22858415309414265,-0.71664239532575
1774470108148811800,9.373811767578125,-1.5361135892242193,0.16860709264576434,-2.1932298827394843
1774470108158825000,9.383824951171874,-0.11778934407830238,-0.38439167766049503,-3.1057313886433837
1774470108168838000,9.393837890625,0.6639753656297922,-0.5903994034178555,-3.076194328513741
1774470108178850800,9.403850830078126,0.9076379915207624,-0.19992869810461997,-2.167867331815511
1774470108188863700,9.41386376953125,0.8833288951724767,0.4356659378238022,-0.5737045814655721
1774470108198877000,9.423876953125,0.2232850237727165,0.6303162571340799,0.27109730691388245
1774470108208889600,9.4338896484375,0.01980360162258148,0.41640389573201536,0.2541426649816334
1774470108218902800,9.44390283203125,0.6727420249313115,0.5628479641474783,0.4536502150647342
1774470108228916000,9.453916015625,0.614424275997281,0.7929596190698445,0.8095740692622959
1774470108238929000,9.463928955078124,0.32797464778125285,0.185576493755728,1.0834722589410841
1774470108248942800,9.47394287109375,0.7609381947785615,0.07728884525522589,1.361235015093535
1774470108258955800,9.483955810546876,1.148981819075346,0.41214799185320733,1.6755517244003713
1774470108268968700,9.49396875,1.5513561665415763,0.6672096713759005,1.829791853519529
1774470108278982000,9.50398193359375,1.7718197031527756,0.8128140740968286,1.664800613283366
1774470108288994800,9.513994873046874,1.8123089499294758,0.935485198867321,1.192689004985243
1774470108299008000,9.524008056640625,1.5357079310327768,0.751105075289309,0.6641729340285062
1774470108309020700,9.534020751953125,0.8828133468657732,0.30076705351248384,0.22386662305295466
1774470108319033900,9.544033935546874,0.37281624454855916,0.014809884988516568,-0.1892665073800832
1774470108329046800,9.554046875,-0.087267364564538,-0.09782397602275013,-0.7378929078210145
1774470108339060700,9.564060791015624,-0.22914251762926577,-0.31401334244608875,-1.2724835494510829
1774470108349074000,9.574073974609375,0.08105214331150054,-0.5081044204384089,-1.4472591015987097
1774470108359086800,9.5840869140625,0.45536476389765734,-0.4182020311951637,-1.2415535736583172
1774470108369099800,9.594099853515624,0.5071738615900278,-0.3866397488482296,-0.771435331134498
1774470108379112700,9.60411279296875,0.3471586562007665,-0.26725290644541383,-0.3280749663505703
1774470108389126000,9.6141259765625,0.028320085555315015,0.11817571304738521,-0.008066621273383498
1774470108399138800,9.624138916015625,-0.5536708243489266,0.07379501179009676,0.09332549555972218
1774470108409151700,9.63415185546875,-0.7703881601691246,-0.6610501258328557,-0.29031145474333314
1774470108419165000,9.6441650390625,-0.42995559735298156,-1.3339360892795025,-0.659995648343861
1774470108429177900,9.654177734375,-0.5953466505616903,-0.48815644190907476,-0.48000005999300627
1774470108439191800,9.66419189453125,0.05427461102306842,-0.07672288193553686,-0.3016613354710862
1774470108449205000,9.674205078125,0.9164432292670011,-0.17654606895148753,0.6291474325504154
1774470108459217700,9.6842177734375,0.7955401370823383,0.3437053008764982,1.3215268356919287
1774470108469230800,9.69423095703125,0.013372107270359992,0.5126049467280507,1.1416209349185227
1774470108479243800,9.704243896484375,-0.8506909464180469,0.3536920034922659,0.7234807169131934
1774470108489257000,9.714257080078125,-0.647162762516737,0.723953302861005,0.3223333539586514
1774470108499269600,9.72426953125,-0.12964753965437412,0.8661857449308037,0.09587705233921297
1774470108509282800,9.73428271484375,0.0628717589765787,0.5187897728428245,-0.15935692414361982
1774470108519296000,9.7442958984375,0.024776129338145256,0.42933264314904807,-0.4775803585654124
1774470108529308700,9.75430859375,-0.16244447836279868,0.3262956086531281,-0.8862221323959529
1774470108539323000,9.764322998046875,-0.11106851139068603,0.05404664748609066,-0.9847121711120009
1774470108549335800,9.774335693359374,0.1604436599344015,0.013543664444983004,-0.7041920790754258
1774470108559348700,9.7843486328125,0.25233225455880165,0.16328692053630947,-0.37191133159808815
1774470108569361200,9.794361083984375,0.19193477674126624,0.12599617753997444,-0.08535901019256562
1774470108579374300,9.804374267578124,0.014730536141991614,0.06300619901120662,0.05038403332531452
1774470108589387300,9.81438720703125,-0.18035364454090594,0.1093529396444559,0.09256083133015781
1774470108599400200,9.824400146484376,-0.24966391213238237,-0.016935060448944567,0.08176694051735103
1774470108609413400,9.834413330078124,-0.3289443695962429,-0.3335552243925631,0.14380166414789855
1774470108619426300,9.84442626953125,-0.5746171662658452,-0.5647120044536889,0.1798120850101113
1774470108629439200,9.854439208984376,-0.9836877965003251,-1.0499537279598414,-0.25640987926125525
1774470108639453200,9.864453125,-0.9377829544156789,-1.277305124388635,-0.8010131616659462
1774470108649466400,9.87446630859375,-0.6893927154809236,-1.000600791247934,-1.045757006922364
1774470108659479300,9.884479248046874,-0.9173422239333391,-1.088955366527289,-1.0066688591152428
1774470108669492200,9.8944921875,-0.7004390101522207,-0.8893303275443613,-0.9985703813988714
1774470108679505400,9.90450537109375,-0.4663771562993526,-1.2541643411673604,-0.8894971354786306
1774470108689518300,9.914518310546875,0.26512334707081314,-1.604662955445796,-0.4536693216240033
1774470108699531300,9.92453125,1.405223940554261,-1.1701083398647605,0.6076598233636469
1774470108709544200,9.934544189453124,2.17426127063632,-0.3048870560519397,2.3774441482312976
1774470108719557400,9.944557373046875,3.023351796120405,0.47692441540732977,4.611864850145578
1774470108729570300,9.9545703125,-2.004288150334358,2.8579958142250774,2.9160072736889124
1774470108739584300,9.964584228515625,-0.5651391438245773,0.832098474150896,-2.1908403572544453
1774470108749597200,9.97459716796875,-1.674797837293148,-0.3760898593917489,-2.2453768340840936
1774470108759610000,9.984610107421876,-0.8922411004245281,-0.5646804402716458,-3.4480817677795885
1774470108769623300,9.994623291015625,0.21325404362380504,-0.801997350397706,-2.807123120599985
1774470108779636500,10.004636474609375,0.25436288360357284,-0.7018389400780201,-1.3299386902064083
1774470108789649200,10.014649169921874,-0.4691010283052921,0.10528758990168571,-1.2026403440266846
1774470108799662300,10.024662353515625,0.11180150184035301,0.08262333815097808,-1.791778203076124
1774470108809675300,10.03467529296875,0.8118243324071168,0.8652399885132909,-1.5528519580572842
1774470108819688400,10.0446884765625,0.6910206089437008,1.518757526884228,-0.9459178916849196
1774470108829701000,10.054701171875,0.3468926987409591,1.7075068054571747,-0.31220074006617066
1774470108839714300,10.06471435546875,0.10327741912305355,1.7733121336676179,0.5264681985162198
1774470108849728300,10.074728271484375,-0.3189987296432257,0.8854412111513316,0.7664978747323155
1774470108859741200,10.0847412109375,0.05065174435079097,0.7106967847943305,1.8358013230673969
1774470108869754400,10.09475439453125,-0.2088070010870695,1.0716619941599665,2.5792554452121257
1774470108879767300,10.104767333984375,-0.0680044456899166,0.8312797051139176,3.048475423721969
1774470108889780200,10.1147802734375,-0.14877251136302946,0.21235943287163972,2.511724462252855
1774470108899793400,10.12479345703125,0.04425356774628162,-0.34396628990024325,1.2176495509795844
1774470108909806300,10.134806396484375,-0.06319967575669289,-0.7531964946106076,-0.09049977061450482
1774470108919819300,10.1448193359375,-0.612848404982686,-1.3240141224630175,-1.5650861473388968
1774470108929832200,10.154832275390625,-0.24402619850635526,-1.2832206320427357,-1.9683121431984005
1774470108939845400,10.164845458984376,0.1394564014852047,-0.49210547179579733,-1.168369387242943
1774470108949859300,10.174859375,-0.027320553123950958,0.12050547116920352,-0.3193886057436466
1774470108959872300,10.184872314453125,0.05721300256252288,0.5823042136371135,0.0027731179751455783
1774470108969885400,10.194885498046874,0.30449440347254275,0.9354815456055104,0.09792392926588654
1774470108979898000,10.204898193359375,0.4752367545813322,0.8477228903926909,0.47278263942748305
1774470108989911300,10.214911376953125,0.5232265862464904,1.0339588709704577,1.0088381659783423
1774470108999924200,10.22492431640625,0.43554538018405436,1.061332907847315,1.0031202267229558
1774470109009937400,10.2349375,0.7088853514581919,1.263571198068559,0.9959382062643766
1774470109019950300,10.244950439453126,0.8876882594257592,1.7027976048529148,0.7393456639125943
1774470109029963300,10.25496337890625,0.3505418688982725,0.28455095498785377,0.6345115168668329
1774470109039976400,10.2649765625,0.29151392586827274,-0.588600537302345,0.3232365133434534
1774470109049989000,10.274989013671876,0.8821890774875879,0.7593865814223885,1.396706141447276
1774470109060003300,10.28500341796875,-0.3093617172479629,0.02916398903355002,1.6824404610008001
1774470109070016500,10.2950166015625,-0.9355033190459012,-1.862287763454765,0.9335074690535664
1774470109080029200,10.305029296875,0.17571254073679446,-1.4087570831164717,0.6255711814988404
1774470109090042400,10.31504248046875,0.28720424597561356,0.02095598652809858,-0.7716676055204122
1774470109100055300,10.32505517578125,0.45744799991250035,0.05668357186093926,-2.653120015107095
1774470109110068200,10.335068115234375,1.0343220051944255,-0.7677633646234869,-3.6302222957372665
1774470109120081200,10.3450810546875,0.9063239863127469,-0.5508085667856037,-3.911460034523904
1774470109130094300,10.35509423828125,0.667646163097024,0.097519293987751,-3.440701302139461
1774470109140107500,10.365107421875,-0.541193035569787,0.7122478136286139,-1.948076726029813
1774470109150120200,10.3751201171875,-1.8869389512389898,1.6954912273623048,3.4046471152007576
1774470109160133400,10.38513330078125,-0.9975064784944057,1.120295092164725,5.931186284747719
1774470109170147000,10.39514697265625,-0.4426929138511419,-0.025970892080664634,4.393024530822038
1774470109180160300,10.40516015625,0.043216041392087935,-0.3830534147940576,1.531518370388448
1774470109190173400,10.41517333984375,0.5870160445898771,0.3005057722277939,-0.4202737959679216
1774470109200186400,10.425186279296875,0.4001251072347164,0.6635706572864204,-1.826826281712204
1774470109210199300,10.43519921875,0.35849428920745846,0.23403058193176984,-1.8697315035894513
1774470109220212200,10.445212158203125,0.39328678564727304,-0.13601590564250945,-0.8889023844558746
1774470109230225400,10.455225341796876,0.678498396500945,-0.07913783412277699,-0.1863217591650784
1774470109240238000,10.465238037109375,0.578200285449624,0.23045681509822605,0.1436217410037294
1774470109250251300,10.475251220703125,0.7167500934839248,0.1662750695016235,0.2040704375518486
1774470109260264200,10.48526416015625,0.510523172017932,0.026060908451676367,-0.4284261592959985
1774470109270277400,10.49527734375,-0.07368132228255271,-0.5921710162002592,-1.9741364654377103
1774470109280291300,10.505291259765626,0.07283785719573498,-0.6365187650360167,-2.5711282528579233
1774470109290304300,10.51530419921875,-0.22876842361986635,-0.11775456502586602,-2.4436267853215337
1774470109300317200,10.525317138671875,-0.5814607485502958,-0.03614259587451815,-1.8718949652336536
1774470109310330400,10.535330322265626,-0.4644412198007106,-0.2733312034457922,-0.797374805163592
1774470109320343300,10.54534326171875,-0.26880174332261086,-0.4637273724429309,0.07945369513891637
1774470109330356500,10.5553564453125,-0.12378595414459705,-0.4510001389473676,0.48778435719367114
1774470109340369200,10.565369140625,-0.1805950520813465,-0.12228672856278716,0.6973309611342847
1774470109350382300,10.57538232421875,-0.21782208219170568,-0.08963117108643054,0.18437468021791428
1774470109360395300,10.585395263671876,-0.3331657866835594,-0.39636641228832303,-0.19611958814524114
1774470109370408200,10.595408203125,-0.38535482360422607,-0.3397442882910371,-0.026066424877010285
1774470109380421000,10.605421142578125,-0.33536826516389845,0.08360621170848608,0.4869787764318287
1774470109390435300,10.615435302734374,-0.1916670657157898,0.2686834507051855,0.8260753414038569
1774470109400448300,10.6254482421875,-0.18601707713007926,-0.01855440527908504,0.2519108142763376
1774470109410461200,10.635461181640625,-0.17361118454337118,0.13606325191557406,-0.4659670776611194
1774470109420474400,10.645474365234374,-0.2990805617302656,0.38623628261387344,-0.6151961371526121
1774470109430487300,10.6554873046875,-0.18550854308605194,0.3715277391079813,-0.2101181202182546
1774470109440500200,10.665500244140626,-0.02898351790010929,0.4508887875273824,-0.14915612211944534
1774470109450513400,10.675513427734375,0.024238369199633597,0.6096463940709829,-0.13388455616962164
1774470109460526300,10.6855263671875,0.020678046369552613,0.4238876756161451,-0.06881890387795865
1774470109470539300,10.695539306640624,0.12326689870655536,0.2911881279800087,-0.08370508723938837
1774470109480552200,10.70555224609375,0.07773498158752917,0.3600255904279649,0.4011120724454522
1774470109490565400,10.7155654296875,-0.14691314723193644,0.05487995650507509,0.46638132101781665
1774470109500579300,10.725579345703125,-0.16400515180826186,-0.3089128044366836,-0.22525608638366684
1774470109510592300,10.73559228515625,-0.19021452881991863,-0.16740962648950516,-0.3294589315222576
1774470109520605400,10.74560546875,-0.1482476107060909,-0.030807043532840906,-0.07544049570849165
1774470109530618000,10.7556181640625,-0.04633680376112461,-0.10568214217722416,0.053238966098707166
1774470109540631300,10.76563134765625,0.06306523572206497,-0.07529040144700556,0.48683228063322603
1774470109550644200,10.775644287109374,0.06421674384474754,-0.027872341787815093,0.44012649742923676
1774470109560657700,10.78565771484375,0.00932020153105259,-0.12127061032280326,0.006404588078986853
1774470109570670800,10.7956708984375,0.19447978504896163,-0.03456562888137996,0.07454773898669519
1774470109580683800,10.805683837890625,0.08760638726055621,-0.0007809943098574877,0.44130511275455353
1774470109590696700,10.81569677734375,0.016388824743032455,0.11652147956695406,0.8847466530159115
1774470109600709600,10.825709716796876,0.27459727785885335,0.2653915695529431,1.1087817645035682
1774470109610723800,10.835723876953125,0.39064591574966906,0.2589454256208613,0.9739582104507833
1774470109620736800,10.84573681640625,0.2695803264796734,0.08971720540206879,0.9645618018783628
1774470109630749700,10.855749755859375,0.05148585708737373,-0.21868878202363848,1.1115279944717884
1774470109640763000,10.865762939453125,0.2507674894601106,-0.3195122321233153,1.5717765848882495
1774470109650775600,10.875775634765626,0.48486558367013927,-0.14699808556903152,2.152126157326251
1774470109660788700,10.885788818359375,0.25602409481406213,-0.46685978871714323,2.2456083047524094
1774470109670802000,10.895802001953125,0.32081133202314377,-0.4807570889053866,1.6423045577064155
1774470109680814800,10.90581494140625,0.5965367371290922,0.4001546621227637,0.6468722551375627
1774470109690827800,10.915827880859375,0.3741881174236536,0.6888669380411505,0.08805201213620603
1774470109700840700,10.9258408203125,-0.10870938104391098,-0.07296064332518726,-0.23438114893510936
1774470109719615700,10.94461572265625,-0.2520844172775745,-0.09657035923246293,-0.9763521198499947
1774470109729629000,10.95462890625,0.10173603489995002,-0.07516549642570317,-1.745629469233006
1774470109739641600,10.9646416015625,-0.23403613488972186,-0.534554109011963,-2.281769459196925
1774470109749654800,10.97465478515625,-0.36015959207117554,-0.7034244557037949,-2.5200401629164815
1774470109759668000,10.98466796875,-0.409553445315361,-0.3866834418594837,-2.266433942899108
1774470109769680600,10.9946806640625,-0.4879314009815454,0.044253604278899725,-1.750779837733507
1774470109779693800,11.00469384765625,-0.3938941038906574,0.17217782727200537,-1.2644967884808778
1774470109789707800,11.014707763671876,-0.5611024356544018,0.15739110396336764,-1.1208904277093708
1774470109799720700,11.024720703125,0.32355332420766353,0.06725066818054765,-0.6523488599177449
1774470109809734000,11.03473388671875,0.11763327673375606,0.14169091907162218,0.48833574399873614
1774470109819746800,11.044746826171876,0.12335633055567741,0.3670344828093424,0.9903787455063313
1774470109829759700,11.054759765625,0.1465308699160814,0.18763302442673593,0.9762059163123369
1774470109839772700,11.064772705078125,0.014101006066799163,0.0817144614114426,0.9408309438094496
1774470109849785900,11.074785888671874,0.10484686039686203,0.07938028284283355,0.7349266053613275
1774470109859798800,11.084798828125,0.05791910500526428,0.09112796724913641,0.4565862685166299
1774470109869811700,11.094811767578125,-0.15812895325124263,-0.00045333325807005165,0.006871200943738221
1774470109879825000,11.104824951171874,-0.03409340825974941,-0.05138692675754428,-0.39392091883234676
1774470109889837800,11.114837890625,-0.014780220502614974,0.14848551111519337,-0.2592261787910014
1774470109899851800,11.124851806640624,0.011316928306221961,-0.0013681100154295564,-0.3676498747613281
1774470109909864700,11.13486474609375,0.10656827736198901,-0.1585372052585706,-0.2188766327459365
1774470109919878000,11.1448779296875,0.22971418003737926,-0.11922103911554441,0.0593869125355035
1774470109929890800,11.154890869140624,0.2683417245954275,-0.041201852025464177,0.2803767380431294
1774470109939903700,11.16490380859375,0.30240590676069257,-0.007854878218844532,0.3685187665503472
1774470109949917000,11.1749169921875,0.3631248716175556,-0.024323544998746362,0.3448713489811867
1774470109959929600,11.1849296875,0.42541503131389613,-0.05267976131336763,0.2771718775872141
1774470109969942800,11.19494287109375,0.41539398803710936,-0.0634502164516598,0.16040435083732008
1774470109979955700,11.204955810546876,0.3103787853360176,-0.04903084688438102,-0.07873517160601913
1774470109989969700,11.2149697265625,0.20287819555997846,0.003328660365520045,-0.4005600645858794
1774470109999982800,11.22498291015625,0.1539957989692688,0.0465947879770305,-0.5835254990603774
1774470110009995800,11.234995849609374,0.04133388090729713,0.05174564053472131,-0.6735398242454975
1774470110020008700,11.2450087890625,-0.10391337893903255,0.06842035584731493,-0.68440360195674
1774470110030021600,11.255021728515626,-0.12581892127692698,0.13951530119874514,-0.6734951083209365
1774470110040034800,11.265034912109375,-0.08874152877032757,0.2323089092383161,-0.6238584592968225
1774470110050048000,11.275048095703125,-0.16136135930120943,0.24495757933864368,-0.5784701153669506
1774470110060060700,11.285060791015624,-0.2972065845519304,0.19510816434668377,-0.5444800213512033
1774470110070073900,11.295073974609375,-0.274116800865531,0.21056794634498655,-0.4842815732371062
1774470110080087600,11.305087646484376,-0.09602817864716053,0.26642588103674353,-0.3540511191282421
1774470110090100700,11.315100830078125,0.020350714111328123,0.32290150923542676,-0.20248119559902697
1774470110100114000,11.325114013671875,-0.00092412910759449,0.3383822061575949,-0.1939678169388324
1774470110110126800,11.335126953125,-0.18175766611993313,0.26466157477796076,-0.3422013991195708
1774470110120139800,11.345139892578125,-0.36123102069497104,0.18523052986226976,-0.47155941777545957
1774470110130152700,11.355152587890625,-0.32262919510006904,0.15441731231696904,-0.44802850272543726
1774470110140166000,11.365165771484374,-0.1714618975549936,0.1605908863853663,-0.4017431734232232
1774470110150178600,11.375178466796875,-0.06281330678761005,0.1440292075597681,-0.48013238113578405
1774470110160191700,11.385191650390626,-0.072505848762393,0.1253885853019543,-0.6563041003495454
1774470110170206000,11.3952060546875,-0.09973463194966316,0.10584332408830523,-0.8321671554729342
1774470110180218600,11.405218505859375,-0.1014537108272314,0.12038047481635585,-0.9837426684927195
1774470110190231800,11.415231689453124,-0.060737085035443304,0.13863313893619925,-1.087746502194181
1774470110200244700,11.42524462890625,0.04705868829488754,0.17317359684370456,-1.1830046463169157
1774470110210257700,11.435257568359376,0.10210662177801132,0.18184234872870148,-1.339974200399965
1774470110220270800,11.445270751953124,0.012069792500138283,0.12462410373548045,-1.5071923229053616
1774470110230283800,11.45528369140625,-0.23021803790628909,-0.016430873786471782,-1.5324829776369033
1774470110240297000,11.465296875,-0.33654023155272006,-0.15844717062124983,-1.361409641008079
1774470110250310700,11.475310546875,-0.2010813752710819,-0.24162094572922213,-1.0274164635896683
1774470110260323800,11.48532373046875,-0.07136603107750415,-0.2768301514774561,-0.7101262183647602
1774470110270336800,11.495336669921874,-0.0648632250547409,-0.29328599530840294,-0.5141085562240332
1774470110280349700,11.505349609375,-0.12717618110477924,-0.3553714079465717,-0.3317556276246905
1774470110290363000,11.51536279296875,-0.17053952201306818,-0.43876404996961355,-0.10988726571686565
1774470110300375800,11.525375732421875,-0.0793330644339323,-0.5063912233123555,0.03539878263673745
1774470110310388700,11.535388671875,0.06196224291622638,-0.5710590353928506,0.10950238545197062
1774470110320401700,11.545401611328124,0.1366238084077835,-0.5998350480221212,0.1456926472599618
1774470110330415600,11.55541552734375,0.08396832301914692,-0.5998210925620049,0.11804927365612237
1774470110340428800,11.5654287109375,0.013387304839491843,-0.588461238429509,0.08629377029202878
1774470110350441700,11.575441650390625,-0.007583586996793746,-0.508913033407554,0.18162969235870985
1774470110360455000,11.585454833984375,-0.011131050345301628,-0.39095826963447033,0.3916040567247197
1774470110370467600,11.595467529296876,-0.06647767451405524,-0.2126572102418169,0.7146792785592376
1774470110380480800,11.605480712890625,-0.1274181731671095,-0.06972911405805499,1.129651826313883
1774470110390494000,11.615493896484375,-0.10866203477084636,0.039572679921053344,1.4693040524072944
1774470110400506600,11.625506591796874,0.023929741641879082,0.12786381630906835,1.6284849989295005
1774470110410519800,11.635519775390625,0.27140695738494397,-0.06591048735165968,1.51038439694494
1774470110420534000,11.645533935546876,0.3540279574483633,-0.013635123854409903,1.6643904250472783
1774470110430546700,11.655546630859375,1.3381243347495793,-0.011424553399160504,2.090202931246161
1774470110440559900,11.665559814453125,1.6124100624412296,-0.3270101501306519,4.14847197035402
1774470110450572800,11.67557275390625,0.6051753861367702,-0.3409446770567447,4.296372082796693
1774470110460585700,11.685585693359375,0.2749193494200706,-0.35045733241997656,1.5753095813199878
1774470110470598700,11.6955986328125,-0.5636942057132721,-0.47507159061487764,-1.3936786103196441
1774470110480611800,11.70561181640625,-0.8733201268553733,-0.1852384209077805,-2.898097522988915
1774470110490624800,11.715624755859375,-0.8435527651011944,-0.9983071273528039,-3.0281013287350533
1774470110500638700,11.725638671875,0.2427308979988098,-0.9620658934094011,-1.3534452380001545
1774470110510652000,11.73565185546875,0.6984153953701258,-0.49338813201747833,0.3160314042702317
1774470110520664600,11.74566455078125,0.5645867706388235,-0.2421617563413456,1.4701308586202562
1774470110530677800,11.755677734375,0.6815536924183369,0.39868616047278044,2.11783108901456
1774470110540690700,11.765690673828125,0.567265634459257,0.6597095979440957,2.2838629243448376
1774470110550703900,11.775703857421876,0.5658721342742443,0.7427955851707607,2.5057816282004115
1774470110560716800,11.785716796875,0.3923603184521198,0.8052965380735695,2.5560551868885755
1774470110570729700,11.795729736328125,-0.03709317459762096,0.4891226200601086,1.862838821466267
1774470110580743700,11.80574365234375,-0.0887964738279581,0.6640761956557631,1.2080602501835673
1774470110590756900,11.8157568359375,-0.2840484122931957,0.7158372164227068,0.2789519294044003
1774470110600769800,11.825769775390626,-0.5831254668921232,0.6845797622412443,-0.578671958081983
1774470110610783000,11.835782958984375,-0.3432353452771902,0.6914660146236419,-1.0487453750833868
1774470110620795600,11.845795654296875,-0.1291045188188553,0.48199875952955334,-1.061211254229024
1774470110630808800,11.855808837890624,0.08750292688608169,0.2622409235022962,-0.7150564413085579
1774470110640821800,11.86582177734375,0.29294366641044617,0.18001805591098963,-0.23361761721670626
1774470110650835700,11.875835693359376,0.41068917134702204,0.23671130891572684,0.2933342731632292
1774470110660849000,11.885848876953125,0.20458733756542205,0.19877671505790204,0.7296730687472969
1774470110670861800,11.89586181640625,-0.03523088785707951,0.10651384376101196,0.8636793881330639
1774470110680874800,11.905874755859376,0.06258651229441166,-0.0953123950606212,0.8492419166535139
1774470110690887700,11.9158876953125,-0.11084990020394325,-0.3901306231712922,0.5908309997681528
1774470110700900900,11.92590087890625,-0.46601241464018817,-0.29954744858965276,-0.34922822901643813
1774470110710913500,11.93591357421875,-0.0906575915247202,-0.1818020897835493,-1.5459604449778794
1774470110720926700,11.9459267578125,-0.005911854392290115,-0.37976007233709097,-2.089183232809603
1774470110730941000,11.95594091796875,-0.39694647719860077,-0.29745792896449563,-1.8813409851014613
1774470110740953600,11.96595361328125,-0.22529870168268679,0.11126056336406617,-1.3702940814703701
1774470110750966800,11.975966796875,-0.43594928480982775,0.4357907332472503,-0.40532888642288745
1774470110760980000,11.98597998046875,-0.10098024809658526,0.5832101860335096,0.6505512359112501
1774470110770992600,11.99599267578125,0.08083060951530933,0.5376851005140691,1.5531078325144945
1774470110781005800,12.006005859375,0.003705868780612945,0.5998641645187511,1.6514783365041017
1774470110791018800,12.016018798828124,-0.20900983018279073,0.5286839383369312,0.7108318824160844
1774470110801032700,12.02603271484375,-0.5053618437319993,0.2107823562806472,-1.2468743302896619
1774470110811046000,12.0360458984375,-0.005602057790756225,-0.26311547784712164,-2.3222060990035533
1774470110821058800,12.046058837890625,0.09616203415989875,-0.29887751343883573,-1.6390870569646359
1774470110831071700,12.05607177734375,-0.1488023219794035,-0.0703888566084206,-1.0040034392982722
1774470110841084700,12.066084716796874,-0.11937456744313239,0.10841949471924453,-0.931989319575578
1774470110851097900,12.076097900390625,0.31824411188364027,0.004637450542300939,-0.699949765330553
1774470110861110800,12.08611083984375,0.3181213622868061,-0.1839096930546686,-0.131911648661457
1774470110871123700,12.096123779296875,-0.014582652103900908,-0.06794453219622373,0.10082465567607432
1774470110881138000,12.106137939453125,-0.1935235072374344,0.05689440160002559,0.01237633769866079
1774470110891150600,12.116150634765624,-0.21760639361441134,0.07275949472989887,0.10524404302090405
1774470110901163800,12.126163818359375,-0.2337035419344902,0.0901176028965041,0.21043745183311402
1774470110911176700,12.1361767578125,-0.04311842623651027,0.07378843591883778,0.13762809007950128
1774470110921190000,12.14618994140625,0.18329729677736759,-0.05418433892372995,0.15637177085299045
1774470110931202800,12.156202880859375,-0.03472527642250061,-0.12986187652479855,-0.35262503184787924
1774470110941215700,12.1662158203125,0.14759353071153164,-0.11522373137399554,-0.7012910969369113
1774470110951229000,12.17622900390625,0.2808943321764469,-0.1717965728694573,-0.35277788432203233
1774470110961242600,12.18624267578125,0.10546528455615042,-0.11372468845527618,-0.11296922131231986
1774470110971255800,12.196255859375,-0.01757598870098591,-0.005489719990082085,0.25770543549712743
1774470110981269000,12.20626904296875,-0.20176292779445648,0.005655870337225496,0.7534900707297026
1774470110991281700,12.21628173828125,-0.2904758149921894,-0.11690653336178511,1.0775064824044704
1774470111001294800,12.226294921875,-0.41838907819986343,-0.09075148035325109,0.5952296365858987
1774470111011307800,12.236307861328125,-0.3714683370709419,0.048802134428732095,0.2667200051451102
1774470111021320700,12.24632080078125,-0.31346213830411435,0.08329214079063385,0.0727138654898852
1774470111031335000,12.2563349609375,0.09258183758556843,0.0476261494519189,0.22628588608913122
1774470111041347800,12.266347900390626,0.6569190173774957,-0.09213752788417041,0.3364898165397346
1774470111051360800,12.27636083984375,0.49087154608666894,-0.13768228621846065,-0.03662336512878537
1774470111061373700,12.286373779296875,0.1716547897785902,0.2974595911986194,-0.3734094612013548
1774470111071387000,12.296386962890624,-0.26787235351800914,0.3888762026634067,-1.5397864325180648
1774470111081399600,12.306399658203125,-0.4542775531828403,0.45876346642524,-1.5305118236944077
1774470111091412700,12.316412841796875,-0.1738069993764162,0.20112165248254313,-1.1204958754338323
1774470111101426000,12.326426025390624,-0.3764741825342178,-0.21836376958666368,-0.9341882178593426
1774470111111439600,12.336439697265625,-0.2407102058261633,-0.27847324250936506,-1.003300917052105
1774470111121452800,12.346452880859376,0.06191255855560302,-0.0373170738808345,-0.7852461951483041
1774470111131465700,12.3564658203125,0.14804010543525217,0.17973814299106597,-0.052511108481884
1774470111141478700,12.366478759765625,0.01583002181649208,0.24908863299507647,0.38363106855154033
1774470111151491800,12.376491943359374,-0.16637129641771314,0.21045199181511998,0.6500601644586771
1774470111161504800,12.3865048828125,-0.30818390564024445,0.05521215673466213,0.7781510492555797
1774470111171518000,12.39651806640625,-0.46340077083706854,-0.10999670830755494,0.5463808134712278
1774470111181531600,12.40653173828125,-0.39280163247883315,-0.15223838824215344,-0.04420826729983091
1774470111191544800,12.416544921875,-0.13851356767714024,0.0065198484891094265,-0.45809937649331983
1774470111201557800,12.426557861328124,0.021352000108361243,0.12250108369952067,-0.7549197382066398
1774470111211570700,12.43657080078125,-0.026871055790781972,0.008475581100187264,-0.9928307417683303
1774470111221584000,12.446583984375,-0.028070494708418846,-0.06032004693346098,-1.0287615215230732
1774470111231596800,12.4565966796875,-0.023834464573860167,-0.17951706585260108,-0.8641086463958024
1774470111241609700,12.466609619140625,-0.09854863703548908,-0.17587335732169448,-0.66567902774252
1774470111251624000,12.4766240234375,-0.04477320770621299,0.09873842398654668,-0.28284152072146534
1774470111261636600,12.48663671875,0.026636077991127965,0.5015208773296326,0.16772000761292874
1774470111271649800,12.49664990234375,0.12371464247405528,0.6770459326703101,0.46784810563474893
