time,seconds_elapsed,z,y,x
1774470098832926700,0.0579267578125,-0.96575927734375,-0.2455596923828125,0.2083740234375
1774470098842940000,0.06793994140625,-0.989349365234375,-0.23114013671875,0.2142791748046875
1774470098852952800,0.077952880859375,-1.0133209228515625,-0.2145538330078125,0.2132720947265625
1774470098862965800,0.0879658203125,-1.0270843505859375,-0.196014404296875,0.20721435546875
1774470098872978700,0.097978759765625,-1.0291748046875,-0.1861419677734375,0.2064971923828125
1774470098882990800,0.107990966796875,-1.024505615234375,-0.1845245361328125,0.218353271484375
1774470098893003800,0.118003662109375,-1.0054473876953125,-0.1849212646484375,0.2292633056640625
1774470098903016700,0.1280166015625,-0.9863739013671875,-0.191009521484375,0.2290496826171875
1774470098913029600,0.138029541015625,-0.9750213623046875,-0.2024078369140625,0.2225341796875
1774470098923042800,0.148042724609375,-0.965789794921875,-0.214691162109375,0.213287353515625
1774470098933056000,0.158055908203125,-0.9594573974609375,-0.2256927490234375,0.20477294921875
1774470098943068700,0.168068603515625,-0.952911376953125,-0.233489990234375,0.2009735107421875
1774470098953081900,0.178081787109375,-0.9502716064453125,-0.2374267578125,0.1922454833984375
1774470098963094800,0.1880947265625,-0.9515838623046875,-0.2368927001953125,0.1875152587890625
1774470098973107700,0.198107666015625,-0.951629638671875,-0.2325897216796875,0.1896820068359375
1774470098983120600,0.20812060546875,-0.94482421875,-0.2320098876953125,0.19427490234375
1774470098993133800,0.2181337890625,-0.9373779296875,-0.2317352294921875,0.1995391845703125
1774470099003147000,0.22814697265625,-0.931884765625,-0.2321319580078125,0.2052001953125
1774470099013159700,0.23815966796875,-0.92669677734375,-0.22869873046875,0.206878662109375
1774470099023172900,0.2481728515625,-0.9236602783203125,-0.226776123046875,0.20892333984375
1774470099033185800,0.258185791015625,-0.92327880859375,-0.2252960205078125,0.2090301513671875
1774470099043198700,0.26819873046875,-0.9232940673828125,-0.225921630859375,0.2093353271484375
1774470099053211600,0.278211669921875,-0.929595947265625,-0.228363037109375,0.20867919921875
1774470099063224800,0.288224853515625,-0.9431610107421875,-0.2274017333984375,0.2043304443359375
1774470099073238000,0.298238037109375,-0.9517822265625,-0.2257232666015625,0.1981964111328125
1774470099083250700,0.308250732421875,-0.9530181884765625,-0.223968505859375,0.1966552734375
1774470099093264000,0.318263916015625,-0.9557342529296875,-0.22393798828125,0.1996307373046875
1774470099103275800,0.32827587890625,-0.958587646484375,-0.2207794189453125,0.1996307373046875
1774470099113289000,0.3382890625,-0.95794677734375,-0.21533203125,0.2011260986328125
1774470099123301600,0.348301513671875,-0.957763671875,-0.2187347412109375,0.205108642578125
1774470099133314800,0.358314697265625,-0.961761474609375,-0.22149658203125,0.204925537109375
1774470099143327700,0.36832763671875,-0.9609832763671875,-0.2192230224609375,0.2037811279296875
1774470099153341000,0.3783408203125,-0.958160400390625,-0.21923828125,0.2030487060546875
1774470099163353600,0.388353515625,-0.9495697021484375,-0.224609375,0.20269775390625
1774470099173366800,0.39836669921875,-0.943023681640625,-0.2293243408203125,0.2066192626953125
1774470099183380000,0.4083798828125,-0.943389892578125,-0.2344512939453125,0.210479736328125
1774470099193392600,0.418392578125,-0.94720458984375,-0.2374420166015625,0.2064208984375
1774470099203405800,0.42840576171875,-0.9432373046875,-0.238555908203125,0.196258544921875
1774470099213418800,0.438418701171875,-0.9372711181640625,-0.2436370849609375,0.1871337890625
1774470099223432000,0.448431884765625,-0.936981201171875,-0.2463531494140625,0.1852569580078125
1774470099233444600,0.458444580078125,-0.93865966796875,-0.245025634765625,0.1902313232421875
1774470099243457800,0.468457763671875,-0.9359283447265625,-0.2437744140625,0.1962890625
1774470099253470700,0.478470703125,-0.93267822265625,-0.241943359375,0.20086669921875
1774470099263483600,0.488483642578125,-0.9267730712890625,-0.2410736083984375,0.20574951171875
1774470099273496800,0.498496826171875,-0.9224395751953125,-0.246337890625,0.212310791015625
1774470099283509800,0.508509765625,-0.9184722900390625,-0.249908447265625,0.2149200439453125
1774470099293523000,0.51852294921875,-0.91607666015625,-0.251708984375,0.21588134765625
1774470099303534800,0.528534912109375,-0.9136505126953125,-0.2527618408203125,0.2183837890625
1774470099313547800,0.5385478515625,-0.9107513427734375,-0.25238037109375,0.219207763671875
1774470099323560700,0.548560791015625,-0.9103546142578125,-0.2534942626953125,0.2151336669921875
1774470099333574000,0.558573974609375,-0.9167938232421875,-0.2556304931640625,0.2067108154296875
1774470099343586600,0.568586669921875,-0.923828125,-0.2537078857421875,0.199981689453125
1774470099353599700,0.578599853515625,-0.9250335693359375,-0.252288818359375,0.1957244873046875
1774470099363613000,0.588613037109375,-0.92578125,-0.2532501220703125,0.1973114013671875
1774470099373625900,0.5986259765625,-0.9354095458984375,-0.250732421875,0.201416015625
1774470099383638800,0.608638671875,-0.9598846435546875,-0.2430267333984375,0.200439453125
1774470099393651700,0.618651611328125,-0.9880828857421875,-0.2323455810546875,0.19586181640625
1774470099403665000,0.628664794921875,-1.0048065185546875,-0.2219696044921875,0.1910247802734375
1774470099413677600,0.638677490234375,-1.005767822265625,-0.220916748046875,0.1890716552734375
1774470099423690800,0.648690673828125,-0.99835205078125,-0.222686767578125,0.194549560546875
1774470099433703700,0.65870361328125,-0.986785888671875,-0.224090576171875,0.1999359130859375
1774470099443716900,0.668716796875,-0.9735565185546875,-0.2257537841796875,0.20489501953125
1774470099453729800,0.678729736328125,-0.9658355712890625,-0.2270660400390625,0.2047119140625
1774470099463742700,0.68874267578125,-0.9664459228515625,-0.2221527099609375,0.2066650390625
1774470099473756000,0.698755859375,-0.9716796875,-0.216278076171875,0.206329345703125
1774470099483768600,0.7087685546875,-0.98394775390625,-0.2109222412109375,0.209197998046875
1774470099493781800,0.71878173828125,-1.0032806396484375,-0.198486328125,0.218109130859375
1774470099503794700,0.728794677734375,-1.0363922119140625,-0.1755828857421875,0.2286376953125
1774470099513808000,0.738807861328125,-1.080078125,-0.1531829833984375,0.2375030517578125
1774470099523819800,0.74881982421875,-1.1174468994140625,-0.142333984375,0.2427520751953125
1774470099533832700,0.758832763671875,-1.1274566650390625,-0.1439361572265625,0.2507171630859375
1774470099543846000,0.768845947265625,-1.1206207275390625,-0.147979736328125,0.2590484619140625
1774470099553858300,0.7788583984375,-1.10693359375,-0.16241455078125,0.2728118896484375
1774470099563871200,0.788871337890625,-1.0829315185546875,-0.171112060546875,0.251373291015625
1774470099573884200,0.79888427734375,-1.050567626953125,-0.1766815185546875,0.21612548828125
1774470099583897000,0.80889697265625,-1.0193634033203125,-0.198333740234375,0.2157440185546875
1774470099593910300,0.81891015625,-1.00872802734375,-0.2049407958984375,0.2210845947265625
1774470099603923200,0.828923095703125,-0.984649658203125,-0.195709228515625,0.201690673828125
1774470099613936000,0.83893603515625,-0.980072021484375,-0.183013916015625,0.191314697265625
1774470099623949300,0.84894921875,-0.9759368896484375,-0.180267333984375,0.186004638671875
1774470099633962200,0.858962158203125,-0.96435546875,-0.1934967041015625,0.1757049560546875
1774470099643975200,0.86897509765625,-0.943511962890625,-0.21600341796875,0.1767578125
1774470099653988000,0.878988037109375,-0.924163818359375,-0.2358856201171875,0.1949615478515625
1774470099664001300,0.889001220703125,-0.927215576171875,-0.2493438720703125,0.2142333984375
1774470099674014200,0.89901416015625,-0.938018798828125,-0.2526397705078125,0.229705810546875
1774470099684027100,0.909027099609375,-0.941162109375,-0.24957275390625,0.2462310791015625
1774470099694040300,0.919040283203125,-0.9286041259765625,-0.2415771484375,0.2633056640625
1774470099704053200,0.92905322265625,-0.895111083984375,-0.2373046875,0.2890777587890625
1774470099714066200,0.939066162109375,-0.8544158935546875,-0.2377471923828125,0.3200531005859375
1774470099724078000,0.949078125,-0.8194427490234375,-0.2371063232421875,0.3331298828125
1774470099734091300,0.95909130859375,-0.7957305908203125,-0.2414398193359375,0.329620361328125
1774470099744104200,0.969104248046875,-0.7707061767578125,-0.2693634033203125,0.33837890625
1774470099754117400,0.979117431640625,-0.7438201904296875,-0.3032684326171875,0.3638458251953125
1774470099764130000,0.989130126953125,-0.7285614013671875,-0.3264923095703125,0.385101318359375
1774470099774143200,0.999143310546875,-0.73199462890625,-0.3264923095703125,0.3939056396484375
1774470099784156200,1.00915625,-0.754425048828125,-0.304595947265625,0.3879241943359375
1774470099794169000,1.019169189453125,-0.7832183837890625,-0.280487060546875,0.3731689453125
1774470099804182300,1.029182373046875,-0.8113250732421875,-0.2652740478515625,0.36505126953125
1774470099814195200,1.0391953125,-0.8423004150390625,-0.262939453125,0.3636322021484375
1774470099824208400,1.04920849609375,-0.8662109375,-0.263702392578125,0.36492919921875
1774470099834221000,1.059220947265625,-0.878936767578125,-0.2628173828125,0.3696136474609375
1774470099844234200,1.069234130859375,-0.8902435302734375,-0.2624053955078125,0.3757781982421875
1774470099854247200,1.0792470703125,-0.8923797607421875,-0.2633819580078125,0.379852294921875
1774470099864260000,1.089260009765625,-0.89691162109375,-0.266357421875,0.3891143798828125
1774470099874273300,1.099273193359375,-0.9031219482421875,-0.2739715576171875,0.3937835693359375
1774470099884286200,1.1092861328125,-0.9032745361328125,-0.2865142822265625,0.3862152099609375
1774470099894299400,1.11929931640625,-0.898284912109375,-0.29644775390625,0.3751373291015625
1774470099904312000,1.12931201171875,-0.8920135498046875,-0.299468994140625,0.369476318359375
1774470099914325200,1.1393251953125,-0.8958587646484375,-0.2911224365234375,0.369415283203125
1774470099924337200,1.149337158203125,-0.91204833984375,-0.2360687255859375,0.3905487060546875
1774470099934350300,1.159350341796875,-0.9310455322265625,-0.161407470703125,0.4365386962890625
1774470099944363000,1.169363037109375,-0.967620849609375,-0.2406158447265625,0.429046630859375
1774470099954376200,1.179376220703125,-0.99896240234375,-0.3117828369140625,0.3964385986328125
1774470099964389000,1.18938916015625,-0.9820709228515625,-0.3425750732421875,0.36126708984375
1774470099974402300,1.19940234375,-0.961761474609375,-0.3626861572265625,0.313812255859375
1774470099984415200,1.209415283203125,-0.9337158203125,-0.3657989501953125,0.2669830322265625
1774470099994428200,1.21942822265625,-0.855560302734375,-0.35821533203125,0.264617919921875
1774470100004441300,1.22944140625,-0.7689208984375,-0.2991943359375,0.285064697265625
1774470100014454000,1.2394541015625,-0.6900482177734375,-0.2705841064453125,0.3337249755859375
1774470100024467200,1.24946728515625,-0.604888916015625,-0.2848052978515625,0.3875274658203125
1774470100034480000,1.259480224609375,-0.542816162109375,-0.324371337890625,0.4039154052734375
1774470100044493300,1.269493408203125,-0.437286376953125,-0.2662200927734375,0.3950958251953125
1774470100054506200,1.27950634765625,-0.354034423828125,-0.1661376953125,0.3080902099609375
1774470100064519200,1.289519287109375,-0.408477783203125,-0.2178802490234375,0.2545623779296875
1774470100074532400,1.299532470703125,-0.5245208740234375,-0.200408935546875,0.1829986572265625
1774470100084545000,1.309544921875,-0.701812744140625,-0.187347412109375,0.0876922607421875
1774470100094558200,1.31955810546875,-0.88116455078125,-0.14373779296875,0.0325469970703125
1774470100104571100,1.329571044921875,-1.4076385498046875,-0.11749267578125,-0.0611419677734375
1774470100114583300,1.339583251953125,-1.7306060791015625,-0.044952392578125,-0.1596527099609375
1774470100124596200,1.34959619140625,-1.48095703125,-0.0307159423828125,-0.2156524658203125
1774470100134609200,1.359609130859375,-1.4956817626953125,-0.1787109375,-0.2077789306640625
1774470100144622000,1.3696220703125,-1.3312530517578125,-0.1846771240234375,-0.09027099609375
1774470100154635300,1.37963525390625,-1.1558990478515625,-0.2172393798828125,0.0547027587890625
1774470100164648200,1.389648193359375,-0.860260009765625,-0.325897216796875,0.2917022705078125
1774470100174661000,1.3996611328125,-0.8380279541015625,-0.4140625,0.552093505859375
1774470100184674300,1.40967431640625,-0.943878173828125,-0.124786376953125,0.27374267578125
1774470100194687200,1.419687255859375,-1.229156494140625,-0.1843414306640625,0.141357421875
1774470100204700200,1.4297001953125,-1.148040771484375,-0.282501220703125,0.0318756103515625
1774470100214713000,1.439713134765625,-1.093353271484375,-0.373016357421875,-0.220916748046875
1774470100224726300,1.449726318359375,-1.0362548828125,-0.4210357666015625,-0.3504486083984375
1774470100234739200,1.4597392578125,-0.9700927734375,-0.39813232421875,-0.3082122802734375
1774470100244752100,1.469752197265625,-0.967620849609375,-0.37860107421875,-0.1755523681640625
1774470100254765300,1.479765380859375,-0.98382568359375,-0.35699462890625,-0.0272369384765625
1774470100264778200,1.4897783203125,-0.97186279296875,-0.3228302001953125,-0.0211639404296875
1774470100274791200,1.499791259765625,-0.9638214111328125,-0.319976806640625,-0.0780029296875
1774470100284804000,1.50980419921875,-0.960784912109375,-0.3449249267578125,-0.1550140380859375
1774470100294816300,1.519816162109375,-0.9429931640625,-0.36859130859375,-0.2078399658203125
1774470100304829200,1.5298291015625,-0.942474365234375,-0.36212158203125,-0.22711181640625
1774470100314842000,1.539842041015625,-0.947296142578125,-0.341278076171875,-0.2145233154296875
1774470100324855000,1.54985498046875,-0.960906982421875,-0.3262481689453125,-0.2020111083984375
1774470100334868200,1.5598681640625,-0.950469970703125,-0.31805419921875,-0.224517822265625
1774470100344881400,1.56988134765625,-0.9258270263671875,-0.343597412109375,-0.227691650390625
1774470100354894000,1.57989404296875,-0.90960693359375,-0.35443115234375,-0.202178955078125
1774470100364907300,1.5899072265625,-0.9190826416015625,-0.33892822265625,-0.157867431640625
1774470100374920200,1.599920166015625,-0.9176788330078125,-0.326446533203125,-0.1630096435546875
1774470100384933000,1.60993310546875,-0.908935546875,-0.3256072998046875,-0.20159912109375
1774470100394946000,1.619946044921875,-0.9199981689453125,-0.307708740234375,-0.259002685546875
1774470100404959200,1.629959228515625,-0.923828125,-0.3093109130859375,-0.2803497314453125
1774470100414972400,1.639972412109375,-0.8862762451171875,-0.33587646484375,-0.2529449462890625
1774470100424985000,1.649985107421875,-0.8376007080078125,-0.35980224609375,-0.212738037109375
1774470100434998300,1.659998291015625,-0.813812255859375,-0.37286376953125,-0.2113494873046875
1774470100445011200,1.67001123046875,-0.8033294677734375,-0.360321044921875,-0.2046051025390625
1774470100455024000,1.680024169921875,-0.882232666015625,-0.329742431640625,-0.2232818603515625
1774470100465037000,1.690037109375,-0.9931488037109375,-0.3492889404296875,-0.277618408203125
1774470100475049200,1.70004931640625,-0.9781341552734375,-0.361114501953125,-0.317138671875
1774470100485062100,1.710062255859375,-0.877838134765625,-0.3682403564453125,-0.34649658203125
1774470100495075300,1.720075439453125,-0.7866363525390625,-0.3856353759765625,-0.3690032958984375
1774470100505088000,1.730087890625,-0.784027099609375,-0.4121551513671875,-0.39862060546875
1774470100515101200,1.74010107421875,-0.7892608642578125,-0.4445648193359375,-0.393951416015625
1774470100525114400,1.7501142578125,-0.8057708740234375,-0.4370269775390625,-0.387847900390625
1774470100535127000,1.760126953125,-0.8138275146484375,-0.4329833984375,-0.332489013671875
1774470100545140200,1.77014013671875,-0.7817840576171875,-0.4163360595703125,-0.258819580078125
1774470100555153200,1.780153076171875,-0.7606048583984375,-0.368194580078125,-0.2759552001953125
1774470100565166300,1.790166259765625,-0.7609100341796875,-0.33001708984375,-0.3392333984375
1774470100575179000,1.800178955078125,-0.7621917724609375,-0.35595703125,-0.411834716796875
1774470100585192200,1.810192138671875,-0.7976226806640625,-0.4200286865234375,-0.4699859619140625
1774470100595205000,1.820205078125,-0.8337249755859375,-0.452301025390625,-0.5237274169921875
1774470100605218000,1.830218017578125,-0.8293304443359375,-0.338623046875,-0.55694580078125
1774470100615231000,1.84023095703125,-0.8201446533203125,-0.2125091552734375,-0.5502777099609375
1774470100625244200,1.850244140625,-0.8101959228515625,-0.2265167236328125,-0.429534912109375
1774470100635257300,1.86025732421875,-0.8137969970703125,-0.2554168701171875,-0.3616180419921875
1774470100645269200,1.870269287109375,-0.8232421875,-0.23187255859375,-0.369293212890625
1774470100655282200,1.8802822265625,-0.83087158203125,-0.20751953125,-0.3813018798828125
1774470100665295000,1.890295166015625,-0.8102569580078125,-0.21087646484375,-0.4690399169921875
1774470100675308300,1.900308349609375,-0.7802581787109375,-0.2472076416015625,-0.57763671875
1774470100685321200,1.9103212890625,-0.7624053955078125,-0.3114166259765625,-0.6372222900390625
1774470100695334100,1.920334228515625,-0.736846923828125,-0.41046142578125,-0.665679931640625
1774470100705347000,1.93034716796875,-0.755767822265625,-0.47021484375,-0.6775665283203125
1774470100715360300,1.9403603515625,-0.8051300048828125,-0.4290313720703125,-0.65472412109375
1774470100725373200,1.950373291015625,-0.8620147705078125,-0.372161865234375,-0.6377105712890625
1774470100735386000,1.96038623046875,-0.872589111328125,-0.353973388671875,-0.6533203125
1774470100745399300,1.9703994140625,-0.790924072265625,-0.349761962890625,-0.7066192626953125
1774470100755412200,1.980412109375,-0.6634979248046875,-0.396759033203125,-0.7567291259765625
1774470100765425200,1.990425048828125,-0.578643798828125,-0.525848388671875,-0.7945404052734375
1774470100775438000,2.00043798828125,-0.5597076416015625,-0.7035980224609375,-0.84613037109375
1774470100785451300,2.010451171875,-0.5715179443359375,-0.7099609375,-0.8344573974609375
1774470100795464000,2.0204638671875,-0.606964111328125,-0.6280517578125,-0.7584686279296875
1774470100805477000,2.03047705078125,-0.62225341796875,-0.5694732666015625,-0.689788818359375
1774470100815490300,2.040490234375,-0.59991455078125,-0.54962158203125,-0.646392822265625
1774470100825502200,2.050502197265625,-0.5586395263671875,-0.548248291015625,-0.6220703125
1774470100835515100,2.06051513671875,-0.557769775390625,-0.550048828125,-0.5970306396484375
1774470100845528000,2.070528076171875,-0.5560455322265625,-0.5713958740234375,-0.5620269775390625
1774470100855541200,2.080541259765625,-0.507080078125,-0.5941619873046875,-0.5301055908203125
1774470100865554200,2.09055419921875,-0.4709625244140625,-0.5792388916015625,-0.4703369140625
1774470100875567000,2.100567138671875,-0.4577789306640625,-0.63067626953125,-0.3831634521484375
1774470100885580000,2.110580078125,-0.412445068359375,-0.7394561767578125,-0.293792724609375
1774470100895593200,2.12059326171875,-0.3334197998046875,-0.762847900390625,-0.2412261962890625
1774470100905606100,2.130606201171875,-0.317657470703125,-0.7923583984375,-0.2408905029296875
1774470100915619000,2.140619140625,-0.35284423828125,-0.821380615234375,-0.2592315673828125
1774470100925632300,2.15063232421875,-0.282318115234375,-0.78863525390625,-0.2646026611328125
1774470100935645200,2.160645263671875,-0.17510986328125,-0.864898681640625,-0.2580718994140625
1774470100945658000,2.170658203125,-0.1158294677734375,-0.9953155517578125,-0.22821044921875
1774470100955671000,2.180671142578125,-0.074798583984375,-0.9873504638671875,-0.0974273681640625
1774470100965684200,2.190684326171875,-0.0535430908203125,-0.97930908203125,-0.0314178466796875
1774470100975697200,2.200697265625,-0.107879638671875,-1.0034637451171875,-0.064483642578125
1774470100985710000,2.2107099609375,-0.2152862548828125,-0.9950408935546875,-0.1559906005859375
1774470100995722000,2.220721923828125,-0.3411865234375,-0.94085693359375,-0.2774200439453125
1774470101005735200,2.230735107421875,-0.4011688232421875,-0.9405517578125,-0.310943603515625
1774470101015748400,2.240748291015625,-0.3506927490234375,-0.928802490234375,-0.2510528564453125
1774470101025761000,2.250760986328125,-0.4219818115234375,-0.89910888671875,-0.16241455078125
1774470101035774200,2.260774169921875,-0.5915069580078125,-0.9128570556640625,-0.0752105712890625
1774470101045787100,2.270787109375,-0.64276123046875,-0.9566192626953125,-0.021270751953125
1774470101055800300,2.28080029296875,-0.48809814453125,-1.0095367431640625,-0.0240478515625
1774470101065813000,2.29081298828125,-0.2617950439453125,-1.0472412109375,0.031005859375
1774470101075826200,2.300826171875,-0.1334686279296875,-0.990478515625,0.096221923828125
1774470101085839000,2.310839111328125,-0.2149200439453125,-0.6889190673828125,0.0341339111328125
1774470101095852000,2.32085205078125,-0.3346405029296875,-0.4195709228515625,-0.1061859130859375
1774470101105865200,2.330865234375,-0.144927978515625,-0.7403106689453125,-0.3703155517578125
1774470101115878100,2.340878173828125,0.019500732421875,-1.0093994140625,-0.4253692626953125
1774470101125891300,2.350891357421875,-0.0872802734375,-1.041259765625,-0.2603759765625
1774470101135904000,2.360904052734375,-0.0279693603515625,-1.069976806640625,-0.185028076171875
1774470101145917200,2.370917236328125,0.240234375,-1.0783843994140625,-0.0542449951171875
1774470101155930000,2.38093017578125,0.286407470703125,-1.104095458984375,0.0250091552734375
1774470101165942300,2.3909423828125,0.067291259765625,-1.216583251953125,0.0298004150390625
1774470101175955000,2.400954833984375,-0.110748291015625,-1.16119384765625,-0.0218353271484375
1774470101185968000,2.410968017578125,-0.246856689453125,-1.0248260498046875,-0.1104888916015625
1774470101195981300,2.420981201171875,-0.314361572265625,-0.8953704833984375,-0.0593109130859375
1774470101205994200,2.430994140625,-0.29425048828125,-0.872222900390625,0.079376220703125
1774470101216007200,2.441007080078125,-0.2171478271484375,-0.903564453125,0.2330780029296875
1774470101226020000,2.45102001953125,-0.1014404296875,-0.987396240234375,0.500640869140625
1774470101236033300,2.461033203125,-0.0424041748046875,-0.9810791015625,0.6594085693359375
1774470101246046000,2.4710458984375,-0.1006927490234375,-0.851837158203125,0.70977783203125
1774470101256059100,2.48105908203125,-0.193511962890625,-0.7662200927734375,0.6296234130859375
1774470101266072000,2.491072021484375,-0.2015380859375,-0.7581939697265625,0.4632568359375
1774470101276085200,2.501085205078125,-0.1949615478515625,-0.747222900390625,0.2401885986328125
1774470101286098200,2.51109814453125,-0.2881317138671875,-0.8594970703125,0.22515869140625
1774470101296111000,2.521111083984375,-0.23236083984375,-0.9822845458984375,0.18341064453125
1774470101306124300,2.531124267578125,-0.1182403564453125,-0.9774017333984375,0.147613525390625
1774470101316137000,2.541136962890625,-0.0143280029296875,-0.85308837890625,0.1529388427734375
1774470101326150100,2.551150146484375,0.0186920166015625,-0.7875823974609375,0.2003021240234375
1774470101336163000,2.5611630859375,-0.0234832763671875,-0.76898193359375,0.1816864013671875
1774470101346176300,2.57117626953125,-0.115631103515625,-0.7920684814453125,0.12408447265625
1774470101356189200,2.581189208984375,-0.178192138671875,-0.710235595703125,0.1322174072265625
1774470101366202000,2.5912021484375,-0.1609039306640625,-0.6861114501953125,0.0578460693359375
1774470101376215300,2.60121533203125,-0.1044464111328125,-0.6905670166015625,0.027099609375
1774470101386227200,2.611227294921875,0.091339111328125,-0.8404083251953125,0.0903472900390625
1774470101396240100,2.621240234375,0.293121337890625,-1.016815185546875,0.225006103515625
1774470101406253000,2.631253173828125,0.33563232421875,-1.0804443359375,0.39422607421875
1774470101416266200,2.641266357421875,0.3083648681640625,-1.0705413818359375,0.48223876953125
1774470101426279200,2.651279052734375,0.30267333984375,-1.1461944580078125,0.5277099609375
1774470101436292000,2.6612919921875,0.26727294921875,-1.170166015625,0.3961639404296875
1774470101446305000,2.671304931640625,0.1597900390625,-1.1172637939453125,0.2767181396484375
1774470101456318200,2.681318115234375,-0.047271728515625,-1.0254058837890625,0.3213348388671875
1774470101466331100,2.6913310546875,-0.024139404296875,-0.99761962890625,0.4564208984375
1774470101476344000,2.701343994140625,0.1719512939453125,-0.86260986328125,0.399658203125
1774470101486357200,2.711357177734375,0.2231903076171875,-0.6832427978515625,0.3455657958984375
1774470101496370200,2.7213701171875,0.0794677734375,-0.576812744140625,0.2890167236328125
1774470101506383000,2.731383056640625,0.0187530517578125,-0.5834197998046875,0.3013916015625
1774470101516396000,2.74139599609375,-0.0752410888671875,-0.5383453369140625,0.479034423828125
1774470101526409200,2.7514091796875,0.0142974853515625,-0.6072845458984375,0.182525634765625
1774470101536422100,2.761422119140625,0.175048828125,-0.7590484619140625,0.0341644287109375
1774470101546435000,2.77143505859375,0.240692138671875,-0.830474853515625,0.116058349609375
1774470101556448800,2.78144873046875,0.316864013671875,-0.87750244140625,0.1763763427734375
1774470101566461400,2.79146142578125,0.48809814453125,-0.9966583251953125,0.3846893310546875
1774470101576474600,2.801474609375,0.5705108642578125,-1.1620941162109375,0.4978485107421875
1774470101586487800,2.81148779296875,0.5468292236328125,-1.36920166015625,0.328338623046875
1774470101596500700,2.821500732421875,0.3517303466796875,-1.47589111328125,0.2283172607421875
1774470101606513700,2.831513671875,0.251495361328125,-1.472503662109375,0.214691162109375
1774470101616526600,2.841526611328125,0.3029022216796875,-1.292938232421875,0.1833953857421875
1774470101626539800,2.851539794921875,0.404205322265625,-1.14617919921875,0.2143707275390625
1774470101636552400,2.861552490234375,0.3755645751953125,-1.062469482421875,0.26287841796875
1774470101646565600,2.871565673828125,0.2931671142578125,-0.989410400390625,0.2923126220703125
1774470101656578600,2.88157861328125,0.26300048828125,-0.9368438720703125,0.2421417236328125
1774470101666591700,2.891591796875,0.191619873046875,-0.8215179443359375,0.2485504150390625
1774470101676604700,2.901604736328125,-0.35833740234375,0.0776824951171875,0.8155517578125
1774470101686617600,2.91161767578125,-0.292236328125,-0.1133270263671875,0.296600341796875
1774470101696630800,2.921630859375,0.4289093017578125,-0.3234405517578125,0.173431396484375
1774470101706643500,2.9316435546875,0.3157196044921875,-0.6381378173828125,0.03955078125
1774470101716656600,2.94165673828125,0.35284423828125,-0.8985748291015625,0.137451171875
1774470101726669600,2.951669677734375,0.5113983154296875,-1.1663818359375,0.2906494140625
1774470101736682800,2.961682861328125,0.5127716064453125,-1.3197479248046875,0.2216644287109375
1774470101746695700,2.97169580078125,0.548553466796875,-1.3913116455078125,0.2393951416015625
1774470101756708600,2.98170849609375,0.625946044921875,-1.2840423583984375,0.4105224609375
1774470101766721800,2.9917216796875,0.5221405029296875,-1.187255859375,0.3247833251953125
1774470101776734500,3.001734375,0.2819976806640625,-1.17132568359375,0.1633148193359375
1774470101786747600,3.01174755859375,0.0665740966796875,-1.1756744384765625,0.058868408203125
1774470101796760600,3.021760498046875,-0.1028900146484375,-1.16571044921875,0.02764892578125
1774470101806773800,3.031773681640625,-0.18865966796875,-1.0765838623046875,0.03759765625
1774470101816786700,3.04178662109375,-0.0539398193359375,-0.9335174560546875,0.1634063720703125
1774470101826799600,3.051799560546875,0.05194091796875,-0.85736083984375,0.189544677734375
1774470101836812800,3.061812744140625,0.1186065673828125,-0.8605499267578125,0.122772216796875
1774470101846825500,3.071825439453125,0.1743316650390625,-0.9354095458984375,0.0809783935546875
1774470101856838700,3.081838623046875,0.320098876953125,-1.03228759765625,0.050262451171875
1774470101866851600,3.0918515625,0.536224365234375,-1.0909423828125,0.1067657470703125
1774470101876864800,3.10186474609375,0.5207366943359375,-1.1271209716796875,0.1826629638671875
1774470101886877400,3.11187744140625,0.367828369140625,-1.1458740234375,0.24267578125
1774470101896890600,3.121890625,0.2031097412109375,-1.108734130859375,0.2436370849609375
1774470101906903800,3.13190380859375,0.0353240966796875,-1.0761260986328125,0.238372802734375
1774470101916916700,3.141916748046875,-0.0288543701171875,-1.0583343505859375,0.2291412353515625
1774470101926930700,3.1519306640625,-0.0135650634765625,-1.0497894287109375,0.2600860595703125
1774470101936943900,3.16194384765625,0.039031982421875,-1.0012969970703125,0.2371826171875
1774470101946956500,3.17195654296875,0.1351470947265625,-0.922698974609375,0.2001190185546875
1774470101956969700,3.1819697265625,0.1381683349609375,-0.88446044921875,0.2067413330078125
1774470101966982700,3.191982666015625,0.0593719482421875,-0.865081787109375,0.2137908935546875
1774470101976995600,3.20199560546875,-0.04571533203125,-0.862945556640625,0.2328948974609375
1774470101987008500,3.212008544921875,-0.0633697509765625,-0.8588714599609375,0.244354248046875
1774470101997021700,3.222021728515625,0.0300750732421875,-0.8929595947265625,0.211822509765625
1774470102007034600,3.23203466796875,0.152130126953125,-0.9472198486328125,0.1852874755859375
1774470102017047600,3.242047607421875,0.2167816162109375,-0.97625732421875,0.2053680419921875
1774470102027060700,3.252060791015625,0.2122650146484375,-1.01165771484375,0.202972412109375
1774470102037073700,3.26207373046875,0.17449951171875,-1.031707763671875,0.2113800048828125
1774470102047086600,3.272086669921875,0.14300537109375,-1.0111083984375,0.22064208984375
1774470102057099500,3.282099609375,0.064239501953125,-1.0185699462890625,0.2050323486328125
1774470102067112700,3.29211279296875,-0.0637054443359375,-1.006622314453125,0.27947998046875
1774470102077125600,3.302125732421875,-0.1078033447265625,-0.95416259765625,0.3429107666015625
1774470102087138600,3.312138671875,-0.0121307373046875,-0.931427001953125,0.3040771484375
1774470102097151700,3.32215185546875,0.1029510498046875,-0.938934326171875,0.2620391845703125
1774470102107164700,3.33216455078125,0.15509033203125,-0.942108154296875,0.242706298828125
1774470102117177600,3.342177490234375,0.1786651611328125,-0.924591064453125,0.2181854248046875
1774470102127190500,3.3521904296875,0.18341064453125,-0.9106292724609375,0.2158050537109375
1774470102137203700,3.36220361328125,0.1046295166015625,-0.9114532470703125,0.2066192626953125
1774470102147216600,3.372216552734375,0.0816192626953125,-0.8871612548828125,0.235870361328125
1774470102157229600,3.3822294921875,0.0640716552734375,-0.88592529296875,0.2433929443359375
1774470102167242800,3.39224267578125,0.0590362548828125,-0.8849945068359375,0.2085113525390625
1774470102177256700,3.402256591796875,0.04583740234375,-0.9069671630859375,0.2138214111328125
1774470102187269600,3.41226953125,-0.003082275390625,-0.96478271484375,0.2399444580078125
1774470102197282600,3.422282470703125,-0.0577545166015625,-0.9934234619140625,0.2706756591796875
1774470102207295700,3.432295654296875,-0.07000732421875,-1.0163726806640625,0.278289794921875
1774470102217308700,3.44230859375,-0.0207366943359375,-1.0147247314453125,0.2708282470703125
1774470102227321600,3.452321533203125,0.0494842529296875,-1.0121307373046875,0.28082275390625
1774470102237334800,3.462334716796875,0.094268798828125,-1.0271759033203125,0.2894134521484375
1774470102247347700,3.47234765625,0.123870849609375,-1.03118896484375,0.30084228515625
1774470102257360600,3.482360595703125,0.12548828125,-1.0274200439453125,0.2663726806640625
1774470102267373600,3.49237353515625,0.0937957763671875,-0.9775238037109375,0.2122039794921875
1774470102277386800,3.50238671875,0.0742340087890625,-0.926300048828125,0.22210693359375
1774470102287399700,3.512399658203125,0.117706298828125,-0.9226531982421875,0.2224884033203125
1774470102297412600,3.52241259765625,0.1555938720703125,-0.9426727294921875,0.2153778076171875
1774470102307425800,3.53242578125,0.2154388427734375,-0.9630279541015625,0.1813201904296875
1774470102317438700,3.542438720703125,0.2512664794921875,-0.9251708984375,0.1845550537109375
1774470102327451600,3.55245166015625,0.3373260498046875,-0.884033203125,0.1775970458984375
1774470102337464600,3.562464599609375,0.496063232421875,-0.8668975830078125,0.1944122314453125
1774470102347477800,3.572477783203125,0.5883331298828125,-0.8620758056640625,0.27972412109375
1774470102357490400,3.582490478515625,0.4879608154296875,-0.8981781005859375,0.2215118408203125
1774470102367503600,3.592503662109375,0.3883819580078125,-0.91473388671875,0.2152099609375
1774470102377516800,3.602516845703125,0.3715972900390625,-0.9558868408203125,0.20745849609375
1774470102387529700,3.61252978515625,0.4026641845703125,-0.9823150634765625,0.2205963134765625
1774470102397543700,3.622543701171875,0.4617919921875,-0.976531982421875,0.236602783203125
1774470102407556600,3.632556640625,0.536590576171875,-0.9476470947265625,0.2325897216796875
1774470102417569500,3.642569580078125,0.6036529541015625,-0.920501708984375,0.2126617431640625
1774470102427582700,3.652582763671875,0.6563262939453125,-0.91864013671875,0.1964111328125
1774470102437595600,3.662595703125,0.665863037109375,-0.936737060546875,0.218994140625
1774470102447608800,3.67260888671875,0.6762542724609375,-0.9239349365234375,0.239166259765625
1774470102457621500,3.68262158203125,0.674041748046875,-0.9045562744140625,0.243255615234375
1774470102467634700,3.692634765625,0.673431396484375,-0.8845672607421875,0.232452392578125
1774470102477647600,3.702647705078125,0.698333740234375,-0.9102630615234375,0.2335357666015625
1774470102487660500,3.71266064453125,0.7132110595703125,-0.9534759521484375,0.251129150390625
1774470102497673700,3.722673828125,0.646392822265625,-0.954071044921875,0.2659149169921875
1774470102507686700,3.732686767578125,0.546630859375,-0.91162109375,0.2448272705078125
1774470102517699800,3.742699951171875,0.4927978515625,-0.8969573974609375,0.218719482421875
1774470102527712500,3.75271240234375,0.490234375,-0.9311981201171875,0.2139892578125
1774470102537725700,3.7627255859375,0.5262908935546875,-0.912139892578125,0.2171783447265625
1774470102547738600,3.772738525390625,0.657745361328125,-0.85809326171875,0.2303619384765625
1774470102557751600,3.78275146484375,0.654815673828125,-0.855743408203125,0.225494384765625
1774470102567764700,3.7927646484375,0.5953369140625,-0.8373260498046875,0.2421417236328125
1774470102577777700,3.802777587890625,0.5765380859375,-0.8284454345703125,0.257659912109375
1774470102587790800,3.812790771484375,0.5509185791015625,-0.8296966552734375,0.2508544921875
1774470102597803500,3.822803466796875,0.51947021484375,-0.8492279052734375,0.25439453125
1774470102607816700,3.832816650390625,0.517974853515625,-0.847930908203125,0.2533721923828125
1774470102617830700,3.84283056640625,0.52716064453125,-0.8267669677734375,0.2542877197265625
1774470102627843600,3.852843505859375,0.537841796875,-0.76837158203125,0.247161865234375
1774470102637856800,3.862856689453125,0.519256591796875,-0.704071044921875,0.2487640380859375
1774470102647869700,3.87286962890625,0.456207275390625,-0.71881103515625,0.2970428466796875
1774470102657882600,3.882882568359375,0.3628997802734375,-0.771484375,0.308990478515625
1774470102667895600,3.8928955078125,0.3437957763671875,-0.8089447021484375,0.307769775390625
1774470102677908700,3.90290869140625,0.38177490234375,-0.826171875,0.3052215576171875
1774470102687921700,3.912921630859375,0.437408447265625,-0.779815673828125,0.297210693359375
1774470102697934600,3.9229345703125,0.528594970703125,-0.7228240966796875,0.307952880859375
1774470102707947800,3.93294775390625,0.64788818359375,-0.681304931640625,0.3253936767578125
1774470102717960700,3.942960693359375,0.83123779296875,-0.6353607177734375,0.337646484375
1774470102727973600,3.9529736328125,0.864227294921875,-0.5166168212890625,0.382659912109375
1774470102737986600,3.962986572265625,0.7555999755859375,-0.4190826416015625,0.3910064697265625
1774470102747999700,3.972999755859375,0.6867218017578125,-0.407257080078125,0.365234375
1774470102758012400,3.983012451171875,0.65228271484375,-0.485687255859375,0.2996063232421875
1774470102768025600,3.993025634765625,0.6074981689453125,-0.5919342041015625,0.2975921630859375
1774470102778038800,4.003038818359375,0.55108642578125,-0.625640869140625,0.3035888671875
1774470102788051700,4.0130517578125,0.4604949951171875,-0.632598876953125,0.323272705078125
1774470102798064600,4.023064697265625,0.419677734375,-0.63055419921875,0.311920166015625
1774470102808077600,4.03307763671875,0.4280853271484375,-0.5915679931640625,0.2823028564453125
1774470102818090800,4.0430908203125,0.373291015625,-0.640045166015625,0.291595458984375
1774470102828103400,4.053103515625,0.2822418212890625,-0.78094482421875,0.213287353515625
1774470102838116600,4.06311669921875,0.2084808349609375,-0.8377227783203125,0.1966552734375
1774470102848130800,4.073130859375,0.1505889892578125,-0.9038238525390625,0.2168426513671875
1774470102858143500,4.0831435546875,0.087982177734375,-0.93798828125,0.1855926513671875
1774470102868156700,4.09315673828125,0.005889892578125,-1.002166748046875,0.14404296875
1774470102878169600,4.103169677734375,-0.062744140625,-1.057037353515625,0.1136474609375
1774470102888182500,4.1131826171875,-0.1423492431640625,-1.0724334716796875,0.0724334716796875
1774470102898195700,4.12319580078125,-0.132568359375,-1.09344482421875,0.0535888671875
1774470102908208600,4.133208740234375,0.0734100341796875,-1.0481719970703125,0.0778045654296875
1774470102918221800,4.143221923828125,0.027740478515625,-1.014617919921875,0.1308135986328125
1774470102928234500,4.153234375,0.012908935546875,-1.0433502197265625,0.1558837890625
1774470102938247700,4.16324755859375,-0.003448486328125,-1.0538482666015625,0.12335205078125
1774470102948260600,4.173260498046875,-0.0126953125,-1.061859130859375,0.11566162109375
1774470102958273500,4.1832734375,0.03778076171875,-1.05609130859375,0.127685546875
1774470102968286700,4.19328662109375,0.100372314453125,-1.01251220703125,0.1280517578125
1774470102978299600,4.203299560546875,0.1405792236328125,-0.9583740234375,0.128265380859375
1774470102988312800,4.213312744140625,0.1748504638671875,-0.915008544921875,0.1263275146484375
1774470102998325500,4.223325439453125,0.1922760009765625,-0.8934478759765625,0.1263427734375
1774470103008338700,4.233338623046875,0.182952880859375,-0.9103240966796875,0.129425048828125
1774470103018351600,4.2433515625,0.142578125,-0.953948974609375,0.12738037109375
1774470103028364500,4.253364501953125,0.1114501953125,-0.97674560546875,0.1168670654296875
1774470103038377700,4.263377685546875,0.080810546875,-0.9856109619140625,0.1016082763671875
1774470103048390700,4.273390625,0.0482330322265625,-0.992340087890625,0.1088714599609375
1774470103058403800,4.28340380859375,0.0419769287109375,-1.000640869140625,0.127227783203125
1774470103068416500,4.29341650390625,-0.005279541015625,-0.9850006103515625,0.128814697265625
1774470103078429700,4.3034296875,-0.0745391845703125,-0.9788665771484375,0.1077423095703125
1774470103088442600,4.313442626953125,-0.1138916015625,-0.99884033203125,0.0955047607421875
1774470103098455600,4.32345556640625,-0.0738372802734375,-1.02288818359375,0.10601806640625
1774470103108468500,4.333468505859375,0.00726318359375,-1.018829345703125,0.106292724609375
1774470103118481700,4.343481689453125,0.0548858642578125,-0.9955596923828125,0.0985565185546875
1774470103128494800,4.353494873046875,0.05084228515625,-0.990631103515625,0.094390869140625
1774470103138507500,4.363507568359375,0.0319366455078125,-1.0047454833984375,0.10711669921875
1774470103148521700,4.373521728515625,0.0009002685546875,-0.9898681640625,0.1142578125
1774470103158534700,4.38353466796875,-0.0521087646484375,-0.9675445556640625,0.1141204833984375
1774470103168547600,4.393547607421875,-0.0688018798828125,-0.9573974609375,0.1208953857421875
1774470103178560800,4.403560791015625,-0.072265625,-0.9335174560546875,0.127410888671875
1774470103188573700,4.41357373046875,-0.090087890625,-0.8957366943359375,0.09796142578125
1774470103198586600,4.423586669921875,-0.08258056640625,-0.904083251953125,0.0832366943359375
1774470103208599600,4.433599609375,-0.0494842529296875,-0.94293212890625,0.08013916015625
1774470103218612700,4.44361279296875,-0.022308349609375,-0.9705047607421875,0.069976806640625
1774470103228625400,4.45362548828125,-0.0693359375,-1.0030059814453125,0.0367584228515625
1774470103238638600,4.463638671875,-0.12152099609375,-1.0657958984375,0.0190277099609375
1774470103248651800,4.47365185546875,-0.1157073974609375,-1.1109161376953125,0.028839111328125
1774470103258664700,4.483664794921875,-0.1512298583984375,-1.1099090576171875,0.0240631103515625
1774470103268677600,4.493677734375,-0.230712890625,-1.0970611572265625,0.0040130615234375
1774470103278690600,4.503690673828125,-0.233123779296875,-1.0852203369140625,0.0188446044921875
1774470103288703700,4.513703857421875,-0.1830291748046875,-1.06048583984375,0.0558929443359375
1774470103298716700,4.523716552734375,-0.1741180419921875,-1.018310546875,0.0635223388671875
1774470103308729600,4.5337294921875,-0.150634765625,-0.9902801513671875,0.07794189453125
1774470103318742800,4.54374267578125,-0.1393890380859375,-1.002410888671875,0.088623046875
1774470103328755700,4.553755615234375,-0.1714324951171875,-1.0361480712890625,0.060821533203125
1774470103342523600,4.567523681640625,-0.189483642578125,-1.0794830322265625,0.0366058349609375
1774470103352536600,4.57753662109375,-0.178131103515625,-1.1085205078125,0.0245361328125
1774470103362549500,4.587549560546875,-0.2457275390625,-1.11724853515625,-0.00653076171875
1774470103372562700,4.597562744140625,-0.2969818115234375,-1.14544677734375,-0.0247955322265625
1774470103382575900,4.607575927734375,-0.2513275146484375,-1.157379150390625,-0.014068603515625
1774470103392588500,4.617588623046875,-0.2055206298828125,-1.1329803466796875,-0.0062408447265625
1774470103402601700,4.627601806640625,-0.2151947021484375,-1.1125030517578125,-0.010955810546875
1774470103412614700,4.63761474609375,-0.240814208984375,-1.0818023681640625,-0.0098876953125
1774470103422627600,4.647627685546875,-0.278167724609375,-1.0374298095703125,-0.017181396484375
1774470103432640500,4.657640625,-0.3064727783203125,-1.0010833740234375,-0.0092926025390625
1774470103442653700,4.66765380859375,-0.3596038818359375,-0.97430419921875,-0.0069732666015625
1774470103452667000,4.6776669921875,-0.399444580078125,-0.9308624267578125,0.000091552734375
1774470103462679600,4.687679443359375,-0.4390106201171875,-0.8805694580078125,0.02838134765625
1774470103472692700,4.697692626953125,-0.4149932861328125,-0.9047393798828125,0.0445098876953125
1774470103482705700,4.70770556640625,-0.4224853515625,-0.9010772705078125,0.0716705322265625
1774470103492718600,4.717718505859375,-0.4553070068359375,-0.90716552734375,0.0729217529296875
1774470103502731500,4.7277314453125,-0.416229248046875,-0.9022216796875,0.0577239990234375
1774470103512744700,4.73774462890625,-0.4132537841796875,-0.83563232421875,0.04925537109375
1774470103522758000,4.7477578125,-0.4546661376953125,-0.7342987060546875,0.0688323974609375
1774470103532770600,4.7577705078125,-0.8237762451171875,-0.486968994140625,0.0580902099609375
1774470103542783700,4.76778369140625,-0.7946929931640625,-0.392852783203125,0.009521484375
1774470103552796700,4.777796630859375,-0.89874267578125,-0.3308868408203125,0.0925750732421875
1774470103562809300,4.787809326171875,-0.72894287109375,-0.3599090576171875,0.0893707275390625
1774470103572822000,4.797822021484375,-0.434600830078125,-0.415435791015625,0.037353515625
1774470103582835200,4.807835205078125,-0.4368133544921875,-0.4321746826171875,0.0625762939453125
1774470103592848100,4.81784814453125,-0.5795135498046875,-0.392333984375,0.050994873046875
1774470103602861000,4.827861083984375,-0.6788330078125,-0.3908233642578125,0.04937744140625
1774470103612874200,4.837874267578125,-0.76055908203125,-0.407623291015625,0.0386505126953125
1774470103622887200,4.84788720703125,-0.889404296875,-0.412078857421875,0.0286712646484375
1774470103632900400,4.857900390625,-0.9561767578125,-0.42352294921875,-0.0084991455078125
1774470103642913000,4.8679130859375,-0.972930908203125,-0.380767822265625,0.0172271728515625
1774470103652926200,4.87792626953125,-0.981292724609375,-0.356536865234375,0.042999267578125
1774470103662939100,4.887939208984375,-0.7842559814453125,-0.3701934814453125,-0.0123138427734375
1774470103672952000,4.8979521484375,-0.7082977294921875,-0.3934326171875,-0.0549163818359375
1774470103682965000,4.907965087890625,-0.7615966796875,-0.403167724609375,-0.0931243896484375
1774470103692978200,4.917978271484375,-0.784759521484375,-0.40081787109375,-0.099090576171875
1774470103702991400,4.927991455078125,-0.8355865478515625,-0.3656005859375,-0.0579681396484375
1774470103713004000,4.938004150390625,-0.971588134765625,-0.3152923583984375,-0.0787200927734375
1774470103723017200,4.948017333984375,-1.30828857421875,-0.177001953125,-0.148529052734375
1774470103733030100,4.958030029296875,-2.05816650390625,0.13397216796875,-0.299560546875
1774470103743043000,4.96804296875,-2.23980712890625,0.2333526611328125,-0.4202728271484375
1774470103753057300,4.978057373046875,-1.5027923583984375,-0.037750244140625,-0.29949951171875
1774470103763070200,4.9880703125,-1.0305938720703125,-0.1414337158203125,-0.0546722412109375
1774470103773083100,4.998083251953125,-0.8499908447265625,-0.098724365234375,-0.0180816650390625
1774470103783096000,5.008095947265625,-0.7234954833984375,-0.1043548583984375,-0.0083770751953125
1774470103793109200,5.018109130859375,-0.6815185546875,-0.1742095947265625,0.0287933349609375
1774470103803122000,5.028121826171875,-0.74249267578125,-0.22576904296875,0.0250244140625
1774470103813135000,5.038135009765625,-0.8475341796875,-0.2429351806640625,0.0059051513671875
1774470103823148300,5.048148193359375,-0.9164581298828125,-0.2774200439453125,0.0111541748046875
1774470103833161200,5.0581611328125,-0.9412689208984375,-0.3150787353515625,0.00848388671875
1774470103843174100,5.068174072265625,-0.992919921875,-0.3430023193359375,-0.0430908203125
1774470103853187000,5.07818701171875,-1.043182373046875,-0.3650360107421875,-0.09967041015625
1774470103863200300,5.0882001953125,-1.0565643310546875,-0.37506103515625,-0.112396240234375
1774470103873213000,5.098212890625,-1.013885498046875,-0.378997802734375,-0.135284423828125
1774470103883226000,5.10822607421875,-0.976806640625,-0.3859710693359375,-0.123291015625
1774470103893239300,5.1182392578125,-0.93585205078125,-0.392181396484375,-0.0591583251953125
1774470103903252200,5.128252197265625,-0.9258575439453125,-0.3563232421875,0.0298614501953125
1774470103913265200,5.13826513671875,-0.909271240234375,-0.2702484130859375,0.0854339599609375
1774470103923278000,5.148278076171875,-0.9395599365234375,-0.1714324951171875,0.0879669189453125
1774470103933291300,5.158291259765625,-1.0474090576171875,-0.0821685791015625,0.1208953857421875
1774470103943304000,5.168303955078125,-1.095489501953125,-0.0182952880859375,0.193328857421875
1774470103953317000,5.178317138671875,-1.033905029296875,-0.0165252685546875,0.202606201171875
1774470103963330300,5.188330322265625,-0.8945465087890625,-0.0944976806640625,0.0977325439453125
1774470103973343200,5.19834326171875,-0.84564208984375,-0.102447509765625,0.0931549072265625
1774470103983356200,5.208356201171875,-0.855712890625,-0.0485076904296875,0.133636474609375
1774470103993369000,5.218369140625,-0.918304443359375,0.00872802734375,0.116546630859375
1774470104003382300,5.22838232421875,-1.0130462646484375,0.0342864990234375,0.10430908203125
1774470104013395000,5.23839501953125,-1.096343994140625,0.0118560791015625,0.07476806640625
1774470104023408000,5.248408203125,-1.11871337890625,-0.03790283203125,0.0308685302734375
1774470104033421000,5.258421142578125,-1.072479248046875,-0.0526885986328125,0.0343780517578125
1774470104043434200,5.268434326171875,-0.982818603515625,0.016845703125,0.17584228515625
1774470104053447200,5.278447265625,-0.8580780029296875,-0.004669189453125,0.24298095703125
1774470104063460000,5.288460205078125,-0.9630279541015625,-0.1435546875,0.1387176513671875
1774470104073473300,5.298473388671875,-1.02734375,-0.2529296875,0.018768310546875
1774470104083486200,5.308486328125,-1.037994384765625,-0.2976531982421875,-0.052978515625
1774470104093499100,5.3184990234375,-1.0281219482421875,-0.304779052734375,-0.1179046630859375
1774470104103512000,5.328511962890625,-1.01873779296875,-0.3007354736328125,-0.17132568359375
1774470104113525200,5.338525146484375,-1.013671875,-0.308990478515625,-0.1927032470703125
1774470104123538200,5.3485380859375,-0.9949493408203125,-0.34649658203125,-0.210601806640625
1774470104133551000,5.358551025390625,-0.9948577880859375,-0.364715576171875,-0.2023773193359375
1774470104143564300,5.368564208984375,-1.0323486328125,-0.3425140380859375,-0.09246826171875
1774470104153577200,5.3785771484375,-1.028778076171875,-0.3078460693359375,-0.041229248046875
1774470104163590100,5.388590087890625,-1.020233154296875,-0.2619171142578125,-0.01776123046875
1774470104173603000,5.39860302734375,-0.9814605712890625,-0.2236785888671875,-0.0640716552734375
1774470104183616300,5.4086162109375,-0.998077392578125,-0.21307373046875,0.057952880859375
1774470104193629200,5.418629150390625,-1.03521728515625,-0.2224578857421875,0.2312774658203125
1774470104203642000,5.42864208984375,-1.0360260009765625,-0.227935791015625,0.3033599853515625
1774470104213655300,5.4386552734375,-0.929229736328125,-0.2002410888671875,0.270355224609375
1774470104223668200,5.448668212890625,-0.871673583984375,-0.1508636474609375,0.237945556640625
1774470104233682200,5.45868212890625,-0.9187774658203125,-0.096282958984375,0.1992950439453125
1774470104243695400,5.4686953125,-0.989715576171875,-0.0652618408203125,0.1453857421875
1774470104253708000,5.4787080078125,-1.0432891845703125,-0.06097412109375,0.086944580078125
1774470104263721200,5.48872119140625,-1.060943603515625,-0.0736846923828125,0.030609130859375
1774470104273734100,5.498734130859375,-1.0394439697265625,-0.0989990234375,-0.0321197509765625
1774470104283747000,5.5087470703125,-0.999603271484375,-0.088714599609375,-0.110687255859375
1774470104293760000,5.518760009765625,-0.9895782470703125,-0.09820556640625,-0.159912109375
1774470104303773200,5.528773193359375,-0.9983062744140625,-0.1404266357421875,-0.152557373046875
1774470104313786400,5.538786376953125,-1.0238800048828125,-0.1441802978515625,-0.1207427978515625
1774470104323799000,5.548799072265625,-1.0522003173828125,-0.1269073486328125,-0.0753631591796875
1774470104333812200,5.558812255859375,-1.05181884765625,-0.105987548828125,-0.0360260009765625
1774470104343825200,5.5688251953125,-1.0479736328125,-0.10015869140625,-0.0093841552734375
1774470104353838000,5.578838134765625,-1.0508575439453125,-0.1130828857421875,0.0096282958984375
1774470104363851000,5.58885107421875,-1.0574798583984375,-0.1379547119140625,0.0225067138671875
1774470104373864200,5.5988642578125,-1.05517578125,-0.1593475341796875,0.033294677734375
1774470104383877000,5.608877197265625,-1.0274200439453125,-0.158721923828125,0.042449951171875
1774470104393890000,5.61889013671875,-0.970458984375,-0.138275146484375,0.0406036376953125
1774470104403903200,5.6289033203125,-0.9335784912109375,-0.13055419921875,0.0099334716796875
1774470104413916200,5.638916259765625,-0.9587249755859375,-0.131195068359375,-0.05596923828125
1774470104423929000,5.64892919921875,-1.02081298828125,-0.1228790283203125,-0.12799072265625
1774470104433942000,5.65894189453125,-1.0793914794921875,-0.096160888671875,-0.173492431640625
1774470104443955200,5.668955078125,-1.1018218994140625,-0.059234619140625,-0.17822265625
1774470104453969200,5.67896923828125,-1.0818939208984375,-0.0265960693359375,-0.1531219482421875
1774470104463982000,5.688982177734375,-1.0384368896484375,-0.00714111328125,-0.1259307861328125
1774470104473995300,5.698995361328125,-0.9948272705078125,0.004974365234375,-0.1018829345703125
1774470104484008200,5.70900830078125,-0.9600677490234375,0.014251708984375,-0.080413818359375
1774470104494021000,5.719021240234375,-0.9521331787109375,0.0184783935546875,-0.0573577880859375
1774470104504034000,5.729033935546875,-0.9760894775390625,0.0082244873046875,-0.0266571044921875
1774470104514047200,5.739047119140625,-0.9886322021484375,0.0118255615234375,-0.0036468505859375
1774470104524060200,5.74906005859375,-0.9759368896484375,0.038818359375,0.0147857666015625
1774470104534073000,5.759072998046875,-1.00640869140625,-0.0082550048828125,0.0696563720703125
1774470104544086300,5.769086181640625,-1.014801025390625,-0.014404296875,0.0803680419921875
1774470104554099200,5.77909912109375,-0.95684814453125,0.0308685302734375,0.061004638671875
1774470104564112100,5.789112060546875,-0.9417724609375,0.0751190185546875,0.045166015625
1774470104574125300,5.799125244140625,-0.97314453125,0.0846099853515625,0.0234375
1774470104584138200,5.80913818359375,-0.987091064453125,0.06976318359375,0.0063018798828125
1774470104594151200,5.819151123046875,-0.96490478515625,0.019256591796875,0.0547027587890625
1774470104604165000,5.8291650390625,-0.938751220703125,-0.028411865234375,0.182159423828125
1774470104614178300,5.83917822265625,-0.888641357421875,0.0091705322265625,0.2710113525390625
1774470104624191200,5.849191162109375,-0.7780914306640625,0.103912353515625,0.2368621826171875
1774470104634204200,5.8592041015625,-0.785675048828125,0.0406646728515625,0.25787353515625
1774470104644217300,5.86921728515625,-0.927032470703125,-0.073516845703125,0.2307891845703125
1774470104654230000,5.87922998046875,-1.1583404541015625,-0.07672119140625,0.113739013671875
1774470104664243200,5.8892431640625,-1.154052734375,-0.019561767578125,-0.047943115234375
1774470104674256100,5.899256103515625,-1.0386962890625,0.035888671875,-0.1672515869140625
1774470104684269300,5.909269287109375,-1.001220703125,0.06573486328125,-0.20928955078125
1774470104694282200,5.9192822265625,-0.94158935546875,0.0934295654296875,-0.22607421875
1774470104704295200,5.929295166015625,-0.927093505859375,0.0573883056640625,-0.141815185546875
1774470104714308400,5.939308349609375,-0.914215087890625,0.030120849609375,0.0556793212890625
1774470104724322000,5.949322021484375,-0.8227996826171875,0.0698394775390625,0.181549072265625
1774470104734335200,5.959335205078125,-0.8365325927734375,0.108489990234375,0.245208740234375
1774470104744348200,5.96934814453125,-1.021331787109375,0.091552734375,0.3076019287109375
1774470104754361000,5.979361083984375,-1.1861419677734375,0.0138092041015625,0.3064727783203125
1774470104764374300,5.989374267578125,-1.1468658447265625,-0.0484619140625,0.1234588623046875
1774470104774387200,5.99938720703125,-0.911712646484375,-0.0345306396484375,-0.137451171875
1774470104784400100,6.009400146484375,-0.8953704833984375,0.028411865234375,-0.15411376953125
1774470104794413000,6.0194130859375,-1.024688720703125,-0.0254669189453125,-0.0154571533203125
1774470104804426200,6.02942626953125,-1.0613555908203125,-0.001739501953125,-0.0597076416015625
1774470104814439400,6.039439453125,-1.0328369140625,0.0382843017578125,-0.0887603759765625
1774470104824452000,6.0494521484375,-0.9604644775390625,0.023895263671875,-0.066619873046875
1774470104834466300,6.05946630859375,-0.9448394775390625,0.000091552734375,-0.220977783203125
1774470104844479000,6.06947900390625,-1.0075836181640625,-0.0388946533203125,-0.4040985107421875
1774470104854492200,6.0794921875,-1.0351409912109375,-0.01373291015625,-0.53045654296875
1774470104864505300,6.08950537109375,-1.003997802734375,0.02215576171875,-0.4960479736328125
1774470104874518300,6.099518310546875,-0.87957763671875,0.04779052734375,-0.392364501953125
1774470104884531200,6.10953125,-0.819305419921875,0.0001983642578125,-0.217193603515625
1774470104894544100,6.119544189453125,-0.8012847900390625,-0.042388916015625,-0.1889801025390625
1774470104904557300,6.129557373046875,-0.8947906494140625,-0.0501556396484375,-0.1801300048828125
1774470104914570000,6.139570068359375,-0.9357452392578125,-0.0523529052734375,-0.143280029296875
1774470104924583200,6.149583251953125,-0.91754150390625,-0.0489654541015625,-0.1418914794921875
1774470104934597400,6.159597412109375,-0.9990997314453125,-0.11505126953125,-0.1551055908203125
1774470104944610000,6.169610107421875,-1.0460205078125,-0.0507354736328125,-0.29296875
1774470104954623200,6.179623291015625,-1.072784423828125,0.085052490234375,-0.389068603515625
1774470104964636200,6.18963623046875,-1.04180908203125,0.14569091796875,-0.35614013671875
1774470104974649000,6.199649169921875,-0.963287353515625,0.17333984375,-0.312164306640625
1774470104984662300,6.209662353515625,-0.9239959716796875,0.0469970703125,-0.2281036376953125
1774470104994675200,6.21967529296875,-0.9462127685546875,-0.0940399169921875,-0.2660675048828125
1774470105004688400,6.2296884765625,-1.0069427490234375,-0.0323486328125,-0.3935546875
1774470105014701000,6.239701171875,-1.0012664794921875,0.0516510009765625,-0.4356842041015625
1774470105024715300,6.24971533203125,-1.059112548828125,0.0851287841796875,-0.4176177978515625
1774470105034728200,6.259728271484375,-1.0916595458984375,0.053314208984375,-0.21783447265625
1774470105044741000,6.2697412109375,-1.0087890625,0.0276641845703125,-0.164581298828125
1774470105054754300,6.27975439453125,-1.0117340087890625,0.0288848876953125,-0.222808837890625
1774470105064767200,6.289767333984375,-0.9751434326171875,0.01422119140625,-0.213134765625
1774470105074780200,6.2997802734375,-0.970062255859375,-0.0007476806640625,-0.1558990478515625
1774470105084793000,6.30979296875,-0.963958740234375,0.004486083984375,-0.0925140380859375
1774470105094806300,6.31980615234375,-0.9404296875,0.0185089111328125,-0.04290771484375
1774470105104820200,6.3298203125,-0.9201812744140625,0.018524169921875,-0.0202484130859375
1774470105114833200,6.339833251953125,-0.932525634765625,0.0550994873046875,-0.1393890380859375
1774470105124846300,6.349846435546875,-1.023406982421875,0.0900115966796875,-0.2229156494140625
1774470105134859000,6.35985888671875,-1.012725830078125,0.1014556884765625,-0.175933837890625
1774470105144872200,6.3698720703125,-1.0573272705078125,0.1338958740234375,-0.1248626708984375
1774470105154885400,6.379885498046875,-1.0334320068359375,0.08966064453125,-0.0099639892578125
1774470105164898000,6.38989794921875,-0.9942779541015625,0.089019775390625,-0.075164794921875
1774470105174911200,6.3999111328125,-0.920440673828125,0.10955810546875,-0.1722259521484375
1774470105184925200,6.40992529296875,-0.9276275634765625,0.1020355224609375,-0.2962646484375
1774470105194938000,6.419938232421875,-0.958282470703125,0.0803985595703125,-0.268096923828125
1774470105204951300,6.429951416015625,-0.9146881103515625,0.0922088623046875,-0.271759033203125
1774470105214964200,6.439964111328125,-1.0155487060546875,0.09735107421875,-0.2200164794921875
1774470105224977200,6.44997705078125,-0.938079833984375,0.049896240234375,-0.0928802490234375
1774470105234990000,6.459989990234375,-1.003143310546875,0.0408172607421875,-0.0424346923828125
1774470105245003300,6.470003173828125,-0.9030609130859375,-0.0249176025390625,-0.0773773193359375
1774470105255017200,6.480017333984375,-1.018951416015625,0.0211181640625,-0.1915740966796875
1774470105265030100,6.490030029296875,-0.939239501953125,0.014373779296875,-0.079742431640625
1774470105275043300,6.500043212890625,-1.0090179443359375,-0.026824951171875,-0.123992919921875
1774470105285056000,6.510055908203125,-1.0615692138671875,-0.019134521484375,-0.1163787841796875
1774470105295069200,6.520069091796875,-0.982208251953125,0.049163818359375,-0.0593109130859375
1774470105305082000,6.53008203125,-0.97100830078125,0.1083526611328125,-0.04656982421875
1774470105315095300,6.54009521484375,-0.9513092041015625,0.13287353515625,-0.0967254638671875
1774470105325109200,6.550109130859375,-0.96820068359375,0.12689208984375,-0.1265716552734375
1774470105335122200,6.5601220703125,-0.970489501953125,0.116058349609375,-0.0666046142578125
1774470105345135000,6.570135009765625,-1.0257720947265625,0.1179962158203125,0.0346221923828125
1774470105355148000,6.58014794921875,-0.955841064453125,0.1272125244140625,0.1190032958984375
1774470105365161200,6.5901611328125,-1.0303497314453125,0.157867431640625,0.02728271484375
1774470105375174400,6.60017431640625,-1.021575927734375,0.1702728271484375,-0.026885986328125
1774470105385187000,6.61018701171875,-1.019287109375,0.200347900390625,0.015899658203125
1774470105395200300,6.6202001953125,-0.918670654296875,0.22442626953125,0.0512542724609375
1774470105405214200,6.630214111328125,-0.9090118408203125,0.2271881103515625,-0.0303497314453125
1774470105415227100,6.64022705078125,-0.923553466796875,0.1753387451171875,-0.01019287109375
1774470105425240300,6.650240234375,-0.9823760986328125,0.1285858154296875,0.055816650390625
1774470105435253200,6.660253173828125,-1.043548583984375,0.1067047119140625,0.1021575927734375
1774470105445266200,6.67026611328125,-1.0770721435546875,0.0948028564453125,0.11688232421875
1774470105455279000,6.680279052734375,-1.1013336181640625,0.0831756591796875,0.071563720703125
1774470105465293000,6.69029296875,-1.1268310546875,0.074005126953125,-0.0049896240234375
1774470105475306200,6.70030615234375,-1.120361328125,0.044158935546875,-0.0695648193359375
1774470105485319200,6.710319091796875,-1.0636749267578125,0.0239105224609375,-0.075714111328125
1774470105495332400,6.720332275390625,-1.0071563720703125,0.032867431640625,-0.0688018798828125
1774470105505345000,6.730344970703125,-0.9642333984375,0.059600830078125,-0.0976104736328125
1774470105515358200,6.740358154296875,-0.9728851318359375,0.0967864990234375,-0.1633758544921875
1774470105525371100,6.75037109375,-1.0406951904296875,0.0863189697265625,-0.1898651123046875
1774470105535385000,6.760385009765625,-1.0832672119140625,0.0970458984375,-0.181793212890625
1774470105545398300,6.770398193359375,-1.0859832763671875,0.1247100830078125,-0.16558837890625
1774470105555411200,6.7804111328125,-1.0823211669921875,0.1419830322265625,-0.1437835693359375
1774470105565423900,6.790423828125,-1.0329742431640625,0.139862060546875,-0.133544921875
1774470105575437000,6.80043701171875,-0.949951171875,0.1536407470703125,-0.1518707275390625
1774470105585450000,6.810449951171875,-0.9518280029296875,0.16119384765625,-0.1616668701171875
1774470105595463000,6.820462890625,-0.9608917236328125,0.1716156005859375,-0.1535491943359375
1774470105605477000,6.83047705078125,-0.958343505859375,0.184600830078125,-0.138519287109375
1774470105615490000,6.840489990234375,-0.951751708984375,0.1669921875,-0.1222686767578125
1774470105625503000,6.8505029296875,-0.9515838623046875,0.1475372314453125,-0.1290435791015625
1774470105635516000,6.860515869140625,-0.996246337890625,0.1175689697265625,-0.1349029541015625
1774470105645529000,6.870529052734375,-0.995330810546875,0.0864105224609375,-0.1148834228515625
1774470105655542000,6.8805419921875,-0.9765777587890625,0.0736541748046875,-0.0694427490234375
1774470105665556000,6.890555908203125,-0.919219970703125,0.0781402587890625,-0.0350341796875
1774470105675569200,6.900569091796875,-0.8668975830078125,0.0908355712890625,-0.040008544921875
1774470105685581800,6.910581787109375,-0.855194091796875,0.0824127197265625,-0.1025238037109375
1774470105695595000,6.920594970703125,-0.9239349365234375,0.0805511474609375,-0.1903839111328125
1774470105705608200,6.930608154296875,-0.9718017578125,0.0782012939453125,-0.24102783203125
1774470105715621000,6.94062109375,-1.02532958984375,0.07513427734375,-0.2574615478515625
1774470105725634000,6.950634033203125,-1.0591888427734375,0.0832366943359375,-0.2584991455078125
1774470105735648000,6.96064794921875,-1.0522918701171875,0.1033935546875,-0.2410125732421875
1774470105745661000,6.970660888671875,-1.0391998291015625,0.120758056640625,-0.2222900390625
1774470105755674000,6.980674072265625,-1.010223388671875,0.1253204345703125,-0.2167510986328125
1774470105765687000,6.99068701171875,-0.9919586181640625,0.1186065673828125,-0.2166290283203125
1774470105775700000,7.000699951171875,-0.964874267578125,0.0846099853515625,-0.2002105712890625
1774470105785713000,7.010712890625,-0.9297943115234375,0.0515899658203125,-0.1866912841796875
1774470105795726000,7.02072607421875,-0.92205810546875,0.058319091796875,-0.1791534423828125
1774470105805740000,7.030739990234375,-0.920196533203125,0.056671142578125,-0.1619110107421875
1774470105815753000,7.0407529296875,-0.922943115234375,0.096923828125,-0.198211669921875
1774470105825766100,7.05076611328125,-0.97686767578125,0.1248016357421875,-0.250335693359375
1774470105835779000,7.060779052734375,-1.0412750244140625,0.135833740234375,-0.280670166015625
1774470105845792000,7.0707919921875,-1.019805908203125,0.117523193359375,-0.2700958251953125
1774470105855805000,7.080804931640625,-0.9783172607421875,0.1316375732421875,-0.221405029296875
1774470105865818000,7.090818115234375,-0.9581756591796875,0.1522979736328125,-0.1692047119140625
1774470105875832000,7.10083203125,-0.9051971435546875,0.199493408203125,-0.1760101318359375
1774470105885845000,7.110844970703125,-0.9883880615234375,0.2274017333984375,-0.1236724853515625
1774470105895858200,7.120858154296875,-1.046417236328125,0.18792724609375,-0.087158203125
1774470105905870800,7.130870849609375,-1.0092010498046875,0.155975341796875,-0.09033203125
1774470105915884000,7.140884033203125,-1.0197296142578125,0.1263580322265625,-0.0830841064453125
1774470105925897200,7.150897216796875,-1.0748748779296875,0.0850067138671875,-0.0907745361328125
1774470105935910000,7.160909912109375,-1.0872039794921875,0.058074951171875,-0.114105224609375
1774470105945924000,7.170924072265625,-1.0224761962890625,0.06292724609375,-0.1362762451171875
1774470105955937000,7.18093701171875,-0.9769134521484375,0.11297607421875,-0.114166259765625
1774470105965950000,7.190949951171875,-0.9709625244140625,0.159515380859375,-0.118194580078125
1774470105975963100,7.200963134765625,-0.8851470947265625,0.1310272216796875,-0.2143096923828125
1774470105985976000,7.21097607421875,-0.8601837158203125,0.139190673828125,-0.2703704833984375
1774470105995989000,7.220989013671875,-0.97705078125,0.20086669921875,-0.34307861328125
1774470106006002000,7.231001953125,-1.072723388671875,0.242279052734375,-0.38458251953125
1774470106016016100,7.24101611328125,-1.040313720703125,0.244842529296875,-0.366485595703125
1774470106026029000,7.251029052734375,-0.9213714599609375,0.2406005859375,-0.3001556396484375
1774470106036042000,7.2610419921875,-0.8809661865234375,0.2288665771484375,-0.20208740234375
1774470106046055200,7.27105517578125,-0.89453125,0.2246551513671875,-0.1285858154296875
1774470106056067800,7.28106787109375,-0.9244537353515625,0.232574462890625,-0.1031494140625
1774470106066081000,7.2910810546875,-0.954559326171875,0.2332305908203125,-0.1106414794921875
1774470106076094000,7.301093994140625,-0.9777679443359375,0.2004852294921875,-0.11798095703125
1774470106086108000,7.31110791015625,-1.0118255615234375,0.1236724853515625,-0.1534881591796875
1774470106096121000,7.32112109375,-0.9879608154296875,0.1317138671875,-0.1688079833984375
1774470106106134000,7.331134033203125,-0.9501953125,0.14422607421875,-0.182159423828125
1774470106116147000,7.34114697265625,-0.8920745849609375,0.1395263671875,-0.1869049072265625
1774470106126160100,7.35116015625,-0.858184814453125,0.1562347412109375,-0.1799468994140625
1774470106136173000,7.361173095703125,-0.889556884765625,0.169830322265625,-0.163116455078125
1774470106146186200,7.371186279296875,-0.971221923828125,0.1658935546875,-0.1501312255859375
1774470106156200000,7.381199951171875,-1.0808868408203125,0.079559326171875,-0.20574951171875
1774470106166213000,7.391213134765625,-1.0325469970703125,0.0952301025390625,-0.1902008056640625
1774470106176226000,7.40122607421875,-0.983673095703125,0.1145477294921875,-0.14154052734375
1774470106186239000,7.411239013671875,-0.9314422607421875,0.15716552734375,-0.067962646484375
1774470106196252200,7.421252197265625,-0.9534454345703125,0.1381378173828125,-0.0494384765625
1774470106206265000,7.43126513671875,-0.9581756591796875,0.086090087890625,-0.057708740234375
1774470106216278000,7.441278076171875,-0.9541473388671875,0.04901123046875,-0.0666961669921875
1774470106226291000,7.451291015625,-0.94244384765625,0.0179290771484375,-0.0763092041015625
1774470106236305000,7.461304931640625,-0.9403228759765625,-0.06072998046875,-0.1752777099609375
1774470106246318000,7.471318115234375,-0.875823974609375,0.04681396484375,-0.2107391357421875
1774470106256331000,7.4813310546875,-0.8237457275390625,0.1819000244140625,-0.17718505859375
1774470106266344200,7.49134423828125,-0.84051513671875,0.2049102783203125,-0.18072509765625
1774470106276356900,7.50135693359375,-0.9321746826171875,0.23687744140625,-0.1537322998046875
1774470106286370000,7.5113701171875,-1.03302001953125,0.258758544921875,-0.0688018798828125
1774470106296383200,7.52138330078125,-1.0569915771484375,0.25,0.002166748046875
1774470106306397000,7.53139697265625,-0.96917724609375,0.263214111328125,-0.0036773681640625
1774470106316410000,7.54141015625,-0.9080810546875,0.2451629638671875,-0.082855224609375
1774470106326423000,7.551423095703125,-0.901641845703125,0.1922149658203125,-0.19976806640625
1774470106336436000,7.56143603515625,-0.9351654052734375,0.115386962890625,-0.31787109375
1774470106346449200,7.57144921875,-0.9378509521484375,0.0434112548828125,-0.385589599609375
1774470106356462000,7.581462158203125,-0.936248779296875,-0.009490966796875,-0.3893280029296875
1774470106366475000,7.59147509765625,-0.9658660888671875,-0.0110321044921875,-0.35693359375
1774470106376488000,7.601488037109375,-1.01702880859375,0.028594970703125,-0.3131103515625
1774470106386502100,7.611502197265625,-1.055816650390625,0.0449981689453125,-0.2651824951171875
1774470106396515000,7.62151513671875,-1.0431060791015625,0.087615966796875,-0.2030029296875
1774470106406528000,7.631528076171875,-1.01654052734375,0.130401611328125,-0.190277099609375
1774470106416541200,7.641541259765625,-0.992919921875,0.12091064453125,-0.245330810546875
1774470106426553900,7.651553955078125,-0.9572601318359375,0.041534423828125,-0.3185272216796875
1774470106436567000,7.661567138671875,-0.90142822265625,0.0022735595703125,-0.3398895263671875
1774470106446580000,7.671580078125,-0.908203125,-0.01654052734375,-0.3112945556640625
1774470106456593200,7.68159326171875,-0.9581756591796875,-0.0777130126953125,-0.275054931640625
1774470106466607000,7.691607177734375,-1.0130462646484375,-0.1361846923828125,-0.2218780517578125
1774470106476620000,7.7016201171875,-1.0642242431640625,-0.1413116455078125,-0.16448974609375
1774470106486633000,7.711633056640625,-1.0782623291015625,-0.116729736328125,-0.1178741455078125
1774470106496646000,7.72164599609375,-1.0685272216796875,-0.0976104736328125,-0.0995635986328125
1774470106506659000,7.7316591796875,-1.0470123291015625,-0.08599853515625,-0.09130859375
1774470106516672300,7.74167236328125,-1.0104827880859375,-0.0568695068359375,-0.05914306640625
1774470106526685000,7.751684814453125,-1.009674072265625,-0.0325927734375,0.0106353759765625
1774470106536698000,7.761697998046875,-1.033843994140625,-0.026275634765625,0.064208984375
1774470106546711800,7.7717119140625,-1.03399658203125,-0.0514984130859375,0.0193939208984375
1774470106556725000,7.78172509765625,-1.02703857421875,-0.0970306396484375,-0.093017578125
1774470106566738000,7.791738037109375,-0.980377197265625,-0.1107025146484375,-0.2238311767578125
1774470106576751000,7.801751220703125,-0.9283447265625,-0.1015777587890625,-0.3410186767578125
1774470106586763800,7.811763671875,-0.926849365234375,-0.02789306640625,-0.3962860107421875
1774470106596777000,7.82177685546875,-0.9874725341796875,0.0692596435546875,-0.36883544921875
1774470106606790000,7.831789794921875,-1.0308837890625,0.13665771484375,-0.3221893310546875
1774470106616802800,7.841802734375,-1.0208282470703125,0.1316070556640625,-0.3144073486328125
1774470106626817000,7.851817138671875,-0.9694061279296875,0.0679931640625,-0.3225250244140625
1774470106636830000,7.861829833984375,-0.92022705078125,0.0189361572265625,-0.2913360595703125
1774470106646843000,7.8718427734375,-0.914459228515625,-0.028533935546875,-0.2478485107421875
1774470106656855800,7.881855712890625,-0.94012451171875,-0.0766754150390625,-0.248931884765625
1774470106666869000,7.891868896484375,-0.9792022705078125,-0.0847930908203125,-0.2927093505859375
1774470106676881700,7.901881591796875,-0.993927001953125,-0.0679168701171875,-0.3428955078125
1774470106686894800,7.911894775390625,-0.9857177734375,-0.054290771484375,-0.3369598388671875
1774470106696908000,7.921907958984375,-0.9679718017578125,-0.0609588623046875,-0.2994537353515625
1774470106706921000,7.9319208984375,-0.953094482421875,-0.073486328125,-0.2872467041015625
1774470106716935000,7.941934814453125,-0.953582763671875,-0.1124420166015625,-0.29486083984375
1774470106726947800,7.95194775390625,-0.98101806640625,-0.1622161865234375,-0.261322021484375
1774470106736960800,7.961960693359375,-0.98443603515625,-0.159454345703125,-0.2301025390625
1774470106746974000,7.971973876953125,-1.0117950439453125,-0.072418212890625,-0.1938629150390625
1774470106756987000,7.98198681640625,-1.0501556396484375,-0.0073394775390625,-0.143035888671875
1774470106767000000,7.992,-1.031005859375,0.006317138671875,-0.1239013671875
1774470106777012700,8.0020126953125,-1.02447509765625,0.0015411376953125,-0.1680450439453125
1774470106787026000,8.01202587890625,-1.0426025390625,-0.07183837890625,-0.14947509765625
1774470106797039900,8.022039794921875,-1.0589141845703125,-0.1029815673828125,-0.1448822021484375
1774470106807052800,8.032052734375,-1.07861328125,-0.052001953125,-0.139251708984375
1774470106817066000,8.04206591796875,-1.0764007568359375,-0.0228271484375,-0.0695648193359375
1774470106827079000,8.052078857421876,-1.0587005615234375,0.027618408203125,0.0326385498046875
1774470106837091800,8.062091796875,-1.012054443359375,0.0587158203125,0.1561737060546875
1774470106847104800,8.072104736328125,-0.990753173828125,0.0555267333984375,0.213836669921875
1774470106857118000,8.082117919921876,-1.0186004638671875,0.0524444580078125,0.184661865234375
1774470106867131000,8.092130859375,-1.06170654296875,0.007110595703125,0.1602020263671875
1774470106877144800,8.102144775390625,-1.011383056640625,-0.070404052734375,0.247894287109375
1774470106887158000,8.112157958984374,-0.906219482421875,-0.06121826171875,0.3310089111328125
1774470106897171000,8.1221708984375,-0.708221435546875,-0.0599365234375,0.4427337646484375
1774470106907183900,8.132183837890626,-0.5804443359375,-0.1087646484375,0.4291839599609375
1774470106917197000,8.142197021484375,-0.73797607421875,-0.127410888671875,0.158111572265625
1774470106927209700,8.152209716796875,-0.96453857421875,-0.0857391357421875,-0.2930450439453125
1774470106937223000,8.162222900390624,-1.042205810546875,-0.015625,-0.552703857421875
1774470106947235800,8.17223583984375,-0.9758148193359375,-0.006195068359375,-0.5142974853515625
1774470106957249800,8.182249755859376,-0.9246368408203125,-0.0606689453125,-0.3067169189453125
1774470106967263000,8.192262939453125,-0.9411773681640625,-0.112152099609375,-0.149444580078125
1774470106977276000,8.20227587890625,-0.9704437255859375,-0.112152099609375,-0.1614227294921875
1774470106987288800,8.212288818359376,-0.9756622314453125,-0.020751953125,-0.2642822265625
1774470106997301800,8.2223017578125,-0.9625091552734375,0.0845794677734375,-0.3381500244140625
1774470107007315000,8.23231494140625,-0.989105224609375,0.1465606689453125,-0.3564300537109375
1774470107017327900,8.242327880859374,-0.995147705078125,0.1674346923828125,-0.3120880126953125
1774470107027340800,8.2523408203125,-0.9445648193359375,0.136016845703125,-0.23175048828125
1774470107037355000,8.26235498046875,-0.89764404296875,0.0820159912109375,-0.151275634765625
1774470107047368000,8.272367919921875,-0.8817596435546875,0.032012939453125,-0.082275390625
1774470107057380900,8.282380859375,-0.9178314208984375,-0.0236358642578125,-0.0115203857421875
1774470107067394000,8.29239404296875,-0.963348388671875,-0.1049346923828125,0.007232666015625
1774470107077407000,8.302406982421875,-0.9903411865234375,-0.155242919921875,-0.02947998046875
1774470107087420000,8.312419921875,-0.983062744140625,-0.1332244873046875,-0.08489990234375
1774470107097432800,8.322432861328124,-0.9750823974609375,-0.0657196044921875,-0.1318206787109375
1774470107107446000,8.332446044921875,-0.9639434814453125,-0.0244598388671875,-0.1406097412109375
1774470107117460000,8.3424599609375,-1.0013885498046875,0.0021209716796875,-0.109649658203125
1774470107127473000,8.352472900390625,-1.018890380859375,0.0413360595703125,-0.0716400146484375
1774470107137486000,8.362486083984376,-1.004730224609375,0.0662689208984375,-0.08319091796875
1774470107147498800,8.372498779296874,-1.0141448974609375,0.05078125,-0.1773529052734375
1774470107157512000,8.382511962890625,-1.009613037109375,0.010894775390625,-0.2968902587890625
1774470107167524900,8.39252490234375,-0.97314453125,-0.044952392578125,-0.33233642578125
1774470107177537800,8.402537841796875,-1.005035400390625,-0.0861358642578125,-0.2973480224609375
1774470107187550700,8.41255078125,-1.0367431640625,-0.0905303955078125,-0.2664337158203125
1774470107197564000,8.42256396484375,-1.0703277587890625,-0.13031005859375,-0.2496185302734375
1774470107207577900,8.432577880859375,-1.0871734619140625,-0.1660003662109375,-0.272857666015625
1774470107217590800,8.4425908203125,-1.071990966796875,-0.1322784423828125,-0.2731170654296875
1774470107227604000,8.45260400390625,-1.050048828125,-0.0499420166015625,-0.227294921875
1774470107237617000,8.462616943359375,-1.0865478515625,-0.0352783203125,-0.1417694091796875
1774470107247629800,8.4726298828125,-1.0922088623046875,-0.0400848388671875,-0.154144287109375
1774470107257643000,8.48264306640625,-1.106201171875,-0.0033416748046875,-0.2489013671875
1774470107267656000,8.492656005859375,-1.1189422607421875,0.0008087158203125,-0.257049560546875
1774470107277670000,8.502669921875,-1.0677947998046875,-0.0099029541015625,-0.222991943359375
1774470107287683000,8.51268310546875,-1.099884033203125,0.02490234375,-0.1878204345703125
1774470107297696000,8.522696044921876,-1.1089019775390625,0.0455780029296875,-0.1197509765625
1774470107307709000,8.532708984375,-1.033233642578125,0.0584259033203125,0.0495147705078125
1774470107317721900,8.542721923828125,-1.02093505859375,0.0261383056640625,0.1026458740234375
1774470107327735000,8.552735107421874,-1.13848876953125,0.03143310546875,0.0510406494140625
1774470107337747700,8.562747802734375,-1.077789306640625,0.02752685546875,0.0749969482421875
1774470107347761000,8.572760986328126,-0.9323272705078125,0.0043182373046875,0.0037994384765625
1774470107357774000,8.582774169921874,-0.9614410400390625,0.0059356689453125,-0.11785888671875
1774470107367787800,8.592787841796875,-1.0164031982421875,0.035614013671875,-0.140350341796875
1774470107377801000,8.602801025390624,-0.9944305419921875,0.0534820556640625,-0.027984619140625
1774470107387814000,8.61281396484375,-0.947967529296875,0.0746307373046875,0.09130859375
1774470107397826800,8.622826904296875,-0.9207000732421875,0.0733795166015625,0.11669921875
1774470107407840000,8.632840087890624,-0.967132568359375,0.0732421875,0.0734405517578125
1774470107417853000,8.64285302734375,-0.9620208740234375,0.06866455078125,0.048919677734375
1774470107427865900,8.652865966796876,-0.946533203125,0.070159912109375,0.032257080078125
1774470107437878800,8.662878662109375,-0.924896240234375,0.08392333984375,0.0857086181640625
1774470107447893000,8.67289306640625,-0.8621063232421875,0.0993499755859375,0.042388916015625
1774470107457906000,8.682906005859374,-0.9342193603515625,0.10302734375,-0.019012451171875
1774470107467918800,8.6929189453125,-0.9803009033203125,0.07977294921875,0.0041656494140625
1774470107477932000,8.70293212890625,-0.96221923828125,0.076934814453125,0.0186309814453125
1774470107487945000,8.712945068359375,-0.9790802001953125,0.0890655517578125,0.0005950927734375
1774470107497958000,8.7229580078125,-0.9620208740234375,0.10015869140625,0.0283050537109375
1774470107507970800,8.732970703125,-0.92718505859375,0.1131744384765625,0.1074371337890625
1774470107517984000,8.74298388671875,-0.951507568359375,0.1213836669921875,0.1541748046875
1774470107527997000,8.752996826171875,-0.97418212890625,0.1511077880859375,0.169891357421875
1774470107538011000,8.763010986328124,-0.9515533447265625,0.1602325439453125,0.105377197265625
1774470107548024000,8.773024169921875,-1.01629638671875,0.16845703125,0.0935516357421875
1774470107558036700,8.78303662109375,-0.97625732421875,0.1706085205078125,0.1638641357421875
1774470107568051000,8.793051025390625,-1.0216217041015625,0.1428680419921875,0.1332244873046875
1774470107578063600,8.803063720703125,-1.0148468017578125,0.130035400390625,0.1363525390625
1774470107588076800,8.813076904296874,-0.98480224609375,0.125213623046875,0.1591796875
1774470107598090000,8.823090087890625,-1.0005340576171875,0.1456146240234375,0.194976806640625
1774470107608103000,8.83310302734375,-1.0091705322265625,0.16937255859375,0.229827880859375
1774470107618116900,8.843116943359375,-0.982086181640625,0.184417724609375,0.235809326171875
1774470107628129800,8.8531298828125,-0.9843597412109375,0.1932220458984375,0.211090087890625
1774470107638142700,8.863142822265624,-0.9977569580078125,0.1810150146484375,0.1465301513671875
1774470107648156000,8.873156005859375,-1.011383056640625,0.1559295654296875,0.11297607421875
1774470107658168800,8.8831689453125,-1.0071258544921875,0.1547698974609375,0.141815185546875
1774470107668182000,8.89318212890625,-1.0240478515625,0.18487548828125,0.1598968505859375
1774470107678194700,8.903194580078125,-1.0191802978515625,0.201324462890625,0.1439056396484375
1774470107688208000,8.913207763671876,-0.9717254638671875,0.2116546630859375,0.144378662109375
1774470107698221800,8.923221923828125,-0.938201904296875,0.2037353515625,0.168182373046875
1774470107708234800,8.93323486328125,-0.959320068359375,0.1878509521484375,0.210113525390625
1774470107718248000,8.943248046875,-0.978759765625,0.17236328125,0.2286834716796875
1774470107728260900,8.9532607421875,-0.977081298828125,0.157684326171875,0.22503662109375
1774470107738273800,8.963273681640626,-0.97015380859375,0.1402587890625,0.2030487060546875
1774470107748286700,8.97328662109375,-0.9119110107421875,0.1482086181640625,0.1903533935546875
1774470107758300000,8.9832998046875,-0.8413543701171875,0.180450439453125,0.170074462890625
1774470107768312800,8.993312744140624,-0.8492584228515625,0.1823272705078125,0.170074462890625
1774470107778325800,9.00332568359375,-0.894073486328125,0.16583251953125,0.2112579345703125
1774470107788340000,9.013340087890626,-0.920562744140625,0.169219970703125,0.23504638671875
1774470107798352600,9.0233525390625,-0.9264984130859375,0.1811676025390625,0.2416839599609375
1774470107808365800,9.03336572265625,-0.90423583984375,0.191864013671875,0.2801666259765625
1774470107818379000,9.04337890625,-0.8885650634765625,0.2129364013671875,0.3258819580078125
1774470107828391700,9.0533916015625,-0.8931121826171875,0.2497711181640625,0.3365631103515625
1774470107838404900,9.06340478515625,-0.9233856201171875,0.2727508544921875,0.2924041748046875
1774470107848417800,9.073417724609374,-0.9630889892578125,0.2399139404296875,0.2054901123046875
1774470107858431000,9.083430908203125,-0.9783782958984375,0.1770172119140625,0.12030029296875
1774470107868443600,9.093443603515626,-0.9467315673828125,0.14337158203125,0.082763671875
1774470107878457900,9.103457763671875,-0.90423583984375,0.1412506103515625,0.0810546875
1774470107888470800,9.113470703125,-0.908050537109375,0.13775634765625,0.1116180419921875
1774470107898483700,9.123483642578124,-0.928802490234375,0.148193359375,0.16650390625
1774470107908497000,9.133496826171875,-0.954864501953125,0.16259765625,0.2020263671875
1774470107918509800,9.143509765625,-1.0028228759765625,0.1558380126953125,0.1952362060546875
1774470107928522800,9.153522705078124,-1.031829833984375,0.1445159912109375,0.160064697265625
1774470107938536000,9.163535888671875,-1.031219482421875,0.1356048583984375,0.1054534912109375
1774470107948548900,9.173548828125,-0.970947265625,0.1290283203125,0.0889434814453125
1774470107958561800,9.183561767578125,-0.9292755126953125,0.144683837890625,0.132965087890625
1774470107968575700,9.19357568359375,-0.9671173095703125,0.17987060546875,0.1835479736328125
1774470107978589000,9.2035888671875,-0.9770050048828125,0.2248382568359375,0.2095184326171875
1774470107988601900,9.213601806640625,-1.0020294189453125,0.2391815185546875,0.209320068359375
1774470107998614800,9.22361474609375,-1.07513427734375,0.207061767578125,0.1787567138671875
1774470108008628000,9.2336279296875,-1.08197021484375,0.1624603271484375,0.155242919921875
1774470108018640600,9.243640625,-1.0325775146484375,0.14837646484375,0.1827239990234375
1774470108028653800,9.25365380859375,-1.001800537109375,0.1663055419921875,0.2201385498046875
1774470108038666800,9.263666748046875,-0.9534759521484375,0.203216552734375,0.2483673095703125
1774470108048680000,9.273679931640626,-0.90338134765625,0.2174224853515625,0.299560546875
1774470108058694000,9.28369384765625,-0.8907012939453125,0.259674072265625,0.32269287109375
1774470108068706800,9.293706787109375,-0.892852783203125,0.28070068359375,0.3143463134765625
1774470108078719700,9.3037197265625,-0.92071533203125,0.2371826171875,0.3009185791015625
1774470108088732700,9.313732666015625,-0.9693145751953125,0.174224853515625,0.2859344482421875
1774470108098745900,9.323745849609375,-0.987548828125,0.13153076171875,0.278472900390625
1774470108108759000,9.333759033203124,-1.0045318603515625,0.118988037109375,0.2699127197265625
1774470108118771700,9.343771728515625,-1.040435791015625,0.145904541015625,0.27532958984375
1774470108128785000,9.353784912109376,-1.1604766845703125,0.177734375,0.23712158203125
1774470108138797800,9.3637978515625,-1.23699951171875,0.1996307373046875,0.1243743896484375
1774470108148811800,9.373811767578125,-1.1226348876953125,0.19305419921875,-0.0341033935546875
1774470108158825000,9.383824951171874,-0.9785308837890625,0.1372833251953125,-0.13043212890625
1774470108168838000,9.393837890625,-0.8984832763671875,0.1182861328125,-0.12762451171875
1774470108178850800,9.403850830078126,-0.8726959228515625,0.161407470703125,-0.0333251953125
1774470108188863700,9.41386376953125,-0.874237060546875,0.2300262451171875,0.1303253173828125
1774470108198877000,9.423876953125,-0.9404144287109375,0.25372314453125,0.2183990478515625
1774470108208889600,9.4338896484375,-0.9597930908203125,0.23565673828125,0.2198028564453125
1774470108218902800,9.44390283203125,-0.8921661376953125,0.254119873046875,0.2417755126953125
1774470108228916000,9.453916015625,-0.8974151611328125,0.2807464599609375,0.278289794921875
1774470108238929000,9.463928955078124,-0.9262542724609375,0.2212677001953125,0.305511474609375
1774470108248942800,9.47394287109375,-0.882232666015625,0.2120513916015625,0.3312835693359375
1774470108258955800,9.483955810546876,-0.8433837890625,0.2473297119140625,0.3584747314453125
1774470108268968700,9.49396875,-0.8036651611328125,0.27362060546875,0.367034912109375
1774470108278982000,9.50398193359375,-0.7830810546875,0.2876739501953125,0.3407440185546875
1774470108288994800,9.513994873046874,-0.781280517578125,0.298583984375,0.280975341796875
1774470108299008000,9.524008056640625,-0.8120269775390625,0.277618408203125,0.2138519287109375
1774470108309020700,9.534020751953125,-0.8811798095703125,0.2288970947265625,0.1550140380859375
1774470108319033900,9.544033935546874,-0.9355926513671875,0.19659423828125,0.0991363525390625
1774470108329046800,9.554046875,-0.9845428466796875,0.1818084716796875,0.0312347412109375
1774470108339060700,9.564060791015624,-1.00067138671875,0.1562957763671875,-0.032745361328125
1774470108349074000,9.574073974609375,-0.970428466796875,0.132965087890625,-0.05804443359375
1774470108359086800,9.5840869140625,-0.9334716796875,0.1386871337890625,-0.04351806640625
1774470108369099800,9.594099853515624,-0.929290771484375,0.138641357421875,-0.0017547607421875
1774470108379112700,9.60411279296875,-0.9466094970703125,0.1478424072265625,0.0372467041015625
1774470108389126000,9.6141259765625,-0.9800567626953125,0.1844024658203125,0.063323974609375
1774470108399138800,9.624138916015625,-1.040283203125,0.1771240234375,0.0671844482421875
1774470108409151700,9.63415185546875,-1.0632171630859375,0.0995025634765625,0.0212554931640625
1774470108419165000,9.6441650390625,-1.0291748046875,0.02886962890625,-0.023345947265625
1774470108429177900,9.654177734375,-1.0464324951171875,0.1140594482421875,-0.0101470947265625
1774470108439191800,9.66419189453125,-0.9805908203125,0.154815673828125,0.0024871826171875
1774470108449205000,9.674205078125,-0.89306640625,0.1434173583984375,0.0911102294921875
1774470108459217700,9.6842177734375,-0.90570068359375,0.1956024169921875,0.154815673828125
1774470108469230800,9.69423095703125,-0.985748291015625,0.2118988037109375,0.127777099609375
1774470108479243800,9.704243896484375,-1.0741424560546875,0.1943206787109375,0.0759124755859375
1774470108489257000,9.714257080078125,-1.0536041259765625,0.2306060791015625,0.0264129638671875
1774470108499269600,9.72426953125,-1.0009918212890625,0.2435760498046875,-0.004547119140625
1774470108509282800,9.73428271484375,-0.9814605712890625,0.206695556640625,-0.037628173828125
1774470108519296000,9.7442958984375,-0.985382080078125,0.196380615234375,-0.076080322265625
1774470108529308700,9.75430859375,-1.0045166015625,0.1845550537109375,-0.1230010986328125
1774470108539323000,9.764322998046875,-0.999359130859375,0.15509033203125,-0.1380462646484375
1774470108549335800,9.774335693359374,-0.9717559814453125,0.149200439453125,-0.1139373779296875
1774470108559348700,9.7843486328125,-0.96246337890625,0.1627655029296875,-0.0839996337890625
1774470108569361200,9.794361083984375,-0.9686737060546875,0.157379150390625,-0.0585174560546875
1774470108579374300,9.804374267578124,-0.98675537109375,0.1494903564453125,-0.04852294921875
1774470108589387300,9.81438720703125,-1.006622314453125,0.1528167724609375,-0.0482635498046875
1774470108599400200,9.824400146484376,-1.01361083984375,0.138702392578125,-0.0535888671875
1774470108609413400,9.834413330078124,-1.02154541015625,0.105499267578125,-0.05157470703125
1774470108619426300,9.84442626953125,-1.04644775390625,0.08123779296875,-0.051483154296875
1774470108629439200,9.854439208984376,-1.0882415771484375,0.0308837890625,-0.0965576171875
1774470108639453200,9.864453125,-1.0838775634765625,0.0071868896484375,-0.1485595703125
1774470108649466400,9.87446630859375,-1.058990478515625,0.0355987548828125,-0.1661834716796875
1774470108659479300,9.884479248046874,-1.082763671875,0.02716064453125,-0.1510467529296875
1774470108669492200,9.8944921875,-1.0611114501953125,0.0487213134765625,-0.1347808837890625
1774470108679505400,9.90450537109375,-1.037445068359375,0.0133209228515625,-0.10418701171875
1774470108689518300,9.914518310546875,-0.962615966796875,-0.020416259765625,-0.0372772216796875
1774470108699531300,9.92453125,-0.8455047607421875,0.0263519287109375,0.094512939453125
1774470108709544200,9.934544189453124,-0.765838623046875,0.117156982421875,0.295013427734375
1774470108719557400,9.944557373046875,-0.6783294677734375,0.1979827880859375,0.53558349609375
1774470108729570300,9.9545703125,-1.189361572265625,0.4417572021484375,0.382293701171875
1774470108739584300,9.964584228515625,-1.0406341552734375,0.236724853515625,-0.1202850341796875
1774470108749597200,9.97459716796875,-1.1518096923828125,0.1138763427734375,-0.108917236328125
1774470108759610000,9.984610107421876,-1.0697479248046875,0.0948944091796875,-0.214599609375
1774470108769623300,9.994623291015625,-0.9549102783203125,0.07147216796875,-0.1357269287109375
1774470108779636500,10.004636474609375,-0.9493560791015625,0.082183837890625,0.02301025390625
1774470108789649200,10.014649169921874,-1.0218505859375,0.1646575927734375,0.0435028076171875
1774470108799662300,10.024662353515625,-0.960693359375,0.1636199951171875,-0.0067901611328125
1774470108809675300,10.03467529296875,-0.8866424560546875,0.246826171875,0.028900146484375
1774470108819688400,10.0446884765625,-0.8961029052734375,0.318267822265625,0.1011505126953125
1774470108829701000,10.054701171875,-0.92877197265625,0.3419952392578125,0.1736907958984375
1774470108839714300,10.06471435546875,-0.9513702392578125,0.3524017333984375,0.26654052734375
1774470108849728300,10.074728271484375,-0.9922943115234375,0.265045166015625,0.2979583740234375
1774470108859741200,10.0847412109375,-0.953369140625,0.2495574951171875,0.4104766845703125
1774470108869754400,10.09475439453125,-0.979583740234375,0.2874908447265625,0.4864349365234375
1774470108879767300,10.104767333984375,-0.9661102294921875,0.2628631591796875,0.530548095703125
1774470108889780200,10.1147802734375,-0.9761199951171875,0.198577880859375,0.468902587890625
1774470108899793400,10.12479345703125,-0.9583892822265625,0.1403961181640625,0.3291778564453125
1774470108909806300,10.134806396484375,-0.9706268310546875,0.0975799560546875,0.1906280517578125
1774470108919819300,10.1448193359375,-1.0270233154296875,0.0386962890625,0.0391693115234375
1774470108929832200,10.154832275390625,-0.9893035888671875,0.0427398681640625,-0.001312255859375
1774470108939845400,10.164845458984376,-0.949981689453125,0.123931884765625,0.0808563232421875
1774470108949859300,10.174859375,-0.966766357421875,0.187286376953125,0.167724609375
1774470108959872300,10.184872314453125,-0.9579010009765625,0.235687255859375,0.2006072998046875
1774470108969885400,10.194885498046874,-0.9325103759765625,0.27325439453125,0.20977783203125
1774470108979898000,10.204898193359375,-0.915283203125,0.265777587890625,0.24578857421875
1774470108989911300,10.214911376953125,-0.9110565185546875,0.2856292724609375,0.2963714599609375
1774470108999924200,10.22492431640625,-0.9210205078125,0.2884674072265625,0.2905731201171875
1774470109009937400,10.2349375,-0.894378662109375,0.3085784912109375,0.2839202880859375
1774470109019950300,10.244950439453126,-0.8774261474609375,0.3524169921875,0.251800537109375
1774470109029963300,10.25496337890625,-0.933624267578125,0.20599365234375,0.2350006103515625
1774470109039976400,10.2649765625,-0.9412689208984375,0.1149139404296875,0.195953369140625
1774470109049989000,10.274989013671876,-0.8829498291015625,0.25,0.2962799072265625
1774470109060003300,10.28500341796875,-1.0063934326171875,0.172088623046875,0.3167266845703125
1774470109070016500,10.2950166015625,-1.0721588134765625,-0.024169921875,0.2310791015625
1774470109080029200,10.305029296875,-0.961212158203125,0.0192108154296875,0.18536376953125
1774470109090042400,10.31504248046875,-0.9522705078125,0.1619720458984375,0.02618408203125
1774470109100055300,10.32505517578125,-0.93682861328125,0.1626739501953125,-0.180206298828125
1774470109110068200,10.335068115234375,-0.8792266845703125,0.076568603515625,-0.290252685546875
1774470109120081200,10.3450810546875,-0.892791748046875,0.0977630615234375,-0.3235931396484375
1774470109130094300,10.35509423828125,-0.9172210693359375,0.1638031005859375,-0.276641845703125
1774470109140107500,10.365107421875,-1.0408782958984375,0.22564697265625,-0.127960205078125
1774470109150120200,10.3751201171875,-1.179107666015625,0.322784423828125,0.4101715087890625
1774470109160133400,10.38513330078125,-1.0896759033203125,0.2597808837890625,0.6573028564453125
1774470109170147000,10.39514697265625,-1.034423828125,0.1379547119140625,0.48736572265625
1774470109180160300,10.40516015625,-0.986114501953125,0.0962066650390625,0.1800537109375
1774470109190173400,10.41517333984375,-0.9316253662109375,0.1606292724609375,-0.0349578857421875
1774470109200186400,10.425186279296875,-0.95135498046875,0.1925048828125,-0.1926727294921875
1774470109210199300,10.43519921875,-0.9560394287109375,0.143890380859375,-0.2093048095703125
1774470109220212200,10.445212158203125,-0.9527740478515625,0.101715087890625,-0.1195068359375
1774470109230225400,10.455225341796876,-0.92388916015625,0.1030426025390625,-0.0571136474609375
1774470109240238000,10.465238037109375,-0.9342803955078125,0.1296234130859375,-0.032379150390625
1774470109250251300,10.475251220703125,-0.9202728271484375,0.117767333984375,-0.03460693359375
1774470109260264200,10.48526416015625,-0.94140625,0.09844970703125,-0.105743408203125
1774470109270277400,10.49527734375,-1.0011444091796875,0.031036376953125,-0.267181396484375
1774470109280291300,10.505291259765626,-0.9865264892578125,0.02301025390625,-0.3279571533203125
1774470109290304300,10.51530419921875,-1.01776123046875,0.0729827880859375,-0.31146240234375
1774470109300317200,10.525317138671875,-1.05426025390625,0.078643798828125,-0.24798583984375
1774470109310330400,10.535330322265626,-1.042816162109375,0.05224609375,-0.1327667236328125
1774470109320343300,10.54534326171875,-1.02325439453125,0.031005859375,-0.038421630859375
1774470109330356500,10.5553564453125,-1.00872802734375,0.030548095703125,0.0059661865234375
1774470109340369200,10.565369140625,-1.01470947265625,0.062347412109375,0.0286712646484375
1774470109350382300,10.57538232421875,-1.0186614990234375,0.0641326904296875,-0.0226593017578125
1774470109360395300,10.585395263671876,-1.030548095703125,0.031768798828125,-0.0603485107421875
1774470109370408200,10.595408203125,-1.0359649658203125,0.0369873046875,-0.0416259765625
1774470109380421000,10.605421142578125,-1.0309295654296875,0.079864501953125,0.011749267578125
1774470109390435300,10.615435302734374,-1.0163116455078125,0.09832763671875,0.0464935302734375
1774470109400448300,10.6254482421875,-1.0157623291015625,0.068511962890625,-0.0123291015625
1774470109410461200,10.635461181640625,-1.0145416259765625,0.0838165283203125,-0.0852203369140625
1774470109420474400,10.645474365234374,-1.0274200439453125,0.108856201171875,-0.09906005859375
1774470109430487300,10.6554873046875,-1.0159454345703125,0.106903076171875,-0.055633544921875
1774470109440500200,10.665500244140626,-1.0001068115234375,0.1146392822265625,-0.0464324951171875
1774470109450513400,10.675513427734375,-0.99481201171875,0.1304168701171875,-0.041351318359375
1774470109460526300,10.6855263671875,-0.9953155517578125,0.1108245849609375,-0.031005859375
1774470109470539300,10.695539306640624,-0.9849853515625,0.0965728759765625,-0.02880859375
1774470109480552200,10.70555224609375,-0.98974609375,0.1026763916015625,0.023651123046875
1774470109490565400,10.7155654296875,-1.0127716064453125,0.0702362060546875,0.0322113037109375
1774470109500579300,10.725579345703125,-1.014617919921875,0.031951904296875,-0.03643798828125
1774470109510592300,10.73559228515625,-1.0173797607421875,0.04541015625,-0.0447998046875
1774470109520605400,10.74560546875,-1.01318359375,0.0583953857421875,-0.0164337158203125
1774470109530618000,10.7556181640625,-1.00286865234375,0.0498199462890625,-0.0006866455078125
1774470109540631300,10.76563134765625,-0.9917755126953125,0.052093505859375,0.0462493896484375
1774470109550644200,10.775644287109374,-0.9917144775390625,0.0560760498046875,0.044525146484375
1774470109560657200,10.7856572265625,-0.997344970703125,0.0458831787109375,0.0043182373046875
1774470109570670800,10.7956708984375,-0.978424072265625,0.0547943115234375,0.016815185546875
1774470109580683800,10.805683837890625,-0.9892120361328125,0.058868408203125,0.0601959228515625
1774470109590696700,10.81569677734375,-0.996337890625,0.071533203125,0.1107025146484375
1774470109600709600,10.825709716796876,-0.969879150390625,0.08734130859375,0.1375885009765625
1774470109610723800,10.835723876953125,-0.95794677734375,0.0872039794921875,0.126434326171875
1774470109620736800,10.84573681640625,-0.9702301025390625,0.0703582763671875,0.126800537109375
1774470109630749700,10.855749755859375,-0.992462158203125,0.0391845703125,0.141448974609375
1774470109640763000,10.865762939453125,-0.9722137451171875,0.0290985107421875,0.1851959228515625
1774470109650775600,10.875775634765626,-0.948486328125,0.0465545654296875,0.2381744384765625
1774470109660788700,10.885788818359375,-0.9720458984375,0.012451171875,0.238128662109375
1774470109670802000,10.895802001953125,-0.96563720703125,0.0081939697265625,0.162811279296875
1774470109680814800,10.90581494140625,-0.9374542236328125,0.0948333740234375,0.0433807373046875
1774470109690827800,10.915827880859375,-0.9595794677734375,0.1208953857421875,-0.0352630615234375
1774470109700840700,10.9258408203125,-1.0078125,0.03997802734375,-0.0893707275390625
1774470109710854000,10.93585400390625,-1.0199737548828125,0.032867431640625,-0.19757080078125
1774470109720866600,10.945866455078125,-0.982757568359375,0.03289794921875,-0.287750244140625
1774470109730880800,10.955880859375,-1.016326904296875,-0.01593017578125,-0.3489990234375
1774470109740894000,10.96589404296875,-1.029052734375,-0.0347900390625,-0.374969482421875
1774470109750906600,10.97590673828125,-1.0344085693359375,-0.0037384033203125,-0.3467864990234375
1774470109760919800,10.985919921875,-1.04302978515625,0.0393218994140625,-0.2889556884765625
1774470109770932700,10.9959326171875,-1.0342559814453125,0.0516510009765625,-0.2320098876953125
1774470109780945700,11.005945556640626,-1.05206298828125,0.0496978759765625,-0.2099456787109375
1774470109790958800,11.015958740234375,-0.9625244140625,0.0402679443359375,-0.154998779296875
1774470109800971800,11.0259716796875,-0.984039306640625,0.0476837158203125,-0.0327301025390625
1774470109810985000,11.03598486328125,-0.983734130859375,0.0702972412109375,0.0217437744140625
1774470109820997600,11.04599755859375,-0.9814453125,0.05126953125,0.02093505859375
1774470109831010800,11.0560107421875,-0.994873046875,0.0395660400390625,0.0160064697265625
1774470109841024800,11.066024658203125,-0.9854888916015625,0.038421630859375,-0.0069427490234375
1774470109851037700,11.07603759765625,-0.9902191162109375,0.038726806640625,-0.03631591796875
1774470109861051000,11.08605078125,-1.0123138427734375,0.0286865234375,-0.0816497802734375
1774470109871063800,11.096063720703125,-0.9998321533203125,0.02301025390625,-0.1206512451171875
1774470109881076700,11.10607666015625,-0.9980926513671875,0.0429229736328125,-0.10418701171875
1774470109891089700,11.116089599609374,-0.9956817626953125,0.0270538330078125,-0.1121826171875
1774470109901102800,11.126102783203125,-0.9862060546875,0.0102386474609375,-0.0940704345703125
1774470109911115800,11.13611572265625,-0.9738616943359375,0.0131988525390625,-0.0630645751953125
1774470109921128700,11.146128662109374,-0.9700927734375,0.0198516845703125,-0.03851318359375
1774470109931143000,11.156142822265625,-0.96673583984375,0.021697998046875,-0.0283203125
1774470109941155600,11.166155517578124,-0.9606170654296875,0.018280029296875,-0.0301971435546875
1774470109951168800,11.176168701171875,-0.954315185546875,0.0135498046875,-0.036895751953125
1774470109961182000,11.186181884765626,-0.9553680419921875,0.010467529296875,-0.0488739013671875
1774470109971194600,11.196194580078124,-0.9660797119140625,0.009735107421875,-0.0737457275390625
1774470109981207800,11.206207763671875,-0.977020263671875,0.0126800537109375,-0.1073760986328125
1774470109991220700,11.216220703125,-0.9819793701171875,0.014678955078125,-0.1268157958984375
1774470110001234000,11.22623388671875,-0.9934539794921875,0.0128173828125,-0.136505126953125
1774470110011246600,11.23624658203125,-1.008270263671875,0.012176513671875,-0.13775634765625
1774470110021259800,11.246259765625,-1.010528564453125,0.01727294921875,-0.13641357421875
1774470110031273700,11.256273681640625,-1.0067901611328125,0.024871826171875,-0.1307830810546875
1774470110041286700,11.26628662109375,-1.014251708984375,0.024444580078125,-0.1253204345703125
1774470110051299800,11.2762998046875,-1.028167724609375,0.017547607421875,-0.120849609375
1774470110061312800,11.286312744140625,-1.02587890625,0.0172119140625,-0.1136016845703125
1774470110071325700,11.29632568359375,-1.007781982421875,0.02105712890625,-0.09918212890625
1774470110081339000,11.3063388671875,-0.9959716796875,0.025115966796875,-0.0826263427734375
1774470110091351800,11.316351806640625,-0.9981842041015625,0.0251312255859375,-0.080841064453125
1774470110101364700,11.32636474609375,-1.0166473388671875,0.0160980224609375,-0.0953216552734375
1774470110111377700,11.336377685546875,-1.0349578857421875,0.0065460205078125,-0.1080780029296875
1774470110121391900,11.346391845703126,-1.031036376953125,0.002105712890625,-0.1051483154296875
1774470110131404800,11.35640478515625,-1.015655517578125,0.00164794921875,-0.0995941162109375
1774470110141417700,11.366417724609375,-1.0046234130859375,-0.0009765625,-0.106536865234375
1774470110151431000,11.376430908203124,-1.0056610107421875,-0.0037841796875,-0.123382568359375
1774470110161443600,11.386443603515625,-1.00848388671875,-0.0067291259765625,-0.14019775390625
1774470110171456800,11.396456787109376,-1.0087127685546875,-0.0063018798828125,-0.154327392578125
1774470110181469700,11.4064697265625,-1.004638671875,-0.005584716796875,-0.163055419921875
1774470110191483000,11.41648291015625,-0.9937591552734375,-0.0031585693359375,-0.1701202392578125
1774470110201495800,11.426495849609376,-0.9882965087890625,-0.003143310546875,-0.182586669921875
1774470110211509800,11.436509765625,-0.9976654052734375,-0.00958251953125,-0.195037841796875
1774470110221522700,11.446522705078126,-1.0225830078125,-0.0244293212890625,-0.191864013671875
1774470110231535600,11.45653564453125,-1.03363037109375,-0.0392913818359375,-0.16778564453125
1774470110241548800,11.466548828125,-1.019989013671875,-0.048065185546875,-0.1267242431640625
1774470110251562000,11.47656201171875,-1.0068817138671875,-0.05194091796875,-0.0875396728515625
1774470110261574700,11.48657470703125,-1.00628662109375,-0.053955078125,-0.061187744140625
1774470110271587800,11.496587890625,-1.012664794921875,-0.0607147216796875,-0.0366363525390625
1774470110281600800,11.506600830078124,-1.0170745849609375,-0.0697174072265625,-0.0084991455078125
1774470110291614700,11.51661474609375,-1.0077362060546875,-0.0770416259765625,0.0114593505859375
1774470110301628000,11.5266279296875,-0.9932708740234375,-0.0838623046875,0.02398681640625
1774470110311640800,11.536640869140625,-0.9855804443359375,-0.0867767333984375,0.0327301025390625
1774470110321653800,11.54665380859375,-0.9908447265625,-0.086456298828125,0.035400390625
1774470110331666700,11.556666748046876,-0.997894287109375,-0.0846405029296875,0.038360595703125
1774470110341679900,11.566679931640625,-0.9998321533203125,-0.0755615234375,0.05487060546875
1774470110351692800,11.57669287109375,-0.9999542236328125,-0.0623931884765625,0.082977294921875
1774470110361705700,11.586705810546874,-1.0053558349609375,-0.043060302734375,0.121734619140625
1774470110371720000,11.596719970703125,-1.0113677978515625,-0.027496337890625,0.1684112548828125
1774470110381732600,11.606732666015626,-1.0093231201171875,-0.015655517578125,0.205718994140625
1774470110391745800,11.616745849609375,-0.9957733154296875,-0.0063323974609375,0.2225799560546875
1774470110401758700,11.6267587890625,-0.9705810546875,-0.025970458984375,0.209808349609375
1774470110411771600,11.636771728515624,-0.9626312255859375,-0.02239990234375,0.2154693603515625
1774470110421784800,11.646784912109375,-0.8629608154296875,-0.0254058837890625,0.2374114990234375
1774470110431797800,11.6567978515625,-0.8351898193359375,-0.06103515625,0.4266815185546875
1774470110441811000,11.66681103515625,-0.93780517578125,-0.0645904541015625,0.4292449951171875
1774470110451824600,11.67682470703125,-0.971405029296875,-0.066436767578125,0.147247314453125
1774470110461837800,11.686837890625,-1.05694580078125,-0.079376220703125,-0.152740478515625
1774470110471850800,11.696850830078125,-1.0885772705078125,-0.0497589111328125,-0.29534912109375
1774470110481863700,11.70686376953125,-1.0854339599609375,-0.1317138671875,-0.292236328125
1774470110491876900,11.716876953125,-0.9742584228515625,-0.1264495849609375,-0.103729248046875
1774470110501889800,11.726889892578125,-0.9271697998046875,-0.0773773193359375,0.0821075439453125
1774470110511902700,11.73690283203125,-0.940155029296875,-0.05126953125,0.2118377685546875
1774470110521915600,11.74691552734375,-0.9276885986328125,0.013702392578125,0.285888671875
1774470110531929900,11.756929931640625,-0.939117431640625,0.0391693115234375,0.3055267333984375
1774470110541942800,11.76694287109375,-0.9394073486328125,0.045684814453125,0.325286865234375
1774470110551955700,11.776955810546875,-0.957427978515625,0.0494232177734375,0.32427978515625
1774470110561969000,11.786968994140626,-1.0015716552734375,0.01416015625,0.246002197265625
1774470110571981600,11.796981689453125,-1.0070953369140625,0.0288543701171875,0.1722259521484375
1774470110581994800,11.806994873046875,-1.027099609375,0.031158447265625,0.072906494140625
1774470110592008000,11.817008056640624,-1.0576019287109375,0.025390625,-0.017242431640625
1774470110602020900,11.827020751953125,-1.0330963134765625,0.0237579345703125,-0.06671142578125
1774470110612034800,11.837034912109376,-1.011199951171875,0.0002899169921875,-0.0689849853515625
1774470110622047700,11.8470478515625,-0.98907470703125,-0.02392578125,-0.0350494384765625
1774470110632060700,11.857060791015625,-0.9681549072265625,-0.0340728759765625,0.0107269287109375
1774470110642073900,11.867073974609376,-0.9562225341796875,-0.0302276611328125,0.058868408203125
1774470110652086800,11.877086669921875,-0.977325439453125,-0.0361480712890625,0.0953521728515625
1774470110662099700,11.887099609375,-1.0018310546875,-0.04766845703125,0.0977783203125
1774470110672112600,11.897112548828124,-0.9917755126953125,-0.0703582763671875,0.084503173828125
1774470110682125800,11.907125732421875,-1.0093231201171875,-0.1019744873046875,0.050811767578125
1774470110692139800,11.917139892578126,-1.04547119140625,-0.0933685302734375,-0.0477294921875
1774470110702152700,11.927152587890625,-1.0072021484375,-0.0814208984375,-0.16888427734375
1774470110712166000,11.937165771484375,-0.9986419677734375,-0.10107421875,-0.2185516357421875
1774470110722178800,11.9471787109375,-1.038604736328125,-0.0914154052734375,-0.1886138916015625
1774470110732191700,11.957191650390625,-1.0211334228515625,-0.048126220703125,-0.1278533935546875
1774470110742204700,11.96720458984375,-1.042633056640625,-0.01373291015625,-0.0253448486328125
1774470110752217900,11.9772177734375,-1.0085296630859375,0.001861572265625,0.0809326171875
1774470110762231800,11.987231689453125,-0.99005126953125,-0.0026702880859375,0.168548583984375
1774470110772244700,11.99724462890625,-0.997955322265625,0.00372314453125,0.1739501953125
1774470110782258000,12.0072578125,-1.019683837890625,-0.0030364990234375,0.0760650634765625
1774470110792270600,12.0172705078125,-1.0499725341796875,-0.0341796875,-0.122894287109375
1774470110802283800,12.02728369140625,-0.9990997314453125,-0.08056640625,-0.2294921875
1774470110812297000,12.037296875,-0.9887847900390625,-0.081939697265625,-0.1541595458984375
1774470110822309600,12.0473095703125,-1.0137481689453125,-0.056304931640625,-0.081512451171875
1774470110832322800,12.05732275390625,-1.0106658935546875,-0.03570556640625,-0.066314697265625
1774470110842336800,12.067336669921875,-0.9659423828125,-0.0440826416015625,-0.0363922119140625
1774470110852349700,12.077349609375,-0.965850830078125,-0.0614471435546875,0.0264739990234375
1774470110862363000,12.08736279296875,-0.9996795654296875,-0.048065185546875,0.0540924072265625
1774470110872375800,12.097375732421876,-1.01788330078125,-0.03411865234375,0.0471343994140625
1774470110882388700,12.107388671875,-1.0204010009765625,-0.03173828125,0.055908203125
1774470110892401700,12.117401611328125,-1.022216796875,-0.029541015625,0.0630035400390625
1774470110902414800,12.127414794921876,-1.0030364990234375,-0.0308837890625,0.0493011474609375
1774470110912428800,12.1374287109375,-0.9801788330078125,-0.0436248779296875,0.0443572998046875
1774470110922441700,12.147441650390626,-1.002593994140625,-0.0508270263671875,-0.0140380859375
1774470110932455000,12.157454833984374,-0.9841461181640625,-0.0486297607421875,-0.055816650390625
1774470110942467600,12.167467529296875,-0.9706573486328125,-0.0535888671875,-0.0261077880859375
1774470110952480800,12.177480712890626,-0.988616943359375,-0.046844482421875,-0.007720947265625
1774470110962493700,12.18749365234375,-1.001190185546875,-0.0350799560546875,0.022796630859375
1774470110972507000,12.1975068359375,-1.0199127197265625,-0.0334625244140625,0.0640411376953125
1774470110982520800,12.207520751953124,-1.028778076171875,-0.045562744140625,0.0863800048828125
1774470110992533800,12.21753369140625,-1.04150390625,-0.042449951171875,0.02581787109375
1774470111002546700,12.227546630859376,-1.036285400390625,-0.027618408203125,-0.0188751220703125
1774470111012560000,12.237559814453125,-1.02984619140625,-0.0231475830078125,-0.0494232177734375
1774470111022572800,12.24757275390625,-0.98785400390625,-0.0252685546875,-0.043975830078125
1774470111032586000,12.2575859375,-0.929779052734375,-0.0375823974609375,-0.0409393310546875
1774470111042598700,12.2675986328125,-0.9462738037109375,-0.0405731201171875,-0.0851287841796875
1774470111052611800,12.27761181640625,-0.978546142578125,0.005218505859375,-0.1232452392578125
1774470111062625800,12.287625732421875,-1.0232086181640625,0.015869140625,-0.2443695068359375
1774470111072638700,12.297638671875,-1.042236328125,0.02484130859375,-0.243682861328125
1774470111082652000,12.30765185546875,-1.01385498046875,0.0007171630859375,-0.1998748779296875
1774470111092664800,12.317664794921875,-1.03485107421875,-0.04010009765625,-0.177398681640625
1774470111102677800,12.327677734375,-1.0213470458984375,-0.0445709228515625,-0.180572509765625
1774470111112690700,12.337690673828124,-0.990753173828125,-0.0185394287109375,-0.155181884765625
1774470111122704000,12.347703857421875,-0.982086181640625,0.004730224609375,-0.079132080078125
1774470111132716800,12.357716796875,-0.9954986572265625,0.0125579833984375,-0.0357208251953125
1774470111142730800,12.367730712890625,-1.013824462890625,0.00927734375,-0.011962890625
1774470111152744000,12.377743896484375,-1.0278778076171875,-0.005859375,-0.0040283203125
1774470111162756600,12.387756591796874,-1.043212890625,-0.0219573974609375,-0.033447265625
1774470111172769800,12.397769775390625,-1.0355377197265625,-0.0253448486328125,-0.09893798828125
1774470111182783000,12.407782958984376,-1.0092620849609375,-0.00787353515625,-0.14483642578125
1774470111192795600,12.417795654296874,-0.9927825927734375,0.0055999755859375,-0.1770172119140625
1774470111202808800,12.427808837890625,-0.9976654052734375,-0.004058837890625,-0.2017364501953125
1774470111212822800,12.43782275390625,-0.9978485107421875,-0.0088958740234375,-0.2048797607421875
1774470111222835700,12.447835693359375,-0.9975128173828125,-0.018829345703125,-0.187164306640625
1774470111232849000,12.457848876953125,-1.0051727294921875,-0.0163421630859375,-0.16650390625
1774470111242861800,12.46786181640625,-0.999603271484375,0.0135345458984375,-0.1282806396484375
1774470111252874800,12.477874755859375,-0.9920806884765625,0.056396484375,-0.0846405029296875
1774470111262887700,12.4878876953125,-0.9818267822265625,0.0760650634765625,-0.057342529296875
1774470111272900900,12.49790087890625,-0.9930877685546875,0.0303955078125,-0.0685272216796875
1774470111282913800,12.507913818359375,-1.01171875,-0.023223876953125,-0.103973388671875
1774470111292927700,12.517927734375,-1.0081787109375,-0.0224456787109375,-0.1516265869140625
1774470111302941000,12.52794091796875,-1.0001068115234375,-0.00836181640625,-0.1609649658203125
1774470111312953600,12.53795361328125,-0.9892730712890625,0.018524169921875,-0.1555328369140625
1774470111322966800,12.547966796875,-0.9978179931640625,0.0149993896484375,-0.1331329345703125
1774470111332979700,12.557979736328125,-0.9914398193359375,0.0408477783203125,-0.0988311767578125
1774470111342993000,12.567992919921876,-0.9919891357421875,0.0384674072265625,-0.0625762939453125
1774470111353005800,12.578005859375,-1.0023040771484375,0.0551605224609375,-0.0616455078125
1774470111363018800,12.588018798828125,-0.974456787109375,0.036224365234375,-0.1015625
1774470111373032700,12.59803271484375,-0.97247314453125,0.0182952880859375,-0.2030029296875
1774470111383045600,12.608045654296875,-0.9534454345703125,0.02911376953125,-0.2313690185546875
1774470111393058800,12.618058837890626,-0.956451416015625,0.0421600341796875,-0.1671600341796875
1774470111403072000,12.628072021484375,-0.95745849609375,0.03179931640625,-0.1111602783203125
1774470111413084700,12.638084716796875,-0.9718780517578125,0.034942626953125,-0.091522216796875
1774470111423097900,12.648097900390624,-1.0009918212890625,0.033660888671875,-0.0740814208984375
1774470111433110800,12.65811083984375,-1.012603759765625,0.01751708984375,0.0115509033203125
1774470111443123700,12.668123779296875,-1.0191802978515625,-0.010986328125,0.1111602783203125
1774470111453138000,12.678137939453125,-1.0195465087890625,-0.0427398681640625,0.1832427978515625
1774470111463150800,12.68815087890625,-0.9991455078125,-0.031402587890625,0.102020263671875
1774470111473163800,12.698163818359374,-0.979705810546875,-0.00482177734375,0.024993896484375
1774470111483176700,12.7081767578125,-0.988525390625,0.0160980224609375,-0.0719146728515625
1774470111493190000,12.71818994140625,-0.976776123046875,0.02532958984375,-0.149078369140625
1774470111503202600,12.72820263671875,-0.9671630859375,0.0212554931640625,-0.2202606201171875
1774470111513215700,12.7382158203125,-0.953704833984375,0.0241546630859375,-0.28973388671875
1774470111523229000,12.74822900390625,-0.9738616943359375,0.0270233154296875,-0.316131591796875
1774470111533242600,12.75824267578125,-1.0161285400390625,0.0431976318359375,-0.320770263671875
1774470111543255800,12.768255859375,-1.0189971923828125,0.0546417236328125,-0.311798095703125
1774470111553268700,12.778268798828124,-1.0260162353515625,0.0506134033203125,-0.25384521484375
1774470111563282000,12.788281982421875,-1.012603759765625,0.0445556640625,-0.1860809326171875
1774470111573295000,12.798295166015626,-0.99285888671875,0.0485076904296875,-0.1296234130859375
1774470111583308000,12.80830810546875,-0.98065185546875,0.057220458984375,-0.1018829345703125
1774470111593321000,12.818321044921875,-0.9832000732421875,0.055267333984375,-0.1031951904296875
1774470111603334000,12.828333984375,-0.9872894287109375,0.0527496337890625,-0.1092071533203125
1774470111613348000,12.83834814453125,-0.9785308837890625,0.0485687255859375,-0.126190185546875
1774470111623361000,12.848361083984376,-0.97271728515625,0.0535125732421875,-0.151641845703125
1774470111633374000,12.8583740234375,-0.9670867919921875,0.05572509765625,-0.178253173828125
1774470111643387100,12.86838720703125,-0.9731597900390625,0.05401611328125,-0.1959991455078125
1774470111653400000,12.878400146484376,-0.9859619140625,0.052978515625,-0.2002716064453125
1774470111663413000,12.8884130859375,-1.0057525634765625,0.05108642578125,-0.186859130859375
1774470111673426000,12.898426025390625,-1.0139312744140625,0.044525146484375,-0.160552978515625
1774470111683439000,12.908439208984374,-1.0061187744140625,0.0355682373046875,-0.1351318359375
1774470111693452000,12.9184521484375,-0.985687255859375,0.0326690673828125,-0.111083984375
1774470111703466000,12.928466064453126,-1.04827880859375,0.0256195068359375,-0.11822509765625
1774470111713479200,12.938479248046875,-1.21246337890625,-0.0993194580078125,-0.3091583251953125
