time,seconds_elapsed,z,y,x
1774470098842940000,0.06793994140625,-0.11491967737674713,-0.0864180326461792,-0.18831484019756317
1774470098852952800,0.077952880859375,-0.09571965038776398,-0.07013481855392456,-0.11029057949781418
1774470098862965800,0.0879658203125,-0.09041223675012589,-0.04963354021310806,-0.011637507937848568
1774470098872978700,0.097978759765625,-0.08639629930257797,-0.04226240515708923,0.08821456134319305
1774470098882990800,0.107990966796875,-0.07145250588655472,-0.04640921950340271,0.17273689806461334
1774470098893003800,0.118003662109375,-0.05029589310288429,-0.06104212626814842,0.22969941794872284
1774470098903016700,0.1280166015625,-0.028829216957092285,-0.06845583766698837,0.2515277564525604
1774470098913029600,0.138029541015625,-0.01876773312687874,-0.06337737292051315,0.24480745196342468
1774470098923042800,0.148042724609375,-0.008324944414198399,-0.055456072092056274,0.2186131328344345
1774470098933056000,0.158055908203125,-0.002301090396940708,-0.04943135380744934,0.18180085718631744
1774470098943068700,0.168068603515625,-0.0178677998483181,-0.04751254618167877,0.13616226613521576
1774470098953081900,0.178081787109375,-0.04787731170654297,-0.04409705847501755,0.0930805429816246
1774470098963094800,0.1880947265625,-0.06583048403263092,-0.019420742988586426,0.060652296990156174
1774470098973107700,0.198107666015625,-0.07691732048988342,0.02171061933040619,0.04201997444033623
1774470098983120600,0.20812060546875,-0.0856865718960762,0.0497148223221302,0.02646791562438011
1774470098993133800,0.2181337890625,-0.09252440929412842,0.056268297135829926,0.011318398639559746
1774470099003147000,0.22814697265625,-0.09011371433734894,0.044407378882169724,0.0027041372377425432
1774470099013159700,0.23815966796875,-0.08608108013868332,0.018252240493893623,-0.000271401833742857
1774470099023172900,0.2481728515625,-0.07961093634366989,-0.008447548374533653,-0.0022509293630719185
1774470099033185800,0.258185791015625,-0.06816137582063675,-0.0316772386431694,-0.0037320652045309544
1774470099043198700,0.26819873046875,-0.05781926214694977,-0.06864696741104126,0.0003953017294406891
1774470099053211600,0.278211669921875,-0.05276602879166603,-0.10136768966913223,0.008108997717499733
1774470099063224800,0.288224853515625,-0.05137985199689865,-0.10252483189105988,0.02313774824142456
1774470099073238000,0.298238037109375,-0.05017969384789467,-0.09899763017892838,0.040895093232393265
1774470099083250700,0.308250732421875,-0.05774626508355141,-0.10758419334888458,0.057075925171375275
1774470099093264000,0.318263916015625,-0.06650679558515549,-0.10699278861284256,0.06933135539293289
1774470099103275800,0.32827587890625,-0.06617816537618637,-0.09601310640573502,0.07811499387025833
1774470099113289000,0.3382890625,-0.05944947153329849,-0.07559829950332642,0.07962501049041748
1774470099123301600,0.348301513671875,-0.05300195887684822,-0.04856189340353012,0.07240437716245651
1774470099133314800,0.358314697265625,-0.049516525119543076,-0.024752143770456314,0.06090622395277023
1774470099143327700,0.36832763671875,-0.04458434879779816,0.002533006016165018,0.05106211453676224
1774470099153341000,0.3783408203125,-0.038628481328487396,0.037262167781591415,0.03812417760491371
1774470099163353600,0.388353515625,-0.02811778523027897,0.05601401999592781,0.018526773899793625
1774470099173366800,0.39836669921875,-0.013628996908664703,0.04355696588754654,0.004761507734656334
1774470099183380000,0.4083798828125,0.00036085376632399857,0.020843399688601494,0.00325762084685266
1774470099193392600,0.418392578125,0.006090722978115082,0.01105472445487976,0.013659940101206303
1774470099203405800,0.42840576171875,-0.0023501659743487835,-0.016373705118894577,0.031164631247520447
1774470099213418800,0.438418701171875,-0.021340155974030495,-0.049106597900390625,0.04127960652112961
1774470099223432000,0.448431884765625,-0.03832792490720749,-0.06514336168766022,0.05177565664052963
1774470099233444600,0.458444580078125,-0.047533068805933,-0.06920197606086731,0.05678800120949745
1774470099243457800,0.468457763671875,-0.048102185130119324,-0.06409270316362381,0.051706425845623016
1774470099253470700,0.478470703125,-0.037830621004104614,-0.050842978060245514,0.035894013941287994
1774470099263483600,0.488483642578125,-0.022180024534463882,-0.028991475701332092,0.0114938635379076
1774470099273496800,0.498496826171875,-0.005087454337626696,-0.0017444300465285778,-0.01676546037197113
1774470099283509800,0.508509765625,0.015372546389698982,0.01982158049941063,-0.047549471259117126
1774470099293523000,0.51852294921875,0.04022037982940674,0.04104125499725342,-0.07573432475328445
1774470099303534800,0.528534912109375,0.06007717549800873,0.055284373462200165,-0.10231746733188629
1774470099313547800,0.5385478515625,0.07641491293907166,0.06086859852075577,-0.1280810832977295
1774470099323560700,0.548560791015625,0.07725273817777634,0.06254186481237411,-0.15664002299308777
1774470099333574000,0.558573974609375,0.06547518074512482,0.07091457396745682,-0.18190144002437592
1774470099343586600,0.568586669921875,0.04364072158932686,0.08201462775468826,-0.2098182886838913
1774470099353599700,0.578599853515625,0.0194658525288105,0.0750683844089508,-0.23484396934509277
1774470099363613000,0.588613037109375,-0.00018641306087374687,0.034637339413166046,-0.25302854180336
1774470099373625900,0.5986259765625,-0.005493698641657829,-0.019822020083665848,-0.24244080483913422
1774470099383638800,0.608638671875,-0.0082042645663023,-0.04374013841152191,-0.19644135236740112
1774470099393651700,0.618651611328125,-0.014751089736819267,-0.028853412717580795,-0.12181804329156876
1774470099403665000,0.628664794921875,-0.029546014964580536,0.00951315090060234,-0.04704421013593674
1774470099413677600,0.638677490234375,-0.04151078686118126,0.04718397557735443,0.00887435581535101
1774470099423690800,0.648690673828125,-0.04393772780895233,0.07231995463371277,0.03669160604476929
1774470099433703700,0.65870361328125,-0.03726300224661827,0.10191790014505386,0.033902812749147415
1774470099443716900,0.668716796875,-0.02546306699514389,0.12420590221881866,0.0049814158119261265
1774470099453729800,0.678729736328125,-0.010914398357272148,0.15641935169696808,-0.03084108978509903
1774470099463742700,0.68874267578125,0.007317335810512304,0.19421334564685822,-0.06405043601989746
1774470099473756000,0.698755859375,0.022757356986403465,0.2294992059469223,-0.08797892928123474
1774470099483768600,0.7087685546875,0.043218422681093216,0.2637264132499695,-0.11180250346660614
1774470099493781800,0.71878173828125,0.09276170283555984,0.31941813230514526,-0.13961564004421234
1774470099503794700,0.728794677734375,0.1660446971654892,0.41130465269088745,-0.14577259123325348
1774470099513808000,0.738807861328125,0.2406386286020279,0.5069838762283325,-0.10432992875576019
1774470099523819800,0.74881982421875,0.3238224685192108,0.6313726902008057,-0.022158360108733177
1774470099533832700,0.758832763671875,0.4315479099750519,0.7331600785255432,0.0585610568523407
1774470099543846000,0.768845947265625,0.6040352582931519,0.7578291893005371,0.09520002454519272
1774470099553858300,0.7788583984375,0.8023813366889954,0.6969364285469055,0.09817014634609222
1774470099563871200,0.788871337890625,0.966265082359314,0.6813649535179138,0.049975454807281494
1774470099573884200,0.79888427734375,1.112135887145996,0.599444568157196,-0.06384716928005219
1774470099583897000,0.80889697265625,1.2212339639663696,0.5501691699028015,-0.18559198081493378
1774470099593910300,0.81891015625,1.2737871408462524,0.5263105630874634,-0.2983248233795166
1774470099603923200,0.828923095703125,1.286445140838623,0.4818466603755951,-0.3787669241428375
1774470099613936000,0.83893603515625,1.2749608755111694,0.39314019680023193,-0.4135068655014038
1774470099623949300,0.84894921875,1.2271288633346558,0.3644576966762543,-0.41232922673225403
1774470099633962200,0.858962158203125,1.1532901525497437,0.4554731845855713,-0.3899883031845093
1774470099643975200,0.86897509765625,1.0790654420852661,0.6779872179031372,-0.3635636270046234
1774470099653988000,0.878988037109375,1.015052080154419,0.9546760320663452,-0.32309505343437195
1774470099664001300,0.889001220703125,0.9652139544487,1.2134782075881958,-0.2587432265281677
1774470099674014200,0.89901416015625,0.9338397979736328,1.3942075967788696,-0.16382461786270142
1774470099684027100,0.909027099609375,0.9210784435272217,1.506713628768921,-0.044055067002773285
1774470099694040300,0.919040283203125,0.9127494096755981,1.5796550512313843,0.08638957887887955
1774470099704053200,0.92905322265625,0.8922467827796936,1.6728910207748413,0.2003595530986786
1774470099714066200,0.939066162109375,0.8419513702392578,1.7472398281097412,0.30046993494033813
1774470099724078000,0.949078125,0.7354490756988525,1.733371615409851,0.38885682821273804
1774470099734091300,0.95909130859375,0.5802118182182312,1.4877538681030273,0.44532492756843567
1774470099744104200,0.969104248046875,0.4164902865886688,0.9900116920471191,0.45497357845306396
1774470099754117400,0.979117431640625,0.2671622037887573,0.44179266691207886,0.4238351583480835
1774470099764130000,0.989130126953125,0.1366710662841797,0.022499818354845047,0.3717770278453827
1774470099774143200,0.999143310546875,0.04550773277878761,-0.21000069379806519,0.3034000098705292
1774470099784156200,1.00915625,-0.0008235444547608495,-0.2997385561466217,0.23396846652030945
1774470099794169000,1.019169189453125,-0.012455842457711697,-0.2798537313938141,0.1646185666322708
1774470099804182300,1.029182373046875,-0.0050597116351127625,-0.17314592003822327,0.08986416459083557
1774470099814195200,1.0391953125,0.010414175689220428,-0.06057955324649811,0.028628583997488022
1774470099824208400,1.04920849609375,0.03402096778154373,0.04111618176102638,-0.008768854662775993
1774470099834221000,1.059220947265625,0.05447271093726158,0.1320815086364746,-0.013238970190286636
1774470099844234200,1.069234130859375,0.06480791419744492,0.2203328162431717,0.010679678060114384
1774470099854247200,1.0792470703125,0.06521674990653992,0.2953850328922272,0.04213647544384003
1774470099864260000,1.089260009765625,0.05558355897665024,0.2979600429534912,0.08743737637996674
1774470099874273300,1.099273193359375,0.028519637882709503,0.2635895311832428,0.13720065355300903
1774470099884286200,1.1092861328125,-0.02493559755384922,0.2629908621311188,0.16651912033557892
1774470099894299400,1.11929931640625,-0.08885996788740158,0.2784821689128876,0.18316292762756348
1774470099904312000,1.12931201171875,-0.15658308565616608,0.2626584768295288,0.22240673005580902
1774470099914325200,1.1393251953125,-0.21178478002548218,0.23143529891967773,0.3092658817768097
1774470099924337200,1.149337158203125,-0.16099563241004944,0.14863921701908112,0.4674762785434723
1774470099934350300,1.159350341796875,-0.013444809243083,0.08431335538625717,0.6287867426872253
1774470099944363000,1.169363037109375,0.06166379153728485,-0.009093556553125381,0.7450867295265198
1774470099954376200,1.179376220703125,-0.04414306581020355,-0.07375164330005646,0.8151558041572571
1774470099964389000,1.18938916015625,-0.25828173756599426,-0.05940333008766174,0.8258851766586304
1774470099974402300,1.19940234375,-0.526764452457428,0.0010805679485201836,0.7944548726081848
1774470099984415200,1.209415283203125,-0.7777742743492126,0.061474673449993134,0.6844383478164673
1774470099994428200,1.21942822265625,-0.9491323232650757,-0.07429424673318863,0.4936929941177368
1774470100004441300,1.22944140625,-1.0151846408843994,-0.4848010838031769,0.2545062303543091
1774470100014454000,1.2394541015625,-0.9851614236831665,-1.1891663074493408,0.014357838779687881
1774470100024467200,1.24946728515625,-0.9063124060630798,-2.1263186931610107,-0.15044575929641724
1774470100034480000,1.259480224609375,-0.8616338968276978,-3.2726123332977295,-0.2528076469898224
1774470100044493300,1.269493408203125,-0.7842823266983032,-4.834659099578857,-0.3917868435382843
1774470100054506200,1.27950634765625,-0.7896614074707031,-6.518044471740723,-0.5783363580703735
1774470100064519200,1.289519287109375,-0.8006471991539001,-8.264730453491211,-0.7426584362983704
1774470100074532400,1.299532470703125,-0.7962355613708496,-9.583039283752441,-0.9457095861434937
1774470100084545000,1.309544921875,-1.0294536352157593,-8.871034622192383,-1.6121838092803955
1774470100094558200,1.31955810546875,-1.224646806716919,-7.506497383117676,-1.9173403978347778
1774470100104571100,1.329571044921875,-1.6056950092315674,-3.2330567836761475,-1.9417933225631714
1774470100114583300,1.339583251953125,-1.6998167037963867,-1.2363972663879395,-1.372393012046814
1774470100124596200,1.34959619140625,-1.6781585216522217,0.9300945401191711,-0.7110236883163452
1774470100134609200,1.359609130859375,-1.4922910928726196,2.425727367401123,0.06737702339887619
1774470100144622000,1.3696220703125,-1.0853862762451172,3.5745365619659424,0.7851545810699463
1774470100154635300,1.37963525390625,-0.619107723236084,3.490908622741699,0.7249159216880798
1774470100164648200,1.389648193359375,-0.31553909182548523,-0.7966731190681458,-0.11622700095176697
1774470100174661000,1.3996611328125,0.14194190502166748,-2.210301399230957,-0.0705503597855568
1774470100184674300,1.40967431640625,0.5893726348876953,-1.9925687313079834,0.3222152888774872
1774470100194687200,1.419687255859375,0.763695478439331,-1.7532317638397217,0.6019325256347656
1774470100204700200,1.4297001953125,0.661491870880127,-1.7091082334518433,0.7910787463188171
1774470100214713000,1.439713134765625,0.32861554622650146,-1.4945383071899414,0.873315155506134
1774470100224726300,1.449726318359375,-0.1429610401391983,-1.303532361984253,0.7257837057113647
1774470100234739200,1.4597392578125,-0.5202997922897339,-1.2015976905822754,0.5598157048225403
1774470100244752100,1.469752197265625,-0.5994561314582825,-1.3020577430725098,0.5440162420272827
1774470100254765300,1.479765380859375,-0.5089818239212036,-1.4875699281692505,0.6412873864173889
1774470100264778200,1.4897783203125,-0.45972776412963867,-1.6476786136627197,0.7369683980941772
1774470100274791200,1.499791259765625,-0.5258777141571045,-1.6964187622070312,0.7968469858169556
1774470100284804000,1.50980419921875,-0.629481315612793,-1.6587560176849365,0.785971999168396
1774470100294816300,1.519816162109375,-0.6981692314147949,-1.6175529956817627,0.7116301655769348
1774470100304829200,1.5298291015625,-0.7216410040855408,-1.511465072631836,0.612838089466095
1774470100314842000,1.539842041015625,-0.6737104058265686,-1.26853609085083,0.5438823699951172
1774470100324855000,1.54985498046875,-0.6170146465301514,-1.0134090185165405,0.5097984671592712
1774470100334868200,1.5598681640625,-0.5956389904022217,-0.8641417622566223,0.4890296459197998
1774470100344881400,1.56988134765625,-0.5559033155441284,-0.7154926061630249,0.44639909267425537
1774470100354894000,1.57989404296875,-0.49140679836273193,-0.5396459102630615,0.38194307684898376
1774470100364907300,1.5899072265625,-0.4512857496738434,-0.4663306176662445,0.32496127486228943
1774470100374920200,1.599920166015625,-0.4293901324272156,-0.4898565411567688,0.3019677698612213
1774470100384933000,1.60993310546875,-0.44333791732788086,-0.5608758926391602,0.3292745053768158
1774470100394946000,1.619946044921875,-0.47724395990371704,-0.6144893765449524,0.3969185948371887
1774470100404959200,1.629959228515625,-0.48712268471717834,-0.6437519192695618,0.49378469586372375
1774470100414972400,1.639972412109375,-0.4987699091434479,-0.5773035287857056,0.542130708694458
1774470100424985000,1.649985107421875,-0.4915335476398468,-0.5025997161865234,0.4953587055206299
1774470100434998300,1.659998291015625,-0.46890267729759216,-0.606599748134613,0.42197442054748535
1774470100445011200,1.67001123046875,-0.4485369324684143,-0.773064374923706,0.37300819158554077
1774470100455024000,1.680024169921875,-0.46881359815597534,-0.6429210901260376,0.39193451404571533
1774470100465037000,1.690037109375,-0.40897101163864136,-0.3842090666294098,0.4797961711883545
1774470100475049200,1.70004931640625,-0.40162816643714905,-0.2624530792236328,0.4810484051704407
1774470100485062100,1.710062255859375,-0.4426749348640442,-0.35132142901420593,0.3536584973335266
1774470100495075300,1.720075439453125,-0.5658716559410095,-0.5053303837776184,0.21664871275424957
1774470100505088000,1.730087890625,-0.6940831542015076,-0.4766228497028351,0.0766146332025528
1774470100515101200,1.74010107421875,-0.7861649394035339,-0.3023449182510376,-0.13758042454719543
1774470100525114400,1.7501142578125,-0.794537365436554,-0.37786123156547546,-0.3856370747089386
1774470100535127000,1.760126953125,-0.7237358689308167,-0.6653904914855957,-0.5569185614585876
1774470100545140200,1.77014013671875,-0.6590663194656372,-1.077441692352295,-0.6164447665214539
1774470100555153200,1.780153076171875,-0.700933039188385,-1.7652777433395386,-0.5256937742233276
1774470100565166300,1.790166259765625,-0.8936830163002014,-2.4702162742614746,-0.4357241988182068
1774470100575179000,1.800178955078125,-1.1300066709518433,-3.0300495624542236,-0.4329126477241516
1774470100585192200,1.810192138671875,-1.415915608406067,-3.4597201347351074,-0.4715420603752136
1774470100595205000,1.820205078125,-1.7079119682312012,-3.7946155071258545,-0.4788832366466522
1774470100605218000,1.830218017578125,-2.1568655967712402,-3.9962174892425537,-0.5392376780509949
1774470100615231000,1.84023095703125,-2.5783538818359375,-4.2981343269348145,-0.6377071738243103
1774470100625244200,1.850244140625,-2.8304646015167236,-4.831606388092041,-0.7103853821754456
1774470100635257300,1.86025732421875,-2.994899034500122,-5.081814765930176,-0.8356867432594299
1774470100645269200,1.870269287109375,-2.98037052154541,-4.900692462921143,-1.0094404220581055
1774470100655282200,1.8802822265625,-2.777130126953125,-4.6319899559021,-1.1417956352233887
1774470100665295000,1.890295166015625,-2.577770471572876,-4.489418029785156,-1.2005864381790161
1774470100675308300,1.900308349609375,-2.4898836612701416,-4.3278326988220215,-1.1561729907989502
1774470100685321200,1.9103212890625,-2.5047607421875,-4.010640621185303,-1.0049930810928345
1774470100695334100,1.920334228515625,-2.5846338272094727,-3.5250589847564697,-0.7618396878242493
1774470100705347000,1.93034716796875,-2.5896997451782227,-3.102656126022339,-0.4336455464363098
1774470100715360300,1.9403603515625,-2.468413829803467,-2.6518542766571045,-0.13904860615730286
1774470100725373200,1.950373291015625,-2.2289233207702637,-2.0811893939971924,-0.03291231766343117
1774470100735386000,1.96038623046875,-2.085846185684204,-1.918134331703186,0.04910661652684212
1774470100745399300,1.9703994140625,-2.169923782348633,-2.199686050415039,0.17375294864177704
1774470100755412200,1.980412109375,-2.4587554931640625,-2.478050470352173,0.2665289044380188
1774470100765425200,1.990425048828125,-2.6419920921325684,-2.5945565700531006,0.3365878760814667
1774470100775438000,2.00043798828125,-2.8123726844787598,-2.2067172527313232,0.33046314120292664
1774470100785451300,2.010451171875,-3.0723326206207275,-1.8591371774673462,0.34598588943481445
1774470100795464000,2.0204638671875,-3.314901113510132,-1.8397096395492554,0.4354476034641266
1774470100805477000,2.03047705078125,-3.5275964736938477,-1.892505168914795,0.5629041194915771
1774470100815490300,2.040490234375,-3.7089924812316895,-2.01110577583313,0.711106538772583
1774470100825502200,2.050502197265625,-3.9090776443481445,-2.129091739654541,0.868160605430603
1774470100835515100,2.06051513671875,-4.122060775756836,-2.2313613891601562,1.0379995107650757
1774470100845528000,2.070528076171875,-4.446377754211426,-2.429279327392578,1.2195518016815186
1774470100855541200,2.080541259765625,-4.851191997528076,-2.631911039352417,1.3936474323272705
1774470100865554200,2.09055419921875,-4.943993091583252,-2.6736879348754883,1.5242054462432861
1774470100875567000,2.100567138671875,-4.807547092437744,-2.3089680671691895,1.5505356788635254
1774470100885580000,2.110580078125,-4.386150360107422,-1.7705785036087036,1.3910256624221802
1774470100895593200,2.12059326171875,-3.833782911300659,-1.2992953062057495,1.2400083541870117
1774470100905606100,2.130606201171875,-3.2629148960113525,-0.7565984725952148,1.1537986993789673
1774470100915619000,2.140619140625,-2.6385860443115234,-0.35707440972328186,1.042232632637024
1774470100925632300,2.15063232421875,-2.0649383068084717,-0.1502210795879364,0.7505464553833008
1774470100935645200,2.160645263671875,-1.8784713745117188,-0.11922590434551239,0.39728569984436035
1774470100945658000,2.170658203125,-1.7910640239715576,-0.22458933293819427,0.16880594193935394
1774470100955671000,2.180671142578125,-1.5384151935577393,-0.38565555214881897,-0.002182810101658106
1774470100965684200,2.190684326171875,-1.3103176355361938,-0.45486176013946533,-0.15524853765964508
1774470100975697200,2.200697265625,-1.1755461692810059,-0.42466145753860474,-0.2427665889263153
1774470100985710000,2.2107099609375,-1.154761552810669,-0.41006574034690857,-0.20574411749839783
1774470100995722000,2.220721923828125,-1.2422782182693481,-0.44498109817504883,-0.13329267501831055
1774470101005735200,2.230735107421875,-1.3560584783554077,-0.5436275005340576,-0.18255876004695892
1774470101015748400,2.240748291015625,-1.433791995048523,-0.48478418588638306,-0.12093561142683029
1774470101025761000,2.250760986328125,-1.4295196533203125,-0.2661503851413727,0.18373508751392365
1774470101035774200,2.260774169921875,-1.3275291919708252,0.0512145459651947,0.7048789262771606
1774470101045787100,2.270787109375,-1.2151349782943726,0.36189916729927063,1.2209875583648682
1774470101055800300,2.28080029296875,-1.1260294914245605,0.5297837853431702,1.5806453227996826
1774470101065813000,2.29081298828125,-1.0279178619384766,0.6009975075721741,1.7502716779708862
1774470101075826200,2.300826171875,-0.9837984442710876,0.679207980632782,1.9013878107070923
1774470101085839000,2.310839111328125,-1.0409507751464844,0.6782862544059753,2.179403066635132
1774470101095852000,2.32085205078125,-1.218819260597229,0.2961898148059845,1.7600123882293701
1774470101105865200,2.330865234375,-1.7783533334732056,0.39470601081848145,1.1216182708740234
1774470101115878100,2.340878173828125,-2.081303834915161,0.45397210121154785,0.9823530912399292
1774470101125891300,2.350891357421875,-2.1682214736938477,0.31560251116752625,1.1107361316680908
1774470101135904000,2.360904052734375,-2.2285211086273193,0.08822454512119293,0.9510205984115601
1774470101145917200,2.370917236328125,-2.2696330547332764,-0.11412189900875092,0.41167986392974854
1774470101155930000,2.38093017578125,-2.1335771083831787,-0.2371443510055542,0.14339135587215424
1774470101165942300,2.3909423828125,-2.040616035461426,-0.0075300708413124084,-0.007976055145263672
1774470101175955000,2.400954833984375,-2.0583863258361816,0.23697465658187866,0.02825791761279106
1774470101185968000,2.410968017578125,-2.2098677158355713,0.31039854884147644,0.15020246803760529
1774470101195981300,2.420981201171875,-2.367478609085083,0.2876906096935272,0.27334704995155334
1774470101205994200,2.430994140625,-2.4212710857391357,0.2704852521419525,0.36787062883377075
1774470101216007200,2.441007080078125,-2.236680269241333,0.014384319074451923,0.366040974855423
1774470101226020000,2.45102001953125,-1.800793170928955,0.02727588266134262,0.1889660507440567
1774470101236033300,2.461033203125,-1.2708669900894165,-0.12472188472747803,0.1115369126200676
1774470101246046000,2.4710458984375,-0.7728872299194336,-0.261982798576355,0.2737279534339905
1774470101256059100,2.48105908203125,-0.36996451020240784,-0.34187617897987366,0.5343716144561768
1774470101266072000,2.491072021484375,-0.15733401477336884,-0.35077008605003357,0.7514898180961609
1774470101276085200,2.501085205078125,-0.10879043489694595,-0.20195786654949188,1.0383422374725342
1774470101286098200,2.51109814453125,-0.10675232112407684,0.14703208208084106,1.370498538017273
1774470101296111000,2.521111083984375,-0.13158822059631348,0.48518308997154236,1.4907869100570679
1774470101306124300,2.531124267578125,-0.1942092478275299,0.7445555329322815,1.3110426664352417
1774470101316137000,2.541136962890625,-0.266514390707016,0.8721343278884888,0.9684120416641235
1774470101326150100,2.551150146484375,-0.3047376573085785,0.9109140038490295,0.6199821829795837
1774470101336163000,2.5611630859375,-0.41558700799942017,0.8830306529998779,0.5098845362663269
1774470101346176300,2.57117626953125,-0.5407931208610535,0.8748568892478943,0.7459034323692322
1774470101356189200,2.581189208984375,-0.6975381970405579,0.7793923020362854,1.0786606073379517
1774470101366202000,2.5912021484375,-0.852205216884613,0.6505967378616333,1.4115477800369263
1774470101376215300,2.60121533203125,-1.0079808235168457,0.4781022071838379,1.647300124168396
1774470101386227200,2.611227294921875,-1.1604353189468384,0.2299664318561554,1.6344364881515503
1774470101396240100,2.621240234375,-1.164455771446228,0.10187510401010513,1.4500842094421387
1774470101406253000,2.631253173828125,-0.927834153175354,0.04500835761427879,1.210303544998169
1774470101416266200,2.641266357421875,-0.49583375453948975,0.02274608425796032,1.0140914916992188
1774470101426279200,2.651279052734375,-0.15477336943149567,-0.28065425157546997,0.8624743223190308
1774470101436292000,2.6612919921875,-0.12710636854171753,-0.8803354501724243,0.9385539889335632
1774470101446305000,2.671304931640625,-0.21230462193489075,-0.4777988791465759,1.099008321762085
1774470101456318200,2.681318115234375,-0.030906205996870995,0.005975926294922829,1.2074965238571167
1774470101466331100,2.6913310546875,0.23361200094223022,0.12210865318775177,1.2065913677215576
1774470101476344000,2.701343994140625,0.4461463987827301,0.21090251207351685,1.0385997295379639
1774470101486357200,2.711357177734375,0.5939955711364746,0.10928214341402054,1.1033046245574951
1774470101496370200,2.7213701171875,0.6188631057739258,0.0648733600974083,1.2956706285476685
1774470101506383000,2.731383056640625,0.908146858215332,0.2499963343143463,1.4072608947753906
1774470101516396000,2.74139599609375,1.1472774744033813,0.44047442078590393,1.4922914505004883
1774470101526409200,2.7514091796875,0.9192392826080322,0.5951135158538818,1.5291637182235718
1774470101536422100,2.761422119140625,0.6238600015640259,0.7440577745437622,1.4763081073760986
1774470101546435000,2.77143505859375,0.29812371730804443,0.4958179295063019,1.392064094543457
1774470101556448800,2.78144873046875,0.013399280607700348,0.18889695405960083,1.232373595237732
1774470101566461400,2.79146142578125,-0.22417119145393372,-0.09877292066812515,1.0016485452651978
1774470101576474600,2.801474609375,-0.5290437936782837,-0.049752313643693924,0.6741414666175842
1774470101586487800,2.81148779296875,-0.8392444849014282,0.36894214153289795,0.34458673000335693
1774470101596500700,2.821500732421875,-0.9991006851196289,0.5328312516212463,0.10016649216413498
1774470101606513700,2.831513671875,-1.0702006816864014,0.6640963554382324,-0.16943275928497314
1774470101616526600,2.841526611328125,-0.8074687719345093,0.5444609522819519,-0.5158026218414307
1774470101626539800,2.851539794921875,-0.32948753237724304,-0.16052837669849396,-0.7350406646728516
1774470101636552400,2.861552490234375,0.22112666070461273,-0.6703692078590393,-0.8392236232757568
1774470101646565600,2.871565673828125,0.664867103099823,-0.7637937068939209,-0.8787963390350342
1774470101656578600,2.88157861328125,0.9636765718460083,-0.4686499238014221,-0.8737480640411377
1774470101666591700,2.891591796875,1.4162060022354126,-0.4850006699562073,-0.5320594310760498
1774470101676604700,2.901604736328125,1.7231261730194092,-1.059424877166748,0.6652002334594727
1774470101686617600,2.91161767578125,1.3153085708618164,-0.34698376059532166,1.0097135305404663
1774470101696630800,2.921630859375,0.659278929233551,0.523766040802002,0.9563941359519958
1774470101706643500,2.9316435546875,0.13477230072021484,0.913109540939331,0.9692750573158264
1774470101716656600,2.94165673828125,-0.05076251178979874,0.7404286861419678,0.7685539126396179
1774470101726669600,2.951669677734375,-0.07869800180196762,0.36387428641319275,0.5247577428817749
1774470101736682800,2.961682861328125,-0.030844250693917274,-0.03656876087188721,0.207911878824234
1774470101746695700,2.97169580078125,0.25212007761001587,-0.10713666677474976,-0.3003811836242676
1774470101756708600,2.98170849609375,0.5588136911392212,0.15900872647762299,-0.8475080132484436
1774470101766721800,2.9917216796875,0.6119051575660706,0.5372162461280823,-1.1866999864578247
1774470101776734500,3.001734375,0.4828563928604126,0.8176757097244263,-1.2052286863327026
1774470101786747600,3.01174755859375,0.31828609108924866,0.889646053314209,-0.9610741138458252
1774470101796760600,3.021760498046875,0.19576306641101837,0.5396041870117188,-0.4526919424533844
1774470101806773800,3.031773681640625,0.15505798161029816,0.25320199131965637,0.02747279219329357
1774470101816786700,3.04178662109375,0.15864944458007812,0.2485843300819397,0.2696208357810974
1774470101826799600,3.051799560546875,0.05766850709915161,0.4713819921016693,0.3045085072517395
1774470101836812800,3.061812744140625,-0.09535732120275497,0.5715421438217163,0.19804175198078156
1774470101846825500,3.071825439453125,-0.2540540099143982,0.45027270913124084,-0.035140905529260635
1774470101856838700,3.081838623046875,-0.3260168731212616,0.1689140796661377,-0.5126898288726807
1774470101866851600,3.0918515625,-0.30936357378959656,0.1337454468011856,-1.1937037706375122
1774470101876864800,3.10186474609375,-0.32796376943588257,0.005626536440104246,-1.7054542303085327
1774470101886877400,3.11187744140625,-0.40714940428733826,-0.2528846561908722,-1.9292151927947998
1774470101896890600,3.121890625,-0.4438367784023285,-0.23169635236263275,-1.89652419090271
1774470101906903800,3.13190380859375,-0.4491015672683716,0.06795772910118103,-1.675887107849121
1774470101916916700,3.141916748046875,-0.4529840648174286,0.40336909890174866,-1.4105466604232788
1774470101926930700,3.1519306640625,-0.48786506056785583,0.5869623422622681,-1.1863594055175781
1774470101936943900,3.16194384765625,-0.5921993255615234,0.5198094844818115,-1.091515302658081
1774470101946956500,3.17195654296875,-0.6758108735084534,0.20647984743118286,-1.0957348346710205
1774470101956969700,3.1819697265625,-0.6680110692977905,-0.0634152963757515,-1.092944860458374
1774470101966982700,3.191982666015625,-0.5707628130912781,-0.06281528621912003,-1.0008668899536133
1774470101976995600,3.20199560546875,-0.4152793884277344,0.14792101085186005,-0.8526079654693604
1774470101987008500,3.212008544921875,-0.2777593433856964,0.4979560077190399,-0.7691088318824768
1774470101997021700,3.222021728515625,-0.19353869557380676,0.7856866717338562,-0.7959825992584229
1774470102007034600,3.23203466796875,-0.09605953842401505,0.8027724623680115,-0.854914128780365
1774470102017047600,3.242047607421875,-0.00867918599396944,0.6861407160758972,-0.8667548298835754
1774470102027060700,3.252060791015625,0.02060466818511486,0.5543181896209717,-0.7855476140975952
1774470102037073700,3.26207373046875,0.019709287211298943,0.443469762802124,-0.6441120505332947
1774470102047086600,3.272086669921875,-0.0485890731215477,0.3427705764770508,-0.42084330320358276
1774470102057099500,3.282099609375,-0.10073209553956985,0.3073967695236206,-0.057176195085048676
1774470102067112700,3.29211279296875,-0.07290712743997574,0.41491416096687317,0.4067328870296478
1774470102077125600,3.302125732421875,-0.08254941552877426,0.615077555179596,0.7388782501220703
1774470102087138600,3.312138671875,-0.1689000129699707,0.6872939467430115,0.8319850564002991
1774470102097151700,3.32215185546875,-0.2828236520290375,0.5877544283866882,0.7154821753501892
1774470102107164700,3.33216455078125,-0.34719759225845337,0.2715432047843933,0.5442830324172974
1774470102117177600,3.342177490234375,-0.3216039836406708,-0.22921863198280334,0.30463704466819763
1774470102127190500,3.3521904296875,-0.2495119571685791,-0.31185224652290344,0.022254617884755135
1774470102137203700,3.36220361328125,-0.21336300671100616,-0.03472025319933891,-0.14493997395038605
1774470102147216600,3.372216552734375,-0.1601748913526535,0.01874430477619171,-0.2102966010570526
1774470102157229600,3.3822294921875,-0.10160522907972336,-0.2046618014574051,-0.2561686933040619
1774470102167242800,3.39224267578125,-0.07163028419017792,-0.3286694884300232,-0.31480270624160767
1774470102177256700,3.402256591796875,0.0054410709999501705,-0.38457873463630676,-0.29875555634498596
1774470102187269600,3.41226953125,0.13200514018535614,-0.4022386968135834,-0.11637801676988602
1774470102197282600,3.422282470703125,0.26441505551338196,-0.3045312762260437,0.2277657836675644
1774470102207295700,3.432295654296875,0.32687070965766907,-0.1579357236623764,0.6378360986709595
1774470102217308700,3.44230859375,0.29902032017707825,-0.09087592363357544,1.0204949378967285
1774470102227321600,3.452321533203125,0.22879701852798462,-0.1333104521036148,1.3501769304275513
1774470102237334800,3.462334716796875,0.16526618599891663,-0.21634967625141144,1.6077696084976196
1774470102247347700,3.47234765625,0.0992317721247673,-0.277294784784317,1.8049100637435913
1774470102257360600,3.482360595703125,0.06643378734588623,-0.3017466962337494,2.024704694747925
1774470102267373600,3.49237353515625,-0.02028113417327404,-0.4308199882507324,2.2527356147766113
1774470102277386800,3.50238671875,-0.02130059339106083,-0.5482635498046875,2.4001219272613525
1774470102287399700,3.512399658203125,0.037152256816625595,-0.5290883183479309,2.444905996322632
1774470102297412600,3.52241259765625,0.15452612936496735,-0.3898601830005646,2.412855863571167
1774470102307425800,3.53242578125,0.28763172030448914,-0.142775297164917,2.3751893043518066
1774470102317438700,3.542438720703125,0.4099379777908325,-0.024445222690701485,2.372576951980591
1774470102327451600,3.55245166015625,0.48920220136642456,-0.22282062470912933,2.308122396469116
1774470102337464600,3.562464599609375,0.6242775917053223,-0.7175077795982361,2.1597237586975098
1774470102347477800,3.572477783203125,0.7603353261947632,-1.1943459510803223,2.117587089538574
1774470102357490400,3.582490478515625,0.8031842708587646,-1.258423924446106,2.3137736320495605
1774470102367503600,3.592503662109375,0.809664249420166,-0.866759717464447,2.6220338344573975
1774470102377516800,3.602516845703125,0.7996233701705933,-0.21841025352478027,2.883274555206299
1774470102387529700,3.61252978515625,0.8259071707725525,0.41940563917160034,3.0190842151641846
1774470102397543700,3.622543701171875,0.8686390519142151,0.9096377491950989,2.988858461380005
1774470102407556600,3.632556640625,0.9130765795707703,1.0678050518035889,2.847491502761841
1774470102417569500,3.642569580078125,0.8746242523193359,0.8773910403251648,2.614938735961914
1774470102427582700,3.652582763671875,0.780249834060669,0.6119537949562073,2.318678855895996
1774470102437595600,3.662595703125,0.6813657283782959,0.5543749332427979,1.993585228919983
1774470102447608800,3.67260888671875,0.5480036735534668,0.5734447240829468,1.6745659112930298
1774470102457621500,3.68262158203125,0.37652355432510376,0.5835651159286499,1.4063743352890015
1774470102467634700,3.692634765625,0.1746266484260559,0.2857262194156647,1.1702907085418701
1774470102477647600,3.702647705078125,-0.018908506259322166,-0.1682574450969696,0.8816810846328735
1774470102487660500,3.71266064453125,-0.175773486495018,-0.5187960267066956,0.5710646510124207
1774470102497673700,3.722673828125,-0.3361089825630188,-0.6282342076301575,0.29691261053085327
1774470102507686700,3.732686767578125,-0.48599061369895935,-0.49695315957069397,0.06777875870466232
1774470102517699800,3.742699951171875,-0.5865659117698669,-0.29718947410583496,-0.15109673142433167
1774470102527712500,3.75271240234375,-0.6547249555587769,-0.1811257004737854,-0.33332008123397827
1774470102537725700,3.7627255859375,-0.7280131578445435,-0.34412282705307007,-0.5549244284629822
1774470102547738600,3.772738525390625,-0.7653136849403381,-0.6811943054199219,-0.8525310754776001
1774470102557751600,3.78275146484375,-0.7858080863952637,-0.9362605214118958,-1.080104112625122
1774470102567764700,3.7927646484375,-0.8046539425849915,-0.9778181314468384,-1.254274606704712
1774470102577777700,3.802777587890625,-0.8405088186264038,-0.9919126629829407,-1.370775818824768
1774470102587790800,3.812790771484375,-0.8723421692848206,-1.0786800384521484,-1.4089196920394897
1774470102597803500,3.822803466796875,-0.8823903203010559,-1.205550193786621,-1.407780408859253
1774470102607816700,3.832816650390625,-0.8889361023902893,-1.4061332941055298,-1.3814010620117188
1774470102617830700,3.84283056640625,-0.9014038443565369,-1.7027783393859863,-1.347845435142517
1774470102627843600,3.852843505859375,-0.9014400839805603,-1.9722559452056885,-1.3454523086547852
1774470102637856800,3.862856689453125,-0.8407456278800964,-2.0676543712615967,-1.3509973287582397
1774470102647869700,3.87286962890625,-0.7231531739234924,-1.760892629623413,-1.2108790874481201
1774470102657882600,3.882882568359375,-0.5900865793228149,-1.284204125404358,-0.8965815305709839
1774470102667895600,3.8928955078125,-0.44147685170173645,-0.7918018698692322,-0.414751261472702
1774470102677908700,3.90290869140625,-0.305708646774292,-0.363720566034317,0.1644483208656311
1774470102687921700,3.912921630859375,-0.19002358615398407,-0.06189413741230965,0.692033052444458
1774470102697934600,3.9229345703125,-0.03111683391034603,0.04916731268167496,1.180863618850708
1774470102707947800,3.93294775390625,0.20965182781219482,-0.3375580310821533,1.482291579246521
1774470102717960700,3.942960693359375,0.5432038307189941,-0.8593395352363586,1.5146098136901855
1774470102727973600,3.9529736328125,0.9101001024246216,-0.692685604095459,1.3709620237350464
1774470102737986600,3.962986572265625,1.2191972732543945,-0.35587838292121887,1.105893850326538
1774470102747999700,3.972999755859375,1.4087482690811157,-0.48993873596191406,0.7852623462677002
1774470102758012400,3.983012451171875,1.5692360401153564,-0.7810125350952148,0.45034071803092957
1774470102768025600,3.993025634765625,1.673180341720581,-1.2937637567520142,0.0268352460116148
1774470102778038800,4.003038818359375,1.7200109958648682,-1.5694355964660645,-0.4027676284313202
1774470102788051700,4.0130517578125,1.729970932006836,-1.5842832326889038,-0.8627514839172363
1774470102798064600,4.023064697265625,1.6919944286346436,-1.4831326007843018,-1.3204777240753174
1774470102808077600,4.03307763671875,1.5697736740112305,-1.553804874420166,-1.7430447340011597
1774470102818090800,4.0430908203125,1.5085242986679077,-1.8645204305648804,-1.8451240062713623
1774470102828103400,4.053103515625,1.3774662017822266,-1.8986475467681885,-1.870098352432251
1774470102838116600,4.06311669921875,1.2879562377929688,-1.6134142875671387,-1.814976692199707
1774470102848130800,4.073130859375,1.2247895002365112,-1.1352627277374268,-1.7025138139724731
1774470102858143500,4.0831435546875,1.1297647953033447,-0.6784207820892334,-1.5059696435928345
1774470102868156700,4.09315673828125,1.0406546592712402,-0.2213275134563446,-1.208328366279602
1774470102878169600,4.103169677734375,0.9843403697013855,0.13822688162326813,-0.9112125635147095
1774470102888182500,4.1131826171875,0.9939354658126831,0.5807193517684937,-0.9435425400733948
1774470102898195700,4.12319580078125,0.9934159517288208,0.7679612040519714,-1.0136964321136475
1774470102908208600,4.133208740234375,0.8858205080032349,0.5378097891807556,-1.2857303619384766
1774470102918221800,4.143221923828125,0.7633247971534729,0.46350863575935364,-1.5256608724594116
1774470102928234500,4.153234375,0.6333460211753845,0.573265790939331,-1.6091179847717285
1774470102938247700,4.16324755859375,0.4612025022506714,0.6265913844108582,-1.588849663734436
1774470102948260600,4.173260498046875,0.34041163325309753,0.781714141368866,-1.5440044403076172
1774470102958273500,4.1832734375,0.2993590235710144,1.0756611824035645,-1.5787696838378906
1774470102968286700,4.19328662109375,0.29183053970336914,1.2118641138076782,-1.708001732826233
1774470102978299600,4.203299560546875,0.3195478320121765,1.1923295259475708,-1.8510136604309082
1774470102988312800,4.213312744140625,0.3519880473613739,1.085614800453186,-1.9882774353027344
1774470102998325500,4.223325439453125,0.37518903613090515,0.9119677543640137,-2.1113946437835693
1774470103008338700,4.233338623046875,0.400043785572052,0.7508955001831055,-2.1649234294891357
1774470103018351600,4.2433515625,0.4054637551307678,0.6216729283332825,-2.1514017581939697
1774470103028364500,4.253364501953125,0.3757452666759491,0.47368472814559937,-2.1068003177642822
1774470103038377700,4.263377685546875,0.34313249588012695,0.3241771161556244,-2.027637481689453
1774470103048390700,4.273390625,0.3472004532814026,0.2447155863046646,-1.9615980386734009
1774470103058403800,4.28340380859375,0.3644915819168091,0.3624727427959442,-1.902741551399231
1774470103068416500,4.29341650390625,0.35271748900413513,0.5346873998641968,-1.7560813426971436
1774470103078429700,4.3034296875,0.31728261709213257,0.7403205037117004,-1.5087368488311768
1774470103088442600,4.313442626953125,0.3026061952114105,0.9626350402832031,-1.2658166885375977
1774470103098455600,4.32345556640625,0.33277660608291626,1.0472230911254883,-1.1275091171264648
1774470103108468500,4.333468505859375,0.3551120162010193,0.8848890066146851,-1.093035340309143
1774470103118481700,4.343481689453125,0.36137405037879944,0.565766453742981,-1.0920144319534302
1774470103128494800,4.353494873046875,0.3766126334667206,0.29447293281555176,-1.1052780151367188
1774470103138507500,4.363507568359375,0.39733460545539856,0.06899417191743851,-1.1185178756713867
1774470103148521700,4.373521728515625,0.3917073607444763,-0.0854145735502243,-1.090766429901123
1774470103158534700,4.38353466796875,0.37382301688194275,-0.1403624266386032,-1.0480918884277344
1774470103168547600,4.393547607421875,0.3663472533226013,-0.12100150436162949,-1.0510685443878174
1774470103178560800,4.403560791015625,0.3447437882423401,-0.02093208208680153,-1.0728188753128052
1774470103188573700,4.41357373046875,0.31159570813179016,0.171153724193573,-1.1143732070922852
1774470103198586600,4.423586669921875,0.3141234517097473,0.33658280968666077,-1.1913983821868896
1774470103208599600,4.433599609375,0.3525025248527527,0.3210323452949524,-1.3006420135498047
1774470103218612700,4.44361279296875,0.37718164920806885,0.13305391371250153,-1.3709553480148315
1774470103228625400,4.45362548828125,0.4120512008666992,-0.08828859031200409,-1.3458881378173828
1774470103238638600,4.463638671875,0.5030982494354248,-0.19589002430438995,-1.356711745262146
1774470103248651800,4.47365185546875,0.6101378798484802,-0.24641738831996918,-1.397060751914978
1774470103258664700,4.483664794921875,0.6549701690673828,-0.30482158064842224,-1.3609120845794678
1774470103268677600,4.493677734375,0.6558420658111572,-0.25087660551071167,-1.290378451347351
1774470103278690600,4.503690673828125,0.6583300828933716,-0.09282173961400986,-1.3079127073287964
1774470103288703700,4.513703857421875,0.6264307498931885,-0.023866640403866768,-1.3586418628692627
1774470103298716700,4.523716552734375,0.5509828329086304,-0.01254766620695591,-1.4242863655090332
1774470103308729600,4.5337294921875,0.46432486176490784,0.005384995136409998,-1.516794204711914
1774470103318742800,4.54374267578125,0.3701340854167938,-0.054916251450777054,-1.5698926448822021
1774470103328755700,4.553755615234375,0.2667911946773529,-0.16915574669837952,-1.583518385887146
1774470103342523600,4.567523681640625,0.15746766328811646,-0.23581475019454956,-1.669766902923584
1774470103352536600,4.57753662109375,0.048185646533966064,-0.3172720670700073,-1.6866679191589355
1774470103362549500,4.587549560546875,-0.09421481192111969,-0.3778022527694702,-1.584371566772461
1774470103372562700,4.597562744140625,-0.17169813811779022,-0.35894492268562317,-1.5318683385849
1774470103382575900,4.607575927734375,-0.21704207360744476,-0.4253864288330078,-1.6214760541915894
1774470103392588500,4.617588623046875,-0.2673340141773224,-0.6186475157737732,-1.7761564254760742
1774470103402601700,4.627601806640625,-0.3076317310333252,-0.7747790217399597,-1.9392684698104858
1774470103412614700,4.63761474609375,-0.3453700542449951,-0.9152911305427551,-2.0630886554718018
1774470103422627600,4.647627685546875,-0.37431204319000244,-0.962921142578125,-2.1546523571014404
1774470103432640500,4.657640625,-0.3863697648048401,-0.9163291454315186,-2.2093539237976074
1774470103442653700,4.66765380859375,-0.4367585778236389,-0.762440025806427,-2.182250499725342
1774470103452667000,4.6776669921875,-0.47052639722824097,-0.52461838722229,-2.170233726501465
1774470103462679600,4.687679443359375,-0.558151364326477,-0.3747149109840393,-2.1125121116638184
1774470103472692700,4.697692626953125,-0.7097576856613159,-0.4170924723148346,-1.9961764812469482
1774470103482705700,4.70770556640625,-0.8786234855651855,-0.2836771011352539,-1.758148431777954
1774470103492718600,4.717718505859375,-1.0185973644256592,-0.29473161697387695,-1.4738624095916748
1774470103502731500,4.7277314453125,-1.1228621006011963,-0.5164858102798462,-1.1859506368637085
1774470103512744700,4.73774462890625,-1.198851466178894,-0.7089796662330627,-0.8724421262741089
1774470103522758000,4.7477578125,-0.9749695658683777,0.4747917950153351,-1.061655879020691
1774470103532770600,4.7577705078125,-0.7324512004852295,1.3758350610733032,-1.5104550123214722
1774470103542783700,4.76778369140625,-0.5009654760360718,2.0053775310516357,-2.3931121826171875
1774470103552796700,4.777796630859375,-0.30980828404426575,2.1623387336730957,-3.51591420173645
1774470103562809300,4.787809326171875,-0.20688025653362274,0.6453412771224976,-4.597951412200928
1774470103572822000,4.797822021484375,-0.10000413656234741,-1.3095645904541016,-5.3706464767456055
1774470103582835200,4.807835205078125,-0.03263543173670769,-2.6749205589294434,-5.667304992675781
1774470103592848100,4.81784814453125,-0.05002693831920624,-3.306021213531494,-5.496768951416016
1774470103602861000,4.827861083984375,-0.1735321432352066,-3.29866623878479,-5.023645877838135
1774470103612874200,4.837874267578125,-0.3632757067680359,-2.6694247722625732,-4.362065315246582
1774470103622887200,4.84788720703125,-0.6136007905006409,-1.6116946935653687,-3.5302767753601074
1774470103632900400,4.857900390625,-0.7950177192687988,-0.3776623606681824,-2.8850388526916504
1774470103642913000,4.8679130859375,-0.7478525042533875,1.0248644351959229,-2.6887247562408447
1774470103652926200,4.87792626953125,-0.6318800449371338,1.642971158027649,-2.8415980339050293
1774470103662939100,4.887939208984375,-0.5164699554443359,1.2325363159179688,-3.151777744293213
1774470103672952000,4.8979521484375,-0.3942039906978607,0.3523021936416626,-3.4443795680999756
1774470103682965000,4.907965087890625,-0.3462083339691162,-0.6758686900138855,-3.577932834625244
1774470103692978200,4.917978271484375,-0.3716985285282135,-1.5651359558105469,-3.5015757083892822
1774470103702991400,4.927991455078125,-0.4759272336959839,-2.101372718811035,-3.2201900482177734
1774470103713004000,4.938004150390625,-0.7200815677642822,-2.378450393676758,-2.7183070182800293
1774470103723017200,4.948017333984375,-1.0820660591125488,-2.1592488288879395,-1.8074982166290283
1774470103733030100,4.958030029296875,-1.4801102876663208,-1.0311784744262695,-0.39560702443122864
1774470103743043000,4.96804296875,-1.638871431350708,0.11015285551548004,0.6519339084625244
1774470103753057300,4.978057373046875,-1.2698065042495728,0.6659247279167175,1.0869299173355103
1774470103763070200,4.9880703125,-0.7490404844284058,0.9773780107498169,1.2181559801101685
1774470103773083100,4.998083251953125,-0.3611729145050049,0.9779021143913269,1.1208792924880981
1774470103783096000,5.008095947265625,-0.10052330046892166,0.6810716390609741,0.7891539335250854
1774470103793109200,5.018109130859375,0.010103607550263405,0.21435585618019104,0.3213268518447876
1774470103803122000,5.028121826171875,-0.051039040088653564,-0.1930793672800064,-0.07987470924854279
1774470103813135000,5.038135009765625,-0.2087852656841278,-0.35482165217399597,-0.3088684678077698
1774470103823148300,5.048148193359375,-0.42818453907966614,-0.22788973152637482,-0.4327242970466614
1774470103833161200,5.0581611328125,-0.710074245929718,0.07893679291009903,-0.43842002749443054
1774470103843174100,5.068174072265625,-0.8853133916854858,0.3214472532272339,-0.33905917406082153
1774470103853187000,5.07818701171875,-0.936180055141449,0.4937814772129059,-0.29816684126853943
1774470103863200300,5.0882001953125,-0.9170584678649902,0.563286542892456,-0.3548497259616852
1774470103873213000,5.098212890625,-0.9001258015632629,0.42880168557167053,-0.42072728276252747
1774470103883226000,5.10822607421875,-0.9312885403633118,0.2012537270784378,-0.47724050283432007
1774470103893239300,5.1182392578125,-1.0110291242599487,0.009585507214069366,-0.5644893646240234
1774470103903252200,5.128252197265625,-1.0657879114151,-0.10634366422891617,-0.6698621511459351
1774470103913265200,5.13826513671875,-1.0986047983169556,-0.08272462338209152,-0.7182317972183228
1774470103923278000,5.148278076171875,-1.0811687707901,0.025209562852978706,-0.6087788939476013
1774470103933291300,5.158291259765625,-1.0170246362686157,0.19862236082553864,-0.36738041043281555
1774470103943304000,5.168303955078125,-0.8576570749282837,0.2681816518306732,-0.1079736277461052
1774470103953317000,5.178317138671875,-0.7977761626243591,0.2588810920715332,-0.03585788980126381
1774470103963330300,5.188330322265625,-0.8013654947280884,0.13642121851444244,-0.03836498409509659
1774470103973343200,5.19834326171875,-0.7524093985557556,-0.07363375276327133,-0.06624562293291092
1774470103983356200,5.208356201171875,-0.629562497138977,-0.3073551654815674,-0.05760633945465088
1774470103993369000,5.218369140625,-0.509944498538971,-0.4219376742839813,0.030568525195121765
1774470104003382300,5.22838232421875,-0.41557541489601135,-0.4495169222354889,0.13967913389205933
1774470104013395000,5.23839501953125,-0.42297741770744324,-0.43861687183380127,0.19836854934692383
1774470104023408000,5.248408203125,-0.4880070984363556,-0.39732682704925537,0.25613465905189514
1774470104033421000,5.258421142578125,-0.47043848037719727,-0.3737642467021942,0.31359341740608215
1774470104043434200,5.268434326171875,-0.18622703850269318,-0.46199479699134827,0.24043521285057068
1774470104053447200,5.278447265625,-0.07434922456741333,-0.44146928191185,0.21410614252090454
1774470104063460000,5.288460205078125,-0.05991603434085846,-0.47993412613868713,0.27279141545295715
1774470104073473300,5.298473388671875,-0.04666068032383919,-0.5162273645401001,0.2883397340774536
1774470104083486200,5.308486328125,-0.035867106169462204,-0.4790198504924774,0.2573320269584656
1774470104093499100,5.3184990234375,-0.06857684999704361,-0.4052295386791229,0.20066343247890472
1774470104103512000,5.328511962890625,-0.14498236775398254,-0.2756628692150116,0.1346721649169922
1774470104113525200,5.338525146484375,-0.20541055500507355,-0.11381165683269501,0.04723447188735008
1774470104123538200,5.3485380859375,-0.2845444977283478,0.4058167338371277,-0.11858062446117401
1774470104133551000,5.358551025390625,-0.3061816096305847,0.7930850982666016,-0.254926472902298
1774470104143564300,5.368564208984375,-0.3086109757423401,1.108670711517334,-0.36452364921569824
1774470104153577200,5.3785771484375,-0.2970994710922241,1.5417759418487549,-0.46484360098838806
1774470104163590100,5.388590087890625,-0.28532204031944275,1.9474912881851196,-0.5242217183113098
1774470104173603000,5.39860302734375,-0.27343130111694336,2.0454561710357666,-0.623432457447052
1774470104183616300,5.4086162109375,-0.16115804016590118,1.7364083528518677,-0.6138529181480408
1774470104193629200,5.418629150390625,-0.009174101054668427,0.934117317199707,-0.47708383202552795
1774470104203642000,5.42864208984375,0.04269331693649292,0.06590840965509415,-0.307431697845459
1774470104213655300,5.4386552734375,0.01222009677439928,-0.6931742429733276,-0.25341078639030457
1774470104223668200,5.448668212890625,0.003956574015319347,-1.350043773651123,-0.2595432698726654
1774470104233682200,5.45868212890625,0.029057132080197334,-1.7604535818099976,-0.22662073373794556
1774470104243695400,5.4686953125,0.06525520235300064,-1.869211196899414,-0.19468766450881958
1774470104253708000,5.4787080078125,0.09310893714427948,-1.6799997091293335,-0.2051280438899994
1774470104263721200,5.48872119140625,0.11214357614517212,-1.2753924131393433,-0.24883593618869781
1774470104273734100,5.498734130859375,0.07968656718730927,-0.8286247849464417,-0.30905479192733765
1774470104283747000,5.5087470703125,-0.02309381775557995,-0.47261226177215576,-0.359806627035141
1774470104293760000,5.518760009765625,-0.11526688933372498,-0.18715867400169373,-0.37283003330230713
1774470104303773200,5.528773193359375,-0.18371085822582245,0.014502234756946564,-0.41583314538002014
1774470104313786400,5.538786376953125,-0.23432289063930511,0.1599092185497284,-0.4224098324775696
1774470104323799000,5.548799072265625,-0.2378850132226944,0.23373571038246155,-0.410607248544693
1774470104333812200,5.558812255859375,-0.20642535388469696,0.20575840771198273,-0.4246245324611664
1774470104343825200,5.5688251953125,-0.18316851556301117,0.08026029914617538,-0.4385429918766022
1774470104353838000,5.578838134765625,-0.15885837376117706,-0.12774190306663513,-0.44416919350624084
1774470104363851000,5.58885107421875,-0.10767209529876709,-0.331685870885849,-0.44076964259147644
1774470104373864200,5.5988642578125,-0.04029358550906181,-0.466137170791626,-0.4179348945617676
1774470104383877000,5.608877197265625,0.04880551993846893,-0.5576311945915222,-0.42991018295288086
1774470104393890000,5.61889013671875,0.145579993724823,-0.6175161004066467,-0.5492352247238159
1774470104403903200,5.6289033203125,0.19976401329040527,-0.6195785999298096,-0.6820759773254395
1774470104413916200,5.638916259765625,0.19030846655368805,-0.597418487071991,-0.7669328451156616
1774470104423929000,5.64892919921875,0.11875210702419281,-0.5564345121383667,-0.7924665212631226
1774470104433942000,5.65894189453125,0.024660492315888405,-0.4922592341899872,-0.7652719020843506
1774470104443955200,5.668955078125,-0.04442104697227478,-0.41182419657707214,-0.7288494110107422
1774470104453969200,5.67896923828125,-0.08675012737512589,-0.3244701027870178,-0.7023293972015381
1774470104463982000,5.688982177734375,-0.10905472934246063,-0.25710341334342957,-0.6784405708312988
1774470104473995300,5.698995361328125,-0.11616963148117065,-0.23505403101444244,-0.659161388874054
1774470104484008200,5.70900830078125,-0.1330898404121399,-0.24257755279541016,-0.6578953862190247
1774470104494021000,5.719021240234375,-0.15568304061889648,-0.2386331409215927,-0.627524733543396
1774470104504034000,5.729033935546875,-0.17049875855445862,-0.22981548309326172,-0.5490204095840454
1774470104514047200,5.739047119140625,-0.2650681436061859,-0.20760871469974518,-0.546733558177948
1774470104524060200,5.74906005859375,-0.2009756714105606,0.18948905169963837,-0.5190250277519226
1774470104534073000,5.759072998046875,-0.14484208822250366,0.3967573046684265,-0.5038297772407532
1774470104544086300,5.769086181640625,-0.1824672967195511,0.6040575504302979,-0.46929097175598145
1774470104554099200,5.77909912109375,-0.2585998773574829,1.050098180770874,-0.5136435031890869
1774470104564112100,5.789112060546875,-0.31644725799560547,1.613526463508606,-0.5527311563491821
1774470104574125300,5.799125244140625,-0.4210517108440399,1.9884213209152222,-0.5475289821624756
1774470104584138200,5.80913818359375,-0.558891236782074,1.8291513919830322,-0.5036940574645996
1774470104594151200,5.819151123046875,-0.6372515559196472,0.9329637885093689,-0.42160719633102417
1774470104604165000,5.8291650390625,-0.6654846668243408,-0.30749696493148804,-0.2218354195356369
1774470104614178300,5.83917822265625,-0.6996889710426331,-1.4453253746032715,-0.06696248054504395
1774470104624191200,5.849191162109375,-0.6221827864646912,-1.8085442781448364,0.07664555311203003
1774470104634204200,5.8592041015625,-0.352230966091156,-1.8347920179367065,0.007951973006129265
1774470104644217300,5.86921728515625,-0.18672612309455872,-1.2949494123458862,-0.10302993655204773
1774470104654230000,5.87922998046875,-0.221298485994339,0.002836721483618021,-0.07327603548765182
1774470104664243200,5.8892431640625,-0.3453589379787445,1.6796220541000366,-0.19404374063014984
1774470104674256100,5.899256103515625,-0.49070867896080017,2.2908685207366943,-0.30217444896698
1774470104684269300,5.909269287109375,-0.7020828723907471,2.360933780670166,-0.2828676700592041
1774470104694282200,5.9192822265625,-0.8587406277656555,2.0794167518615723,-0.2574712336063385
1774470104704295200,5.929295166015625,-0.8585262298583984,1.2036664485931396,-0.1369815468788147
1774470104714308400,5.939308349609375,-0.7843425273895264,0.0837305560708046,0.045760028064250946
1774470104724322000,5.949322021484375,-0.5927836298942566,-0.9462563395500183,0.1867637038230896
1774470104734335200,5.959335205078125,-0.2867366075515747,-1.4892988204956055,0.3151693642139435
1774470104744348200,5.96934814453125,-0.21666234731674194,-1.705777645111084,0.22112585604190826
1774470104754361000,5.979361083984375,-0.282409131526947,-1.5087883472442627,0.17433598637580872
1774470104764374300,5.989374267578125,-0.39006665349006653,-0.8508931994438171,0.09097211062908173
1774470104774387200,5.99938720703125,-0.5338445901870728,-1.3481954336166382,-0.1627533733844757
1774470104784400100,6.009400146484375,-0.38965925574302673,-2.209824800491333,0.014494873583316803
1774470104794413000,6.0194130859375,-0.27246978878974915,-2.617063045501709,0.01477876678109169
1774470104804426200,6.02942626953125,-0.34771865606307983,-2.884249687194824,-0.050220560282468796
1774470104814439400,6.039439453125,-0.2520054578781128,-2.9157650470733643,-0.15947115421295166
1774470104824452000,6.0494521484375,-0.07281886041164398,-2.431246042251587,-0.3172832429409027
1774470104834466300,6.05946630859375,-0.06381683796644211,-1.5459532737731934,-0.3164736330509186
1774470104844479000,6.06947900390625,-0.09778758883476257,-0.5926300883293152,-0.25085654854774475
1774470104854492200,6.0794921875,-0.16850809752941132,-0.3583019971847534,-0.12554870545864105
1774470104864505300,6.08950537109375,-0.26536673307418823,-0.24378281831741333,-0.08604682236909866
1774470104874518300,6.099518310546875,-0.2118377536535263,-0.05486750230193138,-0.00845775380730629
1774470104884531200,6.10953125,-0.06892912089824677,-0.14842213690280914,-0.026902589946985245
1774470104894544100,6.119544189453125,-0.032880838960409164,-0.24350017309188843,0.009587777778506279
1774470104904557300,6.129557373046875,-0.005704896058887243,-0.5449169874191284,0.10214781016111374
1774470104914570000,6.139570068359375,0.09525846689939499,-0.6185515522956848,0.15671676397323608
1774470104924583200,6.149583251953125,0.38259151577949524,-1.3269108533859253,0.21404442191123962
1774470104934597400,6.159597412109375,0.6785988807678223,-0.8992367386817932,0.24313253164291382
1774470104944610000,6.169610107421875,0.622442901134491,-0.5360777378082275,0.26006022095680237
1774470104954623200,6.179623291015625,0.3433246612548828,-0.33951297402381897,0.24290627241134644
1774470104964636200,6.18963623046875,-0.025080246850848198,-0.1592598706483841,0.10690022259950638
1774470104974649000,6.199649169921875,-0.36163565516471863,-0.2552122175693512,-0.025507615879178047
1774470104984662300,6.209662353515625,-0.14061187207698822,-0.1391032636165619,-0.12780410051345825
1774470104994675200,6.21967529296875,-0.0009564959909766912,0.17607785761356354,-0.17271751165390015
1774470105004688400,6.2296884765625,0.004235569387674332,0.4358740746974945,-0.24240624904632568
1774470105014701000,6.239701171875,-0.02881639078259468,0.6934056878089905,-0.3258129954338074
1774470105024715300,6.24971533203125,-0.0914212316274643,0.6418062448501587,-0.29411736130714417
1774470105034728200,6.259728271484375,0.04485538601875305,0.7075815200805664,-0.3141009211540222
1774470105044741000,6.2697412109375,0.1429440677165985,0.7483987808227539,-0.2609488070011139
1774470105054754300,6.27975439453125,0.12841889262199402,0.6589046120643616,-0.2045622169971466
1774470105064767200,6.289767333984375,0.10707706212997437,0.6098513603210449,-0.21775437891483307
1774470105074780200,6.2997802734375,0.13380268216133118,0.663269579410553,-0.2367621511220932
1774470105084793000,6.30979296875,0.18060114979743958,0.4520907700061798,-0.27274513244628906
1774470105094806300,6.31980615234375,0.19858068227767944,0.3838387429714203,-0.27208468317985535
1774470105104820200,6.3298203125,0.25161442160606384,0.4615321457386017,-0.31441742181777954
1774470105114833200,6.339833251953125,0.10065339505672455,0.4668973386287689,-0.29857534170150757
1774470105124846300,6.349846435546875,-0.04980650916695595,0.5198292136192322,-0.264418363571167
1774470105134859000,6.35985888671875,-0.13743755221366882,0.3509422242641449,-0.2751524746417999
1774470105144872200,6.3698720703125,-0.13118942081928253,0.31029412150382996,-0.20593157410621643
1774470105154885400,6.379885498046875,0.08514900505542755,0.014924807474017143,-0.16877381503582
1774470105164898000,6.38989794921875,0.09539729356765747,0.17346639931201935,-0.13696253299713135
1774470105174911200,6.3999111328125,0.12190240621566772,0.13709615170955658,-0.1524200588464737
1774470105184925200,6.40992529296875,0.08232934027910233,0.2111215591430664,-0.029095232486724854
1774470105194938000,6.419938232421875,0.0885305106639862,0.5838173627853394,-0.06767244637012482
1774470105204951300,6.429951416015625,0.0762149766087532,0.6544308662414551,-0.04807889461517334
1774470105214964200,6.439964111328125,0.10257680714130402,0.6741702556610107,-0.029259132221341133
1774470105224977200,6.44997705078125,0.15679077804088593,0.23547348380088806,-0.028724906966090202
1774470105234990000,6.459989990234375,0.19827164709568024,0.25192490220069885,-0.07940912246704102
1774470105245003300,6.470003173828125,0.19724242389202118,0.1798587292432785,-0.05095147341489792
1774470105255017200,6.480017333984375,0.11784772574901581,0.14204424619674683,-0.01703052408993244
1774470105265030100,6.490030029296875,0.18710501492023468,0.24166780710220337,-0.11611919850111008
1774470105275043300,6.500043212890625,0.16067500412464142,0.37896281480789185,-0.06356491148471832
1774470105285056000,6.510055908203125,0.15542633831501007,0.5352737307548523,-0.12269458174705505
1774470105295069200,6.520069091796875,0.21615813672542572,0.509434700012207,-0.11697917431592941
1774470105305082000,6.53008203125,0.23893216252326965,0.6249595880508423,-0.17480559647083282
1774470105315095300,6.54009521484375,0.19014252722263336,0.7895069718360901,-0.2105841040611267
1774470105325109200,6.550109130859375,0.08771761506795883,0.912802517414093,-0.22230227291584015
1774470105335122200,6.5601220703125,0.026102988049387932,0.6967051029205322,-0.21679513156414032
1774470105345135000,6.570135009765625,0.015340350568294525,0.3264412581920624,-0.16573353111743927
1774470105355148000,6.58014794921875,0.024851564317941666,0.11267010867595673,-0.1652403175830841
1774470105365161200,6.5901611328125,-0.017282573506236076,0.08430325984954834,-0.09496640413999557
1774470105375174400,6.60017431640625,-0.05214867740869522,0.0521240159869194,-0.013496583327651024
1774470105385187000,6.61018701171875,-0.0040649487636983395,0.17089395225048065,0.07189490646123886
1774470105395200300,6.6202001953125,0.03561801835894585,0.3459715247154236,0.13069644570350647
1774470105405214200,6.630214111328125,-0.028788140043616295,0.34760841727256775,0.2111939638853073
1774470105415227100,6.64022705078125,-0.04911471903324127,0.17265792191028595,0.2659807801246643
1774470105425240300,6.650240234375,-0.07124132663011551,-0.11916673928499222,0.3204788863658905
1774470105435253200,6.660253173828125,-0.06041344627737999,-0.4435538649559021,0.3441962003707886
1774470105445266200,6.67026611328125,0.0003377874963916838,-0.7099895477294922,0.34498971700668335
1774470105455279000,6.680279052734375,0.07362692058086395,-0.8009002804756165,0.31216758489608765
1774470105465293000,6.69029296875,0.13365855813026428,-0.7557032704353333,0.29188522696495056
1774470105475306200,6.70030615234375,0.1378311961889267,-0.6612942218780518,0.2768822908401489
1774470105485319200,6.710319091796875,0.10504893213510513,-0.5078170895576477,0.18990594148635864
1774470105495332400,6.720332275390625,0.10747107863426208,-0.3504681885242462,0.046761296689510345
1774470105505345000,6.730344970703125,0.07603468000888824,-0.27733922004699707,-0.10509409010410309
1774470105515358200,6.740358154296875,0.016236593946814537,-0.25869470834732056,-0.17423269152641296
1774470105525371100,6.75037109375,-0.03059891238808632,-0.2017199695110321,-0.20356638729572296
1774470105535385000,6.760385009765625,-0.06734414398670197,-0.1834876984357834,-0.22016747295856476
1774470105545398300,6.770398193359375,-0.0656658187508583,-0.21209169924259186,-0.22051461040973663
1774470105555411200,6.7804111328125,-0.017622658982872963,-0.23216447234153748,-0.1930539608001709
1774470105565423900,6.790423828125,-0.007550050038844347,-0.18068918585777283,-0.22293144464492798
1774470105575437000,6.80043701171875,-0.07695788890123367,-0.07821420580148697,-0.2788788676261902
1774470105585450000,6.810449951171875,-0.1462125927209854,0.03354332968592644,-0.30292147397994995
1774470105595463000,6.820462890625,-0.20432330667972565,-0.0021145304199308157,-0.2981365919113159
1774470105605477000,6.83047705078125,-0.2250054031610489,-0.07997386902570724,-0.253682017326355
1774470105615490000,6.840489990234375,-0.2421463131904602,-0.20274639129638672,-0.2404935359954834
1774470105625503000,6.8505029296875,-0.2672845125198364,-0.36618542671203613,-0.19318357110023499
1774470105635516000,6.860515869140625,-0.2905333936214447,-0.45551663637161255,-0.11034780740737915
1774470105645529000,6.870529052734375,-0.2684554159641266,-0.5181441903114319,-0.07093551754951477
1774470105655542000,6.8805419921875,-0.1787353754043579,-0.5149492025375366,-0.0723818838596344
1774470105665556000,6.890555908203125,-0.08149218559265137,-0.4207794666290283,-0.139414981007576
1774470105675569200,6.900569091796875,0.024264603853225708,-0.3793167173862457,-0.23787043988704681
1774470105685581800,6.910581787109375,0.06431837379932404,-0.43077000975608826,-0.2814164161682129
1774470105695595000,6.920594970703125,-0.003551758360117674,-0.49243125319480896,-0.26819196343421936
1774470105705608200,6.930608154296875,-0.08846699446439743,-0.523392915725708,-0.2552908658981323
1774470105715621000,6.94062109375,-0.14815136790275574,-0.5105906128883362,-0.2139444798231125
1774470105725634000,6.950634033203125,-0.18888042867183685,-0.44433972239494324,-0.16861599683761597
1774470105735648000,6.96064794921875,-0.1658478081226349,-0.35948318243026733,-0.135234072804451
1774470105745661000,6.970660888671875,-0.11474066972732544,-0.2416832447052002,-0.10609006136655807
1774470105755674000,6.980674072265625,-0.0788085013628006,-0.18727566301822662,-0.08463882654905319
1774470105765687000,6.99068701171875,-0.0185994990170002,-0.153628408908844,-0.04382454603910446
1774470105775700000,7.000699951171875,0.05126986280083656,-0.0798170417547226,-0.020153308287262917
1774470105785713000,7.010712890625,0.07667774707078934,-0.03013802319765091,-0.06690695881843567
1774470105795726000,7.02072607421875,0.13954006135463715,-0.12154969573020935,-0.09596124291419983
1774470105805740000,7.030739990234375,0.19244065880775452,-0.11441105604171753,-0.16158786416053772
1774470105815753000,7.0407529296875,0.1525004357099533,0.003463920671492815,-0.19694772362709045
1774470105825766100,7.05076611328125,0.05311746895313263,0.09552977234125137,-0.18368887901306152
1774470105835779000,7.060779052734375,-0.06584140658378601,0.1835983693599701,-0.10960853099822998
1774470105845792000,7.0707919921875,-0.1387196034193039,0.3639899492263794,-0.06993261724710464
1774470105855805000,7.080804931640625,-0.12246979773044586,0.3866550624370575,-0.04265705496072769
1774470105865818000,7.090818115234375,-0.1418384462594986,0.35489094257354736,-0.09383727610111237
1774470105875832000,7.10083203125,-0.2084353119134903,0.19465038180351257,-0.13813868165016174
1774470105885845000,7.110844970703125,-0.15898741781711578,0.27558696269989014,-0.07090191543102264
1774470105895858200,7.120858154296875,-0.10816338658332825,0.39771580696105957,-0.03547308221459389
1774470105905870800,7.130870849609375,-0.05629974231123924,0.20901775360107422,-0.07738543301820755
1774470105915884000,7.140884033203125,-0.016845811158418655,-0.15388533473014832,-0.1376546323299408
1774470105925897200,7.150897216796875,0.011422664858400822,-0.4378034472465515,-0.1581026017665863
1774470105935910000,7.160909912109375,0.059721220284700394,-0.5301510095596313,-0.1591702550649643
1774470105945924000,7.170924072265625,0.14757145941257477,-0.8816829323768616,-0.2177668809890747
1774470105955937000,7.18093701171875,0.313525527715683,-1.7198148965835571,-0.1716497242450714
1774470105965950000,7.190949951171875,0.3476797044277191,-1.78440523147583,-0.17107544839382172
1774470105975963100,7.200963134765625,0.3926578164100647,-1.1041496992111206,-0.28196415305137634
1774470105985976000,7.21097607421875,0.38223516941070557,-0.24519114196300507,-0.3894961178302765
1774470105995989000,7.220989013671875,0.27329325675964355,0.2937980592250824,-0.30903616547584534
1774470106006002000,7.231001953125,0.10990787297487259,0.5207120180130005,-0.18398459255695343
1774470106016016100,7.24101611328125,-0.015629546716809273,0.5357170701026917,-0.13726501166820526
1774470106026029000,7.251029052734375,-0.0677889809012413,0.3464471697807312,-0.17034178972244263
1774470106036042000,7.2610419921875,-0.04824376851320267,0.2337893396615982,-0.1916835606098175
1774470106046055200,7.27105517578125,-0.0013738974230363965,0.19754119217395782,-0.16519679129123688
1774470106056067800,7.28106787109375,0.0397421158850193,0.16176187992095947,-0.12979964911937714
1774470106066081000,7.2910810546875,0.07359735667705536,0.07080955803394318,-0.08257748931646347
1774470106076094000,7.301093994140625,0.09233482927083969,0.0273776613175869,0.0004225843586027622
1774470106086108000,7.31110791015625,0.09899086505174637,0.2591342329978943,0.027665525674819946
1774470106096121000,7.32112109375,0.13945120573043823,0.36026138067245483,0.06926330178976059
1774470106106134000,7.331134033203125,0.14773054420948029,0.32705792784690857,0.11640036106109619
1774470106116147000,7.34114697265625,0.11378908157348633,0.34960851073265076,0.0707753598690033
1774470106126160100,7.35116015625,0.0738620012998581,0.30650362372398376,0.007838371209800243
1774470106136173000,7.361173095703125,0.0990656241774559,0.2897590100765228,-0.047117821872234344
1774470106146186200,7.371186279296875,0.035879459232091904,0.47723254561424255,0.03244704753160477
1774470106156200000,7.381199951171875,-0.11034379154443741,0.9283661842346191,0.1180487647652626
1774470106166213000,7.391213134765625,-0.1600017100572586,0.9541763067245483,0.09219422191381454
1774470106176226000,7.40122607421875,-0.17790614068508148,0.6578487753868103,0.15915141999721527
1774470106186239000,7.411239013671875,-0.1365075707435608,0.3346400856971741,0.18404318392276764
1774470106196252200,7.421252197265625,-0.1534428745508194,0.18480826914310455,0.22434799373149872
1774470106206265000,7.43126513671875,-0.17798107862472534,0.08661385625600815,0.28191298246383667
1774470106216278000,7.441278076171875,-0.2567821443080902,-0.01896769553422928,0.4172638952732086
1774470106226291000,7.451291015625,-0.45738163590431213,0.053667571395635605,0.503403902053833
1774470106236305000,7.461304931640625,-0.8391414880752563,0.24302950501441956,0.561022162437439
1774470106246318000,7.471318115234375,-1.1931554079055786,0.25558894872665405,0.5501577258110046
1774470106256331000,7.4813310546875,-1.480787992477417,-0.07156918942928314,0.45958471298217773
1774470106266344200,7.49134423828125,-1.732890009880066,-0.4958628714084625,0.37262383103370667
1774470106276356900,7.50135693359375,-1.8236548900604248,-0.6984735131263733,0.3491153120994568
1774470106286370000,7.5113701171875,-1.62307608127594,-0.7415786385536194,0.4444200396537781
1774470106296383200,7.52138330078125,-1.1845083236694336,-0.8789609670639038,0.536117434501648
1774470106306397000,7.53139697265625,-0.68648362159729,-0.9629717469215393,0.5341895818710327
1774470106316410000,7.54141015625,-0.2676171064376831,-0.8705203533172607,0.5139147043228149
1774470106326423000,7.551423095703125,-0.04565338045358658,-0.7561687231063843,0.5437988042831421
1774470106336436000,7.56143603515625,-0.05925041809678078,-0.6061720848083496,0.6276034116744995
1774470106346449200,7.57144921875,-0.2252618372440338,-0.4757622480392456,0.6977628469467163
1774470106356462000,7.581462158203125,-0.38853493332862854,-0.34858590364456177,0.7365589737892151
1774470106366475000,7.59147509765625,-0.4964773654937744,-0.2963477373123169,0.7946031093597412
1774470106376488000,7.601488037109375,-0.549120306968689,-0.3141019642353058,0.8776804208755493
1774470106386502100,7.611502197265625,-0.4934953451156616,-0.12068307399749756,0.9190598726272583
1774470106396515000,7.62151513671875,-0.3100464344024658,0.00896412879228592,0.8690435886383057
1774470106406528000,7.631528076171875,-0.11588108539581299,0.06345625221729279,0.7986705303192139
1774470106416541200,7.641541259765625,-0.0062944055534899235,0.17940601706504822,0.7852292656898499
1774470106426553900,7.651553955078125,0.01672402210533619,0.3813597559928894,0.7370418906211853
1774470106436567000,7.661567138671875,0.06695656478404999,0.5765545964241028,0.6572269201278687
1774470106446580000,7.671580078125,0.1242399588227272,0.6329013705253601,0.5975097417831421
1774470106456593200,7.68159326171875,0.15161700546741486,0.5595291256904602,0.5331589579582214
1774470106466607000,7.691607177734375,0.1632700115442276,0.5260359048843384,0.4869258999824524
1774470106476620000,7.7016201171875,0.17604945600032806,0.4899247884750366,0.41658303141593933
1774470106486633000,7.711633056640625,0.17327331006526947,0.44241005182266235,0.2962423264980316
1774470106496646000,7.72164599609375,0.15666504204273224,0.28868812322616577,0.22477933764457703
1774470106506659000,7.7316591796875,0.16444243490695953,-0.01033085398375988,0.1557425558567047
1774470106516672300,7.74167236328125,0.2848231792449951,-0.23908521234989166,0.1371917724609375
1774470106526685000,7.751684814453125,0.5605092644691467,-0.3153739273548126,0.12433292716741562
1774470106536698000,7.761697998046875,0.8593246936798096,-0.3056078255176544,0.1871587634086609
1774470106546711800,7.7717119140625,0.9958294034004211,-0.2485482543706894,0.25911834836006165
1774470106556725000,7.78172509765625,0.9511010646820068,-0.27950403094291687,0.3591219186782837
1774470106566738000,7.791738037109375,0.7511880993843079,-0.4046303331851959,0.4011423587799072
1774470106576751000,7.801751220703125,0.46026837825775146,-0.4803847670555115,0.3462042808532715
1774470106586763800,7.811763671875,0.2375757098197937,-0.4575035274028778,0.2524673342704773
1774470106596777000,7.82177685546875,0.15456657111644745,-0.41604769229888916,0.1742659956216812
1774470106606790000,7.831789794921875,0.18334564566612244,-0.38916459679603577,0.15376506745815277
1774470106616802800,7.841802734375,0.19862686097621918,-0.3163013160228729,0.19089487195014954
1774470106626817000,7.851817138671875,0.1813792586326599,-0.2178271859884262,0.1802808791399002
1774470106636830000,7.861829833984375,0.19908715784549713,-0.10412565618753433,0.12775269150733948
1774470106646843000,7.8718427734375,0.2478753626346588,-0.04820512607693672,0.10226206481456757
1774470106656855800,7.881855712890625,0.28317102789878845,0.00036853644996881485,0.11011253297328949
1774470106666869000,7.891868896484375,0.24887895584106445,0.021037552505731583,0.13834154605865479
1774470106676881700,7.901881591796875,0.17413228750228882,0.04005385562777519,0.1584998071193695
1774470106686894800,7.911894775390625,0.14547397196292877,0.051829203963279724,0.1632319837808609
1774470106696908000,7.921907958984375,0.21256139874458313,0.1693824678659439,0.11247960478067398
1774470106706921000,7.9319208984375,0.27156463265419006,0.4140152037143707,-0.006402801722288132
1774470106716935000,7.941934814453125,0.25890210270881653,0.6160615086555481,-0.10819467157125473
1774470106726947800,7.95194775390625,0.2347979098558426,0.7578075528144836,-0.14822687208652496
1774470106736960800,7.961960693359375,0.1835339218378067,0.8060727715492249,-0.16409452259540558
1774470106746974000,7.971973876953125,0.0668342113494873,0.9213966131210327,-0.12672731280326843
1774470106756987000,7.98198681640625,-0.10681241005659103,0.962467610836029,-0.12989753484725952
1774470106767000000,7.992,-0.3392835557460785,1.136669635772705,-0.22525298595428467
1774470106777012700,8.0020126953125,-0.5247849822044373,1.8106187582015991,-0.27140742540359497
1774470106787026000,8.01202587890625,-0.552591860294342,2.4604547023773193,-0.306596577167511
1774470106797039900,8.022039794921875,-0.5878182649612427,2.847031831741333,-0.3629133701324463
1774470106807052800,8.032052734375,-0.5813609957695007,2.944451093673706,-0.3686763644218445
1774470106817066000,8.04206591796875,-0.47376981377601624,2.8026041984558105,-0.3691147267818451
1774470106827079000,8.052078857421876,-0.2828097343444824,2.540600538253784,-0.32794252038002014
1774470106837091800,8.062091796875,-0.106081023812294,2.2143890857696533,-0.3544479012489319
1774470106847104800,8.072104736328125,-0.05482369288802147,1.8621118068695068,-0.3980896472930908
1774470106857118000,8.082117919921876,-0.2578631043434143,1.4460715055465698,-0.48026520013809204
1774470106867131000,8.092130859375,-0.26751962304115295,1.0949009656906128,-0.2035808563232422
1774470106877144800,8.102144775390625,-0.2740912139415741,0.2092249095439911,-0.2460859715938568
1774470106887158000,8.112157958984374,-0.1708087921142578,-1.058207392692566,-0.3894953429698944
1774470106897171000,8.1221708984375,0.09268781542778015,-1.6267563104629517,-0.46193864941596985
1774470106907183900,8.132183837890626,0.4246481955051422,-1.932313323020935,-0.4644269645214081
1774470106917197000,8.142197021484375,0.49595674872398376,-2.0855956077575684,-0.23688247799873352
1774470106927209700,8.152209716796875,0.2920471727848053,-2.47058367729187,0.0971405953168869
1774470106937223000,8.162222900390624,-0.011694607324898243,-2.5660769939422607,0.2545648515224457
1774470106947235800,8.17223583984375,-0.1500510573387146,-2.4955339431762695,0.21764415502548218
1774470106957249800,8.182249755859376,-0.12346473336219788,-2.709200382232666,0.07884818315505981
1774470106967263000,8.192262939453125,-0.14047007262706757,-2.329791784286499,-0.037704531103372574
1774470106977276000,8.20227587890625,-0.22617457807064056,-1.8087213039398193,-0.11722838133573532
1774470106987288800,8.212288818359376,-0.3296319246292114,-1.1551352739334106,-0.16732892394065857
1774470106997301800,8.2223017578125,-0.4341583251953125,-0.4012537896633148,-0.16670973598957062
1774470107007315000,8.23231494140625,-0.5108184814453125,0.3910456895828247,-0.13048462569713593
1774470107017327900,8.242327880859374,-0.5175980925559998,1.1075114011764526,-0.06504835933446884
1774470107027340800,8.2523408203125,-0.4544755220413208,1.526163935661316,0.00659031979739666
1774470107037355000,8.26235498046875,-0.34966787695884705,1.5453941822052002,0.07735956460237503
1774470107047368000,8.272367919921875,-0.23464611172676086,1.1233727931976318,0.14182569086551666
1774470107057380900,8.282380859375,-0.14854878187179565,0.8161923289299011,0.19561222195625305
1774470107067394000,8.29239404296875,-0.08826091140508652,0.42244771122932434,0.2224000245332718
1774470107077407000,8.302406982421875,-0.04368118941783905,-0.07862205803394318,0.25038424134254456
1774470107087420000,8.312419921875,-0.01704498752951622,-0.48055967688560486,0.27843335270881653
1774470107097432800,8.322432861328124,-0.0009850612841546535,-0.6934423446655273,0.2710670530796051
1774470107107446000,8.332446044921875,0.007715138141065836,-0.8459657430648804,0.2734106183052063
1774470107117460000,8.3424599609375,0.017456982284784317,-0.8648976683616638,0.3139370083808899
1774470107127473000,8.352472900390625,0.0465170256793499,-0.6769657731056213,0.3266792595386505
1774470107137486000,8.362486083984376,0.1141810268163681,-0.3387795090675354,0.307628333568573
1774470107147498800,8.372498779296874,0.16727858781814575,0.048457443714141846,0.2829195261001587
1774470107157512000,8.382511962890625,0.16310036182403564,0.3489445745944977,0.24128445982933044
1774470107167524900,8.39252490234375,0.12387537956237793,0.44224849343299866,0.20553798973560333
1774470107177537800,8.402537841796875,0.04544316232204437,0.47804778814315796,0.13860182464122772
1774470107187550700,8.41255078125,-0.01727578416466713,0.4780411720275879,0.009793965145945549
1774470107197564000,8.42256396484375,-0.03365528956055641,0.6012116074562073,-0.10168808698654175
1774470107207577900,8.432577880859375,-0.06358619034290314,0.7413724660873413,-0.15596553683280945
1774470107217590800,8.4425908203125,-0.050659745931625366,0.6767404675483704,-0.20471495389938354
1774470107227604000,8.45260400390625,-0.03770489990711212,0.5827136039733887,-0.23978844285011292
1774470107237617000,8.462616943359375,0.06691498309373856,0.5933222770690918,-0.27527132630348206
1774470107247629800,8.4726298828125,0.13057413697242737,0.6406742334365845,-0.31745487451553345
1774470107257643000,8.48264306640625,0.06428567320108414,0.7789628505706787,-0.377007395029068
1774470107267656000,8.492656005859375,0.09184952825307846,1.0298718214035034,-0.45185813307762146
1774470107277670000,8.502669921875,0.08164455741643906,1.21274733543396,-0.5567171573638916
1774470107287683000,8.51268310546875,0.026388704776763916,1.5726872682571411,-0.6364949941635132
1774470107297696000,8.522696044921876,0.0032226669136434793,1.3242124319076538,-0.6859107613563538
1774470107307709000,8.532708984375,0.09134096652269363,0.9716320633888245,-0.7793643474578857
1774470107317721900,8.542721923828125,0.16090857982635498,0.6235877871513367,-0.8215016722679138
1774470107327735000,8.552735107421874,0.17197394371032715,0.35784247517585754,-0.7894259095191956
1774470107337747700,8.562747802734375,0.210407093167305,0.37885430455207825,-0.8331962823867798
1774470107347761000,8.572760986328126,0.20061436295509338,0.5101147294044495,-0.8646110892295837
1774470107357774000,8.582774169921874,0.09373930841684341,0.8119459748268127,-0.8204507827758789
1774470107367787800,8.592787841796875,0.06914813071489334,0.9213814735412598,-0.7532362341880798
1774470107377801000,8.602801025390624,0.11444077640771866,0.7971841096878052,-0.7282723188400269
1774470107387814000,8.61281396484375,0.20167016983032227,0.5687075853347778,-0.7094469666481018
1774470107397826800,8.622826904296875,0.2777222990989685,0.37366271018981934,-0.704486072063446
1774470107407840000,8.632840087890624,0.2972637712955475,0.37704145908355713,-0.668332040309906
1774470107417853000,8.64285302734375,0.3098503351211548,0.37034571170806885,-0.6232292056083679
1774470107427865900,8.652865966796876,0.3373925983905792,0.2439236044883728,-0.5111737251281738
1774470107437878800,8.662878662109375,0.4183958172798157,0.28736189007759094,-0.4706433415412903
1774470107447893000,8.67289306640625,0.45553508400917053,0.28975817561149597,-0.41813626885414124
1774470107457906000,8.682906005859374,0.4226437211036682,0.30443432927131653,-0.36455824971199036
1774470107467918800,8.6929189453125,0.4193378686904907,0.4069344699382782,-0.38789263367652893
1774470107477932000,8.70293212890625,0.43006590008735657,0.5063771605491638,-0.36588507890701294
1774470107487945000,8.712945068359375,0.45549264550209045,0.5351674556732178,-0.32101666927337646
1774470107497958000,8.7229580078125,0.43132340908050537,0.42685484886169434,-0.3043370246887207
1774470107507970800,8.732970703125,0.4361970126628876,0.2402498722076416,-0.29463058710098267
1774470107517984000,8.74298388671875,0.46067067980766296,-0.06447647511959076,-0.22478441894054413
1774470107527997000,8.752996826171875,0.47271281480789185,0.020201902836561203,-0.22178518772125244
1774470107538011000,8.763010986328124,0.461676687002182,-0.1827261745929718,-0.16796563565731049
1774470107548024000,8.773024169921875,0.41466832160949707,-0.10670389980077744,-0.16973274946212769
1774470107558036700,8.78303662109375,0.4467937648296356,-0.014275437220931053,-0.20369364321231842
1774470107568051000,8.793051025390625,0.4082903563976288,0.17100797593593597,-0.2080293595790863
1774470107578063600,8.803063720703125,0.30833420157432556,0.34497499465942383,-0.2414565533399582
1774470107588076800,8.813076904296874,0.18408626317977905,0.486061155796051,-0.2830270230770111
1774470107598090000,8.823090087890625,0.08919039368629456,0.44742080569267273,-0.27184149622917175
1774470107608103000,8.83310302734375,0.0648539587855339,0.38098904490470886,-0.26347172260284424
1774470107618116900,8.843116943359375,0.10498513281345367,0.29165756702423096,-0.26347678899765015
1774470107628129800,8.8531298828125,0.17613112926483154,0.35363924503326416,-0.2710454761981964
1774470107638142700,8.863142822265624,0.1727427989244461,0.3350796699523926,-0.24061113595962524
1774470107648156000,8.873156005859375,0.11825837939977646,0.3320619463920593,-0.2430257797241211
1774470107658168800,8.8831689453125,0.10400833934545517,0.45911335945129395,-0.2832365930080414
1774470107668182000,8.89318212890625,0.07630657404661179,0.6418905258178711,-0.3103545308113098
1774470107678194700,8.903194580078125,0.032794781029224396,0.8122862577438354,-0.30513259768486023
1774470107688208000,8.913207763671876,0.020864510908722878,0.8879032731056213,-0.3071194887161255
1774470107698221800,8.923221923828125,0.028537077829241753,0.8374912142753601,-0.3123909533023834
1774470107708234800,8.93323486328125,0.028185488656163216,0.7657001614570618,-0.30851051211357117
1774470107718248000,8.943248046875,0.03496456518769264,0.7376554608345032,-0.3130514621734619
1774470107728260900,8.9532607421875,0.04677034169435501,0.7665825486183167,-0.28532955050468445
1774470107738273800,8.963273681640626,0.03697177395224571,0.7080707550048828,-0.22722791135311127
1774470107748286700,8.97328662109375,0.04494883120059967,0.7580775022506714,-0.1605905145406723
1774470107758300000,8.9832998046875,0.035288482904434204,0.7725384831428528,-0.12474118173122406
1774470107768312800,8.993312744140624,-0.0009275008924305439,0.63560950756073,-0.08372578024864197
1774470107778325800,9.00332568359375,0.017380133271217346,0.6018489003181458,-0.07677838951349258
1774470107788340000,9.013340087890626,0.02165631391108036,0.674437403678894,-0.07883001118898392
1774470107798352600,9.0233525390625,0.012102490290999413,0.5041980147361755,-0.05857746675610542
1774470107808365800,9.03336572265625,0.007652739528566599,0.17081381380558014,-0.0009453669190406799
1774470107818379000,9.04337890625,0.050693150609731674,-0.20160315930843353,0.08833470940589905
1774470107828391700,9.0533916015625,0.12688377499580383,-0.5892652869224548,0.21211718022823334
1774470107838404900,9.06340478515625,0.17948228120803833,-0.5775319337844849,0.27186599373817444
1774470107848417800,9.073417724609374,0.18641707301139832,-0.474857360124588,0.28499385714530945
1774470107858431000,9.083430908203125,0.14893893897533417,-0.39050519466400146,0.30652767419815063
1774470107868443600,9.093443603515626,0.10434860736131668,-0.20970983803272247,0.27357494831085205
1774470107878457900,9.103457763671875,0.054911550134420395,-0.09360267221927643,0.2142312079668045
1774470107888470800,9.113470703125,0.02758026495575905,-0.1215151846408844,0.19911453127861023
1774470107898483700,9.123483642578124,0.04508762061595917,-0.15153832733631134,0.21422502398490906
1774470107908497000,9.133496826171875,0.08859433978796005,-0.23624972999095917,0.20850390195846558
1774470107918509800,9.143509765625,0.1160946786403656,-0.26882898807525635,0.21065360307693481
1774470107928522800,9.153522705078124,0.11757852137088776,-0.028676986694335938,0.14660198986530304
1774470107938536000,9.163535888671875,0.06759072095155716,0.2248373031616211,0.06567226350307465
1774470107948548900,9.173548828125,-0.021797554567456245,0.19297698140144348,0.002892457414418459
1774470107958561800,9.183561767578125,-0.06063283234834671,0.149398073554039,-0.025540782138705254
1774470107968575700,9.19357568359375,-0.04742440953850746,0.06767462939023972,0.005900636315345764
1774470107978589000,9.2035888671875,-0.020000774413347244,0.04871905595064163,0.01231619156897068
1774470107988601900,9.213601806640625,-0.003697175532579422,0.2431173175573349,-0.06776626408100128
1774470107998614800,9.22361474609375,-0.038615480065345764,0.4619530141353607,-0.14300189912319183
1774470108008628000,9.2336279296875,-0.08777955174446106,0.5348684191703796,-0.19837167859077454
1774470108018640600,9.243640625,-0.0969749167561531,0.592825174331665,-0.26157301664352417
1774470108028653800,9.25365380859375,-0.11457616835832596,0.7762741446495056,-0.33660808205604553
1774470108038666800,9.263666748046875,-0.14914825558662415,0.7378950715065002,-0.3486040234565735
1774470108048680000,9.273679931640626,-0.1527450978755951,0.5128201842308044,-0.2960122525691986
1774470108058694000,9.28369384765625,-0.11492740362882614,0.2863337993621826,-0.17672953009605408
1774470108068706800,9.293706787109375,-0.06977465748786926,0.12556008994579315,-0.09845400601625443
1774470108078719700,9.3037197265625,-0.03492346778512001,0.042799703776836395,-0.06175883859395981
1774470108088732700,9.313732666015625,0.01854548417031765,-0.03732091560959816,-0.02003234066069126
1774470108098745900,9.323745849609375,0.052633944898843765,-0.15559323132038116,0.00006520422175526619
1774470108108759000,9.333759033203124,0.1306496560573578,-0.4541533291339874,-0.0007418678142130375
1774470108118771700,9.343771728515625,0.2906656861305237,-1.2324018478393555,0.021720297634601593
1774470108128785000,9.353784912109376,0.44598427414894104,-1.633121371269226,0.024193884804844856
1774470108138797800,9.3637978515625,0.5533334016799927,-1.2190965414047241,-0.02224685065448284
1774470108148811800,9.373811767578125,0.5575043559074402,-0.655613362789154,-0.11053561419248581
1774470108158825000,9.383824951171874,0.4589122533798218,-0.25126025080680847,-0.22004586458206177
1774470108168838000,9.393837890625,0.3150261640548706,0.06862359493970871,-0.34094417095184326
1774470108178850800,9.403850830078126,0.2340564727783203,0.12158748507499695,-0.43038803339004517
1774470108188863700,9.41386376953125,0.24787408113479614,0.06476353108882904,-0.4489379823207855
1774470108198877000,9.423876953125,0.240486741065979,0.27332526445388794,-0.4385908246040344
1774470108208889600,9.4338896484375,0.18803563714027405,0.24581532180309296,-0.4208349287509918
1774470108218902800,9.44390283203125,0.11266391724348068,0.05266822874546051,-0.37576889991760254
1774470108228916000,9.453916015625,0.03207317739725113,-0.023939652368426323,-0.29742950201034546
1774470108238929000,9.463928955078124,-0.03977810963988304,-0.13588614761829376,-0.21344459056854248
1774470108248942800,9.47394287109375,-0.0838233157992363,-0.3649550974369049,-0.13936902582645416
1774470108258955800,9.483955810546876,-0.07417521625757217,-0.6106335520744324,-0.06603489816188812
1774470108268968700,9.49396875,-0.0025850688107311726,-0.8626863360404968,0.026587091386318207
1774470108278982000,9.50398193359375,0.09518889337778091,-1.118025302886963,0.1165851503610611
1774470108288994800,9.513994873046874,0.1441836655139923,-1.3330401182174683,0.16939736902713776
1774470108299008000,9.524008056640625,0.1696389615535736,-1.4507629871368408,0.2324783354997635
1774470108309020700,9.534020751953125,0.19007058441638947,-1.4869827032089233,0.2864357829093933
1774470108319033900,9.544033935546874,0.20318078994750977,-1.3899658918380737,0.3082987368106842
1774470108329046800,9.554046875,0.19094233214855194,-1.1305861473083496,0.3253152072429657
1774470108339060700,9.564060791015624,0.16978217661380768,-0.8845418691635132,0.3446209728717804
1774470108349074000,9.574073974609375,0.13393107056617737,-0.7127816677093506,0.3459641933441162
1774470108359086800,9.5840869140625,0.09458925575017929,-0.6547338366508484,0.3351123332977295
1774470108369099800,9.594099853515624,0.059032462537288666,-0.6321497559547424,0.31752368807792664
1774470108379112700,9.60411279296875,0.05989506095647812,-0.6561965346336365,0.27940186858177185
1774470108389126000,9.6141259765625,0.10345260053873062,-0.7005022764205933,0.27041447162628174
1774470108399138800,9.624138916015625,0.1322818547487259,-0.6498750448226929,0.2709764242172241
1774470108409151700,9.63415185546875,0.025522906333208084,-0.7608441710472107,0.2598695755004883
1774470108419165000,9.6441650390625,-0.059670284390449524,-0.5870004892349243,0.14009203016757965
1774470108429177900,9.654177734375,-0.09384416043758392,-0.48610249161720276,0.10563717037439346
1774470108439191800,9.66419189453125,-0.14132805168628693,-0.6003784537315369,0.13954266905784607
1774470108449205000,9.674205078125,-0.08576729893684387,-0.6185804605484009,0.10902004688978195
1774470108459217700,9.6842177734375,0.0011944979196414351,-0.7855209708213806,0.07495076209306717
1774470108469230800,9.69423095703125,0.0515439547598362,-0.9592198133468628,0.12131426483392715
1774470108479243800,9.704243896484375,0.09774181246757507,-0.9191957116127014,0.147581547498703
1774470108489257000,9.714257080078125,0.13160370290279388,-0.8554077744483948,0.1523318737745285
1774470108499269600,9.72426953125,0.1272672861814499,-0.7764983177185059,0.15790213644504547
1774470108509282800,9.73428271484375,0.09128805994987488,-0.6781598925590515,0.13623657822608948
1774470108519296000,9.7442958984375,0.03755638375878334,-0.5645909905433655,0.11470571905374527
1774470108529308700,9.75430859375,-0.030638400465250015,-0.512492299079895,0.15709605813026428
1774470108539323000,9.764322998046875,-0.0719837099313736,-0.47550180554389954,0.17715072631835938
1774470108549335800,9.774335693359374,-0.06507626175880432,-0.41035616397857666,0.17333024740219116
1774470108559348700,9.7843486328125,-0.03679748252034187,-0.37489086389541626,0.16608324646949768
1774470108569361200,9.794361083984375,-0.014582717791199684,-0.37780487537384033,0.15270476043224335
1774470108579374300,9.804374267578124,0.026187879964709282,-0.40206947922706604,0.146042600274086
1774470108589387300,9.81438720703125,0.05746427923440933,-0.42818909883499146,0.14099538326263428
1774470108599400200,9.824400146484376,0.02224850282073021,-0.4357040226459503,0.11252113431692123
1774470108609413400,9.834413330078124,-0.02788573130965233,-0.4166108965873718,0.07476003468036652
1774470108619426300,9.84442626953125,-0.08175242692232132,-0.26497527956962585,0.06567199528217316
1774470108629439200,9.854439208984376,-0.17229127883911133,0.17575474083423615,0.07653822749853134
1774470108639453200,9.864453125,-0.2248399704694748,0.5942555665969849,-0.006437086034566164
1774470108649466400,9.87446630859375,-0.24394673109054565,0.9590253829956055,-0.05429572984576225
1774470108659479300,9.884479248046874,-0.29085564613342285,1.3741296529769897,-0.09543731063604355
1774470108669492200,9.8944921875,-0.41765835881233215,1.837808609008789,-0.1739073544740677
1774470108679505400,9.90450537109375,-0.6149104833602905,2.2012670040130615,-0.20467139780521393
1774470108689518300,9.914518310546875,-0.8568367958068848,2.5007643699645996,-0.2113945335149765
1774470108699531300,9.92453125,-0.9818892478942871,2.508746385574341,-0.23734064400196075
1774470108709544200,9.934544189453124,-0.9034730792045593,1.5961501598358154,-0.17977997660636902
1774470108719557400,9.944557373046875,-0.49200165271759033,1.6629078388214111,0.01638420671224594
1774470108729570300,9.9545703125,-0.1840803474187851,2.105229616165161,-0.17420437932014465
1774470108739584300,9.964584228515625,-0.23708364367485046,1.735748291015625,-0.06383472681045532
1774470108749597200,9.97459716796875,-0.43917399644851685,1.8087353706359863,0.04648640379309654
1774470108759610000,9.984610107421876,-0.569466233253479,1.7559720277786255,0.024254605174064636
1774470108769623300,9.994623291015625,-0.7686377167701721,1.1652557849884033,0.032193709164857864
1774470108779636500,10.004636474609375,-0.7369184494018555,0.8228490948677063,0.10573317110538483
1774470108789649200,10.014649169921874,-0.7035645842552185,0.9794607162475586,0.07849019020795822
1774470108799662300,10.024662353515625,-0.75486820936203,1.2509667873382568,-0.10060952603816986
1774470108809675300,10.03467529296875,-0.8270658254623413,1.2840627431869507,-0.2942139208316803
1774470108819688400,10.0446884765625,-0.8918634653091431,1.1078124046325684,-0.32594549655914307
1774470108829701000,10.054701171875,-0.8425535559654236,0.858866810798645,-0.23754499852657318
1774470108839714300,10.06471435546875,-0.7525991797447205,0.962210476398468,-0.18808716535568237
1774470108849728300,10.074728271484375,-0.6590449810028076,0.6763100028038025,-0.14770126342773438
1774470108859741200,10.0847412109375,-0.5420922636985779,0.29040202498435974,-0.05732530355453491
1774470108869754400,10.09475439453125,-0.3960512578487396,-0.10647112876176834,0.03738837689161301
1774470108879767300,10.104767333984375,-0.226432666182518,-0.5378217101097107,0.1321447193622589
1774470108889780200,10.1147802734375,-0.1516917645931244,-0.7995895743370056,0.18621519207954407
1774470108899793400,10.12479345703125,-0.14057840406894684,-0.7099151015281677,0.16864684224128723
1774470108909806300,10.134806396484375,-0.17806294560432434,-0.2747683525085449,0.12742909789085388
1774470108919819300,10.1448193359375,-0.18989111483097076,0.06412901729345322,0.08659805357456207
1774470108929832200,10.154832275390625,-0.13381552696228027,0.1017412394285202,0.003346568439155817
1774470108939845400,10.164845458984376,-0.05039067566394806,0.04176871478557587,-0.07089730352163315
1774470108949859300,10.174859375,0.056304529309272766,0.029233913868665695,-0.11864529550075531
1774470108959872300,10.184872314453125,0.13992032408714294,-0.0519711934030056,-0.1935480386018753
1774470108969885400,10.194885498046874,0.16472133994102478,-0.1401917189359665,-0.19385278224945068
1774470108979898000,10.204898193359375,0.1538465917110443,-0.3720358610153198,-0.16367623209953308
1774470108989911300,10.214911376953125,0.11734116822481155,-0.5108680129051208,-0.06928244978189468
1774470108999924200,10.22492431640625,0.06974222511053085,-0.595806360244751,0.018188275396823883
1774470109009937400,10.2349375,0.03376254439353943,-0.6470815539360046,0.06505578756332397
1774470109019950300,10.244950439453126,-0.06474911421537399,-0.6334360241889954,0.1540469080209732
1774470109029963300,10.25496337890625,-0.2509955167770386,-0.569855809211731,0.26376962661743164
1774470109039976400,10.2649765625,-0.36342909932136536,-0.8133310675621033,0.2640458047389984
1774470109049989000,10.274989013671876,-0.34751462936401367,-0.9214689135551453,0.3564908802509308
1774470109060003300,10.28500341796875,-0.35444551706314087,-0.7425643801689148,0.43332067131996155
1774470109070016500,10.2950166015625,-0.3764601945877075,-1.1132988929748535,0.3591264486312866
1774470109080029200,10.305029296875,-0.40312057733535767,-1.6283864974975586,0.3427504301071167
1774470109090042400,10.31504248046875,-0.4826067090034485,-1.5615557432174683,0.3721626400947571
1774470109100055300,10.32505517578125,-0.5927702188491821,-1.2044380903244019,0.3198986351490021
1774470109110068200,10.335068115234375,-0.6721199750900269,-0.6756076216697693,0.2019117772579193
1774470109120081200,10.3450810546875,-0.6645046472549438,-0.08695503324270248,0.09278341382741928
1774470109130094300,10.35509423828125,-0.7130345702171326,-0.02974378690123558,0.03574693948030472
1774470109140107500,10.365107421875,-0.5963268876075745,-0.5024367570877075,0.25151732563972473
1774470109150120200,10.3751201171875,-0.25487738847732544,-0.892285168170929,0.42058810591697693
1774470109160133400,10.38513330078125,0.08984138816595078,-1.2108778953552246,0.4616737365722656
1774470109170147000,10.39514697265625,0.22703929245471954,-1.4917919635772705,0.5200954079627991
1774470109180160300,10.40516015625,0.24888867139816284,-1.674580454826355,0.5327925682067871
1774470109190173400,10.41517333984375,0.16122736036777496,-1.5717970132827759,0.5269525647163391
1774470109200186400,10.425186279296875,0.059910599142313004,-1.3437230587005615,0.5044618844985962
1774470109210199300,10.43519921875,0.005636301822960377,-1.1395928859710693,0.46553748846054077
1774470109220212200,10.445212158203125,-0.01011310052126646,-0.9649014472961426,0.4367319345474243
1774470109230225400,10.455225341796876,0.002011197153478861,-0.8939825892448425,0.46860089898109436
1774470109240238000,10.465238037109375,0.021503672003746033,-0.8970065712928772,0.5326411128044128
1774470109250251300,10.475251220703125,0.027998002246022224,-0.7697702050209045,0.5268038511276245
1774470109260264200,10.48526416015625,-0.03991926461458206,-0.5488072037696838,0.48020681738853455
1774470109270277400,10.49527734375,-0.07522328943014145,-0.18643520772457123,0.38791024684906006
1774470109280291300,10.505291259765626,-0.08621948212385178,0.2131318897008896,0.310618132352829
1774470109290304300,10.51530419921875,-0.09973418712615967,0.486650675535202,0.2714896500110626
1774470109300317200,10.525317138671875,-0.07197073101997375,0.5592122673988342,0.2458151876926422
1774470109310330400,10.535330322265626,0.00851683784276247,0.5700439810752869,0.19460934400558472
1774470109320343300,10.54534326171875,0.04331503063440323,0.39687544107437134,0.17950016260147095
1774470109330356500,10.5553564453125,0.11380040645599365,0.15319907665252686,0.1786056011915207
1774470109340369200,10.565369140625,0.15562482178211212,0.10671520233154297,0.17467956244945526
1774470109350382300,10.57538232421875,0.1285400390625,0.0870044082403183,0.14343394339084625
1774470109360395300,10.585395263671876,0.1193353533744812,0.1215546652674675,0.08382681012153625
1774470109370408200,10.595408203125,0.14458438754081726,0.12842774391174316,0.041049472987651825
1774470109380421000,10.605421142578125,0.16366752982139587,0.05599456652998924,0.034725796431303024
1774470109390435300,10.615435302734374,0.12467246502637863,-0.03451056405901909,0.05954193323850632
1774470109400448300,10.6254482421875,0.04899873957037926,-0.024020375683903694,0.04925467073917389
1774470109410461200,10.635461181640625,-0.011203891597688198,0.09170225262641907,0.044088538736104965
1774470109420474400,10.645474365234374,-0.04808308184146881,0.178266704082489,0.0472627617418766
1774470109430487300,10.6554873046875,-0.035088442265987396,0.25833943486213684,0.041104599833488464
1774470109440500200,10.665500244140626,-0.020646652206778526,0.33938872814178467,0.03219153359532356
1774470109450513400,10.675513427734375,-0.01187567226588726,0.36273854970932007,0.05526231974363327
1774470109460526300,10.6855263671875,-0.027429597452282906,0.38141530752182007,0.07041357457637787
1774470109470539300,10.695539306640624,-0.012212533503770828,0.357235312461853,0.07420498877763748
1774470109480552200,10.70555224609375,0.01218335423618555,0.23626284301280975,0.11538464576005936
1774470109490565400,10.7155654296875,0.010305016301572323,0.16808994114398956,0.13765066862106323
1774470109500579300,10.725579345703125,0.004222356714308262,0.21074126660823822,0.10185938328504562
1774470109510592300,10.73559228515625,0.0023931332398205996,0.23725813627243042,0.09381787478923798
1774470109520605400,10.74560546875,-0.01079004630446434,0.2563585937023163,0.09682005643844604
1774470109530618000,10.7556181640625,-0.015781624242663383,0.2720997929573059,0.08964000642299652
1774470109540631300,10.76563134765625,-0.010748783126473427,0.27740877866744995,0.0815138965845108
1774470109550644200,10.775644287109374,0.012237497605383396,0.3415411710739136,0.08856093138456345
1774470109560657700,10.78565771484375,0.007910127751529217,0.4775080382823944,0.037344615906476974
1774470109570670800,10.7956708984375,-0.01619456335902214,0.6085329651832581,-0.046721212565898895
1774470109580683800,10.805683837890625,-0.004705952946096659,0.5783726572990417,-0.07122762501239777
1774470109590696700,10.81569677734375,0.08309995383024216,0.47077956795692444,-0.06848327815532684
1774470109600709600,10.825709716796876,0.19571544229984283,0.31700146198272705,-0.06077635660767555
1774470109610723800,10.835723876953125,0.279127836227417,0.1776336133480072,-0.055403564125299454
1774470109620736800,10.84573681640625,0.32590386271476746,0.04859066754579544,-0.04172663390636444
1774470109630749700,10.855749755859375,0.3651319146156311,-0.1763545274734497,-0.0340585932135582
1774470109640763000,10.865762939453125,0.45180848240852356,-0.51241135597229,-0.02312072552740574
1774470109650775600,10.875775634765626,0.6220096349716187,-0.7950258851051331,0.050902947783470154
1774470109660788700,10.885788818359375,0.8922560214996338,-1.234533667564392,0.22734695672988892
1774470109670802000,10.895802001953125,1.0315437316894531,-1.631635069847107,0.31691834330558777
1774470109680814800,10.90581494140625,1.009403109550476,-2.07082462310791,0.35293281078338623
1774470109690827800,10.915827880859375,0.900034487247467,-2.2741246223449707,0.38834938406944275
1774470109700840700,10.9258408203125,0.7387382984161377,-2.062087059020996,0.33993762731552124
1774470109719615700,10.94461572265625,0.38354068994522095,-1.4489613771438599,0.25979283452033997
1774470109729629000,10.95462890625,0.13852113485336304,-0.9262595772743225,0.22754812240600586
1774470109739641600,10.9646416015625,-0.047005582600831985,-0.40072470903396606,0.17851398885250092
1774470109749654800,10.97465478515625,-0.11799977719783783,0.05844562500715256,0.132391557097435
1774470109759668000,10.98466796875,-0.11412674188613892,0.40224799513816833,0.09153573215007782
1774470109769680600,10.9946806640625,-0.1120271235704422,0.6680847406387329,0.0680043026804924
1774470109779693800,11.00469384765625,-0.157751202583313,0.7473832964897156,0.04147708788514137
1774470109789707800,11.014707763671876,-0.18340982496738434,0.7484790086746216,0.013911332935094833
1774470109799720700,11.024720703125,-0.13054794073104858,0.7004774212837219,0.008024415001273155
1774470109809734000,11.03473388671875,-0.06607289612293243,0.475723534822464,0.01302671991288662
1774470109819746800,11.044746826171876,-0.03808334097266197,0.1923416256904602,0.05419466271996498
1774470109829759700,11.054759765625,-0.011405049823224545,-0.05439159646630287,0.08588019758462906
1774470109839772700,11.064772705078125,0.012173246592283249,-0.1913137584924698,0.09346914291381836
1774470109849785900,11.074785888671874,0.019381975755095482,-0.18569810688495636,0.09099017828702927
1774470109859798800,11.084798828125,-0.03206337243318558,-0.021572021767497063,0.08101637661457062
1774470109869811700,11.094811767578125,-0.05206480249762535,0.12200376391410828,0.05067147687077522
1774470109879825000,11.104824951171874,-0.08082987368106842,0.24714916944503784,0.0378480888903141
1774470109889837800,11.114837890625,-0.13883759081363678,0.3038081228733063,0.04056531563401222
1774470109899851800,11.124851806640624,-0.170220285654068,0.30911579728126526,0.05287870764732361
1774470109909864700,11.13486474609375,-0.18500836193561554,0.28853243589401245,0.07855074107646942
1774470109919878000,11.1448779296875,-0.19017969071865082,0.24385416507720947,0.10473094135522842
1774470109929890800,11.154890869140624,-0.17829693853855133,0.16729871928691864,0.13056893646717072
1774470109939903700,11.16490380859375,-0.16247376799583435,0.08456842601299286,0.1558612436056137
1774470109949917000,11.1749169921875,-0.14730599522590637,0.03490656986832619,0.1707601547241211
1774470109959929600,11.1849296875,-0.1368461549282074,0.01199166476726532,0.179691344499588
1774470109969942800,11.19494287109375,-0.12790432572364807,-0.02247975952923298,0.20081312954425812
1774470109979955700,11.204955810546876,-0.1315198838710785,-0.06932781636714935,0.22497400641441345
1774470109989969700,11.2149697265625,-0.14896346628665924,-0.0839209109544754,0.2337701916694641
1774470109999982800,11.22498291015625,-0.17092496156692505,-0.06482790410518646,0.22811177372932434
1774470110009995800,11.234995849609374,-0.1771259605884552,-0.03242799639701843,0.22536055743694305
1774470110020008700,11.2450087890625,-0.16399070620536804,0.005642156582325697,0.2172062247991562
1774470110030021600,11.255021728515626,-0.13845548033714294,0.042614154517650604,0.19167381525039673
1774470110040034800,11.265034912109375,-0.1082959771156311,0.07231639325618744,0.16782495379447937
1774470110050048000,11.275048095703125,-0.08990398049354553,0.0944376289844513,0.16597725450992584
1774470110060060700,11.285060791015624,-0.08297070115804672,0.10799631476402283,0.18554696440696716
1774470110070073900,11.295073974609375,-0.06501246243715286,0.11345333606004715,0.18626229465007782
1774470110080087600,11.305087646484376,-0.035494521260261536,0.11406586319208145,0.17724162340164185
1774470110090100700,11.315100830078125,-0.010446879081428051,0.10409299284219742,0.16148480772972107
1774470110100114000,11.325114013671875,-0.005664108321070671,0.07961241900920868,0.15261702239513397
1774470110110126800,11.335126953125,0.010033446364104748,0.04996515437960625,0.15078280866146088
1774470110120139800,11.345139892578125,0.05171458050608635,0.0439450778067112,0.14414647221565247
1774470110130152700,11.355152587890625,0.10459524393081665,0.0697384774684906,0.12550371885299683
1774470110140166000,11.365165771484374,0.15531834959983826,0.09954537451267242,0.10834178328514099
1774470110150178600,11.375178466796875,0.19959770143032074,0.11465189605951309,0.10278688371181488
1774470110160191700,11.385191650390626,0.23830781877040863,0.11588014662265778,0.10487107187509537
1774470110170206000,11.3952060546875,0.28424376249313354,0.12157636135816574,0.11674659699201584
1774470110180218600,11.405218505859375,0.3525703549385071,0.16149449348449707,0.1298256516456604
1774470110190231800,11.415231689453124,0.44249942898750305,0.23354239761829376,0.13894684612751007
1774470110200244700,11.42524462890625,0.5269890427589417,0.3188096284866333,0.12568670511245728
1774470110210257700,11.435257568359376,0.5822466015815735,0.4155295789241791,0.09946991503238678
1774470110220270800,11.445270751953124,0.584537148475647,0.5337763428688049,0.07601332664489746
1774470110230283800,11.45528369140625,0.5680939555168152,0.6422792077064514,0.06360579282045364
1774470110240297000,11.465296875,0.5857542157173157,0.7068910002708435,0.05010729283094406
1774470110250310700,11.475310546875,0.6242294311523438,0.7161808013916016,0.040496259927749634
1774470110260323800,11.48532373046875,0.6642152070999146,0.6766035556793213,0.04252585396170616
1774470110270336800,11.495336669921874,0.7031261324882507,0.6330007314682007,0.04397900775074959
1774470110280349700,11.505349609375,0.7406929731369019,0.5929603576660156,0.050587110221385956
1774470110290363000,11.51536279296875,0.7729868292808533,0.5509385466575623,0.04770974442362785
1774470110300375800,11.525375732421875,0.7959434986114502,0.5238057374954224,0.028651099652051926
1774470110310388700,11.535388671875,0.8166552782058716,0.5174477100372314,0.002079585799947381
1774470110320401700,11.545401611328124,0.804965078830719,0.5436846613883972,-0.02866154909133911
1774470110330415600,11.55541552734375,0.7439899444580078,0.6020758152008057,-0.06487623602151871
1774470110340428800,11.5654287109375,0.6403887271881104,0.674522340297699,-0.10119935125112534
1774470110350441700,11.575441650390625,0.5209855437278748,0.7036969661712646,-0.12720157206058502
1774470110360455000,11.585454833984375,0.4254308044910431,0.6498449444770813,-0.1350187510251999
1774470110370467600,11.595467529296876,0.3783542215824127,0.5257948040962219,-0.12831886112689972
1774470110380480800,11.605480712890625,0.3749629557132721,0.36409538984298706,-0.1063523069024086
1774470110390494000,11.615493896484375,0.3684926927089691,0.17461122572422028,-0.07053589075803757
1774470110400506600,11.625506591796874,0.3084948658943176,-0.014233794994652271,-0.03420905023813248
1774470110410519800,11.635519775390625,0.2655750811100006,-0.1378018707036972,-0.015561584383249283
1774470110420534000,11.645533935546876,0.135838121175766,-1.8323291540145874,0.28709548711776733
1774470110430546700,11.655546630859375,0.2613498270511627,-2.3127496242523193,0.36209359765052795
1774470110440559900,11.665559814453125,0.31269529461860657,-1.687595248222351,0.28803905844688416
1774470110450572800,11.67557275390625,0.19216841459274292,-0.8100046515464783,0.14560021460056305
1774470110460585700,11.685585693359375,-0.06122496351599693,-0.10742790251970291,0.03399060666561127
1774470110470598700,11.6955986328125,-0.438251256942749,0.6648678183555603,0.01599779911339283
1774470110480611800,11.70561181640625,-0.7595139741897583,1.4127126932144165,-0.04063458740711212
1774470110490624800,11.715624755859375,-0.8849573731422424,1.7616970539093018,-0.12925513088703156
1774470110500638700,11.725638671875,-0.8580495715141296,1.687389612197876,-0.12647053599357605
1774470110510652000,11.73565185546875,-0.7100403308868408,1.3717273473739624,-0.05926614627242088
1774470110520664600,11.74566455078125,-0.6043522357940674,0.9970330595970154,0.03367124870419502
1774470110530677800,11.755677734375,-0.5855150818824768,0.5534741282463074,0.11905543506145477
1774470110540690700,11.765690673828125,-0.5540255904197693,-0.05388718098402023,0.193254292011261
1774470110550703900,11.775703857421876,-0.5449909567832947,-0.5071600675582886,0.2766028046607971
1774470110560716800,11.785716796875,-0.5538790225982666,-0.7408303618431091,0.3226616382598877
1774470110570729700,11.795729736328125,-0.5468136072158813,-0.7918791174888611,0.34540677070617676
1774470110580743700,11.80574365234375,-0.5689945220947266,-0.6175462007522583,0.3408152163028717
1774470110590756900,11.8157568359375,-0.6316719055175781,-0.37006762623786926,0.30612829327583313
1774470110600769800,11.825769775390626,-0.7186201214790344,-0.23893648386001587,0.2716270387172699
1774470110610783000,11.835782958984375,-0.7730376720428467,-0.1525871604681015,0.25783735513687134
1774470110620795600,11.845795654296875,-0.8045308589935303,-0.13140331208705902,0.22621554136276245
1774470110630808800,11.855808837890624,-0.8342627286911011,-0.2523263990879059,0.20291057229042053
1774470110640821800,11.86582177734375,-0.8471450209617615,-0.5072329640388489,0.21469666063785553
1774470110650835700,11.875835693359376,-0.8268036842346191,-0.7040693759918213,0.2243485152721405
1774470110660849000,11.885848876953125,-0.7801323533058167,-1.0072230100631714,0.22656773030757904
1774470110670861800,11.89586181640625,-0.740911602973938,-1.325113296508789,0.22146689891815186
1774470110680874800,11.905874755859376,-0.6997700333595276,-1.0229002237319946,0.1974683552980423
1774470110690887700,11.9158876953125,-0.6882694959640503,-0.5052297115325928,0.10198519378900528
1774470110700900900,11.92590087890625,-0.7804601788520813,-0.17590588331222534,0.016730479896068573
1774470110710913500,11.93591357421875,-0.9282492995262146,0.27962541580200195,-0.025478307157754898
1774470110720926700,11.9459267578125,-1.0159999132156372,0.7138964533805847,-0.09878634661436081
1774470110730941000,11.95594091796875,-1.0573320388793945,0.8836665749549866,-0.15090669691562653
1774470110740953600,11.96595361328125,-1.0165212154388428,0.6483363509178162,-0.14653219282627106
1774470110750966800,11.975966796875,-0.9201127290725708,0.047095801681280136,-0.07722574472427368
1774470110760980000,11.98597998046875,-0.798452615737915,-0.38939711451530457,-0.013635586947202682
1774470110770992600,11.99599267578125,-0.698565661907196,-0.5565983653068542,0.007277962751686573
1774470110781005800,12.006005859375,-0.6812759041786194,-0.3870719373226166,-0.014682730659842491
1774470110791018800,12.016018798828124,-0.8305788636207581,-0.09910492599010468,-0.08228939771652222
1774470110801032700,12.02603271484375,-1.015125036239624,0.11839064955711365,-0.16040842235088348
1774470110811046000,12.0360458984375,-1.064908504486084,0.38202494382858276,-0.21023812890052795
1774470110821058800,12.046058837890625,-1.003481388092041,0.6422548890113831,-0.21808460354804993
1774470110831071700,12.05607177734375,-0.9544857740402222,0.7924820780754089,-0.21715030074119568
1774470110841084700,12.066084716796874,-0.9367501735687256,0.6780402064323425,-0.2048235982656479
1774470110851097900,12.076097900390625,-0.892782986164093,0.4917827546596527,-0.174607515335083
1774470110861110800,12.08611083984375,-0.8279719948768616,0.4313740134239197,-0.13651791214942932
1774470110871123700,12.096123779296875,-0.7427849769592285,0.2698323130607605,-0.10823648422956467
1774470110881138000,12.106137939453125,-0.6252455711364746,0.04581599682569504,-0.07042519003152847
1774470110891150600,12.116150634765624,-0.5273184776306152,-0.23414155840873718,-0.02898106910288334
1774470110901163800,12.126163818359375,-0.47401559352874756,-0.5294930338859558,-0.016743047162890434
1774470110911176700,12.1361767578125,-0.4408896565437317,-0.7125855684280396,-0.012883776798844337
1774470110921190000,12.14618994140625,-0.4287989139556885,-0.695966362953186,-0.024182504042983055
1774470110931202800,12.156202880859375,-0.45161494612693787,-0.6527994871139526,-0.05371970683336258
1774470110941215700,12.1662158203125,-0.4530724883079529,-0.6227497458457947,-0.0681777372956276
1774470110951229000,12.17622900390625,-0.44186803698539734,-0.5932064652442932,-0.0806645005941391
1774470110961242600,12.18624267578125,-0.4159381687641144,-0.6405534744262695,-0.07509077340364456
1774470110971255800,12.196255859375,-0.347894549369812,-0.8544378876686096,-0.06303181499242783
1774470110981269000,12.20626904296875,-0.2672944962978363,-1.0229151248931885,-0.0419294573366642
1774470110991281700,12.21628173828125,-0.22260241210460663,-1.115006685256958,-0.047625958919525146
1774470111001294800,12.226294921875,-0.19032835960388184,-1.144236445426941,-0.0560292974114418
1774470111011307800,12.236307861328125,-0.14709264039993286,-1.0953247547149658,-0.0784715786576271
1774470111021320700,12.24632080078125,-0.09251994639635086,-1.0576494932174683,-0.12068933993577957
1774470111031335000,12.2563349609375,-0.05717155709862709,-0.9528775215148926,-0.19442534446716309
1774470111041347800,12.266347900390626,-0.06628995388746262,-0.7230126261711121,-0.18568991124629974
1774470111051360800,12.27636083984375,-0.09830533713102341,-0.5041285157203674,-0.16181647777557373
1774470111061373700,12.286373779296875,-0.17019256949424744,-0.28622734546661377,-0.1393154263496399
1774470111071387000,12.296386962890624,-0.2332625836133957,-0.1455615758895874,-0.17391763627529144
1774470111081399600,12.306399658203125,-0.2219657301902771,0.09187973290681839,-0.23069143295288086
1774470111091412700,12.316412841796875,-0.1840350478887558,0.290016233921051,-0.22722327709197998
1774470111101426000,12.326426025390624,-0.2015131115913391,0.39251118898391724,-0.19622834026813507
1774470111111439600,12.336439697265625,-0.2151656448841095,0.36719444394111633,-0.16991354525089264
1774470111121452800,12.346452880859376,-0.17872054874897003,0.2424759715795517,-0.14649558067321777
1774470111131465700,12.3564658203125,-0.11574777960777283,0.01804494298994541,-0.09979750961065292
1774470111141478700,12.366478759765625,-0.060430463403463364,-0.23082800209522247,-0.06953467428684235
1774470111151491800,12.376491943359374,0.008235248737037182,-0.4424685835838318,-0.06615001708269119
1774470111161504800,12.3865048828125,0.0746571496129036,-0.5667349100112915,-0.06496810913085938
1774470111171518000,12.39651806640625,0.11922122538089752,-0.5751896500587463,-0.06825227290391922
1774470111181531600,12.40653173828125,0.15343086421489716,-0.45692482590675354,-0.09428413957357407
1774470111191544800,12.416544921875,0.18282055854797363,-0.27842599153518677,-0.12951385974884033
1774470111201557800,12.426557861328124,0.18410180509090424,-0.10430559515953064,-0.16379299759864807
