time,seconds_elapsed,z,y,x
1774472938226960100,0.055960205078125,0.09863549470901489,0.2191520631313324,-0.006854177452623844
1774472938236978200,0.065978271484375,0.09611694514751434,0.08957329392433167,0.03755936026573181
1774472938246997000,0.0759970703125,0.09213871508836746,-0.04230138286948204,0.03145299851894379
1774472938257015300,0.086015380859375,0.0976855456829071,-0.1555648297071457,-0.03401203081011772
1774472938267033000,0.096033203125,0.09418348968029022,-0.25366395711898804,-0.09541600197553635
1774472938277052200,0.10605224609375,0.10118653625249863,-0.27460917830467224,-0.10317379236221313
1774472938287070200,0.1160703125,0.10616318881511688,-0.21495145559310913,-0.05574369058012962
1774472938297088300,0.126088134765625,0.09543623775243759,-0.10030769556760788,0.057021208107471466
1774472938307107300,0.136107421875,0.11230736970901489,0.017165137454867363,0.1948978453874588
1774472938317125000,0.146125,0.1265464872121811,0.13956429064273834,0.33026525378227234
1774472938327143200,0.15614306640625,0.1504124104976654,0.25726136565208435,0.43069279193878174
1774472938337162200,0.166162353515625,0.17489750683307648,0.3570854365825653,0.4914184510707855
1774472938347180000,0.176179931640625,0.16300250589847565,0.4806254804134369,0.5260962843894958
1774472938357198300,0.1861982421875,0.13957174122333527,0.5310226082801819,0.5324732065200806
1774472938367217200,0.196217041015625,0.11616628617048264,0.45378774404525757,0.49356016516685486
1774472938377235200,0.206235107421875,0.07900320738554001,0.35142621397972107,0.42228254675865173
1774472938387253200,0.216253173828125,0.05877889320254326,0.3249610364437103,0.3535575270652771
1774472938397272000,0.22627197265625,0.05913655832409859,0.3315078914165497,0.30483871698379517
1774472938407290000,0.2362900390625,0.06332863867282867,0.35987427830696106,0.277985543012619
1774472938417308200,0.24630810546875,0.08388211578130722,0.3434058427810669,0.24847479164600372
1774472938427326200,0.256326171875,0.11592207849025726,0.27301421761512756,0.20000019669532776
1774472938437345300,0.26634521484375,0.15274879336357117,0.20815959572792053,0.12287052720785141
1774472938447363000,0.276363037109375,0.15721945464611053,0.1468919813632965,0.044321659952402115
1774472938457381400,0.28638134765625,0.13104990124702454,0.09754466265439987,-0.020780112594366074
1774472938467400200,0.296400146484375,0.10851342976093292,0.06427006423473358,-0.0686163455247879
1774472938477418200,0.306418212890625,0.09267933666706085,0.08500224351882935,-0.08789177238941193
1774472938487436300,0.316436279296875,0.07645482569932938,0.11474309116601944,-0.07293945550918579
1774472938497455000,0.326455078125,0.05283045768737793,0.16553623974323273,-0.02460387907922268
1774472938507473200,0.33647314453125,0.04817977920174599,0.20946134626865387,0.0412965752184391
1774472938517491200,0.3464912109375,0.057015880942344666,0.2003655880689621,0.09792416542768478
1774472938527510300,0.35651025390625,0.06022046506404877,0.17286738753318787,0.12328065186738968
1774472938537528300,0.3665283203125,0.05608084425330162,0.11138670891523361,0.12521784007549286
1774472938547546000,0.376546142578125,0.051596879959106445,0.03374437987804413,0.12561145424842834
1774472938557565200,0.386565185546875,0.048346757888793945,-0.025191107764840126,0.12971538305282593
1774472938567583000,0.3965830078125,0.054193198680877686,-0.07490300387144089,0.12879979610443115
1774472938577601300,0.406601318359375,0.062068697065114975,-0.09644877165555954,0.10958774387836456
1774472938587619000,0.416619140625,0.033365413546562195,-0.0815097764134407,0.08700387179851532
1774472938597638100,0.42663818359375,-0.006183327175676823,-0.07154848426580429,0.0713290423154831
1774472938607656200,0.43665625,-0.05351116135716438,-0.012982910498976707,0.07184383273124695
1774472938617674200,0.44667431640625,-0.08211617171764374,0.11613033711910248,0.07894275337457657
1774472938627693000,0.456693115234375,-0.061173874884843826,0.12682026624679565,0.07379060238599777
1774472938637711400,0.46671142578125,-0.027271036058664322,0.05717433989048004,0.04681491106748581
1774472938647729200,0.476729248046875,-0.005054146982729435,-0.04201829060912132,0.025901637971401215
1774472938657748200,0.486748291015625,0.014705176465213299,-0.1680728942155838,-0.0032402679789811373
1774472938667766000,0.49676611328125,0.024170316755771637,-0.30975624918937683,-0.04075169190764427
1774472938677784300,0.506784423828125,-0.005176119972020388,-0.39765095710754395,-0.0802498310804367
1774472938687803400,0.516803466796875,-0.04854223504662514,-0.3903363347053528,-0.118874192237854
1774472938697821200,0.5268212890625,-0.09961074590682983,-0.25386688113212585,-0.14934474229812622
1774472938707839200,0.536839111328125,-0.14578595757484436,-0.10213169455528259,-0.14937111735343933
1774472938717858000,0.546858154296875,-0.18562498688697815,-0.021451761946082115,-0.07733207195997238
1774472938727876000,0.5568759765625,-0.18592698872089386,-0.012798885814845562,0.0046549392864108086
1774472938737894400,0.566894287109375,-0.2060897797346115,-0.009708819910883904,0.09110008180141449
1774472938747913200,0.576913330078125,-0.24108931422233582,-0.020437097176909447,0.16486911475658417
1774472938757931300,0.58693115234375,-0.27080726623535156,-0.056834518909454346,0.23468440771102905
1774472938767949000,0.596948974609375,-0.25535374879837036,-0.08694954216480255,0.2836892306804657
1774472938777968000,0.606968017578125,-0.21729956567287445,-0.12034212052822113,0.3047100901603699
1774472938787986200,0.616986083984375,-0.19374284148216248,-0.18267154693603516,0.3106899559497833
1774472938798004200,0.627004150390625,-0.18689318001270294,-0.26268941164016724,0.30635860562324524
1774472938808022300,0.637022216796875,-0.20155735313892365,-0.3721114993095398,0.2787807583808899
1774472938818041000,0.647041015625,-0.24691630899906158,-0.4746839702129364,0.24755680561065674
1774472938828059100,0.65705908203125,-0.2942718267440796,-0.5506740808486938,0.2541675567626953
1774472938838077200,0.6670771484375,-0.3681063950061798,-0.5857588052749634,0.2271822839975357
1774472938848096300,0.67709619140625,-0.488986998796463,-0.661090612411499,0.18871399760246277
1774472938858114300,0.6871142578125,-0.6183090209960938,-0.7612177133560181,0.1542723923921585
1774472938868132000,0.697132080078125,-0.6904103755950928,-0.8011824488639832,0.06170171499252319
1774472938878151200,0.707151123046875,-0.6111968159675598,-0.7953565120697021,-0.06991303712129593
1774472938888169200,0.717169189453125,-0.46113458275794983,-0.7058919072151184,-0.15084463357925415
1774472938898187300,0.727187255859375,-0.3184719979763031,-0.6927955150604248,-0.15922054648399353
1774472938908206300,0.737206298828125,-0.19271299242973328,-0.7927095890045166,-0.13535462319850922
1774472938918224100,0.74722412109375,-0.09841205924749374,-0.8363838195800781,-0.14919480681419373
1774472938928242200,0.7572421875,-0.05480146408081055,-0.8766540288925171,-0.19407840073108673
1774472938938261200,0.76726123046875,-0.038306377828121185,-0.7952741980552673,-0.20886826515197754
1774472938948279000,0.777279052734375,0.04417358711361885,-0.6663700342178345,-0.1795484572649002
1774472938958297300,0.78729736328125,0.13772164285182953,-0.5522109866142273,-0.1475314050912857
1774472938968316200,0.797316162109375,0.19071295857429504,-0.43347713351249695,-0.17041461169719696
1774472938978334200,0.807334228515625,0.218378946185112,-0.36989229917526245,-0.2246549427509308
1774472938988352300,0.817352294921875,0.21308697760105133,-0.3676280677318573,-0.2648305892944336
1774472938998371000,0.82737109375,0.18200655281543732,-0.4343985915184021,-0.2543129622936249
1774472939008389000,0.83738916015625,0.15789242088794708,-0.46341797709465027,-0.18523962795734406
1774472939018407200,0.8474072265625,0.17341093719005585,-0.49692827463150024,-0.08822040259838104
1774472939028425200,0.85742529296875,0.19539585709571838,-0.4713829755783081,0.02311517298221588
1774472939038444300,0.8674443359375,0.212737038731575,-0.33804434537887573,0.1140056625008583
1774472939048462000,0.877462158203125,0.24189332127571106,-0.31665197014808655,0.13251464068889618
1774472939058480400,0.88748046875,0.24110795557498932,-0.33736392855644226,0.08171723037958145
1774472939068499200,0.897499267578125,0.21947349607944489,-0.2742858827114105,0.03207750990986824
1774472939078517200,0.907517333984375,0.20351530611515045,-0.1581030786037445,0.04575337469577789
1774472939088535000,0.91753515625,0.2040942758321762,0.005153216887265444,0.0910944864153862
1774472939098554000,0.92755419921875,0.20799927413463593,0.0639219880104065,0.13129544258117676
1774472939108572200,0.937572265625,0.2066274732351303,-0.01683996617794037,0.15423724055290222
1774472939118590200,0.947590087890625,0.1907672882080078,-0.16542571783065796,0.1527690440416336
1774472939128609300,0.957609375,0.15817978978157043,-0.3159712851047516,0.14784379303455353
1774472939138627300,0.96762744140625,0.1165391281247139,-0.2967725396156311,0.16878928244113922
1774472939148645000,0.97764501953125,0.09289984405040741,-0.23848021030426025,0.20515155792236328
1774472939158664200,0.987664306640625,0.08672796934843063,-0.2114965319633484,0.2579079866409302
1774472939168682000,0.997681884765625,0.06535504013299942,-0.13287602365016937,0.29863277077674866
1774472939178700300,1.0077001953125,0.03569035232067108,-0.09571187943220139,0.33141574263572693
1774472939188719400,1.01771923828125,0.03653404116630554,-0.10800343006849289,0.3583717346191406
1774472939198737200,1.027737060546875,0.06427565962076187,-0.06555743515491486,0.36921826004981995
1774472939208755200,1.037755126953125,0.10249548405408859,0.03514600172638893,0.3613225221633911
1774472939218774300,1.047774169921875,0.13961541652679443,0.14506664872169495,0.3546640872955322
1774472939228792000,1.0577919921875,0.15782132744789124,0.27989476919174194,0.3489542603492737
1774472939238810400,1.067810302734375,0.15008510649204254,0.4344366788864136,0.3479670286178589
1774472939248829400,1.077829345703125,0.11221522092819214,0.5754765868186951,0.35289227962493896
1774472939258847200,1.08784716796875,0.054787613451480865,0.6860566735267639,0.36868536472320557
1774472939268865300,1.097865234375,-0.0020530307665467262,0.7869768738746643,0.3868156373500824
1774472939278883300,1.10788330078125,-0.07448755204677582,0.9004464745521545,0.39803019165992737
1774472939288902400,1.11790234375,-0.17363384366035461,1.0018353462219238,0.4098181426525116
1774472939298920400,1.12792041015625,-0.2831542193889618,1.0622140169143677,0.43713313341140747
1774472939308938200,1.137938232421875,-0.364468514919281,1.0271068811416626,0.4686729311943054
1774472939318957300,1.147957275390625,-0.40883010625839233,0.8949022889137268,0.47888830304145813
1774472939328975000,1.15797509765625,-0.39993488788604736,0.7202889323234558,0.45392248034477234
1774472939338993400,1.167993408203125,-0.3592471182346344,0.5733306407928467,0.40041080117225647
1774472939349012500,1.178012451171875,-0.29750970005989075,0.4482417106628418,0.33805474638938904
1774472939359030300,1.1880302734375,-0.22402484714984894,0.3707208037376404,0.2730073034763336
1774472939369048300,1.19804833984375,-0.16286508738994598,0.3492535948753357,0.21741753816604614
1774472939379067400,1.2080673828125,-0.10955978184938431,0.3216184973716736,0.16875892877578735
1774472939389085200,1.218085205078125,-0.08044504374265671,0.26611584424972534,0.11922066658735275
1774472939399103500,1.228103515625,-0.08566723018884659,0.22895967960357666,0.07229257375001907
1774472939409122300,1.238122314453125,-0.12147849798202515,0.21389737725257874,0.03230227902531624
1774472939419140400,1.248140380859375,-0.17599286139011383,0.19814717769622803,-0.003522563260048628
1774472939429158100,1.258158203125,-0.22080747783184052,0.16429759562015533,-0.027947477996349335
1774472939439177200,1.26817724609375,-0.23472462594509125,0.1203083023428917,-0.051545217633247375
1774472939449195300,1.2781953125,-0.2252216637134552,0.05284590274095535,-0.06227908656001091
1774472939459213300,1.28821337890625,-0.21002140641212463,-0.019473565742373466,-0.07372774928808212
1774472939469232400,1.298232421875,-0.20158371329307556,-0.10670141130685806,-0.07976619899272919
1774472939479250200,1.308250244140625,-0.19019363820552826,-0.17161543667316437,-0.0695633664727211
1774472939489268200,1.318268310546875,-0.1728828251361847,-0.18862025439739227,-0.06843604892492294
1774472939499287300,1.328287353515625,-0.15851321816444397,-0.16771550476551056,-0.07457410544157028
1774472939509305300,1.338305419921875,-0.14047296345233917,-0.10173168778419495,-0.07371123880147934
1774472939519323400,1.348323486328125,-0.125693216919899,0.0028192223981022835,-0.04107845947146416
1774472939529341200,1.358341064453125,-0.11660438030958176,0.10900158435106277,0.015300126746296883
1774472939539360300,1.3683603515625,-0.1201663538813591,0.20596009492874146,0.07691315561532974
1774472939549378300,1.37837841796875,-0.13668647408485413,0.29884475469589233,0.12794651091098785
1774472939559396400,1.388396240234375,-0.15048404037952423,0.35561057925224304,0.17449963092803955
1774472939569415400,1.39841552734375,-0.14260774850845337,0.37032613158226013,0.19981618225574493
1774472939579433200,1.40843310546875,-0.10830916464328766,0.34410756826400757,0.19560785591602325
1774472939589451300,1.418451171875,-0.055207330733537674,0.31128063797950745,0.18288034200668335
1774472939599470300,1.42847021484375,-0.009007609449326992,0.2780342698097229,0.1646997332572937
1774472939609488100,1.438488037109375,0.022757776081562042,0.2501576542854309,0.13771899044513702
1774472939619506400,1.44850634765625,0.04279486835002899,0.272529274225235,0.11256622523069382
1774472939629525500,1.458525390625,0.04737523943185806,0.34006941318511963,0.11950935423374176
1774472939639543300,1.468543212890625,0.0523497574031353,0.3873586356639862,0.1431470364332199
1774472939649561300,1.478561279296875,0.06939425319433212,0.4547789692878723,0.16360996663570404
1774472939659580200,1.488580078125,0.10311014205217361,0.5781203508377075,0.18145820498466492
1774472939669598500,1.498598388671875,0.1743483692407608,0.6520808339118958,0.19748777151107788
1774472939679616300,1.5086162109375,0.2655951976776123,0.641893744468689,0.22014035284519196
1774472939689635300,1.51863525390625,0.343285471200943,0.6086763739585876,0.23043426871299744
1774472939699653400,1.5286533203125,0.36508050560951233,0.5494575500488281,0.21085497736930847
1774472939709671200,1.538671142578125,0.33007219433784485,0.47997939586639404,0.17860542237758636
1774472939719690200,1.548690185546875,0.273837149143219,0.354422003030777,0.13150396943092346
1774472939729708300,1.558708251953125,0.19843585789203644,0.2253822535276413,0.10441375523805618
1774472939739726300,1.568726318359375,0.12293577939271927,0.13993127644062042,0.10212024301290512
1774472939749744400,1.578744384765625,0.05278278887271881,0.111946240067482,0.09680430591106415
1774472939759763200,1.58876318359375,-0.012387427501380444,0.14761102199554443,0.08514072746038437
1774472939769781200,1.59878125,-0.058828696608543396,0.25630316138267517,0.07889721542596817
1774472939779799300,1.60879931640625,-0.06735986471176147,0.46421852707862854,0.10935072600841522
1774472939789818400,1.618818359375,-0.03978709504008293,0.565533459186554,0.19909127056598663
1774472939799836400,1.62883642578125,-0.01866050250828266,0.48661625385284424,0.3011015057563782
1774472939809854200,1.638854248046875,0.005446963477879763,0.28675347566604614,0.36634495854377747
1774472939819873300,1.648873291015625,0.004037618637084961,-0.03857375681400299,0.36636894941329956
1774472939829891300,1.658891357421875,-0.06181037053465843,-0.358383446931839,0.29891371726989746
1774472939839909400,1.668909423828125,-0.16582918167114258,-0.5882230401039124,0.1828843355178833
1774472939849928400,1.678928466796875,-0.2561100721359253,-0.7589393854141235,0.010359164327383041
1774472939859946200,1.6889462890625,-0.3019191026687622,-0.874866247177124,-0.1613510698080063
1774472939869964300,1.69896435546875,-0.29551100730895996,-0.80799800157547,-0.24428856372833252
1774472939879983400,1.7089833984375,-0.22175902128219604,-0.5743058919906616,-0.2197699099779129
1774472939890001400,1.71900146484375,-0.12469425797462463,-0.2667006552219391,-0.08617056906223297
1774472939900019500,1.72901953125,-0.08080217242240906,-0.08487574011087418,0.08185891062021255
1774472939910038300,1.739038330078125,-0.1786656230688095,-0.08157715201377869,0.14758706092834473
1774472939920056300,1.749056396484375,-0.42653053998947144,-0.12323778122663498,0.11428369581699371
1774472939930074000,1.75907421875,-0.6121350526809692,-0.14374864101409912,0.0537969172000885
1774472939940093200,1.76909326171875,-0.5540820956230164,-0.11939110606908798,-0.01441036444157362
1774472939950111500,1.779111572265625,-0.4428674280643463,-0.17354755103588104,-0.0822802260518074
1774472939960129300,1.78912939453125,-0.3198097050189972,-0.26062440872192383,-0.09577446430921555
1774472939970148400,1.7991484375,-0.16650322079658508,-0.4149894714355469,-0.03750210255384445
1774472939980166100,1.809166259765625,-0.018930546939373016,-0.4625175893306732,0.0606476329267025
1774472939990184200,1.81918408203125,0.10360122472047806,-0.4063238203525543,0.12791268527507782
1774472940000203300,1.829203369140625,0.12600986659526825,-0.3628990948200226,0.08217236399650574
1774472940010221300,1.83922119140625,-0.004028563853353262,-0.22954131662845612,-0.07047762721776962
1774472940020239400,1.8492392578125,-0.31335392594337463,0.06329135596752167,-0.23693397641181946
1774472940030257200,1.859257080078125,-0.7005716562271118,0.33038243651390076,-0.3111155331134796
1774472940040276200,1.869276123046875,-1.0415223836898804,0.5086975693702698,-0.23051735758781433
1774472940050294300,1.879294189453125,-1.2466243505477905,0.5473935604095459,-0.034030936658382416
1774472940060312300,1.889312255859375,-1.3599176406860352,0.34041908383369446,0.19660493731498718
1774472940070331400,1.899331298828125,-1.4493117332458496,0.03615454211831093,0.3860475718975067
1774472940080349200,1.90934912109375,-1.5264158248901367,-0.31920674443244934,0.4893435835838318
1774472940090367200,1.9193671875,-1.395645260810852,-0.8620353937149048,0.5873042345046997
1774472940100386300,1.92938623046875,-1.0706133842468262,-1.0578110218048096,0.7877233624458313
1774472940110404400,1.939404296875,-0.7309964299201965,-0.9481500387191772,0.9567709565162659
1774472940120422400,1.94942236328125,-0.5745234489440918,-1.2334105968475342,0.8950743079185486
1774472940130441200,1.959441162109375,-0.5339195728302002,-1.5140239000320435,0.7182005047798157
1774472940140459300,1.969459228515625,-0.4362601339817047,-2.0419163703918457,0.5548043847084045
1774472940150477300,1.979477294921875,-0.09853829443454742,-1.687124252319336,0.7212548851966858
1774472940160496000,1.98949609375,0.20252913236618042,-1.6189849376678467,0.9026765823364258
1774472940170514400,1.999514404296875,0.43175700306892395,-1.7452623844146729,0.956898033618927
1774472940180532200,2.0095322265625,0.5793299674987793,-1.5365294218063354,0.9664065837860107
1774472940190551300,2.01955126953125,0.5473994612693787,-1.170149326324463,0.7932419776916504
1774472940200569300,2.0295693359375,0.27499666810035706,-0.7094948887825012,0.3599853515625
1774472940210587100,2.039587158203125,0.10733471065759659,-0.30539268255233765,-0.11211401969194412
1774472940220606000,2.04960595703125,-0.055863797664642334,-0.20577073097229004,-0.5105844140052795
1774472940230624000,2.0596240234375,-0.2955315113067627,0.19779376685619354,-0.708469808101654
1774472940240641800,2.069641845703125,-0.4258471727371216,1.0093317031860352,-0.6168227195739746
1774472940250660900,2.079660888671875,-0.36649036407470703,1.0927122831344604,-0.469455361366272
1774472940260679000,2.089678955078125,-0.19555965065956116,0.593468427658081,-0.35177695751190186
1774472940270697000,2.099697021484375,-0.08501902222633362,0.10606145113706589,-0.42655372619628906
1774472940280716000,2.109716064453125,-0.06365381181240082,-0.40020865201950073,-0.579208254814148
1774472940290733800,2.11973388671875,-0.06967388838529587,-0.7889199256896973,-0.7112491130828857
1774472940300752000,2.129751953125,-0.12147290259599686,-0.9547120928764343,-0.7679254412651062
1774472940310770000,2.13977001953125,-0.2103649526834488,-0.7642363905906677,-0.7356060743331909
1774472940320788700,2.149788818359375,-0.31960543990135193,-0.2488154172897339,-0.6483668088912964
1774472940330807000,2.15980712890625,-0.382702112197876,0.020378507673740387,-0.6313689351081848
1774472940340824800,2.169824951171875,-0.3740803897380829,0.18131040036678314,-0.659380316734314
1774472940350844000,2.179843994140625,-0.272309809923172,0.27746516466140747,-0.6951356530189514
1774472940360862000,2.189862060546875,-0.04484550282359123,0.32712486386299133,-0.692776083946228
1774472940370880000,2.1998798828125,0.21735122799873352,0.4013010859489441,-0.6521527767181396
1774472940380899000,2.209899169921875,0.47029879689216614,0.6316062211990356,-0.6083858013153076
1774472940390916900,2.219916748046875,0.8190863728523254,0.6330674886703491,-0.554920494556427
1774472940400935000,2.229934814453125,0.7875869870185852,0.7886586785316467,-0.4913233816623688
1774472940410954000,2.2399541015625,0.7561516165733337,0.8752060532569885,-0.34755051136016846
1774472940420971800,2.2499716796875,0.6028949022293091,0.6026352643966675,-0.19664861261844635
1774472940430990000,2.259989990234375,0.3669247329235077,0.13231410086154938,-0.05551998317241669
1774472940441009200,2.270009033203125,0.04470328986644745,-0.04312429949641228,0.36201199889183044
1774472940451027000,2.28002685546875,-0.17970025539398193,-0.21464785933494568,0.6374238729476929
1774472940461045000,2.290044921875,-0.1877957284450531,-0.009206813760101795,0.5796899795532227
1774472940471063800,2.300063720703125,-0.12249342352151871,0.20657101273536682,0.31712254881858826
1774472940481081900,2.310081787109375,-0.1022704467177391,0.11909762769937515,-0.04511234909296036
1774472940491100000,2.320099853515625,-0.10281533002853394,-0.185449481010437,-0.28258535265922546
1774472940501119000,2.330118896484375,0.0022650184109807014,-0.6053959131240845,-0.2983110547065735
1774472940511137000,2.340136962890625,0.15357118844985962,-0.8341992497444153,-0.20991061627864838
1774472940521154800,2.35015478515625,0.29146459698677063,-0.852378249168396,-0.09009979665279388
1774472940531174000,2.360173828125,0.3289712369441986,-0.6428508758544922,-0.003620833856984973
1774472940541192000,2.37019189453125,0.24585823714733124,-0.36552390456199646,0.03297419473528862
1774472940551210000,2.3802099609375,0.11624644696712494,-0.09538404643535614,0.029468676075339317
1774472940561229000,2.39022900390625,0.017551030963659286,0.1411760300397873,-0.003984355367720127
1774472940571246800,2.400246826171875,-0.007107444107532501,0.2762206792831421,-0.07660742849111557
1774472940581265000,2.410264892578125,0.04488092288374901,0.2841973602771759,-0.1578546166419983
1774472940591284000,2.420283935546875,0.13548140227794647,0.28765520453453064,-0.25885313749313354
1774472940601302000,2.430302001953125,0.2141660898923874,0.4318222403526306,-0.3746851980686188
1774472940611320000,2.440320068359375,0.2947884798049927,0.47956740856170654,-0.4014755189418793
1774472940621337900,2.450337890625,0.32958534359931946,0.3486842215061188,-0.3383634090423584
1774472940631357000,2.46035693359375,0.30432021617889404,0.24147386848926544,-0.30285146832466125
1774472940641374700,2.470374755859375,0.28017041087150574,0.2284073382616043,-0.3346584141254425
1774472940651393000,2.48039306640625,0.2290361076593399,0.32917308807373047,-0.37878671288490295
1774472940661412000,2.490412109375,0.17379017174243927,0.452938973903656,-0.4144619107246399
1774472940671430000,2.500429931640625,0.12101350724697113,0.5259003043174744,-0.40573763847351074
1774472940681448000,2.510447998046875,0.03178296238183975,0.6025359034538269,-0.3598354160785675
1774472940691467000,2.520467041015625,-0.07611554116010666,0.608867347240448,-0.29521113634109497
1774472940701484800,2.53048486328125,-0.10345208644866943,0.6205748319625854,-0.3106289803981781
1774472940711503000,2.540503173828125,-0.028672924265265465,0.5900454521179199,-0.40058842301368713
1774472940721522000,2.55052197265625,0.04705193266272545,0.5339920520782471,-0.4842178225517273
1774472940731540000,2.5605400390625,0.10423213243484497,0.4983772933483124,-0.511071503162384
1774472940741557800,2.570557861328125,0.15473099052906036,0.2344423234462738,-0.5151206254959106
1774472940751576800,2.580576904296875,0.170410618185997,-0.15889456868171692,-0.47716042399406433
1774472940761595100,2.59059521484375,0.12491770088672638,-0.5449639558792114,-0.4286200702190399
1774472940771613000,2.600613037109375,0.048834916204214096,-0.6870976686477661,-0.3649792969226837
1774472940781632000,2.610632080078125,-0.010279268957674503,-0.4412223994731903,-0.274288535118103
1774472940791649800,2.62064990234375,-0.0473608560860157,-0.1806803047657013,-0.1412426084280014
1774472940801667800,2.630667724609375,-0.004446147475391626,-0.025042502209544182,-0.016405072063207626
1774472940811687000,2.64068701171875,0.07694138586521149,0.03610314428806305,0.06947708129882812
1774472940821705000,2.650705078125,0.17488819360733032,-0.012673184275627136,0.11241362988948822
1774472940831723000,2.660722900390625,0.20615209639072418,-0.16557778418064117,0.15683914721012115
1774472940841742000,2.6707421875,0.22541101276874542,-0.3156927227973938,0.17799264192581177
1774472940851759900,2.680759765625,0.1894676685333252,-0.4847419261932373,0.17703895270824432
1774472940861778000,2.69077783203125,0.1622331142425537,-0.5228879451751709,0.13124829530715942
1774472940871796700,2.700796630859375,0.14316780865192413,-0.48338156938552856,0.08049324154853821
1774472940881815000,2.71081494140625,0.15037912130355835,-0.32897868752479553,0.049124933779239655
1774472940891832800,2.720832763671875,0.16960634291172028,-0.0959600880742073,0.04091121256351471
1774472940901852000,2.730851806640625,0.1951034516096115,0.1172477975487709,0.04566735401749611
1774472940911870000,2.740869873046875,0.18029306828975677,0.25316673517227173,0.03646160289645195
1774472940921888000,2.750887939453125,0.1148456260561943,0.30417293310165405,0.027062511071562767
1774472940931906800,2.76090673828125,-0.011538677848875523,0.29037004709243774,0.028371453285217285
1774472940941925000,2.770925048828125,-0.15018603205680847,0.22166314721107483,0.042161568999290466
1774472940951943000,2.78094287109375,-0.3311680853366852,0.16858075559139252,0.1348816454410553
1774472940961961000,2.7909609375,-0.5532261729240417,0.08107168227434158,0.25930026173591614
1774472940971979800,2.800979736328125,-0.7558823227882385,-0.15632089972496033,0.40708306431770325
1774472940981998000,2.810998046875,-0.9443057775497437,-0.38711977005004883,0.5605908632278442
1774472940992016000,2.821015869140625,-1.0400272607803345,-0.6680475473403931,0.6567381620407104
1774472941002035000,2.831034912109375,-1.0918339490890503,-0.9054108262062073,0.6613821983337402
1774472941012053000,2.841052978515625,-1.0696467161178589,-1.0208112001419067,0.6113102436065674
1774472941022070800,2.85107080078125,-1.160794734954834,-1.5789480209350586,0.6939566731452942
1774472941032089900,2.86108984375,-1.2107294797897339,-1.7764203548431396,0.7781351804733276
1774472941042108000,2.87110791015625,-1.2465591430664062,-1.847682237625122,0.7272930145263672
1774472941052126000,2.8811259765625,-1.3103092908859253,-1.812059760093689,0.6269110441207886
1774472941062145000,2.89114501953125,-1.4178192615509033,-1.1524566411972046,0.6484666466712952
1774472941072162800,2.901162841796875,-1.6050664186477661,-0.23239701986312866,0.7624971270561218
1774472941082180900,2.911180908203125,-1.7170989513397217,0.3291350305080414,0.8362842202186584
1774472941092200000,2.921199951171875,-1.9287829399108887,0.4823962152004242,0.8066640496253967
1774472941102218000,2.931218017578125,-2.1800568103790283,0.27103230357170105,0.9046323895454407
1774472941112236000,2.941236083984375,-2.4206464290618896,-0.0738111063838005,1.1125693321228027
1774472941122254800,2.9512548828125,-2.5792129039764404,-0.4398370385169983,1.3303186893463135
1774472941132273000,2.96127294921875,-2.603217363357544,-0.7803857922554016,1.5243803262710571
1774472941142291000,2.971291015625,-2.662108898162842,-0.7963232398033142,1.5490177869796753
1774472941152310000,2.98131005859375,-2.6358046531677246,-0.699648916721344,1.4987332820892334
1774472941162328000,2.991328125,-2.6073801517486572,-0.39808371663093567,1.4023479223251343
1774472941172345900,3.001345947265625,-2.535508632659912,-0.10569873452186584,1.3321621417999268
1774472941182365000,3.011364990234375,-2.498735189437866,-0.15065768361091614,1.3558616638183594
1774472941192383000,3.021383056640625,-2.484588146209717,-0.32337459921836853,1.4109361171722412
1774472941202401000,3.031401123046875,-2.446516990661621,-0.6340155601501465,1.4298101663589478
1774472941212419600,3.041419677734375,-2.342780113220215,-0.9138373732566833,1.4338570833206177
1774472941222437600,3.051437744140625,-2.2668192386627197,-1.1563043594360352,1.4021599292755127
1774472941232455400,3.061455322265625,-2.2094898223876953,-1.255255937576294,1.230971336364746
1774472941242474500,3.071474609375,-2.223273754119873,-1.4599467515945435,0.8924657702445984
1774472941252492500,3.081492431640625,-2.167678117752075,-1.5138301849365234,0.5637297034263611
1774472941262510600,3.091510498046875,-2.003345012664795,-1.5331472158432007,0.23678191006183624
1774472941272529700,3.10152978515625,-1.8069896697998047,-1.6802181005477905,-0.07540900260210037
1774472941282547700,3.111547607421875,-1.580411434173584,-1.892982840538025,-0.3543253242969513
1774472941292565500,3.1215654296875,-1.2210543155670166,-1.7546788454055786,-0.5093990564346313
1774472941302584600,3.13158447265625,-0.8057470917701721,-1.5022475719451904,-0.6171614527702332
1774472941312602600,3.1416025390625,-0.5621525645256042,-1.5092439651489258,-0.8210176825523376
1774472941322620700,3.15162060546875,-0.47808268666267395,-1.61778724193573,-1.126047134399414
1774472941332639700,3.1616396484375,-0.50120609998703,-1.8757966756820679,-1.4237738847732544
1774472941342657500,3.171657470703125,-0.5926628112792969,-1.9906394481658936,-1.7108285427093506
1774472941352675600,3.181675537109375,-0.5656524896621704,-1.6397974491119385,-1.9325408935546875
1774472941362693600,3.191693603515625,-0.2668095827102661,-0.5962844491004944,-1.9459278583526611
1774472941372712700,3.201712646484375,0.28327617049217224,0.9762794375419617,-1.6821668148040771
1774472941382730500,3.21173046875,0.5925871729850769,1.2797346115112305,-1.6162681579589844
1774472941392748500,3.22174853515625,0.7643740773200989,1.1658395528793335,-1.3842644691467285
1774472941402767600,3.231767578125,0.7043083906173706,0.9239459037780762,-1.0198055505752563
1774472941412785400,3.241785400390625,0.5759083032608032,0.4246130585670471,-0.6898572444915771
1774472941422803700,3.2518037109375,0.42369186878204346,0.020375046879053116,-0.27749231457710266
1774472941432822800,3.26182275390625,0.2244402915239334,-0.26640719175338745,0.024057399481534958
1774472941442840600,3.271840576171875,-0.04158739000558853,-0.5531017780303955,0.06067346781492233
1774472941452858600,3.281858642578125,-0.23345403373241425,-0.545803964138031,-0.13029222190380096
1774472941462877400,3.29187744140625,-0.3563450574874878,-0.5308020710945129,-0.3986451327800751
1774472941472895700,3.301895751953125,-0.4420013725757599,-0.47091051936149597,-0.7181442975997925
1774472941482913500,3.31191357421875,-0.42326977849006653,-0.21833659708499908,-1.0550447702407837
1774472941492932600,3.3219326171875,-0.2282227873802185,-0.04766685515642166,-1.339517593383789
1774472941502950700,3.33195068359375,0.0839684009552002,0.2801176607608795,-1.4992438554763794
1774472941512968400,3.341968505859375,0.4775521755218506,0.5315648317337036,-1.5335232019424438
1774472941522987500,3.351987548828125,0.8136817216873169,0.37679681181907654,-1.671059489250183
1774472941533005800,3.362005859375,1.0958364009857178,-0.06973327696323395,-1.7995567321777344
1774472941543023600,3.372023681640625,1.415278673171997,-0.22649386525154114,-1.7955596446990967
1774472941553042700,3.382042724609375,1.6037465333938599,-0.35920050740242004,-1.635047197341919
1774472941563060500,3.392060546875,1.6150108575820923,-0.4427579939365387,-1.4506802558898926
1774472941573078500,3.40207861328125,1.6555932760238647,-0.34332460165023804,-1.4642150402069092
1774472941583097600,3.41209765625,1.6696062088012695,-0.2257649451494217,-1.372847557067871
1774472941593115600,3.42211572265625,1.6079967021942139,-0.1498377025127411,-1.2103041410446167
1774472941603133700,3.4321337890625,1.6657750606536865,-0.9497572779655457,-0.3783915042877197
1774472941613152500,3.442152587890625,1.7454371452331543,-1.2774778604507446,0.42857930064201355
1774472941623170600,3.452170654296875,1.7581582069396973,-0.7813695669174194,0.38283926248550415
1774472941633188600,3.462188720703125,1.881238579750061,-0.14458727836608887,0.43633922934532166
1774472941643207400,3.47220751953125,1.9948866367340088,0.39540618658065796,0.6469367146492004
1774472941653225700,3.482225830078125,2.156883716583252,0.9437297582626343,0.9158059358596802
1774472941663243500,3.492243408203125,2.2449934482574463,1.6191740036010742,1.2021669149398804
1774472941673262600,3.5022626953125,2.2710111141204834,2.4379613399505615,1.3960058689117432
1774472941683280600,3.51228076171875,2.3629612922668457,3.22588849067688,1.4380377531051636
1774472941693298700,3.522298583984375,2.5482075214385986,3.9590418338775635,1.3350770473480225
1774472941703317800,3.53231787109375,2.7545738220214844,4.4667510986328125,1.3055939674377441
1774472941713335600,3.54233544921875,3.0957212448120117,4.64365291595459,1.2780121564865112
1774472941723353600,3.552353515625,3.4458398818969727,4.854949474334717,1.1754295825958252
1774472941733372700,3.56237255859375,3.6800897121429443,5.094852924346924,0.8359215259552002
1774472941743390500,3.572390380859375,3.818905830383301,5.108227252960205,0.3451496660709381
1774472941753408800,3.58240869140625,3.8517091274261475,4.981661796569824,-0.21731100976467133
1774472941763427600,3.592427490234375,3.5036215782165527,4.908444404602051,-0.7854583263397217
1774472941773445600,3.602445556640625,2.7730515003204346,4.886373043060303,-1.2597875595092773
1774472941783463700,3.612463623046875,1.8448898792266846,4.871605396270752,-1.6211713552474976
1774472941793481500,3.6224814453125,1.3850616216659546,4.986199855804443,-1.978520154953003
1774472941803500500,3.63250048828125,1.1439530849456787,4.787280559539795,-2.1792922019958496
1774472941813518600,3.6425185546875,0.9649311900138855,3.9296388626098633,-1.983072280883789
1774472941823536600,3.65253662109375,0.5585053563117981,3.1586859226226807,-1.951467752456665
1774472941833555700,3.6625556640625,0.08714821934700012,2.7030622959136963,-1.946613073348999
1774472941843573500,3.672573486328125,-0.2403726577758789,2.332681894302368,-1.8033840656280518
1774472941853591800,3.682591796875,-0.30494287610054016,1.9868459701538086,-1.509670615196228
1774472941863610600,3.692610595703125,-0.2877345681190491,1.4485104084014893,-1.1076651811599731
1774472941873628700,3.702628662109375,-0.30304110050201416,0.7112587094306946,-0.8563287854194641
1774472941883646500,3.712646484375,-0.34021082520484924,-0.01607031375169754,-0.8635765910148621
1774472941893665500,3.72266552734375,-0.39549487829208374,-0.4551704525947571,-1.1648958921432495
1774472941903683600,3.73268359375,-0.37747564911842346,-0.9811908006668091,-1.5591013431549072
1774472941913701600,3.74270166015625,-0.3267826437950134,-1.6661206483840942,-2.002223014831543
1774472941923720700,3.752720703125,-0.33408451080322266,-2.5444154739379883,-2.51452898979187
1774472941933738800,3.76273876953125,-0.3669244647026062,-3.1727192401885986,-3.0270352363586426
1774472941943756500,3.772756591796875,-0.4810422658920288,-3.3647639751434326,-2.9609813690185547
1774472941953775600,3.782775634765625,-0.9360172152519226,-3.3038413524627686,-2.349461317062378
1774472941963793400,3.79279345703125,-1.1077293157577515,-3.3660337924957275,-1.706252932548523
1774472941973811700,3.802811767578125,-1.0348615646362305,-2.7856829166412354,-1.139153003692627
1774472941983830800,3.812830810546875,-1.016003966331482,-1.9735972881317139,-0.7584115266799927
1774472941993848600,3.8228486328125,-1.01337730884552,-1.2596986293792725,-0.6808645725250244
1774472942003866600,3.83286669921875,-0.9656955003738403,-1.0587117671966553,-0.707726776599884
1774472942013885400,3.842885498046875,-0.8519518971443176,-1.140350341796875,-0.6546468138694763
1774472942023903500,3.852903564453125,-0.702945351600647,-1.2362196445465088,-0.6517745852470398
1774472942033921500,3.862921630859375,-0.5162220597267151,-2.302927017211914,-0.5403127670288086
1774472942043940600,3.872940673828125,-0.3558976650238037,-3.6229288578033447,-0.42407989501953125
1774472942053958700,3.882958740234375,-0.31332647800445557,-3.5861878395080566,-0.2976681590080261
1774472942063976400,3.8929765625,-0.4772975742816925,-2.694035053253174,-0.5165131688117981
1774472942073995500,3.90299560546875,-0.7280568480491638,-1.7481365203857422,-0.6955910325050354
1774472942084013800,3.913013916015625,-0.9683951139450073,-1.0791943073272705,-0.6788845062255859
1774472942094031600,3.923031494140625,-0.9543275237083435,-1.3944172859191895,-0.30725154280662537
1774472942104050700,3.93305078125,-0.8954434394836426,-1.3713308572769165,-0.09226761013269424
1774472942114068500,3.943068359375,-0.7884248495101929,-1.2172927856445312,0.020054401829838753
1774472942124086500,3.95308642578125,-0.681048572063446,-1.0936737060546875,0.11714659631252289
1774472942134105600,3.963105712890625,-0.5927426815032959,-1.0873444080352783,0.2204657942056656
1774472942144123600,3.97312353515625,-0.434029221534729,-1.009564995765686,0.3873085677623749
1774472942154141700,3.9831416015625,-0.3329832851886749,-0.9596855640411377,0.561944305896759
1774472942164160500,3.993160400390625,-0.30275240540504456,-0.9159737229347229,0.7317972183227539
1774472942174178600,4.003178466796875,-0.35111966729164124,-0.7685943841934204,0.8778260946273804
1774472942184196600,4.013196533203125,-0.3709122836589813,-0.5261359810829163,1.0672974586486816
1774472942194215400,4.02321533203125,-0.3394007086753845,-0.39511510729789734,1.2220028638839722
1774472942204233700,4.033233642578125,-0.31368494033813477,-0.5927219390869141,1.3478649854660034
1774472942214252000,4.043251953125,-0.338695764541626,-0.7181389331817627,1.4054070711135864
1774472942224270800,4.053270751953125,-0.42514917254447937,-0.6840305328369141,1.3511390686035156
1774472942234289000,4.063288818359375,-0.5142595767974854,-0.49939969182014465,1.278801441192627
1774472942244307000,4.073306884765625,-0.5075675845146179,-0.21799491345882416,1.1470178365707397
1774472942254325800,4.08332568359375,-0.33840280771255493,0.19056595861911774,0.7944135069847107
1774472942264344000,4.093343994140625,-0.2257862538099289,0.49435487389564514,0.48432645201683044
1774472942274361900,4.10336181640625,-0.16227999329566956,0.7592288851737976,0.21028666198253632
1774472942284381000,4.113380859375,-0.07945940643548965,0.7641943097114563,0.03287059813737869
1774472942294399000,4.12339892578125,-0.01931510865688324,0.5443991422653198,-0.08552023023366928
1774472942304416800,4.133416748046875,-0.051424842327833176,0.37485748529434204,-0.1852039396762848
1774472942314435800,4.143435791015625,-0.10163874179124832,0.3979545533657074,-0.27794986963272095
1774472942324454000,4.153453857421875,-0.08936263620853424,0.492012083530426,-0.4146730899810791
1774472942334472000,4.163471923828125,0.0008114652009680867,0.5942138433456421,-0.5926183462142944
1774472942344491000,4.173490966796875,0.12437441200017929,0.7161780595779419,-0.7129191756248474
1774472942354508800,4.1835087890625,0.230314701795578,0.8066027760505676,-0.7437822818756104
1774472942364527000,4.193527099609375,0.2680351734161377,0.8551844358444214,-0.6918543577194214
1774472942374546200,4.203546142578125,0.26635658740997314,0.8356176614761353,-0.6016645431518555
1774472942384564000,4.21356396484375,0.26494696736335754,0.7291500568389893,-0.5172988176345825
1774472942394583000,4.2235830078125,0.31300345063209534,0.5390525460243225,-0.4271438717842102
1774472942404600800,4.233600830078125,0.29790544509887695,0.2918560802936554,-0.26452434062957764
1774472942414619000,4.243618896484375,0.21625852584838867,-0.08276411890983582,-0.0035113778430968523
1774472942424638000,4.253637939453125,0.0017230651574209332,-0.4452349841594696,0.1514292061328888
1774472942434656000,4.263656005859375,-0.04248487576842308,-0.45676088333129883,0.14929814636707306
1774472942444674000,4.273674072265625,-0.028386367484927177,-0.2009296417236328,0.17284980416297913
1774472942454692900,4.28369287109375,-0.02592374198138714,-0.09080260992050171,0.29198551177978516
1774472942464711000,4.2937109375,-0.003781422507017851,-0.042941875755786896,0.44782570004463196
1774472942474728700,4.303728759765625,-0.04200923442840576,-0.07528463751077652,0.48521488904953003
1774472942484747800,4.313747802734375,-0.012853747233748436,-0.06190917268395424,0.40523722767829895
1774472942494766000,4.32376611328125,-0.06290413439273834,0.06479337811470032,0.27579668164253235
1774472942504784000,4.333783935546875,-0.19013479351997375,0.21736374497413635,0.18712328374385834
1774472942514803000,4.343802978515625,-0.28773191571235657,0.39149266481399536,0.10397380590438843
1774472942524821000,4.353821044921875,-0.36089959740638733,0.4195900857448578,0.035476766526699066
1774472942534839000,4.363839111328125,-0.3581962287425995,0.25914981961250305,-0.029465213418006897
1774472942544857900,4.37385791015625,-0.23780563473701477,0.24045707285404205,-0.022048577666282654
1774472942554876000,4.3838759765625,-0.09246042370796204,0.3979204595088959,-0.059413790702819824
1774472942564894000,4.39389404296875,0.13527366518974304,0.5009717345237732,-0.007424360606819391
1774472942574913000,4.4039130859375,0.2927839457988739,0.6437534093856812,0.04946182668209076
1774472942584930800,4.413930908203125,0.3938085436820984,0.5815560817718506,0.09813056141138077
1774472942594949000,4.42394921875,0.44844064116477966,0.5006343126296997,0.11050201207399368
1774472942604968000,4.433968017578125,0.43575361371040344,0.22614552080631256,0.13693387806415558
1774472942614986000,4.443986083984375,0.3256968855857849,-0.08196491003036499,0.15295839309692383
1774472942625003800,4.454003662109375,0.23204416036605835,-0.33222320675849915,0.20168279111385345
1774472942635022800,4.46402294921875,0.13171595335006714,-0.36591699719429016,0.3490908741950989
1774472942645041000,4.474041015625,0.012058793567121029,-0.25411829352378845,0.43938323855400085
1774472942655059000,4.484058837890625,-0.2201632559299469,-0.27602413296699524,0.43250349164009094
1774472942665078000,4.494078125,-0.49807077646255493,-0.5477419495582581,0.3116223216056824
1774472942675096000,4.504095947265625,-0.380906343460083,-0.49311304092407227,0.04531608149409294
1774472942685113900,4.51411376953125,-0.1413392871618271,0.06155577301979065,-0.44565844535827637
1774472942695133000,4.5241328125,-0.0041220407001674175,0.6451328992843628,-0.7660691738128662
1774472942705150700,4.534150634765625,0.0740199014544487,0.9015857577323914,-0.8025076389312744
1774472942715169000,4.5441689453125,0.07611154764890671,0.9429805874824524,-0.6447550058364868
1774472942725188000,4.55418798828125,0.05763160437345505,0.795517086982727,-0.4677858352661133
1774472942735206000,4.564205810546875,-0.028969598934054375,0.40400633215904236,-0.2905500829219818
1774472942745224000,4.574223876953125,-0.05332207679748535,0.05938529595732689,-0.24657116830348969
1774472942755242800,4.58424267578125,-0.09435153752565384,-0.23618243634700775,-0.2573425769805908
1774472942765261000,4.594260986328125,-0.145065039396286,-0.4679003655910492,-0.29268139600753784
1774472942775279000,4.604279052734375,-0.13216443359851837,-0.6561458706855774,-0.3641100525856018
1774472942785298000,4.6142978515625,-0.07667852938175201,-0.7770296931266785,-0.5138622522354126
1774472942795316000,4.62431591796875,-0.04494350776076317,-1.0010462999343872,-0.6490168571472168
1774472942805333800,4.634333740234375,-0.09574303776025772,-1.4863331317901611,-0.7043195366859436
1774472942815352800,4.644352783203125,-0.1479918658733368,-2.208409309387207,-0.6980400681495667
1774472942825371100,4.65437109375,-0.21460896730422974,-2.9221017360687256,-0.6533871293067932
1774472942835389000,4.664388916015625,-0.2563955783843994,-3.366649627685547,-0.561499834060669
1774472942845408000,4.674407958984375,-0.25529542565345764,-3.580930233001709,-0.3360310196876526
1774472942855425800,4.68442578125,-0.323896586894989,-3.2849533557891846,-0.054617173969745636
1774472942865443800,4.69444384765625,-0.3848526179790497,-2.4949851036071777,0.11800919473171234
1774472942875463000,4.704462890625,-0.4334172010421753,-1.837371826171875,0.19100643694400787
1774472942885481000,4.71448095703125,-0.3252449333667755,-1.5863521099090576,0.2179941087961197
1774472942895499000,4.7244990234375,-0.17062020301818848,-1.576087474822998,0.2116086483001709
1774472942905517800,4.734517822265625,-0.09772389382123947,-1.6140021085739136,0.17210838198661804
1774472942915536000,4.744535888671875,-0.08571570366621017,-1.5020323991775513,0.014741928316652775
1774472942925554000,4.754553955078125,-0.07606387138366699,-1.2823911905288696,-0.18350298702716827
1774472942935572700,4.76457275390625,-0.0904015377163887,-1.2836068868637085,-0.24889184534549713
1774472942945591000,4.774591064453125,-0.10316473245620728,-1.3431117534637451,-0.2626390755176544
1774472942955608800,4.78460888671875,-0.08289701491594315,-1.279671549797058,-0.2837028205394745
1774472942965628000,4.7946279296875,-0.06875349581241608,-1.1887826919555664,-0.22220590710639954
1774472942975646000,4.80464599609375,-0.04770387336611748,-1.0821027755737305,-0.16124428808689117
1774472942985664000,4.8146640625,-0.01203748770058155,-1.030049204826355,-0.10191864520311356
1774472942995683000,4.82468310546875,0.03994155675172806,-0.9805886745452881,-0.09566500782966614
1774472943005700900,4.834700927734375,0.08367013186216354,-1.0285359621047974,-0.08091322332620621
1774472943015719000,4.844718994140625,0.09997346997261047,-1.1276562213897705,-0.07757974416017532
1774472943025738000,4.854738037109375,0.12536831200122833,-1.1073505878448486,-0.1618110090494156
1774472943035755800,4.864755859375,0.1754027158021927,-0.8798050880432129,-0.34638911485671997
1774472943045774000,4.874774169921875,0.22376970946788788,-0.706759512424469,-0.5020074844360352
1774472943055793200,4.884793212890625,0.28761154413223267,-0.7138741612434387,-0.5364040732383728
1774472943065811000,4.89481103515625,0.36137232184410095,-0.8249021768569946,-0.5196820497512817
1774472943075829000,4.9048291015625,0.43098440766334534,-0.9728958606719971,-0.46576130390167236
1774472943085847800,4.914847900390625,0.4709440767765045,-1.1109368801116943,-0.39960652589797974
1774472943095865900,4.924865966796875,0.5256656408309937,-1.2805149555206299,-0.3159821927547455
1774472943105884000,4.9348837890625,0.5802093148231506,-1.506975531578064,-0.2220541089773178
1774472943115903000,4.944903076171875,0.6151058077812195,-1.6254427433013916,-0.2297983169555664
1774472943125921000,4.954921142578125,0.6644467115402222,-1.6959398984909058,-0.31059303879737854
1774472943135938800,4.964938720703125,0.7310885787010193,-1.6864821910858154,-0.48161378502845764
1774472943145958000,4.9749580078125,0.7452888488769531,-1.653720736503601,-0.5667177438735962
1774472943155976000,4.984975830078125,0.7191016674041748,-1.6622074842453003,-0.58771812915802
1774472943165994000,4.994993896484375,0.6218166947364807,-1.778358817100525,-0.584743857383728
1774472943176013000,5.005012939453125,0.396748423576355,-1.9553182125091553,-0.569502055644989
1774472943186030800,5.01503076171875,-0.40258580446243286,-2.2607600688934326,-0.46294528245925903
1774472943196049000,5.025048828125,-1.280963659286499,-2.139460325241089,-0.2901900112628937
1774472943206068000,5.03506787109375,-1.4971319437026978,-1.7333513498306274,-0.11747709661722183
1774472943216085800,5.045085693359375,-1.5541681051254272,-1.4923685789108276,-0.05561212822794914
1774472943226103800,5.055103759765625,-1.5925439596176147,-1.4218335151672363,-0.15807804465293884
1774472943236122600,5.06512255859375,-1.5889649391174316,-1.461975336074829,-0.24257349967956543
1774472943246140700,5.075140625,-1.4443848133087158,-1.4005513191223145,-0.307539165019989
1774472943256158700,5.08515869140625,-1.1312791109085083,-1.196454644203186,-0.42458537220954895
1774472943266177500,5.095177490234375,-0.7939407825469971,-0.8777360916137695,-0.4906645119190216
1774472943276195800,5.10519580078125,-0.5623323321342468,-0.4905755817890167,-0.4674508273601532
1774472943286213600,5.115213623046875,-0.5368621349334717,-0.16722548007965088,-0.4533722698688507
1774472943296232700,5.125232666015625,-0.5789179801940918,-0.053880807012319565,-0.5138971209526062
1774472943306250800,5.135250732421875,-0.5787333846092224,-0.10185286402702332,-0.4361962080001831
1774472943316268800,5.145268798828125,-0.5838144421577454,0.19399477541446686,-0.38172978162765503
1774472943326288000,5.155287841796875,-0.5935198068618774,0.5528267025947571,-0.3047519028186798
1774472943336305700,5.1653056640625,-0.5336742997169495,0.7154845595359802,-0.15467053651809692
1774472943346323700,5.17532373046875,-0.46602895855903625,0.8336839079856873,-0.11538039147853851
1774472943356342800,5.1853427734375,-0.4175431728363037,1.0267013311386108,-0.034455444663763046
1774472943366360600,5.195360595703125,-0.40705618262290955,1.1171979904174805,0.026032133027911186
1774472943376379000,5.20537890625,-0.46804630756378174,1.078931212425232,0.0595802403986454
1774472943386398000,5.21539794921875,-0.46811074018478394,0.9805242419242859,0.06184099614620209
1774472943396415700,5.225415771484375,-0.46257349848747253,0.872553825378418,0.05124694108963013
1774472943406433800,5.235433837890625,-0.44119763374328613,0.8308455348014832,0.04498904570937157
1774472943416452600,5.24545263671875,-0.40028509497642517,0.78379225730896,0.06968400627374649
1774472943426470700,5.255470703125,-0.26200151443481445,0.8568211793899536,0.12664635479450226
1774472943436488700,5.26548876953125,0.0231146402657032,0.9861837029457092,0.17046254873275757
1774472943446507800,5.2755078125,0.3109288513660431,1.2171986103057861,0.1491231769323349
1774472943456525800,5.28552587890625,0.36383306980133057,1.3551719188690186,0.10288563370704651
1774472943466543600,5.295543701171875,0.4128267168998718,1.4156908988952637,0.10694855451583862
1774472943476562700,5.305562744140625,0.47207194566726685,1.3815020322799683,0.128587007522583
1774472943486580700,5.315580810546875,0.5500226616859436,1.4993146657943726,0.09981288015842438
1774472943496598800,5.325598876953125,0.5988637208938599,1.598493218421936,0.033904172480106354
1774472943506617900,5.335617919921875,0.6897273063659668,1.695034384727478,-0.041009217500686646
1774472943516635600,5.3456357421875,0.812321126461029,1.6883125305175781,-0.09910794347524643
1774472943526653700,5.35565380859375,0.698464035987854,1.5891127586364746,-0.3423117995262146
1774472943536672800,5.3656728515625,0.5524570345878601,1.7141708135604858,-0.5282329320907593
1774472943546690800,5.37569091796875,0.4375744163990021,1.7978951930999756,-0.449988454580307
1774472943556708900,5.385708984375,0.3621310591697693,1.615010142326355,-0.15064996480941772
1774472943566727700,5.395727783203125,0.31424447894096375,1.14699125289917,0.24555569887161255
1774472943576745700,5.405745849609375,0.22885581851005554,0.7629514336585999,0.6291249394416809
1774472943586763500,5.415763427734375,0.10050610452890396,0.609621524810791,0.8581218719482422
1774472943596782600,5.425782470703125,-0.11861000210046768,0.5982551574707031,0.9009029269218445
1774472943606801000,5.43580078125,-0.26570969820022583,0.7919612526893616,0.8408510088920593
1774472943616818700,5.445818603515625,-0.3535577952861786,0.9158094525337219,0.6803354024887085
1774472943626837800,5.455837646484375,-0.3758077025413513,0.82070392370224,0.5470758676528931
1774472943636855800,5.465855712890625,-0.3748697340488434,0.5848413705825806,0.45886343717575073
1774472943646873600,5.47587353515625,-0.38777729868888855,0.45743173360824585,0.416398286819458
1774472943656892700,5.485892578125,-0.34711456298828125,0.4554109275341034,0.3836808204650879
1774472943666910700,5.49591064453125,-0.34446123242378235,0.2741846740245819,0.3277493715286255
1774472943676928800,5.5059287109375,-0.3672110438346863,0.08473405987024307,0.27243712544441223
1774472943686947800,5.51594775390625,-0.3461291790008545,0.10476582497358322,0.2759524881839752
1774472943696965600,5.525965576171875,-0.2192910760641098,0.00304612354375422,0.25095126032829285
1774472943706983700,5.535983642578125,-0.24462412297725677,0.010392187163233757,0.24509496986865997
1774472943717002800,5.546002685546875,-0.23292726278305054,0.07087790220975876,0.2676812410354614
1774472943727020800,5.556020751953125,-0.24146828055381775,0.149789497256279,0.23465858399868011
1774472943737038600,5.56603857421875,-0.25842541456222534,0.33002158999443054,0.16074040532112122
1774472943747057700,5.5760576171875,-0.27202486991882324,0.4161578118801117,0.03551778197288513
1774472943757075700,5.58607568359375,-0.2596195936203003,0.5940516591072083,-0.11692289263010025
1774472943767093800,5.59609375,-0.2579015791416168,0.7664422988891602,-0.2569684088230133
1774472943777112800,5.60611279296875,-0.2746792435646057,0.7649195194244385,-0.3729783594608307
1774472943787131000,5.616130859375,-0.3118164837360382,0.7815951704978943,-0.4376510977745056
1774472943797148700,5.626148681640625,-0.29260843992233276,0.8733059167861938,-0.5564536452293396
1774472943807167700,5.636167724609375,-0.2044154554605484,0.8002961277961731,-0.7608265280723572
1774472943817185500,5.646185546875,-0.10811235755681992,0.6206874847412109,-0.8998640179634094
1774472943827203800,5.656203857421875,-0.08058325946331024,0.652654767036438,-0.8745861053466797
1774472943837223000,5.666222900390625,-0.07885992527008057,0.6742807030677795,-0.7641059160232544
1774472943847240700,5.67624072265625,-0.0038330876268446445,0.5598060488700867,-0.6165382862091064
1774472943857258800,5.6862587890625,0.11164077371358871,0.276040643453598,-0.4624784290790558
1774472943867277600,5.696277587890625,0.23027794063091278,-0.05878635123372078,-0.32692646980285645
1774472943877295600,5.706295654296875,0.32226619124412537,-0.12388412654399872,-0.1584106832742691
1774472943887314000,5.71631396484375,0.3043753504753113,-0.06501095741987228,0.10392773151397705
1774472943897332700,5.726332763671875,0.28181782364845276,-0.4609210193157196,0.2905796468257904
1774472943907350800,5.736350830078125,0.39164847135543823,-0.9427036046981812,0.3902428448200226
1774472943917368600,5.74636865234375,0.5439202785491943,-1.3937214612960815,0.3436569571495056
1774472943927387600,5.7563876953125,0.6489066481590271,-1.328934669494629,0.1783423125743866
1774472943937406000,5.766406005859375,0.630463182926178,-1.0246762037277222,0.19631677865982056
1774472943947423700,5.776423828125,0.6453409194946289,-0.7883806228637695,0.17881742119789124
1774472943957442800,5.78644287109375,0.6600854992866516,-0.5850059390068054,0.1550298035144806
1774472943967460600,5.796460693359375,0.6527005434036255,-0.5176234245300293,0.18356770277023315
1774472943977479700,5.806479736328125,0.6462924480438232,-0.5240355134010315,0.10305821150541306
1774472943987497700,5.816497802734375,0.6358880400657654,-0.4633796513080597,-0.09128144383430481
1774472943997515800,5.826515869140625,0.5925496220588684,-0.28702324628829956,-0.25850746035575867
1774472944007534800,5.836534912109375,0.32567742466926575,0.3547663390636444,-0.22488610446453094
1774472944017552600,5.846552734375,-0.07922504842281342,1.2363685369491577,-0.047143012285232544
1774472944027570700,5.85657080078125,-0.18707294762134552,1.6128257513046265,-0.029503297060728073
1774472944037589800,5.86658984375,-0.024589499458670616,1.678906798362732,-0.23553182184696198
1774472944047607600,5.876607666015625,0.06787039339542389,1.4368054866790771,-0.5995041728019714
1774472944057625900,5.8866259765625,-0.012147476896643639,0.966621994972229,-0.8873130679130554
1774472944067645000,5.89664501953125,-0.07187898457050323,0.3631771504878998,-1.0390437841415405
1774472944077662700,5.906662841796875,-0.08590105921030045,-0.14410604536533356,-1.0781818628311157
1774472944087680800,5.9166806640625,-0.1312139481306076,-0.360621839761734,-0.9275209307670593
1774472944097699600,5.926699462890625,-0.09915933758020401,-0.4838460385799408,-0.7642055153846741
1774472944107717600,5.936717529296875,-0.1627231389284134,-0.4587577283382416,-0.7341477274894714
1774472944117735700,5.946735595703125,-0.28786560893058777,-0.395143061876297,-0.7421926259994507
1774472944127754800,5.956754638671875,-0.29419195652008057,-0.2017858475446701,-0.7756853699684143
1774472944137772800,5.966772705078125,-0.35904842615127563,-0.06027772277593613,-0.8201111555099487
1774472944147790600,5.97679052734375,-0.5017757415771484,-0.11557240039110184,-0.8392648696899414
1774472944157809700,5.9868095703125,-0.6384414434432983,-0.23503755033016205,-0.802239179611206
1774472944167827700,5.99682763671875,-0.6784988641738892,-0.43510112166404724,-0.5470114350318909
1774472944177845800,6.006845703125,-0.6033463478088379,-0.7631810307502747,-0.16642199456691742
1774472944187864800,6.01686474609375,-0.4101598262786865,-1.4741939306259155,0.3735554814338684
1774472944197882600,6.026882568359375,-0.31525516510009766,-1.8980681896209717,0.41841989755630493
1774472944207900700,6.036900634765625,-0.3235200047492981,-2.0424065589904785,0.3143092095851898
1774472944217920500,6.04692041015625,-0.33268287777900696,-1.9776368141174316,0.32853153347969055
1774472944227938600,6.0569384765625,-0.4202372431755066,-1.5950905084609985,0.2748504877090454
1774472944237956600,6.06695654296875,-0.5104600787162781,-1.2165995836257935,0.25314223766326904
1774472944247975700,6.0769755859375,-0.606847882270813,-1.050667643547058,0.3593355417251587
1774472944257993500,6.086993408203125,-0.7434669733047485,-1.0880004167556763,0.6212230920791626
1774472944268011500,6.097011474609375,-0.7972614765167236,-1.262281060218811,0.8064877390861511
1774472944278030600,6.107030517578125,-0.8089186549186707,-1.3174266815185547,0.9857014417648315
1774472944288048400,6.11704833984375,-0.7224999070167542,-1.334212303161621,1.188843846321106
1774472944298066700,6.127066650390625,-0.6467382907867432,-1.2457563877105713,1.2869510650634766
1774472944308085500,6.13708544921875,-0.5833446383476257,-0.9505420923233032,1.136599063873291
1774472944318103600,6.147103515625,-0.4990428388118744,-0.659899890422821,0.8567439913749695
1774472944328121600,6.15712158203125,-0.39883899688720703,-0.4281846284866333,0.45419973134994507
1774472944338140400,6.167140380859375,-0.08452580124139786,-0.19999301433563232,-0.01697392389178276
1774472944348158700,6.17715869140625,0.3377101421356201,-0.2590523362159729,-0.6440005302429199
1774472944358176500,6.187176513671875,0.8135970234870911,-0.42154404520988464,-1.2044936418533325
1774472944368195600,6.197195556640625,1.3314510583877563,-0.6148514747619629,-1.5745742321014404
1774472944378213600,6.207213623046875,1.5453630685806274,-0.5773605108261108,-1.6788064241409302
1774472944388232400,6.217232421875,1.5041813850402832,-0.12064838409423828,-1.611584186553955
1774472944398250500,6.22725048828125,1.0371822118759155,0.4701707065105438,-1.4885329008102417
1774472944408268500,6.2372685546875,0.7434826493263245,0.6597779393196106,-1.5071102380752563
1774472944418287600,6.24728759765625,0.5340383648872375,0.5267295837402344,-1.499426245689392
1774472944428305700,6.2573056640625,0.3108433485031128,0.45908689498901367,-1.4635952711105347
1774472944438323500,6.267323486328125,0.06564904749393463,0.43697094917297363,-1.4149118661880493
1774472944448342500,6.277342529296875,-0.06771966069936752,0.6105304956436157,-1.5437628030776978
1774472944458360600,6.287360595703125,-0.09048862010240555,0.955342173576355,-1.5885891914367676
1774472944468378600,6.297378662109375,-0.075678251683712,1.3177545070648193,-1.6391284465789795
1774472944478397700,6.307397705078125,-0.05067622661590576,1.460565447807312,-1.660532832145691
1774472944488415500,6.31741552734375,-0.07543270289897919,1.3597238063812256,-1.6143579483032227
1774472944498433500,6.32743359375,-0.14627918601036072,0.8593930006027222,-1.7209330797195435
1774472944508452600,6.33745263671875,-0.12097861617803574,0.4083251655101776,-1.7245832681655884
1774472944518470400,6.347470458984375,0.02094283141195774,0.38788995146751404,-1.6511592864990234
1774472944528488700,6.35748876953125,0.11235556751489639,0.7250732779502869,-1.6069597005844116
1774472944538507500,6.367507568359375,0.26791346073150635,1.0035475492477417,-1.646982192993164
1774472944548525600,6.377525634765625,0.40117672085762024,1.1140573024749756,-1.720909595489502
1774472944558543400,6.38754345703125,0.552914559841156,1.1147222518920898,-1.7408533096313477
1774472944568562400,6.3975625,0.6293036341667175,1.0663933753967285,-1.743973731994629
1774472944578580700,6.407580810546875,0.7083587646484375,1.1909503936767578,-1.6987484693527222
1774472944588598500,6.4175986328125,0.7675648331642151,1.2694108486175537,-1.7159029245376587
1774472944598617600,6.42761767578125,0.8333449363708496,1.3017163276672363,-1.7938520908355713
1774472944608635600,6.4376357421875,0.9574101567268372,1.4308085441589355,-1.8473399877548218
1774472944618654500,6.447654541015625,1.13093101978302,1.5481096506118774,-1.985844373703003
1774472944628672500,6.457672607421875,1.4171545505523682,1.5366846323013306,-2.1534318923950195
1774472944638690600,6.467690673828125,1.8058255910873413,1.530198335647583,-2.2820518016815186
1774472944648709600,6.477709716796875,2.1547980308532715,1.4598450660705566,-2.37161922454834
1774472944658727700,6.487727783203125,2.3495724201202393,1.0260549783706665,-2.4910407066345215
1774472944668745500,6.497745361328125,2.5130629539489746,0.5067415237426758,-2.5007314682006836
1774472944678764500,6.5077646484375,2.562875747680664,0.14639343321323395,-2.4032089710235596
1774472944688782300,6.5177822265625,2.4792559146881104,-0.1414002776145935,-2.3698623180389404
1774472944698800600,6.527800537109375,2.3959171772003174,-0.45607832074165344,-2.2258713245391846
1774472944708819700,6.53781982421875,2.5348148345947266,-0.5154207348823547,-1.9470767974853516
1774472944718837500,6.54783740234375,2.4260857105255127,-0.7145205140113831,-1.8726017475128174
1774472944728855600,6.55785546875,2.2263245582580566,-1.2041347026824951,-1.874577522277832
1774472944738874600,6.56787451171875,2.170443534851074,-1.5839049816131592,-1.7053980827331543
1774472944748892700,6.577892578125,2.1685118675231934,-1.871598720550537,-1.5053584575653076
1774472944758910700,6.58791064453125,1.9599616527557373,-2.0113837718963623,-1.4332232475280762
1774472944768929500,6.597929443359375,1.7643506526947021,-2.095912218093872,-1.3376426696777344
1774472944778947600,6.607947509765625,1.610468864440918,-1.7273821830749512,-0.9454927444458008
1774472944788965400,6.61796533203125,1.4372140169143677,-0.9453638792037964,-0.3386100232601166
1774472944798984400,6.627984375,1.3341251611709595,-0.059361062943935394,0.21065843105316162
1774472944809002800,6.638002685546875,1.2493994235992432,0.7056085467338562,0.3156639635562897
1774472944819020500,6.6480205078125,1.0531015396118164,1.2283567190170288,0.4053744077682495
1774472944829039600,6.65803955078125,1.0547300577163696,1.8110331296920776,0.5624252557754517
1774472944839057400,6.668057373046875,1.2278435230255127,2.57481050491333,0.7008939385414124
1774472944849076500,6.678076416015625,1.289554476737976,3.1848816871643066,0.7388405203819275
1774472944859094500,6.688094482421875,0.8426742553710938,3.269882917404175,0.9672382473945618
1774472944869112600,6.698112548828125,0.3534877598285675,2.8441600799560547,0.8860315680503845
1774472944879131600,6.708131591796875,-0.07143396884202957,2.1406850814819336,0.9292160272598267
1774472944889149700,6.718149658203125,-0.20609164237976074,1.2767266035079956,0.8415136337280273
1774472944899167500,6.72816748046875,-0.17306259274482727,0.2628214955329895,0.8335829973220825
1774472944909186600,6.7381865234375,-0.13420148193836212,-0.4563118815422058,0.7162196040153503
1774472944919204400,6.748204345703125,-0.15072692930698395,-0.7214940190315247,-0.10256871581077576
1774472944929222700,6.75822265625,-0.26378023624420166,-0.8741035461425781,-0.03424771875143051
1774472944939241700,6.76824169921875,-0.295020192861557,-0.4959106743335724,0.12595953047275543
1774472944949259500,6.778259521484375,-0.5029627084732056,-0.6683365106582642,0.4054684042930603
1774472944959277600,6.788277587890625,-0.6494680047035217,-0.9527376294136047,0.5863510966300964
1774472944969296400,6.79829638671875,-0.6251909136772156,-0.9980869889259338,0.40306249260902405
1774472944979314700,6.808314697265625,-0.7164225578308105,-1.4272551536560059,0.07091625034809113
1774472944989332700,6.818332763671875,-0.8850980997085571,-1.9750442504882812,-0.34950554370880127
1774472944999351600,6.8283515625,-1.0187493562698364,-2.34869122505188,-0.721540629863739
1774472945009369600,6.83836962890625,-1.0571702718734741,-1.659541130065918,-0.8980650305747986
1774472945019387400,6.848387451171875,-0.8735844492912292,2.7949976921081543,-0.7240639328956604
1774472945029406500,6.858406494140625,-1.0311328172683716,4.036448955535889,-0.4633053243160248
1774472945039424800,6.8684248046875,-1.193395972251892,4.115781307220459,-0.11264132708311081
1774472945049443600,6.878443603515625,-1.2276829481124878,3.4489686489105225,0.31310972571372986
1774472945059461600,6.888461669921875,-1.0836434364318848,2.2328474521636963,0.6612085700035095
1774472945069479400,6.8984794921875,-0.7635578513145447,0.512859046459198,0.8491457104682922
1774472945079498500,6.90849853515625,-0.4861123859882355,-0.9466967582702637,0.8665369749069214
1774472945089516500,6.9185166015625,-0.35849130153656006,-1.471193552017212,0.7702663540840149
1774472945099534600,6.92853466796875,-0.2799150049686432,-1.5678671598434448,0.6885935664176941
1774472945109553700,6.9385537109375,-0.18733873963356018,-1.591252088546753,0.730519711971283
1774472945119571500,6.948571533203125,-0.05324377864599228,-1.5898547172546387,0.8342594504356384
1774472945129589500,6.958589599609375,0.11498171091079712,-1.4135425090789795,1.0437955856323242
1774472945139608600,6.968608642578125,0.3518246114253998,-1.3925336599349976,1.2260711193084717
1774472945149626400,6.97862646484375,0.5557844042778015,-1.2631034851074219,1.2989709377288818
1774472945159644700,6.988644775390625,0.6390649080276489,-1.2230607271194458,1.2952238321304321
1774472945169663700,6.998663818359375,0.6808658838272095,-1.3549503087997437,1.3487895727157593
1774472945179681500,7.008681640625,0.8560872673988342,-1.400889277458191,1.3555271625518799
1774472945189699600,7.018699462890625,1.0975110530853271,-1.333402156829834,1.1254875659942627
1774472945199718400,7.028718505859375,1.4423922300338745,-1.5022047758102417,0.6835886836051941
1774472945209736700,7.03873681640625,1.438536524772644,-1.591109275817871,0.4954560697078705
1774472945219755800,7.048755859375,1.424729347229004,-1.3977280855178833,0.3151150643825531
1774472945229773600,7.058773681640625,1.540663480758667,-1.1255581378936768,0.15998567640781403
1774472945239791600,7.06879150390625,1.7156275510787964,-1.1106244325637817,0.08292976766824722
1774472945249810400,7.078810546875,2.015672206878662,-1.2246495485305786,-0.0658479854464531
1774472945259828500,7.088828369140625,2.3940916061401367,-1.2656095027923584,-0.13871979713439941
1774472945269846500,7.098846435546875,2.572624444961548,-1.1919214725494385,0.06623494625091553
1774472945279865600,7.108865478515625,2.4024558067321777,-0.8589304089546204,0.635535717010498
1774472945289883600,7.118883544921875,1.8084392547607422,-0.08404510468244553,1.2362502813339233
1774472945299901400,7.1289013671875,1.1916722059249878,0.5262430310249329,1.6221116781234741
1774472945309920500,7.13892041015625,0.3545258641242981,0.7952284216880798,2.1811184883117676
1774472945319938600,7.1489384765625,-0.14449219405651093,0.7961695790290833,2.769814968109131
1774472945329956600,7.15895654296875,-0.3738012909889221,0.8331121206283569,3.031118392944336
1774472945339975700,7.1689755859375,-0.3786197304725647,0.8999053239822388,3.042691707611084
1774472945349993500,7.178993408203125,-0.2818862795829773,0.8306069374084473,3.012896776199341
1774472945360011500,7.189011474609375,-0.17634201049804688,0.7175189852714539,2.9891209602355957
1774472945370030600,7.199030517578125,-0.10291653126478195,0.5919610261917114,2.91778826713562
1774472945380048600,7.209048583984375,-0.07797655463218689,0.33995330333709717,2.837144613265991
1774472945390066700,7.219066650390625,-0.10081582516431808,0.05233191326260567,2.720393657684326
1774472945400085500,7.22908544921875,-0.09480880200862885,-0.24073591828346252,2.5529751777648926
1774472945410103600,7.239103515625,-0.02412211336195469,-0.48627668619155884,2.3120148181915283
1774472945420122600,7.24912255859375,0.04512593150138855,-0.6700074076652527,2.018272638320923
1774472945430140400,7.259140380859375,0.06889810413122177,-0.7059637904167175,1.7896783351898193
1774472945440158700,7.26915869140625,-0.004387557972222567,-0.6695642471313477,1.57931387424469
1774472945450177800,7.279177734375,0.0018487664638087153,-0.5605610609054565,1.4014482498168945
1774472945460195600,7.289195556640625,0.09159143269062042,-0.4996364414691925,1.2709778547286987
1774472945470213600,7.299213623046875,0.15425801277160645,-0.520845353603363,1.1810262203216553
1774472945480232400,7.309232421875,0.1714913249015808,-0.582419216632843,1.0582629442214966
1774472945490250500,7.31925048828125,0.16372181475162506,-0.7041174173355103,0.8716371655464172
1774472945500268500,7.3292685546875,0.27493783831596375,-0.855743408203125,0.6902047991752625
1774472945510287600,7.33928759765625,0.4058809280395508,-0.9093922972679138,0.5840799808502197
1774472945520305700,7.3493056640625,0.4776232838630676,-0.8965843319892883,0.5313988924026489
1774472945530323500,7.359323486328125,0.5198453068733215,-0.7838468551635742,0.5065433382987976
1774472945540342500,7.369342529296875,0.5770310759544373,-0.7121633291244507,0.4740186929702759
1774472945550360300,7.3793603515625,0.5458228588104248,-0.7792078852653503,0.38481664657592773
1774472945560378600,7.389378662109375,0.48258501291275024,-0.5752318501472473,0.29765138030052185
1774472945570397700,7.399397705078125,0.40649107098579407,-0.26824289560317993,0.23551611602306366
1774472945580415500,7.40941552734375,0.3374536633491516,-0.027886757627129555,0.22036433219909668
1774472945590433500,7.41943359375,0.27700603008270264,0.04787857457995415,0.2426680326461792
1774472945600452600,7.42945263671875,0.23680615425109863,0.0783746987581253,0.24456687271595
1774472945610470700,7.439470703125,0.24577434360980988,0.13941487669944763,0.22579984366893768
1774472945620489500,7.449489501953125,0.303200364112854,0.2571633458137512,0.21536238491535187
1774472945630507500,7.459507568359375,0.39853593707084656,0.39062580466270447,0.2091819792985916
1774472945640525600,7.469525634765625,0.5093591213226318,0.4948582053184509,0.2286211997270584
1774472945650544600,7.479544677734375,0.6391176581382751,0.5618516206741333,0.2800300419330597
1774472945660562400,7.4895625,0.7829802632331848,0.6532220244407654,0.33181309700012207
1774472945670580700,7.499580810546875,0.9081349968910217,0.6937944889068604,0.3633553087711334
1774472945680599600,7.509599609375,1.026463508605957,0.6897810697555542,0.38370293378829956
1774472945690617600,7.51961767578125,1.1324999332427979,0.7199704051017761,0.40869802236557007
1774472945700635600,7.5296357421875,1.2277870178222656,0.9186856150627136,0.48435309529304504
1774472945710654500,7.539654541015625,1.2970364093780518,1.1629350185394287,0.5960705876350403
1774472945720672500,7.549672607421875,1.3155068159103394,1.3486961126327515,0.6843948364257812
1774472945730690600,7.559690673828125,1.2766690254211426,1.3962082862854004,0.7108261585235596
1774472945740709600,7.569709716796875,1.1913269758224487,1.3124438524246216,0.7051448822021484
1774472945750727700,7.579727783203125,1.0648149251937866,1.1066251993179321,0.7044172883033752
1774472945760745500,7.589745361328125,0.9317787885665894,0.8900989890098572,0.7227030992507935
1774472945770764500,7.5997646484375,0.7973967790603638,0.7323359847068787,0.7340143322944641
1774472945780782300,7.6097822265625,0.6620498299598694,0.6247555017471313,0.7286302447319031
1774472945790801400,7.619801513671875,0.5132119059562683,0.48335787653923035,0.6978328824043274
1774472945800819700,7.62981982421875,0.3773134648799896,0.34753426909446716,0.6481031775474548
1774472945810837500,7.63983740234375,0.22810746729373932,0.18170881271362305,0.592961311340332
1774472945820856600,7.649856689453125,0.10007626563310623,0.059667859226465225,0.55388343334198
1774472945830874400,7.659874267578125,0.014823953621089458,-0.017402691766619682,0.5104158520698547
1774472945840892700,7.669892578125,-0.02334526926279068,-0.13324406743049622,0.4621593654155731
1774472945850911700,7.679911865234375,-0.041313085705041885,-0.24205364286899567,0.4280741214752197
1774472945860929500,7.689929443359375,-0.018754245713353157,-0.3363223671913147,0.4100072383880615
1774472945870947600,7.699947509765625,0.024595091119408607,-0.43040063977241516,0.42220771312713623
1774472945880966700,7.709966552734375,0.06372598558664322,-0.45432037115097046,0.44080856442451477
1774472945890984400,7.719984375,0.09163697808980942,-0.3073982894420624,0.443708211183548
1774472945901002800,7.730002685546875,0.12130752205848694,-0.04122013971209526,0.4269840717315674
1774472945911021600,7.740021484375,0.16608138382434845,0.19438013434410095,0.36788347363471985
1774472945921039600,7.75003955078125,0.22718308866024017,0.40432509779930115,0.2611306607723236
1774472945931057400,7.760057373046875,0.2431013286113739,0.6046501994132996,0.1342422217130661
1774472945941076500,7.770076416015625,0.26282763481140137,0.8077356815338135,0.020232567563652992
1774472945951094500,7.780094482421875,0.23883815109729767,0.9852428436279297,-0.06567035615444183
1774472945961112600,7.790112548828125,0.147101029753685,1.0766880512237549,-0.13128292560577393
1774472945971131600,7.800131591796875,0.05614103376865387,1.1426124572753906,-0.168300062417984
1774472945981149700,7.810149658203125,-0.04741065949201584,1.1812658309936523,-0.20514169335365295
1774472945991168500,7.82016845703125,-0.16131778061389923,1.1963601112365723,-0.23131684958934784
1774472946001186600,7.8301865234375,-0.2594403624534607,1.1674840450286865,-0.25113075971603394
1774472946011204600,7.84020458984375,-0.34040606021881104,0.9766301512718201,-0.25700995326042175
1774472946021223400,7.850223388671875,-0.40054234862327576,0.6782655715942383,-0.2105947881937027
1774472946031241700,7.86024169921875,-0.4483034908771515,0.20623838901519775,-0.1204955205321312
1774472946041259500,7.870259521484375,-0.49580201506614685,-0.31595396995544434,-0.0041761030443012714
1774472946051278600,7.880278564453125,-0.5426371693611145,-0.7272038459777832,0.11950136721134186
1774472946061296400,7.89029638671875,-0.5749157667160034,-1.0300917625427246,0.2243281751871109
1774472946071314700,7.900314697265625,-0.6024461984634399,-1.2445002794265747,0.3228723406791687
1774472946081333800,7.910333740234375,-0.6176416277885437,-1.3519585132598877,0.4234793484210968
1774472946091351600,7.9203515625,-0.6144341230392456,-1.36142098903656,0.5249239802360535
1774472946101369600,7.93036962890625,-0.5707111358642578,-1.3116360902786255,0.607003390789032
1774472946111388400,7.940388427734375,-0.5082541704177856,-1.1707199811935425,0.6660174131393433
1774472946121406500,7.950406494140625,-0.4303492605686188,-0.9493618011474609,0.6802062392234802
1774472946131424800,7.9604248046875,-0.3531540632247925,-0.7111199498176575,0.6462815403938293
1774472946141443600,7.970443603515625,-0.2921735346317291,-0.492951899766922,0.5900177359580994
1774472946151461600,7.980461669921875,-0.268719881772995,-0.20959903299808502,0.5481613874435425
1774472946161480700,7.990480712890625,-0.26947009563446045,0.14833620190620422,0.5031843185424805
1774472946171498500,8.00049853515625,-0.2673068046569824,0.46538394689559937,0.42679259181022644
1774472946181516500,8.0105166015625,-0.24920742213726044,0.6567578911781311,0.3221527338027954
1774472946191535400,8.020535400390624,-0.2438129335641861,0.7072269320487976,0.1957806944847107
1774472946201553700,8.0305537109375,-0.2204277068376541,0.6527543663978577,0.09540348500013351
1774472946211571500,8.040571533203124,-0.15155410766601562,0.4976571798324585,0.038901325315237045
1774472946221590500,8.050590576171874,-0.08226104825735092,0.2845238745212555,0.05344191938638687
1774472946231608600,8.060608642578124,-0.04881893843412399,0.09856199473142624,0.14146818220615387
1774472946241626600,8.070626708984374,-0.043485160917043686,0.002683401107788086,0.24328002333641052
1774472946251645400,8.0806455078125,-0.05102004110813141,-0.01503860391676426,0.29851585626602173
1774472946261663700,8.090663818359374,-0.07791983336210251,0.01996625028550625,0.2856522500514984
1774472946271681500,8.100681640625,-0.12131097912788391,0.07257220149040222,0.23346148431301117
1774472946281700600,8.11070068359375,-0.15803571045398712,0.10919279605150223,0.16936905682086945
1774472946291718400,8.120718505859376,-0.14780810475349426,0.11745791882276535,0.11438675969839096
1774472946301736700,8.13073681640625,-0.08614553511142731,0.07989669591188431,0.08397825807332993
1774472946311755800,8.140755859375,-0.006838465109467506,0.022242987528443336,0.08115290850400925
1774472946321773600,8.150773681640626,0.07015405595302582,-0.021514346823096275,0.10000995546579361
1774472946331792600,8.160792724609376,0.1259067952632904,0.00669252360239625,0.13210663199424744
1774472946341810400,8.170810546875,0.1520603746175766,0.07792915403842926,0.15963999927043915
1774472946351828500,8.180828369140626,0.1552463173866272,0.14249002933502197,0.17617715895175934
1774472946361847600,8.19084765625,0.13947586715221405,0.20947599411010742,0.17744721472263336
1774472946371865600,8.200865478515626,0.11532872170209885,0.293643593788147,0.15340207517147064
1774472946381883600,8.210883544921876,0.09747356176376343,0.37364548444747925,0.09711456298828125
1774472946391902500,8.22090234375,0.0785592570900917,0.5070605278015137,0.027644144371151924
1774472946401920500,8.23092041015625,0.06531029939651489,0.6533535718917847,-0.03942117467522621
1774472946411938600,8.2409384765625,0.07711182534694672,0.7468978762626648,-0.0945611298084259
1774472946421957400,8.250957275390626,0.09908370673656464,0.7435721755027771,-0.15691451728343964
1774472946431975700,8.2609755859375,0.12922988831996918,0.6144706010818481,-0.2188340723514557
1774472946441993500,8.270993408203125,0.12110831588506699,0.43978002667427063,-0.2579556405544281
1774472946452012500,8.281012451171875,0.09827330708503723,0.2917567491531372,-0.2534826099872589
1774472946462030600,8.291030517578125,0.06548233330249786,0.15402312576770782,-0.22129777073860168
1774472946472048600,8.301048583984375,0.03906271234154701,0.03386368975043297,-0.2005634605884552
1774472946482067700,8.311067626953125,0.018128937110304832,-0.06581682711839676,-0.22749467194080353
1774472946492085500,8.32108544921875,0.011812451295554638,-0.11094143241643906,-0.268869549036026
1774472946502104600,8.3311044921875,0.02845401130616665,-0.12272485345602036,-0.31454649567604065
1774472946512122600,8.34112255859375,0.04978566616773605,-0.1265435665845871,-0.35095375776290894
1774472946522140400,8.351140380859375,0.07070479542016983,-0.13016359508037567,-0.37517014145851135
1774472946532159500,8.361159423828125,0.09170355647802353,-0.11072970926761627,-0.4124685227870941
1774472946542177500,8.371177490234375,0.11241175979375839,-0.02640444226562977,-0.4604283273220062
1774472946552195600,8.381195556640625,0.13026772439479828,0.1225416287779808,-0.5025747418403625
1774472946562214700,8.391214599609375,0.1294056624174118,0.23153255879878998,-0.551707923412323
1774472946572232400,8.401232421875,0.10106456279754639,0.25126978754997253,-0.5982921719551086
1774472946582250500,8.41125048828125,0.051957473158836365,0.20886346697807312,-0.6284796595573425
1774472946592269600,8.42126953125,-0.008732238784432411,0.09113816916942596,-0.6320973038673401
1774472946602287600,8.43128759765625,-0.06246790662407875,-0.07486225664615631,-0.6112862825393677
1774472946612305700,8.4413056640625,-0.10001234710216522,-0.2045414298772812,-0.566885232925415
1774472946622324500,8.451324462890625,-0.1178872212767601,-0.21864472329616547,-0.5068725347518921
1774472946632342500,8.461342529296875,-0.10854831337928772,-0.13757330179214478,-0.436685711145401
1774472946642360600,8.471360595703125,-0.07305263727903366,0.0503595769405365,-0.3493523895740509
1774472946652379400,8.48137939453125,-0.030492128804326057,0.20949995517730713,-0.2477501481771469
1774472946662397700,8.491397705078125,0.004267449490725994,0.28963714838027954,-0.15660612285137177
1774472946672415500,8.50141552734375,0.024888038635253906,0.2792534828186035,-0.08276545256376266
1774472946682434600,8.5114345703125,0.021980132907629013,0.2229159027338028,-0.018629876896739006
1774472946692452600,8.52145263671875,0.016160327941179276,0.22575536370277405,0.016695622354745865
1774472946702471400,8.531471435546875,0.015335280448198318,0.2537100315093994,0.031325966119766235
1774472946712489700,8.54148974609375,0.028690766543149948,0.32361507415771484,0.03567890077829361
1774472946722507500,8.551507568359375,0.06278322637081146,0.416507750749588,0.02430027909576893
1774472946732526600,8.561526611328125,0.11588585376739502,0.49218305945396423,-0.0017901768442243338
1774472946742544600,8.571544677734375,0.15859682857990265,0.5316867828369141,-0.03669622913002968
1774472946752562400,8.5815625,0.16848434507846832,0.454878032207489,-0.07663539052009583
1774472946762581500,8.59158154296875,0.15128272771835327,0.3409506678581238,-0.10097748041152954
1774472946772599600,8.601599609375,0.11499343067407608,0.24001125991344452,-0.11668853461742401
1774472946782617600,8.61161767578125,0.09393075853586197,0.16865399479866028,-0.11014647781848907
1774472946792636700,8.62163671875,0.04809083044528961,0.08015742152929306,-0.10971850901842117
1774472946802654500,8.631654541015624,0.012350142933428288,0.05486031994223595,-0.12431290000677109
1774472946812672500,8.641672607421874,0.02743828296661377,0.10068187117576599,-0.15830601751804352
1774472946822691300,8.65169140625,0.08307384699583054,0.1314041018486023,-0.22462032735347748
1774472946832709600,8.661709716796874,0.1704961061477661,0.26866474747657776,-0.348519891500473
1774472946842728700,8.671728759765625,0.264873743057251,0.33659160137176514,-0.47849786281585693
1774472946852746500,8.68174658203125,0.3574691712856293,0.13028636574745178,-0.38610216975212097
1774472946862764500,8.6917646484375,0.42290759086608887,-0.058396998792886734,-0.26900455355644226
1774472946872783600,8.70178369140625,0.4293234050273895,-0.1523413360118866,-0.18483296036720276
1774472946882801400,8.711801513671874,0.4021783471107483,-0.21727719902992249,-0.12510891258716583
1774472946892819700,8.72181982421875,0.3329571783542633,-0.29290059208869934,-0.07724685221910477
1774472946902838500,8.731838623046874,0.2457525134086609,-0.2676175832748413,-0.03611566126346588
1774472946912856600,8.741856689453124,0.21103714406490326,-0.07777255773544312,-0.027188478037714958
1774472946922874400,8.751874267578126,0.14137524366378784,0.07508516311645508,-0.002590989461168647
1774472946932893400,8.7618935546875,0.04994039610028267,0.14391189813613892,0.039209719747304916
1774472946942911700,8.771911865234374,0.049430400133132935,0.29636722803115845,-0.0011891013709828258
1774472946952929500,8.781929443359376,0.10835816711187363,0.5100731253623962,-0.09369053691625595
1774472946962948600,8.791948486328126,0.18144649267196655,0.6833788752555847,-0.18500420451164246
1774472946972966700,8.801966552734376,0.3127344846725464,0.8264427781105042,-0.23324204981327057
1774472946982984400,8.811984375,0.410574734210968,0.9258804321289062,-0.3090782165527344
1774472946993003500,8.82200341796875,0.5648239850997925,1.0486974716186523,-0.3918817639350891
1774472947003021600,8.832021484375,0.6837918758392334,1.0134342908859253,-0.38026371598243713
1774472947013039600,8.84203955078125,0.7566533088684082,0.7877752780914307,-0.2704320251941681
1774472947023058700,8.85205859375,0.8332261443138123,0.5126736760139465,-0.1926831603050232
1774472947033076500,8.862076416015626,0.9693477749824524,0.2756960391998291,-0.05787501856684685
1774472947043095600,8.872095458984376,1.0458827018737793,-0.03876310959458351,0.18181587755680084
1774472947053113300,8.88211328125,1.0033725500106812,-0.35340654850006104,0.5218567848205566
1774472947063131600,8.892131591796876,0.8001909255981445,-0.5618345737457275,0.8859143853187561
1774472947073150700,8.902150634765626,0.5998682379722595,-0.6014330983161926,1.1202988624572754
1774472947083168500,8.91216845703125,0.5355890989303589,-0.7637996673583984,1.343271017074585
1774472947093186600,8.9221865234375,0.5208682417869568,-0.8550794720649719,1.5125590562820435
1774472947103205400,8.932205322265625,0.46391040086746216,-0.824287474155426,1.5848884582519531
1774472947113223700,8.9422236328125,0.3404308259487152,-0.690693199634552,1.5564440488815308
1774472947123241700,8.95224169921875,0.18060892820358276,-0.49097850918769836,1.48127281665802
1774472947133260500,8.962260498046875,-0.008449411019682884,-0.3961271047592163,1.4380369186401367
1774472947143278600,8.972278564453125,-0.14034005999565125,-0.3919792175292969,1.5097713470458984
1774472947153296400,8.98229638671875,-0.165683776140213,-0.36537718772888184,1.725529432296753
1774472947163315500,8.9923154296875,-0.051411524415016174,-0.05330077186226845,1.9191228151321411
1774472947173333800,9.002333740234375,0.12845145165920258,0.1940443068742752,2.010739803314209
1774472947183351600,9.0123515625,0.29068830609321594,0.007737548090517521,2.0416884422302246
1774472947193370600,9.02237060546875,0.42890581488609314,-0.17977695167064667,1.9544183015823364
1774472947203388400,9.032388427734375,0.5147751569747925,-0.10408911854028702,1.7632895708084106
1774472947213407500,9.042407470703125,0.5173379182815552,0.025171665474772453,1.658437728881836
1774472947223425000,9.052425048828125,0.46971395611763,0.039393745362758636,1.6716747283935547
1774472947233442800,9.06244287109375,0.41842761635780334,0.12809431552886963,1.4877331256866455
1774472947243462000,9.0724619140625,0.3382105231285095,0.03267618641257286,1.2846417427062988
1774472947253479700,9.082479736328125,0.23813320696353912,-0.16623930633068085,1.0399774312973022
1774472947263497700,9.092497802734375,0.1500033438205719,-0.2729465663433075,0.8801025748252869
1774472947273516800,9.102516845703125,0.04583113640546799,-0.27889901399612427,0.6546974182128906
1774472947283534800,9.112534912109375,0.020008062943816185,-0.6445382237434387,0.6913962960243225
1774472947293553000,9.122552978515625,0.02586781606078148,-0.6061930060386658,0.6981742978096008
1774472947303571700,9.13257177734375,-0.01483700331300497,-0.5108051896095276,0.8760390877723694
1774472947313589800,9.14258984375,-0.001978995045647025,-0.32899200916290283,1.1643710136413574
1774472947323607800,9.15260791015625,-0.08782918751239777,0.21180573105812073,1.1253538131713867
1774472947333626600,9.162626708984375,-0.0870954841375351,0.4542559087276459,1.4357173442840576
1774472947343645000,9.17264501953125,-0.0591898187994957,0.4493274688720703,1.552927851676941
1774472947353662700,9.182662841796875,-0.04616190120577812,0.19779829680919647,1.639970302581787
1774472947363681800,9.192681884765625,-0.04814675450325012,-0.008825981989502907,1.668809175491333
1774472947373699800,9.202699951171875,-0.0015062838792800903,-0.19363923370838165,1.6503249406814575
1774472947383718000,9.2127177734375,0.012856409884989262,-0.2811483144760132,1.6268726587295532
1774472947393737000,9.222737060546875,0.022494124248623848,-0.3766692578792572,1.5979368686676025
1774472947403754800,9.232754638671874,0.12591852247714996,-0.5385202169418335,1.5467149019241333
1774472947413773800,9.24277392578125,0.20746824145317078,-0.7768613696098328,1.6607810258865356
1774472947423791900,9.2527919921875,0.24471041560173035,-0.7641072273254395,1.6959919929504395
1774472947433809700,9.2628095703125,0.3059745728969574,-0.8413841724395752,1.7395366430282593
1774472947443828700,9.272828857421874,0.38815838098526,-1.1265432834625244,1.6796183586120605
1774472947453846800,9.2828466796875,0.403435617685318,-1.2324198484420776,1.481200098991394
1774472947463864800,9.29286474609375,0.37562796473503113,-1.4856009483337402,1.3776284456253052
1774472947473884000,9.3028837890625,0.3114710748195648,-1.605249047279358,1.2280168533325195
1774472947483901700,9.312901611328124,0.24050608277320862,-1.526632308959961,1.0064599514007568
1774472947497675800,9.32667578125,0.12082575261592865,-1.5717183351516724,0.6956879496574402
1774472947507694800,9.33669482421875,0.05964948236942291,-1.6937392950057983,0.541178286075592
1774472947517713000,9.346712890625,-0.030545659363269806,-1.6672221422195435,0.39038506150245667
1774472947527730700,9.356730712890625,-0.10749690234661102,-1.5902129411697388,0.3417288362979889
1774472947537749800,9.366749755859376,-0.16281715035438538,-1.3148609399795532,0.3754383325576782
1774472947547767800,9.376767822265625,-0.18936006724834442,-0.9147196412086487,0.48811668157577515
1774472947557786600,9.38678662109375,-0.16269756853580475,-0.5123072266578674,0.6851075291633606
1774472947567805000,9.396804931640625,-0.09942672401666641,-0.09770924597978592,0.9018446207046509
1774472947577823000,9.406822998046875,-0.035523105412721634,0.2015613466501236,1.1367311477661133
1774472947587841800,9.416841796875,0.07191014289855957,0.3935805857181549,1.37734055519104
1774472947597859800,9.42685986328125,0.19012945890426636,0.5160498023033142,1.6706472635269165
1774472947607877600,9.436877685546875,0.3135454058647156,0.6129744648933411,1.9086459875106812
1774472947617896700,9.446896728515625,0.4069954454898834,0.6369042992591858,2.043541193008423
1774472947627915000,9.4569150390625,0.46342065930366516,0.7030209898948669,2.041562080383301
1774472947637932800,9.466932861328125,0.5236999988555908,0.719823956489563,2.146634578704834
1774472947647952000,9.476951904296875,0.5685100555419922,0.4017200171947479,2.472508192062378
1774472947657969700,9.4869697265625,0.660051703453064,-0.23675662279129028,2.756843328475952
1774472947667987700,9.49698779296875,0.7768981456756592,-0.835859477519989,2.791025400161743
1774472947678006800,9.5070068359375,0.881970226764679,-1.0312281847000122,2.5036568641662598
1774472947688024800,9.51702490234375,0.702499270439148,-1.5554852485656738,2.316685914993286
1774472947698044000,9.5270439453125,0.3651233911514282,-1.0984399318695068,2.1025514602661133
1774472947708061700,9.537061767578125,0.14024366438388824,-0.24621696770191193,2.1024692058563232
1774472947718079700,9.547079833984375,0.09827543795108795,-0.40558478236198425,2.4972383975982666
1774472947728098800,9.557098876953125,0.1245051771402359,-0.7231577038764954,2.574373960494995
1774472947738116900,9.567116943359375,0.07597199827432632,-0.23919527232646942,2.166475296020508
1774472947748135000,9.577135009765625,-0.024439562112092972,-0.5724848508834839,2.1309869289398193
1774472947758154000,9.587154052734375,-0.06906535476446152,-1.6109684705734253,2.3434715270996094
1774472947768171800,9.597171875,-0.02250024862587452,-0.8643933534622192,1.8839662075042725
1774472947778189800,9.60718994140625,-0.11420806497335434,-0.6319957971572876,1.788591980934143
1774472947788208600,9.617208740234375,-0.16646194458007812,-0.9572279453277588,1.9215519428253174
1774472947798227000,9.62722705078125,-0.1996513307094574,-1.5770041942596436,1.9492261409759521
1774472947808244700,9.63724462890625,-0.22888325154781342,-1.9830259084701538,1.7698726654052734
1774472947818263800,9.647263916015625,-0.2585705816745758,-2.046525001525879,1.6568635702133179
1774472947828281900,9.65728173828125,-0.37278449535369873,-1.7989295721054077,1.6858209371566772
1774472947838299600,9.667299560546875,-0.4871257245540619,-1.2744016647338867,1.7364978790283203
1774472947848318700,9.677318603515625,-0.5219412446022034,-0.6809498071670532,1.6798338890075684
1774472947858337000,9.6873369140625,-0.5335182547569275,-0.36582353711128235,1.7688335180282593
1774472947868355800,9.69735595703125,-0.4756637513637543,-0.23750843107700348,1.881293773651123
1774472947878374000,9.707373779296875,-0.39447781443595886,-0.19465656578540802,1.6690759658813477
1774472947888391700,9.7173916015625,-0.32574933767318726,-0.12858301401138306,1.1685916185379028
1774472947898410800,9.72741064453125,-0.28463679552078247,-0.07939096540212631,0.6543210744857788
1774472947908428800,9.7374287109375,-0.2551864981651306,-0.14215394854545593,0.44160109758377075
1774472947918446800,9.74744677734375,-0.20575661957263947,-0.24022671580314636,0.3885256350040436
1774472947928466000,9.7574658203125,-0.13360759615898132,-0.30071401596069336,0.2115442007780075
1774472947938483700,9.767483642578124,-0.055820122361183167,-0.3684493899345398,-0.04170377179980278
1774472947948501800,9.777501708984374,0.009276589378714561,-0.47795990109443665,-0.22541874647140503
1774472947958520800,9.787520751953124,0.06156056746840477,-0.5935219526290894,-0.3372192978858948
1774472947968539000,9.797538818359374,0.11863850057125092,-0.627108097076416,-0.4413079023361206
1774472947978558000,9.807557861328124,0.17682483792304993,-0.5978114604949951,-0.5326218008995056
1774472947988575700,9.81757568359375,0.23067928850650787,-0.5606635808944702,-0.6021907925605774
1774472947998593800,9.82759375,0.301302045583725,-0.5538355112075806,-0.650336742401123
1774472948008612900,9.83761279296875,0.37320366501808167,-0.6049719452857971,-0.6746527552604675
1774472948018630700,9.847630615234374,0.4336254596710205,-0.7018113732337952,-0.6664043664932251
1774472948028649000,9.85764892578125,0.4997115433216095,-0.8163139820098877,-0.6745067834854126
1774472948038668000,9.86766796875,0.5638700127601624,-0.9426543712615967,-0.6593965291976929
1774472948048685800,9.877685791015624,0.5972554087638855,-1.077416181564331,-0.6266822814941406
1774472948058704000,9.887703857421876,0.5764824748039246,-1.1644195318222046,-0.5893679261207581
1774472948068722700,9.89772265625,0.5272579789161682,-1.1396957635879517,-0.5649718046188354
1774472948078740700,9.90774072265625,0.47331270575523376,-1.0036457777023315,-0.5335062742233276
1774472948088759800,9.917759765625,0.4221981167793274,-0.8391303420066833,-0.48033517599105835
1774472948098777900,9.92777783203125,0.3683692514896393,-0.7377701997756958,-0.4170970916748047
1774472948108796000,9.9377958984375,0.3128015697002411,-0.7468070983886719,-0.3587155342102051
1774472948118814700,9.947814697265626,0.2553843557834625,-0.8431887626647949,-0.30300140380859375
1774472948128832800,9.957832763671876,0.1933087408542633,-0.9782096743583679,-0.2461293488740921
1774472948138850800,9.967850830078126,0.11490021646022797,-1.0964857339859009,-0.18774326145648956
1774472948148869600,9.97786962890625,0.033896978944540024,-1.1581999063491821,-0.10667344927787781
1774472948158888000,9.987887939453126,-0.035541750490665436,-1.1417189836502075,-0.017790447920560837
1774472948168905700,9.99790576171875,-0.10197749733924866,-1.0891625881195068,0.05762867629528046
1774472948178924800,10.0079248046875,-0.1655634045600891,-1.0446033477783203,0.13618101179599762
1774472948188942800,10.01794287109375,-0.22268740832805634,-1.0296648740768433,0.2115095853805542
1774472948198961700,10.027961669921876,-0.27111485600471497,-1.0423556566238403,0.26886314153671265
1774472948208980000,10.03797998046875,-0.311870813369751,-1.074722409248352,0.30574288964271545
1774472948218997800,10.047997802734375,-0.352592408657074,-1.1104968786239624,0.319004625082016
1774472948229017300,10.058017333984376,-0.37812361121177673,-1.1394259929656982,0.3229021430015564
1774472948239035100,10.06803515625,-0.40488383173942566,-1.1618735790252686,0.32659780979156494
1774472948249053200,10.07805322265625,-0.4159245193004608,-1.172594666481018,0.3144013583660126
1774472948259072000,10.088072021484376,-0.40820878744125366,-1.1727464199066162,0.2821062505245209
1774472948269090000,10.098090087890625,-0.37741947174072266,-1.1734603643417358,0.2331954389810562
1774472948279109000,10.108109130859376,-0.3292010724544525,-1.1947238445281982,0.18284517526626587
1774472948289127200,10.118127197265625,-0.29781198501586914,-1.2448999881744385,0.12333418428897858
1774472948299145200,10.128145263671875,-0.2790127396583557,-1.2828049659729004,0.05185733735561371
1774472948309164300,10.138164306640626,-0.2646505534648895,-1.2760558128356934,-0.023551931604743004
1774472948319182000,10.14818212890625,-0.25183597207069397,-1.2103683948516846,-0.09477417916059494
1774472948329201200,10.158201171875,-0.2716994285583496,-1.1173648834228516,-0.1452448070049286
1774472948339219200,10.16821923828125,-0.27242299914360046,-1.014000415802002,-0.20373953878879547
1774472948349237200,10.1782373046875,-0.2583670914173126,-0.9614844918251038,-0.2641541659832001
1774472948359256300,10.18825634765625,-0.25176939368247986,-0.9428330659866333,-0.32439592480659485
1774472948369274000,10.198274169921875,-0.2390621155500412,-0.7795423865318298,-0.30082082748413086
1774472948379292200,10.208292236328125,-0.13037104904651642,0.517414391040802,0.21700555086135864
1774472948389311000,10.21831103515625,0.047385890036821365,2.285149574279785,0.7707313299179077
1774472948399329300,10.228329345703125,-0.14542803168296814,1.943044662475586,0.6130335927009583
1774472948409348400,10.238348388671875,-0.0777086466550827,1.2496448755264282,0.6371557116508484
1774472948419366100,10.2483662109375,0.019718045368790627,0.2873295247554779,0.7902967929840088
1774472948429384200,10.25838427734375,0.12850044667720795,-0.6994885802268982,0.8305794596672058
1774472948439403300,10.2684033203125,0.2439865618944168,-1.200251817703247,0.7879763841629028
1774472948449421000,10.278421142578125,0.34294164180755615,-1.2327791452407837,0.628454864025116
1774472948459440000,10.288440185546875,0.43560633063316345,-1.2043343782424927,0.4244937598705292
1774472948469458200,10.298458251953125,0.5592683553695679,-1.1351563930511475,0.22423283755779266
1774472948479476200,10.308476318359375,0.6411730647087097,-1.1406971216201782,0.005375590641051531
1774472948489495300,10.318495361328125,0.6778938174247742,-1.2503807544708252,-0.20838303864002228
1774472948499513000,10.32851318359375,0.6360193490982056,-1.3938111066818237,-0.37736591696739197
1774472948509531100,10.33853125,0.5990796685218811,-1.5950968265533447,-0.49195748567581177
1774472948519550200,10.34855029296875,0.5367036461830139,-1.5107077360153198,-0.5942745208740234
1774472948529568300,10.358568359375,0.43351948261260986,-1.1672248840332031,-0.6617845892906189
1774472948539587300,10.36858740234375,0.3024812936782837,-0.7378503680229187,-0.668720543384552
1774472948549605000,10.378605224609375,0.14559608697891235,-0.3882393538951874,-0.6527767181396484
1774472948559623200,10.388623046875,0.030184799805283546,-0.28650525212287903,-0.6901970505714417
1774472948569642000,10.39864208984375,-0.027715517207980156,-0.42862164974212646,-0.7440137267112732
1774472948579660300,10.408660400390625,-0.04138712212443352,-0.6066001653671265,-0.771828293800354
1774472948589679400,10.418679443359375,-0.056229449808597565,-0.6813532710075378,-0.7827067375183105
1774472948599697200,10.428697265625,-0.08051321655511856,-0.6437587141990662,-0.7613953351974487
1774472948609715200,10.438715087890625,-0.14106284081935883,-0.04851480573415756,-0.5821866989135742
1774472948619734300,10.448734375,-0.20834468305110931,0.42586156725883484,-0.3648280203342438
1774472948629752000,10.458751953125,-0.2709074020385742,1.0375055074691772,0.03660514950752258
1774472948639771100,10.468771240234375,-0.354792982339859,1.2636387348175049,0.41164934635162354
1774472948649789200,10.4787890625,-0.4420839250087738,0.9144163131713867,0.5932854413986206
1774472948659807200,10.48880712890625,-0.5109037756919861,0.750010073184967,0.5595226883888245
1774472948669826300,10.498826416015625,-0.6980579495429993,0.8896436095237732,0.3615049421787262
1774472948679844000,10.508843994140625,-0.994568407535553,1.0735396146774292,0.17659713327884674
1774472948689863200,10.51886328125,-1.3200184106826782,1.1837655305862427,0.036679983139038086
1774472948699881000,10.528880859375,-1.6223779916763306,1.2514281272888184,-0.0823444053530693
1774472948709899300,10.538899169921875,-1.8695696592330933,1.363074779510498,-0.18779920041561127
1774472948719918300,10.54891845703125,-2.050339460372925,1.5293937921524048,-0.2627488076686859
1774472948729936100,10.55893603515625,-2.162897825241089,1.8096741437911987,-0.29552486538887024
1774472948739955200,10.568955078125,-2.1923255920410156,2.052043914794922,-0.32741594314575195
1774472948749973200,10.57897314453125,-2.1344733238220215,2.3291163444519043,-0.38978105783462524
1774472948759991300,10.5889912109375,-2.078315019607544,2.1915571689605713,-0.4553041458129883
1774472948770010000,10.599010009765625,-1.9813222885131836,1.8837254047393799,-0.5047680735588074
1774472948780028200,10.609028076171874,-1.7700138092041016,1.4948760271072388,-0.5225920677185059
1774472948790047200,10.619047119140625,-1.5478236675262451,1.2211132049560547,-0.5556451082229614
1774472948800065300,10.629065185546875,-1.3604060411453247,1.0409119129180908,-0.5816159844398499
1774472948810084000,10.639083984375,-1.2411670684814453,0.8842147588729858,-0.5727769732475281
1774472948820102100,10.64910205078125,-1.201385498046875,0.6850669980049133,-0.5098153352737427
1774472948830120200,10.6591201171875,-1.214911937713623,0.5537005066871643,-0.4327154755592346
1774472948840139300,10.66913916015625,-1.251074194908142,0.4915681481361389,-0.35090503096580505
1774472948850157300,10.6791572265625,-1.3090635538101196,0.349414199590683,-0.3439360558986664
1774472948860176100,10.689176025390625,-1.3192013502120972,0.10175538808107376,-0.3795031011104584
1774472948870194200,10.699194091796874,-1.2963061332702637,-0.11513377726078033,-0.4239307641983032
1774472948880212000,10.7092119140625,-1.2666372060775757,-0.3381865620613098,-0.4372604191303253
1774472948890231000,10.71923095703125,-1.2121236324310303,-0.4344893991947174,-0.38555195927619934
1774472948900249300,10.729249267578124,-1.2500026226043701,-0.1823335886001587,-0.3022517263889313
1774472948910268200,10.73926806640625,-1.3154066801071167,0.23565220832824707,-0.24990783631801605
1774472948920286200,10.7492861328125,-1.3666008710861206,0.4591135084629059,-0.18716029822826385
1774472948930304300,10.75930419921875,-1.3998339176177979,0.4450349807739258,-0.06719475239515305
1774472948940323000,10.769322998046874,-1.415520429611206,0.2747521996498108,0.11447092145681381
1774472948950341000,10.779341064453124,-1.3928412199020386,0.06845176219940186,0.2912400960922241
1774472948960360200,10.789360107421874,-1.3687713146209717,0.0033782199025154114,0.4286075532436371
1774472948970378200,10.799378173828124,-1.4099466800689697,0.15574193000793457,0.4546620547771454
1774472948980397300,10.809397216796874,-1.400667428970337,0.37191683053970337,0.4124376177787781
1774472948990415000,10.8194150390625,-1.2869597673416138,0.44144585728645325,0.5630630850791931
1774472949000433200,10.82943310546875,-1.231798529624939,0.4528106153011322,0.6889645457267761
1774472949010452200,10.8394521484375,-1.2325279712677002,0.48913347721099854,0.7463082671165466
1774472949020470000,10.849469970703124,-1.1677346229553223,0.5951760411262512,0.7951237559318542
1774472949030489000,10.859489013671874,-0.996805727481842,0.5942015647888184,0.8928465843200684
1774472949040507100,10.869507080078124,-0.755768358707428,0.5577407479286194,0.9541128873825073
1774472949050526200,10.879526123046874,-0.4977245628833771,0.40223532915115356,0.9487175941467285
1774472949060544300,10.889544189453124,-0.2943168580532074,0.1686880886554718,0.8894249796867371
1774472949070562000,10.89956201171875,-0.567485511302948,0.1511775404214859,0.5670602321624756
1774472949080581000,10.9095810546875,-0.6835135817527771,-0.10227204114198685,0.18104009330272675
1774472949090599400,10.919599365234374,-0.48325586318969727,0.15219512581825256,-0.02166295051574707
1774472949100618200,10.9296181640625,-0.32497116923332214,0.37541890144348145,-0.23218663036823273
1774472949110636300,10.93963623046875,-0.2749314308166504,0.3887440264225006,-0.49832484126091003
1774472949120654000,10.949654052734376,-0.14640355110168457,0.2536056339740753,-0.7059108018875122
1774472949130673200,10.959673095703126,0.05892510339617729,0.07676082104444504,-0.8112968802452087
1774472949140691200,10.969691162109376,0.22635777294635773,-0.07612752169370651,-0.8648450374603271
1774472949150710000,10.9797099609375,0.3271874487400055,-0.08159206807613373,-0.9405611157417297
1774472949160728300,10.989728271484376,0.3621307909488678,0.14390577375888824,-1.024962067604065
1774472949170747400,10.999747314453124,0.28445249795913696,0.5209550261497498,-1.0562070608139038
1774472949180765200,11.00976513671875,0.10309096425771713,0.9172976016998291,-1.0186662673950195
1774472949190784300,11.0197841796875,-0.14471058547496796,1.201532006263733,-0.9207128286361694
1774472949200802000,11.029802001953126,-0.3959915339946747,1.3141237497329712,-0.7489429712295532
1774472949210820000,11.039820068359376,-0.54850172996521,1.2860692739486694,-0.5135035514831543
1774472949220839200,11.049839111328126,-0.6157010197639465,1.2231992483139038,-0.2937557101249695
1774472949230856700,11.059856689453126,-0.5966058969497681,1.209302306175232,-0.13349947333335876
1774472949240875500,11.06987548828125,-0.47946006059646606,1.1184331178665161,-0.0005344964447431266
1774472949250893600,11.0798935546875,-0.3249163031578064,1.008919358253479,0.13856160640716553
1774472949260912600,11.08991259765625,-0.24532561004161835,0.8181707262992859,0.21381960809230804
1774472949270930400,11.099930419921876,-0.17516835033893585,0.6693375706672668,0.27379292249679565
1774472949280948700,11.10994873046875,-0.09847383946180344,0.59070885181427,0.39361467957496643
1774472949290967600,11.119967529296876,-0.03145512938499451,0.6099541783332825,0.5451871752738953
1774472949300985600,11.129985595703126,-0.043111518025398254,0.6906439661979675,0.7115689516067505
1774472949311004700,11.140004638671876,-0.11220376938581467,0.7409425377845764,0.8455118536949158
1774472949321022500,11.1500224609375,-0.21020276844501495,0.6997098922729492,0.9280415773391724
1774472949331041500,11.16004150390625,-0.39264875650405884,0.6116407513618469,0.9994689226150513
1774472949341059300,11.170059326171875,-0.46679994463920593,0.4311002492904663,1.0832176208496094
1774472949351077600,11.18007763671875,-0.4364076852798462,0.3669372498989105,1.1034568548202515
1774472949361096700,11.1900966796875,-0.4771660268306732,0.31118902564048767,1.0941901206970215
1774472949371114500,11.200114501953125,-0.562630832195282,0.2990303635597229,1.1072733402252197
1774472949381133600,11.210133544921876,-0.6209027171134949,0.3553810119628906,1.1396113634109497
1774472949391151600,11.220151611328125,-0.6419262290000916,0.34886372089385986,1.1658046245574951
1774472949401170400,11.23017041015625,-0.6240811944007874,0.23638510704040527,1.213876485824585
1774472949411188500,11.2401884765625,-0.5656871199607849,0.05788034200668335,1.307258129119873
1774472949421207600,11.25020751953125,-0.46879544854164124,-0.12823359668254852,1.4096876382827759
1774472949431225600,11.2602255859375,-0.6267949342727661,-0.1998249590396881,0.8875104188919067
1774472949441243600,11.27024365234375,-1.2116003036499023,-0.014827415347099304,-0.9431135058403015
1774472949451262500,11.280262451171875,-1.245517611503601,-0.44635751843452454,-1.7157639265060425
1774472949461280500,11.290280517578125,-0.6813761591911316,-0.8924862742424011,-1.514147400856018
1774472949471299600,11.300299560546875,-0.20231874287128448,-0.7742360234260559,-1.3316864967346191
1774472949481317600,11.310317626953125,-0.276041179895401,-0.5985523462295532,-1.0501235723495483
1774472949491336700,11.320336669921875,-0.4052920937538147,-0.17434650659561157,-0.5783137083053589
1774472949501354500,11.3303544921875,-0.35684308409690857,0.20155708491802216,-0.12191738188266754
1774472949511372500,11.34037255859375,-0.26015061140060425,0.6653969287872314,0.537208080291748
1774472949521391600,11.3503916015625,-0.4079113304615021,0.7881010174751282,1.317275047302246
1774472949531409400,11.360409423828125,-0.5161898732185364,0.7356598973274231,1.8832274675369263
1774472949541428500,11.370428466796875,-0.43388831615448,0.4277750551700592,2.1487438678741455
1774472949551446800,11.38044677734375,-0.1792810708284378,0.16617858409881592,2.118675947189331
1774472949561465600,11.390465576171875,0.15362951159477234,0.0972415953874588,1.9035415649414062
1774472949571483600,11.400483642578125,0.3489342927932739,0.2653070390224457,1.6468702554702759
1774472949581502700,11.410502685546875,0.4289010167121887,0.5141578912734985,1.5772161483764648
1774472949591520500,11.4205205078125,0.4538138210773468,0.5822373032569885,1.6927168369293213
1774472949601538600,11.43053857421875,0.44264933466911316,0.47847071290016174,1.885205864906311
1774472949611557400,11.440557373046875,0.4304187595844269,0.34623971581459045,2.0254135131835938
1774472949621575700,11.45057568359375,0.45706236362457275,0.22769653797149658,2.0647456645965576
1774472949631594800,11.4605947265625,0.5292478799819946,0.16211487352848053,1.988532304763794
1774472949641612500,11.470612548828125,0.6372803449630737,0.18022462725639343,1.8255079984664917
1774472949651631600,11.480631591796875,0.7779194712638855,0.19113826751708984,1.6140183210372925
1774472949661649400,11.4906494140625,0.9025580883026123,0.22374227643013,1.451465129852295
1774472949671668500,11.50066845703125,1.0135434865951538,0.26944053173065186,1.313073992729187
1774472949681686500,11.5106865234375,1.173005223274231,0.2932529151439667,1.1881943941116333
1774472949691704600,11.52070458984375,1.3297626972198486,0.32033565640449524,1.0353754758834839
1774472949701723600,11.5307236328125,1.42380690574646,0.45168358087539673,0.9043839573860168
1774472949711741400,11.540741455078125,1.4508217573165894,0.6327835917472839,0.8395529985427856
1774472949721760500,11.550760498046875,1.4404186010360718,0.8371516466140747,0.7570778131484985
1774472949731778600,11.560778564453125,1.352402687072754,0.7519366145133972,0.6858958005905151
1774472949741797400,11.57079736328125,1.2184406518936157,0.5813153386116028,0.6954400539398193
1774472949751815700,11.580815673828125,1.166638970375061,0.6230023503303528,0.700401246547699
1774472949761834500,11.59083447265625,1.1667671203613281,0.9034917950630188,0.5790966749191284
1774472949771852500,11.6008525390625,1.2999693155288696,1.4673106670379639,0.5609826445579529
1774472949781870600,11.61087060546875,1.3944427967071533,1.6268390417099,0.5228704214096069
1774472949791889700,11.6208896484375,1.3616172075271606,1.5490127801895142,0.43245768547058105
1774472949801907500,11.630907470703125,1.3752195835113525,1.280499815940857,0.38653573393821716
1774472949811926500,11.640926513671875,1.4232566356658936,0.8613097071647644,0.3714403808116913
1774472949821944600,11.650944580078125,1.4897406101226807,0.476021409034729,0.4055158197879791
1774472949831963600,11.660963623046875,1.601203441619873,0.3540869653224945,0.4330054819583893
1774472949841981700,11.670981689453125,1.691367745399475,0.3377910852432251,0.4587302803993225
1774472949851999500,11.68099951171875,1.718574047088623,0.2228969931602478,0.526086151599884
1774472949862018600,11.6910185546875,1.6676198244094849,-0.32630887627601624,0.6579816341400146
1774472949872036400,11.701036376953125,1.600677490234375,0.03190600126981735,0.6366960406303406
1774472949882055400,11.711055419921875,1.4247297048568726,0.20195229351520538,0.4817858040332794
1774472949892073700,11.72107373046875,1.2717121839523315,0.13899117708206177,0.3553796708583832
1774472949902092500,11.731092529296875,1.0932435989379883,0.0650988444685936,0.2315719723701477
1774472949912110600,11.741110595703125,0.9820182919502258,0.3457411527633667,0.07770012319087982
1774472949922129700,11.751129638671875,0.900046706199646,0.6098697185516357,-0.028115523979067802
1774472949932147500,11.7611474609375,0.9254745841026306,0.5747447609901428,-0.2732778787612915
1774472949942165500,11.77116552734375,1.099537968635559,0.570391833782196,-0.6143353581428528
1774472949952184300,11.781184326171875,1.2557952404022217,0.6618255972862244,-0.9100476503372192
1774472949962202600,11.79120263671875,1.4020158052444458,0.7019906044006348,-1.2209587097167969
1774472949972221700,11.8012216796875,1.5337421894073486,0.6267448663711548,-1.5528985261917114
1774472949982239500,11.811239501953125,1.6340264081954956,0.4625106453895569,-1.8507752418518066
1774472949992258600,11.821258544921875,1.700264573097229,0.3896968960762024,-2.1119184494018555
1774472950002276600,11.831276611328125,1.7053773403167725,0.5679236054420471,-2.302961826324463
1774472950012294700,11.841294677734375,1.5963597297668457,0.843180239200592,-2.4645330905914307
1774472950022313500,11.8513134765625,1.446833848953247,0.9658899307250977,-2.5312705039978027
1774472950032331500,11.86133154296875,1.2579704523086548,0.7716855406761169,-2.521282911300659
1774472950042350600,11.8713505859375,1.0682567358016968,0.29080042243003845,-2.4509880542755127
1774472950052368600,11.88136865234375,0.920373260974884,-0.2602717876434326,-2.3633666038513184
1774472950062387500,11.891387451171875,0.8313102722167969,-0.6632365584373474,-2.2198474407196045
1774472950072405500,11.901405517578125,0.7660359144210815,-0.9026076197624207,-2.116898536682129
1774472950082424600,11.911424560546875,0.6718918085098267,-1.055525541305542,-2.088189125061035
1774472950092442600,11.921442626953125,0.5863193869590759,-1.084814429283142,-2.101283311843872
1774472950102460700,11.931460693359375,0.5551721453666687,-1.1257892847061157,-2.2035763263702393
1774472950112479500,11.9414794921875,0.5553172826766968,-1.1261917352676392,-2.3356950283050537
1774472950122497500,11.95149755859375,0.5426265001296997,-1.018337368965149,-2.448603868484497
1774472950132516600,11.9615166015625,0.5408172011375427,-0.7983773350715637,-2.523869037628174
1774472950142534400,11.971534423828125,0.5347012281417847,-0.6612365245819092,-2.5484588146209717
1774472950152553500,11.981553466796875,0.5169504284858704,-0.6870529651641846,-2.479437828063965
1774472950162571800,11.99157177734375,0.5174737572669983,-0.8452415466308594,-2.3822953701019287
1774472950172589600,12.001589599609375,0.5320854783058167,-0.9878026843070984,-2.282841205596924
1774472950182608600,12.011608642578125,0.5630007982254028,-0.9953279495239258,-2.1832470893859863
1774472950192626400,12.02162646484375,0.5852312445640564,-0.8698206543922424,-2.084369421005249
1774472950202645500,12.0316455078125,0.5895008444786072,-0.7136118412017822,-1.9724478721618652
1774472950212663600,12.04166357421875,0.5742204189300537,-0.5924100875854492,-1.8536205291748047
1774472950222683100,12.05168310546875,0.5684517025947571,-0.4501416087150574,-1.7066659927368164
1774472950232701200,12.061701171875,0.5708107352256775,-0.3187790513038635,-1.5785444974899292
1774472950242719500,12.071719482421875,0.5684447884559631,-0.20040419697761536,-1.486939549446106
1774472950252738300,12.08173828125,0.5715433955192566,-0.060086239129304886,-1.4304953813552856
1774472950262756400,12.09175634765625,0.5707982182502747,0.12485644966363907,-1.4091472625732422
1774472950272775400,12.101775390625,0.5624489784240723,0.35753896832466125,-1.4021713733673096
1774472950282793200,12.111793212890625,0.5339179635047913,0.5841822028160095,-1.4150950908660889
1774472950292812300,12.121812255859375,0.47663605213165283,0.7666082382202148,-1.4488579034805298
1774472950302830300,12.131830322265625,0.4078271687030792,0.9611944556236267,-1.454613208770752
1774472950312848400,12.141848388671875,0.34177303314208984,1.1224931478500366,-1.4630472660064697
1774472950322867500,12.151867431640625,0.2794042229652405,1.2431542873382568,-1.4711687564849854
1774472950332885200,12.16188525390625,0.2828282415866852,1.307016372680664,-1.5159562826156616
1774472950342904300,12.171904296875,0.21763591468334198,1.3479387760162354,-1.5601420402526855
1774472950352922000,12.181922119140625,0.18611954152584076,1.3328391313552856,-1.5955618619918823
1774472950362941200,12.191941162109375,0.20173019170761108,1.303532600402832,-1.6236406564712524
1774472950372959500,12.20195947265625,0.20775799453258514,1.3443865776062012,-1.6362320184707642
1774472950382977300,12.211977294921875,0.1913028508424759,1.504964828491211,-1.6708285808563232
1774472950392996400,12.221996337890625,0.20926187932491302,1.692055106163025,-1.6910226345062256
1774472950403014400,12.232014404296875,0.1952025145292282,1.8632566928863525,-1.6236885786056519
1774472950413033200,12.242033203125,0.19117102026939392,1.9163036346435547,-1.5288584232330322
1774472950423051300,12.25205126953125,0.19678948819637299,1.7950243949890137,-1.3774508237838745
1774472950433070300,12.2620703125,0.23939740657806396,1.643412709236145,-1.176432490348816
1774472950443088400,12.27208837890625,0.2905663251876831,1.4241589307785034,-0.9820789694786072
1774472950453106400,12.2821064453125,0.3269059360027313,1.2837469577789307,-0.7829411029815674
1774472950463125200,12.292125244140625,0.36334463953971863,1.315487265586853,-0.6808701753616333
1774472950473143300,12.302143310546874,0.46182382106781006,1.3314803838729858,-0.7282653450965881
1774472950483162400,12.312162353515625,0.6030347347259521,1.3464018106460571,-0.862531840801239
1774472950493180200,12.32218017578125,0.7364827990531921,1.3628172874450684,-0.9742754101753235
1774472950503199200,12.33219921875,0.8354645371437073,1.3038330078125,-0.9936871528625488
1774472950513217300,12.34221728515625,0.8843345642089844,1.1632131338119507,-0.9430980682373047
1774472950523235300,12.3522353515625,0.8769552111625671,1.0222948789596558,-0.8909818530082703
1774472950533254400,12.36225439453125,0.8222643136978149,0.9198582172393799,-0.8735778331756592
1774472950543272200,12.372272216796874,0.7317772507667542,0.8567380905151367,-0.8829367160797119
1774472950553291300,12.382291259765625,0.6141262650489807,0.8069300651550293,-0.8795355558395386
1774472950563309300,12.392309326171874,0.45987623929977417,0.7828790545463562,-0.8348304033279419
1774472950573328400,12.402328369140625,0.2941027283668518,0.7812630534172058,-0.8384634852409363
1774472950583346400,12.412346435546874,0.1536707878112793,0.7729673385620117,-0.8787398338317871
1774472950593364200,12.4223642578125,0.04880988225340843,0.751215934753418,-0.9354568719863892
1774472950603383300,12.43238330078125,-0.030971497297286987,0.7320374846458435,-0.9289904832839966
1774472950613401300,12.4424013671875,-0.08304854482412338,0.6775462627410889,-0.8735969662666321
1774472950623420200,12.452420166015624,-0.10781674087047577,0.5834202766418457,-0.7834607362747192
1774472950633438500,12.4624384765625,-0.0959523618221283,0.5057801008224487,-0.6605270504951477
1774472950643457500,12.47245751953125,-0.06707677245140076,0.48511236906051636,-0.5267208218574524
1774472950653475300,12.482475341796874,-0.041008953005075455,0.5394424200057983,-0.3998187780380249
