time,seconds_elapsed,z,y,x
1774472694441357000,0.067357177734375,-0.10614391447007655,-0.08563011875152587,0.39396841123588383
1774472694451375400,0.077375244140625,-0.10736498069763183,0.013401333364844321,0.438620038389042
1774472694461393200,0.08739306640625,-0.04077040180563926,0.15128975488096474,0.5879873738400637
1774472694471412200,0.097412109375,-0.029869653084874152,0.26200521505028007,0.774291743478924
1774472694481430000,0.107429931640625,-0.13649521359205244,0.35199031414091586,0.9863077697403728
1774472694491448000,0.117447998046875,-0.2747948462575674,0.2754477572083473,1.0486047975689172
1774472694501466000,0.127466064453125,-0.5354150366902352,0.29021511822938917,0.9495509144250303
1774472694511484200,0.137484130859375,-0.8773299470186233,0.3970107746064663,0.9906683030374348
1774472694521502000,0.147501953125,-1.218626433187723,0.36000177116096016,0.789873270427063
1774472694531520300,0.157520263671875,-1.2631155632555484,0.5298980268344283,0.5494989454917609
1774472694541538300,0.167538330078125,-1.0346855778098105,0.7750751489415765,0.451489968290925
1774472694551556000,0.17755615234375,-0.6541524752736091,0.7643827822744846,0.5689393398251384
1774472694561575200,0.1875751953125,-0.4819371290028095,0.3090153880283236,0.9509018906425684
1774472694571593000,0.197593017578125,-0.2859574607849121,0.08646013983488082,1.1640373493880032
1774472694581611300,0.207611328125,-0.24966625021994113,0.1029421958193183,1.0501159327842295
1774472694591629000,0.217629150390625,-0.4800023615479469,-0.05771598364859819,0.7856208006143569
1774472694601647000,0.227647216796875,-0.6541875465869903,-0.08681611366569995,0.5189782811522483
1774472694611665000,0.237664794921875,-0.5697399156183004,0.05854454342722892,0.2202848190434277
1774472694621683200,0.24768310546875,-0.13425298762321472,0.17832038514763116,0.1324253338046372
1774472694631701200,0.257701171875,0.1747176844805479,0.040024844135344025,0.32985359339565035
1774472694641719000,0.267718994140625,0.1571282517760992,-0.08643091374039649,0.5584449068829417
1774472694651737000,0.277737060546875,0.06963993793725967,0.0448690692961216,0.6609722382910549
1774472694661756200,0.287756103515625,-0.07493336817026137,0.21505320200026035,0.6096250590220094
1774472694671774200,0.297774169921875,0.11667524535655975,0.3744441380113363,0.5603397807188332
1774472694681792000,0.3077919921875,0.349490898540616,0.35817163312435146,0.7517170697078108
1774472694691810000,0.31781005859375,0.9664134210944175,0.5298562335193157,0.3256386060491204
1774472694701828400,0.327828369140625,1.0264520024716854,0.6252890766218304,-0.5316352258905768
1774472694711846100,0.33784619140625,0.7657564087152481,-0.21230682590156794,-0.4018041463628411
1774472694721864200,0.3478642578125,0.563485531398654,0.28514731344580646,-0.16908464702963827
1774472694731882000,0.357882080078125,0.2643827578365803,0.4742079960554838,-0.30832682124227284
1774472694741900300,0.367900390625,-0.1462573136717081,-0.7253533789172768,-0.7775812865436077
1774472694751918000,0.37791796875,0.1822550942480564,-0.23897505259662866,-1.2275380539178848
1774472694761937200,0.387937255859375,0.3816162215977907,0.02859481084346771,-0.9442404599919915
1774472694771955000,0.397954833984375,0.8492138596028089,0.1989627756819129,-0.843351981832087
1774472694781973200,0.40797314453125,1.2352934903502464,0.3096124771386385,-0.9803834942579269
1774472694791991300,0.4179912109375,1.0984376267522573,-0.303000073261559,0.3941539238706231
1774472694802009000,0.428009033203125,1.471950036871433,-0.3909720789641142,0.6529661880984902
1774472694812027100,0.438027099609375,2.1107716720223424,0.17615911546051502,-0.006767594438791275
1774472694822045200,0.448045166015625,2.9192028548598286,1.5856573723331093,-0.8338678219109773
1774472694832063200,0.458063232421875,3.057197367098927,2.1531424947619437,-0.9957346465162932
1774472694842081000,0.4680810546875,2.6988825261116025,1.6704285361677407,-0.49315688054487106
1774472694852100000,0.47810009765625,2.0836656384319068,0.9734832133501767,-0.12264789002537727
1774472694862118100,0.4881181640625,1.725697418925166,0.8013038151755929,0.439825760916993
1774472694872136200,0.49813623046875,0.6529512827903032,0.9660796590954065,1.1009143921293318
1774472694882154200,0.508154296875,-1.2393868971437214,0.6686947953671216,1.4098726431429385
1774472694892172000,0.518172119140625,-2.709595643305778,-0.31152123336941,1.8188889128416776
1774472694902190300,0.5281904296875,-3.1446453489273787,-0.624546587691456,2.1225233384840188
1774472694912208100,0.5382080078125,-3.1848961107730864,-1.3187471418455243,1.845755584718287
1774472694922226200,0.54822607421875,-2.562837394374609,-1.3873399088174103,1.4890160302236675
1774472694932244000,0.558243896484375,-2.339955690705776,-0.7336264094829559,0.9152833917073905
1774472694942263000,0.568262939453125,-2.0117489877343178,-0.003553893089294433,0.11423428194522857
1774472694952281300,0.57828125,-1.6110475419163703,0.9276574278511106,-0.15833002878129482
1774472694962299100,0.588299072265625,0.3539309268146753,0.6931579132333398,2.3229620319373905
1774472694972317200,0.598317138671875,3.3669062903493643,0.4703095273122191,2.2489918097108603
1774472694982334700,0.608334716796875,1.4429209262639284,1.523036373247206,2.5682886455178258
1774472694992352800,0.618352783203125,0.6646960811197757,0.6417080042421818,3.4689790098577737
1774472695002370600,0.62837060546875,-0.004115034103393554,-0.12657470808029175,1.6927620946593582
1774472695012388600,0.638388671875,1.2030524319589138,0.08776566947549581,-0.19472448052503166
1774472695022406700,0.64840673828125,1.4521522804677485,-0.38032238239496946,-0.7443863614935428
1774472695032425700,0.65842578125,1.2576520371526478,-0.4717325458526611,-1.447652923221886
1774472695042443500,0.668443603515625,0.6559925501823425,-1.0714952592909335,-0.10688092350773512
1774472695052461600,0.678461669921875,-0.09491232635974883,-0.8403750118479132,-0.07644348047226666
1774472695062479600,0.688479736328125,-0.3650117082774639,-0.29174130488336086,-0.055913098945096135
1774472695072497700,0.69849755859375,-0.6081658001244068,-0.227838449293375,0.24812457373589275
1774472695082515700,0.708515625,-0.8475736911803483,-0.4170204201951623,0.3453578903891146
1774472695092533500,0.718533447265625,-1.0688847845315932,-0.33708763630241156,-0.010053484241664409
1774472695102551800,0.7285517578125,-1.333428870409727,-0.3102665571331978,-0.07683364883363246
1774472695112569600,0.738569580078125,-1.4676438641101122,-0.21808365573734043,0.16606164594665168
1774472695122587600,0.748587646484375,-1.3087199610888958,0.09644494275450706,0.1513433847643435
1774472695132606700,0.758606689453125,-1.0082435610860585,0.1228270459845662,0.281808962803334
1774472695142624500,0.76862451171875,-0.7281704821646213,0.11071984408348798,0.343327115213871
1774472695152642800,0.778642822265625,-0.3870587049126625,0.009126432524621485,0.14359028641954064
1774472695162660600,0.78866064453125,0.15007599517703055,-0.16365882258862255,-0.058043023645877836
1774472695172678700,0.7986787109375,0.5857996545374393,-0.27336656702011825,-0.07597016387209296
1774472695182696700,0.80869677734375,0.7209159809917212,-0.3882429462611675,-0.10722791031450032
1774472695192714800,0.81871484375,0.7486930457115173,-0.26997750910371543,-0.07424582429751754
1774472695202732500,0.828732666015625,0.6783627874225377,-0.09143822050839662,0.10470233735963702
1774472695212751600,0.838751708984375,0.5961363396346568,-0.004683773902058601,0.24013503628671168
1774472695222769700,0.848769775390625,0.3745072663754225,0.062329322662949556,0.0524685845144093
1774472695232787700,0.85878759765625,-0.03347381505668163,-0.03183481567800045,0.523322447836399
1774472695242805800,0.8688056640625,-0.2946814499884844,0.239269067107141,0.3997890071481466
1774472695252823600,0.878823486328125,-0.29545243436098095,0.25437252821475265,0.5368507685817778
1774472695262841600,0.888841552734375,-0.19390344646573066,0.2098980111941695,0.5972901858448982
1774472695272859600,0.898859619140625,-0.08871464076340198,0.10811638358682393,0.4171269493095576
1774472695282877700,0.908877685546875,0.047072716820240015,-0.15519436110407114,0.11309577943459152
1774472695292895500,0.9188955078125,0.2790595179647207,-0.32253625611960884,-0.04743599717468023
1774472695302913800,0.928913818359375,0.5895505315035581,-0.308126914756,0.11019377438277006
1774472695312932600,0.9389326171875,0.6914946561962366,-0.12803045984655617,0.6383189463257789
1774472695322950700,0.94895068359375,0.3735515730857849,0.17527122671008108,1.1564959940977393
1774472695332968700,0.95896875,0.02229191130697727,0.2582917474851012,1.0361280317030845
1774472695342986500,0.968986572265625,-0.16663842292129993,0.05141162280738353,0.6834225550301373
1774472695353004800,0.9790048828125,-0.05820552073121071,-0.0698299075514078,0.5515386346258223
1774472695363022600,0.989022705078125,0.3146913878381252,-0.08350070550739765,0.5519238345511257
1774472695373040600,0.99904052734375,0.6375538071721791,-0.14559855750203132,0.6891787804692984
1774472695383058400,1.009058349609375,1.1217349157094956,0.4128668076470494,-0.6825400731071829
1774472695393076700,1.01907666015625,0.6255448049485683,0.1986900962203741,0.7387235864914953
1774472695403095800,1.029095703125,1.0206278263628483,-0.30479747807234525,0.7106912318363785
1774472695413113600,1.039113525390625,1.271777593138814,-0.1491866451218724,0.10227700990885495
1774472695423131600,1.049131591796875,0.824105137309432,-0.3338505540773272,0.05853036877140402
1774472695433149700,1.059149658203125,0.20653847163319586,-0.7193181904062629,-0.002683978386968374
1774472695443167700,1.069167724609375,0.5106342311769724,0.5186906963825225,-1.2930046516932547
1774472695453185500,1.079185546875,1.6632020920455455,1.463417332456261,-1.7971153263203798
1774472695463203600,1.08920361328125,1.1867413486272096,-0.23401392305791377,-0.5097634396918118
1774472695473221600,1.0992216796875,0.3807902921676635,-1.174211245138943,-0.488160679692775
1774472695483239700,1.10923974609375,-0.2606342189580202,-1.465638954028487,-0.49244858614504333
1774472695493258800,1.1192587890625,-0.7123305234760046,-0.9729005911566316,-1.0377953803934157
1774472695503276500,1.129276611328125,-1.2270873875409365,0.14313216738849877,-1.5032562986306846
1774472695513294600,1.139294677734375,-1.6611872450917957,0.4940240187682211,-1.5524835631363092
1774472695523312600,1.149312744140625,-1.75702194699347,0.26139585098028184,-0.8406473990485072
1774472695533330700,1.15933056640625,-1.120566456452012,0.7860249975010752,-0.4787772036671638
1774472695543348500,1.169348388671875,-0.7855787150382996,0.5494919312290847,-0.24169556360170244
1774472695553366800,1.17936669921875,-0.45876375868618485,0.6276634045377373,-0.44027226257547736
1774472695563384600,1.189384521484375,-0.5434072044879198,0.4510021847739815,-1.0803409021127968
1774472695573402600,1.199402587890625,-0.8962924216419458,0.022851298755407333,-1.6354818720795212
1774472695583421700,1.209421630859375,-1.183810555872321,-0.19346213243901728,-2.184949545650184
1774472695593439500,1.219439453125,-1.3031161497324704,-0.25755671120882034,-1.9664232607118783
1774472695603457800,1.229457763671875,-1.161568328925967,-0.039161213043332095,-1.598011096341163
1774472695613475600,1.2394755859375,-0.7077817741304635,0.1372226510837674,-1.4289511453613637
1774472695623493600,1.24949365234375,-0.2106587664335966,-0.017610183231532572,-1.0816216626383364
1774472695633511400,1.259511474609375,0.646685208132863,0.4649330949708819,-0.7477051306527107
1774472695643529700,1.26952978515625,1.40257780995965,0.5186065252304077,-0.17099817076707258
1774472695653547500,1.279547607421875,1.6997884861648083,-0.003663198682665825,-0.14240253793969748
1774472695663565600,1.289565673828125,0.9439338782608508,-0.7663426841706037,-0.6881923997804522
1774472695673583900,1.299583984375,0.36994039685130115,-1.000717257234454,-1.1331667025670409
1774472695683602700,1.309602783203125,0.3189659964174032,-0.9314815161839127,-1.2431453728944062
1774472695693620700,1.319620849609375,0.7622095298886299,-0.4529197088330984,-0.8014980225734413
1774472695703638500,1.329638427734375,0.7390653856664896,-0.1854442456781864,-0.35064744816459714
1774472695713656600,1.339656494140625,0.4378612559109926,-0.3946250485137105,0.1441537289885804
1774472695723674600,1.349674560546875,0.6077338384479284,-0.39890024161487814,0.6085099373869598
1774472695733692700,1.359692626953125,0.6014852994471788,-0.32120237716734407,0.6165685945495962
1774472695743710500,1.36971044921875,0.13999825327694415,-0.4154612080544233,0.953680561575666
1774472695753728500,1.379728515625,-0.20521336050927638,-0.13137304827272892,1.3377616389170288
1774472695763746800,1.389746826171875,-0.27357202646434303,0.33052316322028635,1.7203221556276083
1774472695773765600,1.399765625,-0.44662616164684293,0.6592267097979784,1.7295137623429298
1774472695783783700,1.40978369140625,-0.796129919669032,0.7436348855391144,0.9563150017324834
1774472695793801500,1.419801513671875,-1.2124217333287,0.4934279525712132,-0.5785206034451723
1774472695803819800,1.42981982421875,-1.6716624618768692,-0.18335107279121873,-2.191803210937232
1774472695813837600,1.439837646484375,-1.561761240699887,-0.8620236568152904,-2.9381144760787485
1774472695823855600,1.449855712890625,-0.43585809939503667,-0.5818728364825249,-2.383070902071893
1774472695833873400,1.459873291015625,0.7293044546306133,0.18176526490449904,-1.5414938209578395
1774472695843891700,1.4698916015625,1.1160136154532432,0.7711486231476068,-0.40752720018476246
1774472695853909800,1.47990966796875,0.9063093732655048,1.302956867517531,0.9782594878412783
1774472695863927600,1.489927490234375,0.397013112694025,1.810140958240628,1.779204844968021
1774472695873946600,1.499946533203125,-0.4393815973460674,1.9432754632279277,1.773464693880826
1774472695883964400,1.50996435546875,-1.2050140874207018,1.6600301840111613,1.185676495874673
1774472695893982700,1.519982666015625,-1.84469613879323,1.3727400133177636,0.25139745792672036
1774472695904000500,1.53000048828125,-1.8867641791939733,1.0076014637902377,-0.2786754870831966
1774472695914018600,1.5400185546875,-1.1696394071787595,1.0554781904697417,-0.5503432873614132
1774472695924036900,1.550036865234375,-0.4832096331566572,1.3561620957434177,0.29859818504080177
1774472695934054700,1.5600546875,0.8442021689206362,2.2497239233776924,0.6476014461949468
1774472695944072700,1.57007275390625,0.6084130528837443,0.8011731745332479,-0.5172236925698817
1774472695954090500,1.580090576171875,0.12030337272584438,-0.0869034996882081,0.1972454503700137
1774472695964109600,1.590109619140625,-0.1262415306031704,-0.030863632558286187,-0.5374373362980782
1774472695974127600,1.600127685546875,-0.46328737359046934,0.09150602504760026,-0.4523013577390462
1774472695984145700,1.610145751953125,-0.537897501155734,0.4739508064240217,0.4568983301404863
1774472695994163700,1.620163818359375,-0.5192372243493795,1.0767205927237868,1.0955549109227956
1774472696004181800,1.630181640625,-0.4331628689616918,1.7404080813229084,1.620446800033003
1774472696014199800,1.64019970703125,-0.09315116190612316,2.024956844353676,1.9195245852842926
1774472696024217900,1.6502177734375,0.39985739620923993,1.6020806838676334,1.62325922710523
1774472696034235600,1.660235595703125,1.1773872448265552,1.8940940836906432,1.4365104746997355
1774472696044254000,1.67025390625,1.9896084675967691,2.1018889851257203,1.4212253734149038
1774472696054272800,1.680272705078125,2.4981331592738627,2.00887197099328,1.0747804915066808
1774472696064290800,1.690290771484375,2.536671271982789,1.7555384304374455,0.5109738018622622
1774472696074308600,1.70030859375,2.237254025644064,1.4250687509700655,0.16582462232038378
1774472696084326700,1.71032666015625,1.574816537106037,0.7248433835685253,-0.12345842095697297
1774472696094345000,1.720344970703125,0.2662994051128626,0.3420549033209681,-0.3455542897440493
1774472696104362800,1.73036279296875,-2.070403421276808,0.13825637804567814,-0.8065142433002591
1774472696114380800,1.740380859375,-2.873921697631478,0.24880437269359826,-0.760796959676966
1774472696124398600,1.750398681640625,-2.6093665058374405,0.5141340559914708,-0.43044053132571275
1774472696134417000,1.7604169921875,-1.9622265396744012,0.8660282162815331,0.5492786172719673
1774472696144434700,1.7704345703125,-1.4884224482446908,1.5932693086415528,0.18975593486484138
1774472696154453800,1.780453857421875,-1.078915180158615,1.8849498232483863,0.2351930133072659
1774472696164471800,1.790471923828125,-0.514447067463398,1.6708640049755572,0.3922275589179247
1774472696174489900,1.80048974609375,-0.4005898021370172,1.7348115764901042,-0.28434586086980995
1774472696184508000,1.8105078125,0.33962124643325803,1.207231471209228,-0.5854878121092916
1774472696194525700,1.820525634765625,1.0214011488229036,0.3104199941292405,-1.0216618455857038
1774472696204543700,1.830543701171875,1.7881909922391175,-0.7341805362343787,-1.2977452703490853
1774472696214561800,1.840561767578125,2.1316338427871466,-0.8167740637689829,-1.4368290391296148
1774472696224579800,1.850579833984375,1.6526292601048946,-1.2311857627704739,-0.9653281100757419
1774472696234597600,1.86059765625,1.2058137133657931,-2.0085756183952093,-0.278175866997987
1774472696244616700,1.87061669921875,0.3587193301349878,-2.4176965175122023,-0.3197295281358063
1774472696254634800,1.880634765625,0.07620821041166782,-2.1274296690955756,-1.103357109106332
1774472696264652800,1.89065283203125,0.20413433310091494,-2.3245015164643523,-1.1346610327780247
1774472696274670800,1.9006708984375,0.7982540722161531,-2.3592487124577164,-1.4528803024813532
1774472696284688600,1.910688720703125,1.1006991419434546,-2.1623910923615095,-0.9502315171003342
1774472696294707000,1.92070703125,0.5516717594861984,-2.356082941903174,-0.4457129923246801
1774472696304724700,1.930724853515625,0.5068506209850311,-2.3984239540264007,-1.8703662943616508
1774472696314742800,1.94074267578125,0.3400011856615543,-2.0054063407093285,-2.32597495001778
1774472696324760600,1.950760498046875,-0.766028795915842,-2.074665901026875,-1.4460574707239866
1774472696334779600,1.960779541015625,-1.8047896603405476,-2.063439865874499,-1.1992680180493742
1774472696344798000,1.9707978515625,-3.0128987911671397,-1.4730723188996313,-0.400829894503206
1774472696354815700,1.980815673828125,-2.9539018277972935,-0.6210132989987731,0.5531045687682926
1774472696364833800,1.990833740234375,-2.040948194211721,0.6485927953198551,1.0218863750565796
1774472696374851600,2.0008515625,-1.1290957998663187,1.4100157048754394,0.8582450150594114
1774472696384870000,2.010869873046875,-0.028402503141760824,0.5754835738368332,-0.024857341348193583
1774472696394887700,2.0208876953125,1.6115642592668533,-0.7776642886519431,-0.7449043209530413
1774472696404905700,2.03090576171875,-0.11531447839736937,-1.21772290847674,0.1894859222844243
1774472696414923800,2.040923828125,0.992681250295043,-0.4877009532265365,0.48328423276282845
1774472696424942800,2.05094287109375,2.7642700673013922,0.26311156885698433,-1.1760894601009786
1774472696434961000,2.0609609375,3.5740012268215415,-0.16792393268719313,-0.9172242966420948
1774472696444978700,2.070978759765625,0.6419634403079748,-0.36196167305707927,-0.982394687949866
1774472696454996700,2.080996826171875,-3.508533021610975,0.12489742251783609,-1.2073120621647686
1774472696465014800,2.091014892578125,-3.5670617829471825,0.35495135590359567,0.6710775988504291
1774472696475032800,2.10103271484375,-2.315916058948636,1.458296774572134,1.2136442608609794
1774472696485050600,2.111050537109375,-1.66101188852489,2.4780033944368363,1.0270187695089728
1774472696495068700,2.121068603515625,-1.8942986663520336,2.1374242627568543,1.1808595971122384
1774472696505086700,2.131086669921875,-1.9050521155565976,0.8891272792529314,0.48211654069032517
1774472696515105800,2.141105712890625,-1.510516791152954,0.13206168812401592,0.33098288968652484
1774472696525123800,2.151123779296875,-1.749629498654604,-0.0795464149236679,0.42629933986775576
1774472696535141600,2.1611416015625,-1.9233277769595383,-0.39424598606824873,0.7064375199146569
1774472696545160000,2.171159912109375,-1.7908312776148319,-0.41759997364878654,0.6330145563073456
1774472696555177700,2.181177734375,-1.1682488296031952,-0.48212929057404397,0.33350371340103446
1774472696565195800,2.19119580078125,-0.07886486240029335,-0.7655249380469322,0.5319140428319573
1774472696575213600,2.201213623046875,1.1425263593256474,-0.7069919389270246,0.39177886530235406
1774472696585232000,2.21123193359375,1.3552373821139334,-0.5767721523426472,0.3623592940725386
1774472696595249700,2.221249755859375,0.4032733421325683,-0.20080080476403236,-0.05250898959003389
1774472696605268700,2.231268798828125,-0.28242461048364637,0.1668352606676519,0.7778660948343574
1774472696615286800,2.241286865234375,-0.08724339916706085,0.8308668865293264,0.6329539121612906
1774472696625304600,2.2513046875,0.5848796170830727,0.2923274342082441,-0.33321422893516717
1774472696635323000,2.261322998046875,1.787505932584405,-0.3439097374074161,-0.16512239233516154
1774472696645340700,2.271340576171875,1.4372861352473496,-0.23427096655890345,-0.537201554780826
1774472696655358700,2.281358642578125,1.1986918986618518,-0.441024542247504,-0.3899277575429529
1774472696665376800,2.291376708984375,1.0914525901705026,-0.2634846399530768,-0.07621946245804428
1774472696675394800,2.301394775390625,1.1816238594830035,0.2686065130114555,0.26876608748733993
1774472696685412600,2.31141259765625,0.8527005326747894,0.33366350707262754,0.16358758398331702
1774472696695431700,2.321431640625,0.356356108134985,0.25666502306610345,-0.10603015189729631
1774472696705449700,2.33144970703125,-0.2371457913428545,-0.4925063076816499,-0.4340150288116187
1774472696715467800,2.3414677734375,-0.5281897616118192,-1.1594045750208197,-0.6681929833248257
1774472696725485800,2.35148583984375,-1.509489201670885,-2.1815702784754336,-0.9950794705431908
1774472696735503600,2.361503662109375,-1.5068775578677653,-1.888905136745423,-0.8680331994283944
1774472696745521700,2.371521728515625,-1.0624468604385853,-1.90780755174458,-0.934916459068656
1774472696755539700,2.381539794921875,-1.6797241877794264,-1.9759609043858943,-0.9722283909834921
1774472696765557800,2.391557861328125,-2.447199090850353,-1.0895030635379255,0.12024882952701299
1774472696775575600,2.401575439453125,-2.9292250671803948,-1.672693120098859,0.12676802042899651
1774472696785594600,2.4115947265625,-3.1538205890297886,-0.9664375326223671,-0.6858693636603653
1774472696795613000,2.421613037109375,-1.446798644480109,1.3196546120792627,0.9629175418026745
1774472696805630700,2.431630615234375,-0.010498013138771056,3.5329601913809774,2.077356747546047
1774472696815648800,2.441648681640625,-0.25847090344429013,4.3056852700650685,2.2456373847164213
1774472696825666600,2.45166650390625,0.30013971539437767,3.2852743013232946,2.1761500069923696
1774472696835684900,2.461684814453125,1.1500263596922158,2.5005226847589013,1.8721034934177994
1774472696845702700,2.47170263671875,0.6707534814625978,2.4486349688723683,1.5264378522537647
1774472696855720700,2.481720703125,0.3924579336076975,2.0287683654658495,0.8301165065534413
1774472696865739800,2.49173974609375,0.3751274441003799,1.8077420804053543,1.1557192375715821
1774472696875757600,2.501757568359375,0.612221797516942,2.044188491307199,1.2555226239085198
1774472696885776000,2.51177587890625,-1.1631705034255981,1.9554916784614322,1.5034809011667967
1774472696895793700,2.521793701171875,-0.8767658833950758,2.408654694531113,0.5858882826689631
1774472696905811700,2.531811767578125,1.0711749412953853,2.4935943468004464,-0.4575862393394112
1774472696915829800,2.541829833984375,3.059223319968581,2.685835413011908,0.18150960964299737
1774472696925847800,2.551847900390625,6.336681979104876,1.7687806277178226,0.6483063065286725
1774472696935865600,2.561865478515625,12.91110187022686,-1.671855500230938,-2.6943133184999226
1774472696945884700,2.571884765625,9.623172670480608,-3.0770109055936334,-3.72661813865304
1774472696955902700,2.58190283203125,2.4319196886539456,-1.85927089985162,-2.4766508107841014
1774472696965920800,2.591920654296875,-1.3069593811571598,-2.030345697785169,-2.0113095734037456
1774472696975939000,2.60193896484375,-2.7257033130198716,-2.2502333342045544,-1.388466136368364
1774472696985957000,2.61195703125,-1.7133248440861701,-1.1914919041551648,-0.9918370545558631
1774472696995975000,2.621974853515625,-0.5177116222172975,-0.13676175557374953,-1.1174547541722655
1774472697005993200,2.6319931640625,-0.3868038533687591,-0.3723864748291671,-1.4860383295871316
1774472697016011300,2.64201123046875,-0.7077747598677874,-0.9937542863540351,-2.2540412020549176
1774472697026029000,2.652029052734375,0.16647124966084956,-1.618820660135895,-2.5056717380851508
1774472697036048100,2.662048095703125,-0.19967209299504757,-2.1734442551650104,-1.771950782186538
1774472697046066000,2.67206591796875,-2.570131058514118,-2.234788658443838,-1.2067346276029944
1774472697056084200,2.682084228515625,-3.6600714905560015,-1.7786640160895884,-0.641311260009557
1774472697066102000,2.69210205078125,-3.2936253655612466,-1.0521928851887583,0.2765022346973419
1774472697076120000,2.7021201171875,-2.2976883283406493,-0.31957784470543266,0.5590582164756953
1774472697086138000,2.71213818359375,-1.3500006505042315,0.243651812236011,0.5581573221132159
1774472697096156200,2.72215625,-0.9945897142648696,0.5856979477286338,0.49245399297252296
1774472697106174200,2.73217431640625,-1.0703425821244716,0.2055950533032417,0.6962545640744269
1774472697116192000,2.74219189453125,1.1516957542091608,-0.7201466040544211,0.13376724993288516
1774472697126211000,2.752211181640625,-0.3084060239583254,-1.0442264363542197,-0.7405448105692863
1774472697136229000,2.76222900390625,0.44722471206188197,0.17043313902914523,-0.1593155326873064
1774472697146247200,2.7722470703125,1.1372761837124823,0.07533698053508997,-0.38174846967533227
1774472697156265000,2.782264892578125,0.7156067686676979,0.01847878275960684,-1.2466349685758351
1774472697166283000,2.792282958984375,0.3442775478065014,0.5120725934170186,-0.7448040023837238
1774472697176301300,2.80230126953125,0.2118786636173725,0.15011238166466354,-1.2095075994476676
1774472697186319000,2.812319091796875,-0.660672816953063,-0.4969781923986971,-1.6640633850499986
1774472697196337200,2.822337158203125,-0.594073561885953,-0.1948163235269487,-0.1561953548401594
1774472697206355200,2.832355224609375,0.30715631615817546,-0.1177557340696454,1.2388552744850516
1774472697216374300,2.842374267578125,1.1592805102497339,-0.7971485951922833,1.7245653461553154
1774472697226392000,2.85239208984375,1.377853703069687,-1.7980517303876578,2.1761901928722858
1774472697236410000,2.86241015625,1.3940250856697558,-1.4375965163707731,1.7345464958131311
1774472697246428000,2.872427978515625,0.49212943719327445,-0.4886502167753875,1.4625316356629132
1774472697256446200,2.8824462890625,-0.5647212106734514,-0.48077363818138835,1.3772501842185854
1774472697266464300,2.89246435546875,-1.8278209918379782,-0.5695799027509987,0.9894149419754743
1774472697276482000,2.90248193359375,-1.1873077503383158,-0.5754933645784854,0.5854965799376368
1774472697286500000,2.9125,-0.6673211689263582,-0.3829204360641539,1.1976719079643487
1774472697296518100,2.92251806640625,0.2177951941847801,0.10858677757754921,1.788445259261131
1774472697306536200,2.9325361328125,0.8981021014124154,-0.3909285320833325,2.561235512135923
1774472697316555000,2.942554931640625,2.999552402859926,-0.6453718605119735,2.9462372845187783
1774472697326573000,2.952572998046875,4.05396442540288,-0.060811538511142134,3.7428029652565717
1774472697336591400,2.96259130859375,5.315902761572599,-0.17893888237215577,2.577171624675393
1774472697346609200,2.972609130859375,6.819198369300365,0.3198374820223078,2.5172572541996834
1774472697356627200,2.982627197265625,2.599268305671215,1.411407451494783,3.5322564270257946
1774472697366645000,2.99264501953125,-3.0554473085612055,1.7087848625689743,1.3131573590144514
1774472697376663300,3.002663330078125,-4.399916628423333,0.9097472387596964,-0.8570163500472903
1774472697386681000,3.01268115234375,-1.6188421413153409,0.7554357249047606,-0.7922939947679638
1774472697396699100,3.02269921875,-0.9063736706733703,0.9103026806853711,-0.5935068679139017
1774472697406718000,3.032718017578125,-1.1508078654587268,0.9961293449223041,-1.6159700930103658
1774472697416736000,3.042736083984375,-1.6790566637814044,2.1031161888331176,-2.9620062237977978
1774472697426754300,3.05275439453125,-2.1970038483202456,2.8381875364273785,-4.039699168685078
1774472697436772000,3.062772216796875,-1.9534142876654863,3.066681234759092,-4.4392324475064875
1774472697446790100,3.0727900390625,-1.2909995954811573,2.470114687013626,-4.616498062904179
1774472697456808200,3.08280810546875,-0.8116314401835203,1.998268890044838,-4.275514588207006
1774472697466826200,3.092826171875,-0.2100964563757181,1.2727683577418327,-3.1972067262917756
1774472697476844000,3.102843994140625,-0.4441483733564615,0.4067281587615609,-1.5098147803634405
1774472697486862000,3.112862060546875,0.25260581080317496,0.026942367461323738,-0.5736325391426682
1774472697496881200,3.122881103515625,0.9634066404938697,-0.40014483484849334,0.2035480576455593
1774472697506899200,3.132899169921875,0.8481289869755506,-0.31597441338598725,0.36730829478204247
1774472697516917200,3.142917236328125,0.7210533436357974,-0.12258271583467721,0.7446563375413418
1774472697526935000,3.15293505859375,-0.05652969647347927,-0.5217226114243269,0.663121671409905
1774472697536953000,3.162953125,-0.7972147922962903,-0.20932503361180424,0.19271335989832877
1774472697546971100,3.17297119140625,-1.2574071224808692,0.31060178043693304,-0.23326252016872165
1774472697556989200,3.1829892578125,-1.4576894563287495,0.5519482383400202,-0.7956082338824868
1774472697567007000,3.193007080078125,-1.7046692439436912,0.4434764654442668,-0.8249240524768829
1774472697577025300,3.203025390625,-2.0865578527420756,0.6005201076768338,-1.0976245568037033
1774472697587044400,3.21304443359375,-2.1405431254297493,0.6677478699058293,-1.9432164265170693
1774472697597062100,3.223062255859375,-2.003902365887165,1.0157600011307746,-2.565890059943497
1774472697607080200,3.233080078125,-1.290222181367874,1.6826985274150967,-2.7953891359254714
1774472697617098000,3.243097900390625,-0.2611696410089731,0.838353369827196,-1.7651260507330298
1774472697627116300,3.2531162109375,4.36424442653954,0.7688782670628279,0.5712298619151115
1774472697637134000,3.263134033203125,4.969478849387168,-0.5671443461671472,1.6873352473050356
1774472697647152000,3.273152099609375,2.5239544137507677,-0.7222173459138721,1.0341611155442894
1774472697657170200,3.283170166015625,-0.42505438130795953,0.5483361853227019,1.7287275804013014
1774472697667188200,3.293188232421875,-1.5447767881512642,0.5056777047481388,2.1872405791968106
1774472697677207300,3.303207275390625,-1.0432289497494698,0.9112593238230794,1.5345017701134085
1774472697687225000,3.31322509765625,-0.6769272016614675,1.101599670979753,1.2093708213254808
1774472697697243100,3.3232431640625,-0.25005612632036206,-2.332513119614869,5.694021788704395
1774472697707261200,3.33326123046875,0.7182412088245153,-5.352005756089091,7.408328629565238
1774472697717279200,3.343279296875,-1.5059119277060031,-2.2803151687353846,4.335376351712644
1774472697727297000,3.353297119140625,-1.564659884750843,-0.5836289959674701,1.9971742266759276
1774472697737315000,3.363315185546875,0.11518237645030022,-0.39082200296893715,1.1609057733640074
1774472697747333000,3.3733330078125,0.042757776230573655,0.09675757063394412,0.797683578851819
1774472697757351200,3.38335107421875,-0.6792033298999071,0.5700596490919589,0.6735442812249064
1774472697767369000,3.393368896484375,-2.18679458899498,0.6461280126415193,0.5395546207129955
1774472697777388000,3.403387939453125,-2.843177599799633,1.079156733829528,-1.1954694294840096
1774472697787406000,3.413406005859375,-2.232680141857266,2.3916715571567413,-3.417871922954917
1774472697797424000,3.423424072265625,-1.8853373612612485,2.6764620199888944,-4.946161686685681
1774472697807442200,3.433442138671875,0.5402011019229889,0.6655167498528957,-0.9598211832225322
1774472697817460000,3.4434599609375,4.5237236253559585,-2.0460249129541217,2.619137373745441
1774472697827478300,3.453478271484375,3.1819922060251233,-1.2554054272696376,1.8783058551892637
1774472697837496000,3.46349609375,-0.5678109933823347,2.260279365792125,-2.806984588912129
1774472697847514000,3.47351416015625,-0.3301911547869444,4.110236055462062,-6.075600016379356
1774472697857532000,3.483531982421875,2.387000350475311,2.6819910125434396,-4.386597712644934
1774472697867550200,3.49355029296875,3.4086499211013317,1.132495817568153,-3.324126594547927
1774472697877569300,3.5035693359375,3.1868548436254263,0.8352494855277239,-2.4925930608034133
1774472697887587000,3.513587158203125,2.4262387204080818,-0.5486682668212801,0.5068307472407818
1774472697897605000,3.523605224609375,2.3958511809289456,-2.1358689961388704,1.8449711563423274
1774472697907623200,3.533623046875,2.4839298618763683,-3.626229426708817,3.183027978813648
1774472697917641200,3.54364111328125,2.10669229375422,-4.092776678878069,3.8783608979985114
1774472697927659000,3.553658935546875,1.4696528658449648,-3.6721623258441682,5.009865804833174
1774472697937677000,3.563677001953125,0.9352005367070436,-2.3598674288779495,4.514195626293122
1774472697947695000,3.573695068359375,1.5784206990778444,-0.3266938141904771,1.3723368393443525
1774472697957713200,3.583713134765625,0.6387526615679263,0.2362534821456298,0.07617474653348326
1774472697967732200,3.593732177734375,-1.3862427612304686,0.17869173921067266,-0.7662697650648653
1774472697977749500,3.60374951171875,-4.589523254477977,0.517010670873709,-0.28093714840486644
1774472697987767800,3.613767822265625,-10.312062697136401,0.606209149631299,0.8402136838063597
1774472697997785600,3.62378564453125,-8.313457268613577,0.05502590431440621,1.2910117243103683
1774472698007803600,3.6338037109375,-3.2338428047716614,0.23601907060155644,0.7173899988226592
1774472698017821400,3.643821533203125,0.6734586487680673,0.8578207252327352,-0.5630285814113914
1774472698027839700,3.65383984375,1.2904004605442285,1.0721323150854558,-0.7555458342157304
1774472698037857800,3.66385791015625,-0.553919830673933,1.282724080697447,2.004004218826443
1774472698047875600,3.67387548828125,-0.5642769740372896,1.549636064750701,1.8615480510033666
1774472698057893600,3.6838935546875,-0.5952057807862758,1.4533902978301048,1.1925905130468308
1774472698067912700,3.69391259765625,0.27249183001220223,1.1320420824512838,0.5856112923584879
1774472698077930800,3.7039306640625,1.2310410936027765,0.4692911440499127,0.30904359120950103
1774472698087948500,3.713948486328125,1.454708394691348,-0.2356101062081754,0.3330577962644398
1774472698097966600,3.723966552734375,0.9994938529193401,-0.21177578776478767,0.5063786195591092
1774472698107985000,3.73398486328125,1.0122311694175004,0.33482232171893117,0.6457393055848777
1774472698118002700,3.744002685546875,1.4018506647288798,0.3652620297767222,0.5799368999838829
1774472698128020700,3.754020751953125,1.7826415414184331,0.22436726605147123,0.7316095167025923
1774472698138038500,3.76403857421875,1.8797259511202573,0.06506605415046214,1.3926112733490765
1774472698148056800,3.774056884765625,1.7776257590830324,-0.5479236589990556,1.9970818722173571
1774472698158074600,3.78407470703125,1.377644444233179,-0.9004283524028956,1.9230960140302775
1774472698168093700,3.79409375,0.28303485133647915,-0.8169291082002222,1.3639414975732564
1774472698178111500,3.804111572265625,-1.2683259913802145,-0.2590644854232669,0.5225996865198016
1774472698188129500,3.814129638671875,-2.131610461911559,0.2607882404759526,0.821389740870893
1774472698198147800,3.82414794921875,-0.6480553274422883,-0.7923829882256687,0.9742124044075607
1774472698208165600,3.83416552734375,0.7766624181330204,-0.8977870441138743,1.8468530245661734
1774472698218183700,3.84418359375,0.19262158996164797,-0.13202215983122587,2.4041142746224997
1774472698228201700,3.85420166015625,-0.17447393885254858,0.0064491761393845074,1.7464321639180183
1774472698238219800,3.8642197265625,-0.08916121548712252,-0.05369228109046816,0.6355427596107125
1774472698248237600,3.874237548828125,0.6276905848056078,0.04372472156658768,0.13538754461109637
1774472698258256600,3.884256591796875,0.06765490159988403,0.42761758285947143,0.31704028905183074
1774472698268274700,3.894274658203125,-1.5653192254424095,0.41417014533057805,0.34848055245429277
1774472698278292700,3.904292724609375,-1.3496458457171916,-0.00879040550328791,-0.21166414408385753
1774472698288310800,3.914310791015625,-0.31693361380696294,-0.1622677335564047,-0.540044157795608
1774472698298328600,3.92432861328125,-0.11260521943867206,0.06717384008467198,-0.6931488531440496
1774472698308346600,3.9343466796875,0.3721083885401487,0.5143685223344713,-0.6489116520106792
1774472698318364700,3.94436474609375,-1.8669500561773775,0.8046273335751145,-2.373361993484199
1774472698328382700,3.9543828125,-0.2985059767127037,2.6041964097231625,-2.1401529570683837
1774472698338400500,3.964400390625,0.3657476213365793,4.477931595996022,-0.9734475575149059
1774472698348418800,3.974418701171875,3.7024797226965425,1.5096705495871603,-0.4795803367435932
1774472698358438000,3.98443798828125,4.36370432831347,-0.9134520846270024,-0.8758414620265365
1774472698368455700,3.99445556640625,1.7616992911547422,-0.7413917097222059,-1.1740709598854184
1774472698378473700,4.0044736328125,1.1144675550550223,0.7666951508700847,-0.7652494821064174
1774472698388491500,4.014491455078125,0.5413502719581127,1.6478773894026875,-0.5995226210720837
1774472698398509800,4.024509765625,0.6652618983089923,1.6236059947162866,-1.609722138531506
1774472698408527600,4.034527587890625,1.011797454175353,0.8668037306986749,-1.6497759165003896
1774472698418545700,4.044545654296875,0.7583066772311925,0.3167376163108274,-1.1934075285181402
1774472698428563700,4.054563720703125,-0.40224458360671994,0.2331127364344895,-1.4072753201261161
1774472698438581800,4.064581787109375,-0.6578589285761117,0.6902442177437246,-0.7171547287620603
1774472698448599600,4.074599609375,0.9297492855638265,0.9859692585010081,-0.3333298912040889
1774472698458618600,4.08461865234375,1.9054460833102465,1.254647594639659,-0.41257366991937156
1774472698468636700,4.09463671875,2.503138420215249,1.6363438957363365,-0.8331314704604447
1774472698478654700,4.10465478515625,2.685471840396523,1.8811741041019558,-0.8700646321907639
1774472698488672800,4.1146728515625,1.6546575510621069,1.972078509994596,-1.598153281290829
1774472698498690600,4.124690673828125,-0.41624505190849304,1.404096105568111,-2.126919673746824
1774472698508708600,4.13470849609375,-2.8624621459841726,-0.011661065568774939,-1.817233546850085
1774472698518726700,4.1447265625,-4.473204567474126,-0.8010219294942915,-1.3881234604105352
1774472698528744700,4.15474462890625,-3.8359003511488434,-1.2016345279850065,-0.10941007665917277
1774472698538762500,4.164762451171875,-2.8490368472218512,-0.5702781141482294,1.0242010086745024
1774472698548780800,4.17478076171875,-2.7997441162645815,0.18611819941699503,1.7302036443032323
1774472698558799600,4.184799560546875,-3.6149294495373963,0.44848537964746354,1.0351534875825046
1774472698568817700,4.194817626953125,-3.7609909483760595,0.3053656333491206,0.0979128964152187
1774472698578835700,4.204835693359375,-3.2482875097095962,-0.18751579125523565,-0.7851249068561941
1774472698588853500,4.214853515625,-2.910415152770281,-0.2540751527033746,-1.4282146477803588
1774472698598871800,4.224871826171875,-2.942155275902152,-0.07342559395581483,-1.334165660251677
1774472698608889600,4.2348896484375,-3.314639512017369,0.23110497680865227,-0.22643187043108046
1774472698618907600,4.24490771484375,-3.3908570747792717,0.7708052896026522,0.7020047981642186
1774472698628925400,4.254925537109375,-2.6549486918389795,1.2571196838416159,0.6976621658500284
1774472698638943700,4.26494384765625,-1.9144594108492134,0.5070403714034706,-0.41675490112677216
1774472698648962800,4.274962890625,-0.860526696255803,1.2002988224018365,-0.6822199743073433
1774472698658980600,4.284980712890625,-0.2591945415437221,0.8677059402354061,-1.294844726601988
1774472698668998700,4.29499853515625,0.45755672098398203,0.9413562097925692,-1.691481407199055
1774472698679016700,4.3050166015625,1.546457288584113,1.443087222741544,-0.9604905338514595
1774472698689034800,4.31503466796875,0.8793436249285936,0.21806403772141783,-1.1225440401352942
1774472698699052500,4.325052490234375,0.9852385330736636,-0.674513856909424,-0.6789108497593551
1774472698709070600,4.335070556640625,1.5338170027196407,-0.29028825653083623,0.15380478817550464
1774472698719088600,4.345088623046875,1.2040110478579997,-0.1936363199621439,0.5135310485970228
1774472698729106700,4.355106689453125,1.3302572546362876,-0.4162563039548695,0.818600913869962
1774472698739124700,4.365124755859375,1.6673761628597974,-0.3424977517176419,1.1780150213360785
1774472698749143600,4.3751435546875,1.5662217272400856,0.020821546493470667,1.3870513011343777
1774472698759161600,4.38516162109375,0.8861866226911544,-0.10127177838906645,1.5640109193228184
1774472698769179600,4.3951796875,0.18013152622282505,-0.18962576914653181,1.7480843150392174
1774472698779197700,4.40519775390625,0.2235942358523607,0.2475387366719544,2.0686250134274364
1774472698789215500,4.415215576171875,0.2564256613522768,0.7289111444640904,2.3252612487904725
1774472698799233800,4.42523388671875,-0.2006938372582197,0.32934915100485085,1.7552277570530772
1774472698809251800,4.435251953125,-0.16211480801701544,-0.40484899395145474,1.13555564353019
1774472698819269600,4.44526953125,0.7351584413558244,-0.2074568285871297,0.28432547566890715
1774472698829287700,4.45528759765625,1.2731482969701289,-0.3107270873170346,-0.6142367906011641
1774472698839306500,4.465306396484375,1.2473515924125909,-0.7173965746939182,-0.75984528497532
1774472698849324800,4.47532470703125,1.5421832645267248,-0.08338694293461739,-0.2736807475358248
1774472698859342600,4.485342529296875,1.556632645639777,0.3164285868942737,0.14765110611766577
1774472698869360600,4.495360595703125,1.2601029374361037,0.2605762051604688,0.22997853006199
1774472698879378400,4.50537841796875,0.8465905253618955,-0.3326647052936256,-0.267412042529881
1774472698889396700,4.515396728515625,0.7596902405440807,-0.3682150343634188,0.237819014429301
1774472698899414800,4.525414794921875,0.7218646600186824,-0.4233769496150315,0.4644863741166889
1774472698909432600,4.5354326171875,0.91155896435678,-0.5535161452438682,0.2343935700252652
1774472698919451000,4.545450927734375,1.1903858426094054,-0.5410211861342191,-0.0954959714666009
1774472698929468700,4.55546875,1.2751461927890777,-0.6289633081551641,-0.2542277129165828
1774472698939487700,4.56548779296875,0.46586511512398715,-0.07500022286139428,-0.29540406517460943
1774472698949505500,4.575505615234375,-0.045344870114326474,0.9567559504330158,-0.1292773911677301
1774472698959523600,4.585523681640625,0.10464578486680984,1.610781584456563,0.24818536401242017
1774472698969542000,4.5955419921875,0.12748422414064406,1.6341403943426906,0.14004150789678096
1774472698979560200,4.605560302734375,0.12150573425292968,0.9195001326195895,-0.4570506711579859
1774472698989578000,4.615577880859375,-0.10835106912553309,-0.24488822216317055,-0.1092975561954081
1774472698999596000,4.625595947265625,0.41905309506654737,-0.5739028805166483,-0.21262334450483322
1774472699009614000,4.635614013671875,0.01745733075737953,-0.3417820046637207,-0.2770984470248222
1774472699019632000,4.645632080078125,0.21075930419862268,0.1372963739071041,-0.7145474688731134
1774472699029650000,4.65564990234375,0.3354430839657783,0.8489689449310303,-1.2802478998422622
1774472699039669000,4.6656689453125,-0.40095921997129913,1.2331669997155665,-0.868384131757915
1774472699049687000,4.67568701171875,-0.9136158968865871,1.1464372491590678,-0.5976511281117797
1774472699059705000,4.685705078125,-1.3407985223948955,0.6951737100351602,-0.3756692958921194
1774472699069723100,4.69572314453125,-1.3050380577057599,0.21920579163506626,-0.2551902743384242
1774472699079741000,4.705740966796875,-0.7663017676383257,0.07805471506118775,-0.6097168289586902
1774472699089759200,4.71575927734375,-0.3519277702987194,0.173380298396945,-0.9618386605247855
1774472699099777000,4.725777099609375,0.10364449886977672,0.04586582524850964,-1.358073190061748
1774472699109795000,4.735795166015625,0.43967093568146226,-0.23465996587648985,-1.2497227054581046
1774472699119812900,4.745812744140625,0.761000738620758,-0.21859701208695767,-0.8978992723166942
1774472699129832000,4.75583203125,0.5164823726832867,-0.27025939478501676,-0.30855171603932974
1774472699139850200,4.765850341796875,-0.06687690296471119,-0.1691096353404224,0.07887012309730053
1774472699149868000,4.775867919921875,-0.357892816182971,-0.07328647774606943,0.31386516614705323
1774472699159886000,4.785885986328125,-0.5346107345700264,0.4602931602105498,-0.22610957967415451
1774472699169903900,4.79590380859375,0.30058336750864983,1.0555563702724873,-1.402090172573179
1774472699179922200,4.805922119140625,0.9573083236187696,1.2896408743485808,-1.4593788707204163
1774472699189940000,4.81593994140625,0.8758891005605459,1.3884541536696255,-1.0806779520474374
1774472699199958000,4.8259580078125,0.8169242858946323,1.5088659552060066,-1.429985749106109
1774472699209976000,4.83597607421875,1.0555693758845328,1.8095728029638527,-2.142861923766136
1774472699219994000,4.845994140625,0.9467840069949627,2.0752640130504965,-2.9188173626735803
1774472699230013200,4.85601318359375,0.4682511334776878,2.3184750957816838,-3.19496040866971
1774472699240031000,4.866031005859375,-0.10030103366076945,2.5613287433773277,-2.9107743414714933
1774472699250049000,4.876049072265625,-0.6426853248417377,2.4635692108929157,-2.7443027995496987
1774472699260067000,4.886067138671875,-0.9433049327075481,2.3571707371398807,-2.1585212651908394
1774472699270085000,4.896085205078125,-0.812066324469447,2.195078725476563,-1.5742968971461058
1774472699280103000,4.90610302734375,-0.34691724866032597,1.9119161561071871,-1.3101295356258749
1774472699290121000,4.916120849609375,0.07460720495581627,1.6107213787019252,-0.8939875787656754
1774472699300139000,4.926138916015625,0.6295709917247295,1.2149816469445824,-0.3700243488077074
1774472699310157000,4.936156982421875,-0.12230068402290344,1.1358198474243282,-0.5635490250889211
1774472699320176000,4.946176025390625,-0.8260808212965727,1.0883815121620892,-0.3026206454899162
1774472699330194000,4.95619384765625,-1.4305892679572105,1.017558209659159,0.059976256730780005
1774472699340212200,4.966212158203125,0.43718379504084587,0.3434992569103837,0.9151170952297747
1774472699350230000,4.97622998046875,1.1900228545159102,-0.6185802266329526,2.0512521460831166
1774472699360248000,4.986248046875,0.019354688811302184,-0.6916787805914878,2.6409914781570434
1774472699370265900,4.996265869140625,4.434731921216845,-2.012702927458286,4.619335916678607
1774472699380284200,5.0062841796875,2.949374121239781,-2.7183994197472927,4.513001448072493
1774472699390302000,5.016302001953125,2.1769775438576935,-2.311447096841037,4.449979466970265
1774472699400320000,5.026320068359375,-0.5081657952368259,-1.2371356110855936,3.2885902940034866
1774472699410338000,5.036338134765625,-1.7938976794481276,-1.0804638709053396,3.3125410784333944
1774472699420356900,5.04635693359375,3.0322803679853676,-1.0018044679492712,2.174887878102064
1774472699430375200,5.056375244140625,1.4485469494521617,-0.8207359531372785,2.155154419106245
1774472699440393000,5.06639306640625,-0.31760406041443345,-1.0783052315667272,2.491813893124461
1774472699450411000,5.076410888671875,-0.5185059874653816,-1.2729229637816548,2.7510581190288064
1774472699460429000,5.086428955078125,-0.1737456245779991,0.3707219026178121,1.808250029927492
1774472699470447000,5.096447021484375,-0.18514613951444625,0.41072395039945836,1.8214746915511786
1774472699480465000,5.10646484375,-0.46226270671784875,0.33986236171275375,1.9698099805407225
1774472699490483000,5.11648291015625,0.6420248151063919,0.4210658961936831,1.4938039951525628
1774472699500501200,5.126501220703125,1.6305471921563148,-0.4351905753970146,1.8799173820391297
1774472699510519000,5.13651904296875,0.3402718192964792,-0.5841325981080532,0.9742810857295989
1774472699520538000,5.1465380859375,0.9205898275524377,-0.4897331897065043,0.5380823562033474
1774472699530556000,5.156555908203125,0.07516483883857726,-0.5155351549610495,1.049371690288186
1774472699540574000,5.166573974609375,-0.06838964561522007,-0.05061988790780306,-0.4748493626989424
1774472699550592000,5.176592041015625,-0.6094090781837701,0.5776978888854384,-1.0765367605894804
1774472699560610000,5.186610107421875,-3.089324443721771,0.3428399162188172,1.025600354078412
1774472699570627800,5.1966279296875,-0.3884054433465004,0.2532365099221468,-1.2023410688191651
1774472699580646100,5.206646240234375,0.8186556397318839,-0.2091647284835577,-2.575467158845067
1774472699590664200,5.216664306640625,1.1108528716892003,0.7065867191269993,-1.4359255144186318
1774472699600682000,5.226681884765625,0.8504998077601194,0.30214959391206503,-0.4871783175919205
1774472699610701000,5.236701171875,0.5564157391428947,-0.4068167138278484,0.14849427894353864
1774472699620718800,5.24671875,-0.028094460105895995,-0.1270011167988181,-0.17433416505567728
1774472699630737200,5.256737060546875,-0.10959259361922741,0.05281798247396945,-0.9059747344836592
1774472699640755000,5.2667548828125,0.447254522678256,0.2559811324551701,-1.9674876750729977
1774472699650773000,5.27677294921875,0.844167097607255,0.5662266468003392,-2.2640238130174577
1774472699660791000,5.286791015625,0.8865028490334749,0.8423381286144256,-1.7362774112589656
1774472699670809000,5.29680908203125,0.709808311522007,0.42460137684345245,-1.6006876220740376
1774472699680827100,5.3068271484375,0.3802624689012766,0.5967854511931538,-1.1358917436167597
1774472699690845000,5.316844970703125,0.12675240273475646,0.74115329785645,-1.2691896224722266
1774472699700863200,5.32686328125,0.08507248486876487,1.0086766918063164,-1.1926125056829302
1774472699710882000,5.336882080078125,0.3065273706048727,1.3440733062818646,-1.0591961880795657
1774472699720900000,5.346900146484375,0.052901569104194635,1.0585226727321744,-0.6027861529126763
1774472699730918000,5.35691796875,-1.175887946179509,0.49945671134144065,-0.8637408359967171
1774472699740936000,5.36693603515625,-1.1584399677723645,0.2194046752080321,-0.2273415326219052
1774472699750954200,5.376954345703125,-2.392247018957138,0.6873550721734761,-0.13531104530878366
1774472699760972000,5.386971923828125,-3.8277328267842528,0.8645932150423526,0.3979132033389061
1774472699770990000,5.396989990234375,-1.3058522966980934,-0.6998793304428458,-0.4559625836603343
1774472699781008100,5.407008056640625,0.05281213725507259,-0.8460662092268466,-0.5561097784662619
1774472699791026200,5.417026123046875,-0.7133353166043758,0.5853232691973448,0.012584756284952163
1774472699801045000,5.427044921875,-1.207960662266612,0.9809455120548606,-0.7561253876693547
1774472699811063000,5.43706298828125,-0.1371463709771633,0.5448199938952922,-0.75856781238541
1774472699821081000,5.4470810546875,2.87002001401782,-0.912610811497271,-1.2444419885762035
1774472699831099100,5.45709912109375,2.0454121878832576,-0.8009148158580064,0.6627734424941242
1774472699841117200,5.4671171875,1.4661305369377136,-1.0485726488649845,2.9085993355199693
1774472699851135000,5.477135009765625,1.2488310173153876,-2.0056036168470976,4.2543744772836565
1774472699861153000,5.487153076171875,-0.46933483706116674,-1.2854264715239405,4.350094905155897
1774472699871171000,5.497171142578125,-0.8050625831872225,-1.3632014928609133,2.6076900970578194
1774472699881189000,5.507189208984375,0.033409517648816105,-0.7006430082917213,0.9246953631751239
1774472699891208000,5.5172080078125,1.2392296607553959,-0.13611147497147322,-0.2681863879032433
1774472699901226000,5.52722607421875,1.976494134479761,-0.20419015494138001,-0.947988122087717
1774472699911244000,5.537244140625,1.5881091493993997,-0.33107553640604015,-0.7769389700520783
1774472699921262000,5.547261962890625,0.7712006455957889,-1.7227797779127954,0.5793354269593953
1774472699931280100,5.557280029296875,0.22732816168367861,-0.8215560373485088,0.5284023449165747
1774472699941298000,5.5672978515625,0.33032267221212386,-1.2626421005249022,2.3352175562679767
1774472699951316200,5.577316162109375,0.04787175824344158,-2.5773268152371047,3.557401681937277
1774472699961334000,5.587333984375,0.6213561210870743,-1.343770231682062,1.8620668141804635
1774472699971352000,5.59735205078125,0.41301498394608493,-0.10241378803104162,0.6023245632829144
1774472699981370600,5.60737060546875,0.9131190532803535,-0.4960350663296878,0.5520635718153789
1774472699991388700,5.617388671875,-0.03930675899386406,-0.43609629206508393,0.1430048146817833
1774472700001407000,5.627406982421875,-0.5174754753738642,-0.22466522608473896,-1.0878217593874782
1774472700011424800,5.6374248046875,-1.0337474201768637,0.3018146628692746,-1.744992048112303
1774472700021442800,5.64744287109375,-2.0578928992718457,0.5748848772913218,-1.5277559491150081
1774472700031460900,5.6574609375,-3.250554285597801,0.968602893962711,-1.5888982539504766
1774472700041479000,5.66747900390625,-3.238884890592098,1.5769911046661436,-1.8275784152537584
1774472700051496700,5.67749658203125,-1.776147503224015,1.2039325757943093,-1.9420785085283219
1774472700061515800,5.687515869140625,-0.9154694157987833,1.245923459305614,-1.3540034564048051
1774472700071533600,5.697533447265625,-0.3919523221731186,1.2218540169321,-0.5348322683662176
1774472700081552000,5.7075517578125,-0.15476678334176538,1.039275682079047,0.03649199383407831
1774472700091570000,5.71756982421875,-0.3159323278099298,0.007302578098326921,1.1041713480986655
1774472700101587700,5.727587646484375,0.11306640720963478,-1.309650227676332,1.9623451976180075
1774472700111605800,5.737605712890625,0.9224825094312429,-0.31027386365681886,1.2639200115062295
1774472700121623800,5.747623779296875,1.9412702608853578,1.5078404115505515,-1.0374154411651193
1774472700131641900,5.757641845703125,1.0536609119147062,1.6485322000496088,-1.5418303594358265
1774472700141660700,5.76766064453125,1.325519704720378,1.5229133313894272,-1.6960352711111306
1774472700151678700,5.7776787109375,1.4346943651884794,1.3395492529861628,-1.3005303710229694
1774472700161697000,5.787697021484375,0.6143880356401205,0.9822320447340607,-0.6748537563882768
1774472700171714800,5.79771484375,-0.5275386042267084,0.6849617472961544,-0.6904615137562156
1774472700181732900,5.80773291015625,-1.8832202229768036,0.606117635422945,-1.1602216635573654
1774472700191750700,5.817750732421875,-2.1644126613169905,0.21991335538253187,-0.8008918003086
1774472700201769000,5.82776904296875,-0.9896072496771812,-0.47319633479490875,-0.381854414267838
1774472700211787800,5.837787841796875,-0.835474088063836,-0.4249050359651446,-0.7501468977816402
1774472700221805800,5.847805908203125,-2.2911720783144234,0.10483809256851673,0.5677292333830147
1774472700231823600,5.85782373046875,-2.869774514824152,-0.10570990696698426,0.5932803656816482
1774472700241842000,5.867842041015625,-3.333013957619667,-0.05967296293526887,0.5331424155831337
1774472700251860000,5.87785986328125,-3.4300112735599275,-0.01788403173685074,-0.21275895358324048
1774472700261877800,5.887877685546875,-2.5221657767683268,1.7152074429623783,-1.8829772080011664
1774472700271895800,5.897895751953125,0.5403308657824993,2.7417443472385403,-0.781310828460753
1774472700281913900,5.907913818359375,2.440205286440253,1.9645988217636943,-0.03465827560089528
1774472700291933000,5.917932861328125,3.1317472889095543,1.2797948953777551,0.026999577541276812
1774472700301950700,5.92795068359375,4.684860528251528,0.5448433747708797,0.3180063576050102
1774472700311968800,5.93796875,4.507078780025243,0.328821035477519,0.7616369906976819
1774472700321986600,5.947986572265625,1.7655682415425777,0.518985441545397,1.2703152655012906
1774472700332004900,5.9580048828125,0.5961147123247384,0.046185704852640626,1.5121385471358895
1774472700342023000,5.96802294921875,-0.343172216913104,0.17055194310322402,1.4716438935317098
1774472700352040700,5.978040771484375,-0.2615793908536434,0.43659445084556936,1.4234487485527991
1774472700362059800,5.988059814453125,-0.09622048634886742,0.4459565918222069,1.0737190728202461
1774472700372077800,5.998077880859375,-0.16929390586614607,0.22628537463247775,0.3052262248784304
1774472700382096000,6.008095947265625,-0.1794230856925249,-0.27934330334216356,-0.6858347307384014
1774472700392113700,6.01811376953125,-0.5278998387545347,-0.6151601890563965,-1.1976691314853727
1774472700402131700,6.028131591796875,-0.6275625745117664,-0.5144833078205585,-1.3282817167796195
1774472700412150000,6.03814990234375,-0.7109300090283155,-0.054462680941075085,-1.2167772981896996
1774472700422167800,6.048167724609375,-0.48105800808072086,0.1403083421394229,-1.0808401568718253
1774472700432185900,6.058185791015625,0.12840016994178294,0.06539601675719023,-0.7460866626054048
1774472700442204700,6.06820458984375,0.7937263656586409,-0.043674891075491905,-0.1795613251194358
1774472700452222700,6.07822265625,1.211063888978958,0.26608283975273367,0.7181658055007457
1774472700462240800,6.08824072265625,1.3460264861762523,0.023665537747740745,-0.13089125610515476
1774472700472258800,6.0982587890625,0.1902420013487339,-0.9868658420145511,-1.1915769520901143
1774472700482276600,6.108276611328125,-0.3085562460839748,-0.8305882157184183,-0.18883491102978586
1774472700492295000,6.118294921875,2.103704802376032,-0.41064927772805093,1.0179035159654914
1774472700502313000,6.12831298828125,3.1618349686592815,-0.7804607875026762,0.956437532133609
1774472700512331800,6.138331787109375,0.6740548610955477,-0.6855819980863481,0.7956386290207504
1774472700522349800,6.148349853515625,-1.142377890765667,-0.4329731185432523,1.2344890420995651
1774472700532367600,6.15836767578125,-1.5832003345698118,-0.7970227768555284,0.74424468800053
1774472700542386000,6.168385986328125,-1.6125176144689322,-0.6243010154325515,0.7745856118589639
1774472700552403700,6.17840380859375,-1.8074270231068132,-0.23351569121219215,0.6756069128431379
1774472700562421800,6.188421875,-0.8314601762473582,-0.08256985439807175,0.26447028998956085
1774472700572439800,6.198439697265625,0.3224117529571056,0.23007431858666239,0.38607612361609933
1774472700582458600,6.208458740234375,0.9907108270049094,0.5858393289607018,1.6511898749515412
1774472700592477000,6.218476806640625,1.3242647362232207,-0.28465887234173715,2.0961855127871036
1774472700602494700,6.22849462890625,0.7137427283614873,-1.6205907385483382,1.0409255681779235
1774472700612512800,6.2385126953125,0.20903321105837822,-2.1646305418513716,0.5794086383260786
1774472700622530800,6.24853076171875,0.28289105895161626,-2.0209227665320038,0.3783966384967789
1774472700632548900,6.258548828125,0.3537847963422537,-0.9415092083971947,0.5871250579223036
1774472700642568000,6.26856787109375,-0.0853635767698288,-0.5894998972948641,0.5802064741728827
1774472700652585700,6.278585693359375,-0.06289630889594555,-0.8169904829986393,0.29061131447274235
1774472700662603800,6.288603759765625,-0.6182184075832367,-0.8164911551743745,0.502071716145426
1774472700672621800,6.298621826171875,-1.1163175668358802,-0.6661374390345066,0.7582138843812049
1774472700682640000,6.308639892578125,-0.8488508715093135,-0.5582617323357612,0.8437857701394706
1774472700692657700,6.31865771484375,-0.3372831588745117,-0.06589921703897417,0.8663852130256593
1774472700702675700,6.32867578125,0.48140229147374625,0.5904291409689932,0.8024585381686687
1774472700712694800,6.33869482421875,0.6468816074877977,0.9103517805241048,0.6572695843808353
1774472700722712800,6.348712890625,0.40509938851594923,1.1134157079145313,0.5786408688239753
1774472700732731000,6.35873095703125,0.31951369342803954,0.8058056566394866,0.7820064825747162
1774472700742748700,6.368748779296875,0.13307576053738593,0.8592506849706173,0.8299922225866466
1774472700752766700,6.3787666015625,-0.5772726492106914,0.9825026783689856,0.7070089631270616
1774472700762784800,6.38878466796875,-0.7692500960499048,0.6964558588001877,0.7206929128255695
1774472700772803800,6.398803955078125,-0.8323650161325931,0.21281864788122473,0.92514318000786
1774472700782822000,6.40882177734375,-0.44052550668418405,-0.24491858076881615,-0.22894100370779633
1774472700792839700,6.418839599609375,0.09404138874411583,-0.7233953767172991,-0.696820235133171
1774472700802858000,6.42885791015625,-0.14557985280156135,-0.5634359566358849,-0.4639560666322708
1774472700812875800,6.438875732421875,-0.04490764774084091,-0.7467471723407506,-0.4124663005547598
1774472700822893800,6.448893798828125,-0.020011106893420217,-0.8008017108723521,-0.25332016961760817
1774472700832912600,6.45891259765625,0.27199732449352737,-0.5439728024814278,0.16101108455881474
1774472700842930700,6.4689306640625,0.798916335517168,-0.38533842045869676,0.36554559595845637
1774472700852949000,6.478948974609375,1.2409405563265083,-0.22119221621192992,0.41764191309437154
1774472700862966800,6.488966796875,1.354770349124074,-0.36560039488561447,0.5082761237435043
1774472700872984800,6.49898486328125,1.244210956299305,-0.5051723125092685,0.15950005894135683
1774472700883003000,6.5090029296875,0.850616127616167,-0.6093411275140941,0.025704642359912395
1774472700893021700,6.519021728515625,0.8570230720490216,-0.5429692514620721,-0.11664839388225227
1774472700903039700,6.529039794921875,0.6504337470114231,-0.3916876433549449,-0.24272494318205862
1774472700913057800,6.539057861328125,0.6900532252162694,-0.08290599101725965,-0.5888078599100932
1774472700923075600,6.54907568359375,1.9353274268329141,0.8769489848770201,-0.18050291681848465
1774472700933094000,6.559093994140625,-2.0436825876116753,1.7004763222984969,-1.4829523462705314
1774472700943113000,6.569113037109375,-9.05219941367507,1.6020469277285039,-1.9107767768137156
1774472700953130800,6.579130859375,-4.4404263334661715,0.43505182451345026,-0.7954284934014082
1774472700963148800,6.589148681640625,-1.3602595941901205,0.22189546911045907,-1.7444971042022108
1774472700973166600,6.59916650390625,-1.2065589787751436,0.21732914757560937,-0.8000365717187523
1774472700983185200,6.60918505859375,-1.3539222078621387,-0.04893434597365558,-0.5070789498481899
1774472700993203000,6.619202880859375,-0.8977519728004932,-0.33089243492409587,-0.38992622317299247
1774472701003222000,6.629221923828125,0.1404752231389284,-0.6574678834319114,-0.2781393343798816
1774472701013240000,6.639239990234375,0.8784808706194162,-0.6772565797463059,-0.2858124262910336
1774472701023257900,6.6492578125,0.8642378257334232,-0.4842237786352634,-0.26267471180967983
1774472701033276200,6.659276123046875,0.5316752656400203,-0.4307223074091598,-0.48271015920192
1774472701043294000,6.6692939453125,0.3838280524283647,-0.5133341012528165,-0.8071298179153352
1774472701053312000,6.67931201171875,1.650669942730665,-0.5761472984425723,0.27760829624310135
1774472701063330800,6.689330810546875,2.6759517323791977,-0.3042949353776872,0.717872375512123
1774472701073349000,6.69934912109375,3.2041222047686575,-0.8607111129119992,0.279894507484138
1774472701083367200,6.7093671875,3.550421029269695,-1.9010988478861748,-0.3343452787917107
1774472701093385000,6.719385009765625,2.744434901496768,-2.086063347223401,-0.6804043762527405
1774472701103403000,6.729403076171875,1.0394184515506029,-2.005134391900152,0.052489261976256966
1774472701113421800,6.739421875,-0.290629544249177,-1.7833629875607788,0.05937631807625293
1774472701123440000,6.749440185546875,-1.9433108268022536,-0.9989348307970911,-1.14896939798519
1774472701133458000,6.7594580078125,-2.121228184106946,1.3074458494998513,-0.5554920484267175
1774472701143476000,6.76947607421875,1.2751742498397827,2.6969334378704426,0.7478120250932871
1774472701153494000,6.779493896484375,4.435294815796613,2.467411857795715,-0.2657096225261688
1774472701163512000,6.789511962890625,-7.83364136954844,0.19304452808145434,-5.4195361545264715
1774472701173531100,6.79953125,-9.19419731633663,-0.008895802106522023,-2.0864977931179105
1774472701183549000,6.809548828125,-7.581005163607001,1.361226685656607,-0.8800129755575209
1774472701193567000,6.81956689453125,-4.842767363184691,1.9007529570579527,-2.5479350087970496
1774472701203585000,6.8295849609375,-0.3669640113890171,0.26716077118255194,-1.2521300588607787
1774472701213603000,6.83960302734375,-1.5266022490352391,-0.3343481283359229,0.2630813929144293
1774472701223622100,6.8496220703125,1.4186369643568992,0.37259821788370606,0.04144055615216494
1774472701233640000,6.859639892578125,4.37213313396275,0.934727950759232,0.8975963438473641
1774472701243658000,6.869657958984375,4.5015100399821995,0.9326774479702115,1.1838504494912923
1774472701253676000,6.879676025390625,2.6874089459389445,0.43161768534630535,1.873631725898385
1774472701263694000,6.889694091796875,1.2415630721390247,-0.14157134781256317,0.9886864815704524
1774472701273711900,6.8997119140625,1.08694417283535,-0.4733972641944885,0.728509650991112
1774472701283731000,6.90973095703125,0.4889648356825113,-0.14475333884954453,0.838188753850013
1774472701293749000,6.9197490234375,0.1356611008554697,-0.003663198682665825,0.34600627129524947
1774472701303767000,6.92976708984375,0.15421850180923938,-0.07456351194456219,0.16407017986848949
1774472701313785000,6.93978515625,0.22014263409376142,0.1987169842272997,0.7421290110208094
1774472701323803000,6.949802978515625,-0.07102467029392719,0.2889589806884527,0.10559899393841624
1774472701333821200,6.9598212890625,-0.21162907277047632,0.3153844846688211,0.25311902102231976
1774472701343840000,6.969840087890625,0.1358569156885147,0.6217011351324617,0.15476999821215867
1774472701353858000,6.979858154296875,1.028770800808072,0.8061046395860612,-0.2715354060702026
1774472701363876000,6.9898759765625,0.9661918872982262,0.8950397912323474,-0.26529534263685345
1774472701373894000,6.999893798828125,1.1169798301368952,0.5931241522066295,-0.13913491444587706
1774472701383912200,7.009912109375,1.5429215156733989,0.39039953977316616,0.11309271069467067
1774472701393930000,7.019929931640625,0.7838859396457671,0.6523010021880269,0.14165610348656774
1774472701403949000,7.029948974609375,0.5778051486521959,1.2148299635142088,0.9057340575955808
1774472701413966800,7.039966796875,0.8171832290917634,0.005122749841213226,0.30384236930459735
1774472701423985000,7.04998486328125,0.49518356406688685,-0.9227418910197913,0.3218883136048913
1774472701434003200,7.060003173828125,0.6358417425572872,-0.698936058243364,1.2093429104052484
1774472701444021000,7.07002099609375,1.063653898140788,-0.396606577719748,1.3032080657996237
1774472701454039000,7.0800390625,1.1041279473483563,0.16692016247212885,0.5039145675331353
1774472701464057900,7.090057861328125,0.7348486447542906,0.5130129430070519,0.7066610995374619
1774472701474076200,7.100076171875,0.619674451610446,0.0528540767006576,0.3026606121741235
1774472701484094000,7.110093994140625,0.43247313313186164,0.08241860935911535,-0.16406696499809623
1774472701494112000,7.120112060546875,-0.36776363733410833,0.42839463164657354,-0.34595848663076756
1774472701504129800,7.1301298828125,-0.26712825715243815,-0.2682433787874877,-0.48611236886084075
1774472701514148000,7.140148193359375,0.0959469301044941,-0.4223322628676891,-0.8836186718992889
1774472701524166100,7.150166259765625,-0.4919967507243156,-0.3248217367082834,-1.205612345574796
1774472701534185000,7.16018505859375,-0.49936172653436656,-0.4311135352164507,-0.763292941211164
1774472701544203000,7.170203125,-0.5998316870212554,-0.14439736501872538,-0.6125840549580752
1774472701554220800,7.180220703125,-0.33101006995439525,-0.33593970837630327,-0.4068699783850461
1774472701564239000,7.190239013671875,-0.34579029045701026,-0.5216982807006687,-0.20828684967048464
1774472701574257000,7.2002568359375,-0.34297990921139715,-1.127135386513546,-0.1333556003920734
1774472701584275000,7.21027490234375,-0.6466980676144362,-1.619767877858132,0.2951969252299517
1774472701594293000,7.22029296875,-1.49899878731668,-0.1430615133050829,-0.7403301449052989
1774472701604312000,7.23031201171875,-1.7719126421332358,0.02482727500349283,-0.6588906097114086
1774472701614330000,7.240330078125,-1.075060258296132,-0.6171254977799951,-0.8334443358018994
1774472701624348000,7.250347900390625,-0.8935644579827785,-0.1300889998115599,-0.4921875971212983
1774472701634366000,7.260365966796875,-0.6641390317589044,0.3026844314411282,-1.1573201699621976
1774472701644384000,7.270384033203125,-0.40788697340786456,0.21133440067283807,-1.2567848989292978
1774472701654402000,7.280402099609375,0.7142068387418985,-0.3153708214696497,-0.5267576829820871
1774472701664419800,7.290419921875,0.9896464126437902,-0.27099771899692715,-0.5753205652948469
1774472701674439000,7.30043896484375,0.642722149720788,0.08780994700863957,-0.36002047586143016
1774472701684457000,7.31045703125,0.18958909039795396,0.9092813017483801,0.807530726866424
1774472701694475000,7.32047509765625,-0.876183699592948,1.7978186522841453,2.1140034935504195
1774472701704493000,7.3304931640625,-0.5643062001317739,0.5993372545678168,1.8244573606237768
1774472701714510800,7.3405107421875,-0.2948503768146038,0.1801503039885312,0.23121143285781143
1774472701724529200,7.350529052734375,0.03332359293103218,0.3839492676552385,0.597362228167802
1774472701734547000,7.360546875,0.20345570318698883,0.5352338349044322,1.0143937542788684
1774472701744565000,7.37056494140625,0.6743915457040071,0.34816038058921694,0.8653495133023709
1774472701754584000,7.380583984375,1.6111229452401399,0.13107633034847677,-0.34093174450993535
1774472701764601900,7.390601806640625,1.2559499094098805,0.14481807464882732,0.6015712241649628
1774472701774620200,7.4006201171875,-0.504793688455224,-0.07180829495228827,1.2009854894917458
1774472701784638000,7.410637939453125,-1.4583604874581098,0.15412775478586555,-0.5470117317859083
1774472701794656000,7.420656005859375,-1.407103762951493,0.19051161207035183,1.0977484023790807
1774472701804673800,7.430673828125,-1.0289473264187574,0.04757745147198438,2.152713894086331
1774472701814692000,7.440692138671875,-1.9250363344430923,0.6824713917851448,0.02235387062728405
1774472701824710000,7.4507099609375,0.31578269020617006,0.34832371792476624,0.7861686437554657
1774472701834729000,7.46072900390625,1.5693506729155777,-0.7886310883462428,0.4704425060421228
1774472701844747000,7.4707470703125,-0.12834230227470397,-1.11001196388565,0.8997361323550342
1774472701854765000,7.48076513671875,-0.19511399129927157,-1.024561658680439,2.3165923507750033
1774472701864783000,7.490783203125,0.1424573368668556,-0.5340863088371232,1.8794597013995051
1774472701874801000,7.50080078125,2.9055115986377,-0.33296588019728657,0.207388658721745
1774472701884819000,7.51081884765625,3.4858582484662533,-0.6637199295639992,-1.2826064456671475
1774472701894837000,7.5208369140625,-0.46414077554941174,-1.5752238027326761,-1.788882189373672
1774472701904855000,7.53085498046875,-0.6381541111528873,-0.9688945703856646,-2.732054435612261
1774472701914874000,7.5408740234375,0.3554261338084936,0.5139294733300804,-2.5084376956671477
1774472701924892000,7.550891845703125,-0.31052959198355673,0.8081511237870901,-1.0574331239297985
1774472701934910000,7.560909912109375,-0.966584101486206,0.2824037868913263,-0.7656226993329822
1774472701944928000,7.570927978515625,-0.266106512889266,0.007019313310692087,-0.3125350865870714
1774472701954946000,7.580946044921875,-1.6653601468622683,-0.2800938659811392,-0.5942746374160051
1774472701964963800,7.5909638671875,-1.5706991649150848,-0.3998145069155842,-0.08494958914145827
1774472701974982100,7.600982177734375,-0.5674561885952949,0.08495300494125112,0.5202316422142088
1774472701984999700,7.610999755859375,0.5307002831280231,-0.17809264080636203,0.46801630180850623
1774472701995018800,7.621018798828125,1.0438386060804128,0.25608243740517644,0.9151131497070193
1774472702005036500,7.63103662109375,1.2852531607836484,0.10442289936374873,0.8208831065230071
1774472702015054600,7.6410546875,1.7263994297146796,-0.4301071711855009,0.9963833196833729
1774472702025072600,7.65107275390625,1.843734015762806,-0.49922582519501446,0.9404530504077673
1774472702035090700,7.661090576171875,1.7964403496682644,-0.4523251404734328,0.7642392821505666
1774472702045108500,7.6711083984375,1.7514654819101094,-0.35353016399405895,0.8914468813069164
1774472702055126800,7.681126708984375,0.7051642851084471,-0.28577432277034964,0.4602227253228426
1774472702065144600,7.69114453125,-0.3774602709621191,0.10977167651318014,0.5505073918819428
1774472702075162600,7.70116259765625,-1.0224930357128381,0.5613757727030665,-0.08078501680791378
1774472702085180400,7.711180419921875,-2.318040211495757,1.3574158951967954,-0.9211101981647312
1774472702095199500,7.721199462890625,-2.146549087846279,1.7853508003771303,-1.0750601121656596
1774472702105217800,7.7312177734375,-1.346399995663762,1.6599050963267683,-1.0109180409923195
1774472702115235600,7.741235595703125,-1.4545727856129407,1.0158534515678883,-1.1415304801560937
1774472702125253600,7.751253662109375,-1.456879308989644,0.6392893257278949,-1.055904160796851
1774472702135271400,7.761271484375,-1.0720119766414165,0.9544953850898891,-0.9879099442400038
1774472702145289700,7.771289794921875,-1.3529419646531342,0.7853815850310027,-1.447792916214466
1774472702155307500,7.7813076171875,-0.8052800253301858,0.3357013695757836,-1.288754446902871
1774472702165325600,7.79132568359375,-0.06558861671984195,0.031647111086174844,-0.6723718764446676
1774472702175343600,7.801343505859375,-0.20372107612490653,0.07523344709537923,-0.6417706942148507
1774472702185362700,7.81136279296875,-0.2734305721670389,-0.5002284994315356,-0.9060656276375055
1774472702195380700,7.821380615234375,-0.32119244029521943,-0.24216281578727064,-0.6217744926296174
1774472702205398500,7.8313984375,0.027736732709407803,-0.6587366612587123,-0.8728943026587367
1774472702215416600,7.84141650390625,0.2514028647542,-1.065758250008896,-1.5976644748605786
1774472702225434600,7.8514345703125,0.7451525966256857,-1.3955129861399531,-1.1670337547250091
1774472702235452700,7.86145263671875,0.38757074608802794,-0.9670978962272405,-0.10181509148553013
1774472702245470500,7.871470458984375,0.0759475136488676,-0.6730993139363824,0.2418241584174335
1774472702255488500,7.881488525390625,-0.24858313115835187,-0.12186280406229197,0.5497112730681896
1774472702265506800,7.8915068359375,-0.4591816918373108,0.09710735218599438,0.20388108899220822
1774472702275525600,7.901525634765625,0.13448621185719967,-0.4675076946992427,0.4065190460555255
1774472702285543700,7.911543701171875,0.5650900439858436,0.19914331988058984,0.3263914702430367
1774472702295561500,7.9215615234375,0.354194546186924,-0.291072831037268,-0.8128773485913873
1774472702305579800,7.931579833984375,0.492389549434185,-0.3985697675514966,-0.36019071786180135
1774472702315597600,7.94159765625,0.7139233456254005,-0.2406847060587257,-0.31185251115038987
1774472702325615600,7.95161572265625,0.9902888022005557,-0.226844835146144,-0.629566315549612
1774472702335633400,7.96163330078125,2.3086054436743257,-0.4558855729013681,-0.3634333530448377
1774472702345651700,7.971651611328125,1.573358154991269,-0.844571221428737,-0.14222645072042941
1774472702355669800,7.981669677734375,0.3689537239015102,-0.4846875236894935,0.4672426140222698
1774472702365687600,7.9916875,1.788079933080077,-0.512994238306582,1.3023052717410026
1774472702375705600,8.00170556640625,1.9679425792336462,-1.3246587039768696,1.1528970928229392
1774472702385724700,8.011724609375,-0.18281155908703803,-1.1145458809882403,2.670856162805855
1774472702395742700,8.02174267578125,-1.3289777362197637,-0.5973560906879604,3.217890617880225
1774472702405760500,8.031760498046875,0.12000702012777328,-0.32006606661379333,1.8247968217112123
1774472702415778600,8.041778564453125,1.045479359024763,-0.4398715728200972,0.8249231756940484
1774472702425796600,8.051796630859375,1.108714690616727,0.1828526217497885,1.080080059219524
1774472702435814700,8.061814697265625,0.8355027296364307,0.4401566733717918,0.3727134417612105
1774472702445832700,8.071832763671875,0.5648702637553215,0.7852750559166073,-0.12754523361288012
1774472702455850500,8.0818505859375,0.6119663614511489,0.9758886670567095,-0.3257302298553288
1774472702465868800,8.091868896484375,0.44066462289392944,0.7011563646413386,-0.6922076267711817
1774472702475886600,8.101886474609374,0.1170955165952444,0.9003142245039343,-1.023942723064497
1774472702485905700,8.11190576171875,-0.6671317838340998,0.6822628636009991,1.2248894391052425
1774472702495923500,8.12192333984375,0.8918862956374883,-1.2999668919213117,1.0063269138097763
1774472702505941500,8.13194140625,1.543961964637041,-0.8923454375818372,0.7225838411387056
1774472702515959800,8.141959716796874,0.2172942589253187,-0.40829526194781063,1.2899316739887
1774472702525977600,8.1519775390625,0.9937643693566321,-0.6897291078284382,1.543816126425564
1774472702535995600,8.16199560546875,1.3390566471636294,-1.0403607008367777,2.042157570001483
1774472702546013700,8.172013671875,1.2514327242463827,-0.8644853707537055,1.5079752899765968
1774472702556031700,8.18203173828125,0.8840273988306522,-0.8769751422315836,2.016542067229748
1774472702566049500,8.192049560546875,1.1660919438302517,-1.229613106626272,1.7815211590863764
1774472702576067600,8.202067626953125,1.6236252839386462,-1.7116496043503284,1.5841861307367682
1774472702586086400,8.21208642578125,2.0309879412114618,-2.1173010737910865,1.4262816338911652
1774472702596104700,8.222104736328125,0.3709370066732168,-0.36058366270214315,1.3506906785950064
1774472702606122800,8.232122802734375,-0.271026433634758,0.14146803356856108,1.3989680950298904
1774472702616140500,8.242140625,-0.1667354535549879,-0.045916532522439955,0.6879824102915824
1774472702626158600,8.25215869140625,-1.249856268709898,0.24334230789542197,-0.3539396215777844
1774472702636176600,8.2621767578125,-0.3951800520479679,0.14761603480428456,-0.5816229533746838
1774472702646194700,8.272194580078125,0.32443302965164184,-0.11010463479459286,-1.4388488545194267
1774472702656212500,8.28221240234375,-0.7589139954745769,0.19422025732994078,-3.0265348100706935
1774472702666230800,8.292230712890625,-0.10413783534467219,0.7018778107836842,-4.331565268991887
1774472702676248600,8.30224853515625,-0.5096551570117474,1.8324419296368955,-4.118040007211268
1774472702686266600,8.3122666015625,-3.0514602847516534,2.9978678107738492,-2.7141215962976215
1774472702696285700,8.32228564453125,-2.422961890694499,3.7313925134479997,-1.3661331623986364
1774472702706303500,8.332303466796875,-0.6545622251182794,3.9475285422489046,-0.14421536864847875
1774472702716321800,8.34232177734375,-0.41916766135692596,4.372472448919713,0.05412373131029308
1774472702726339600,8.352339599609374,-2.4903303765684366,4.083384581154585,-0.6354360843658446
1774472702736357600,8.362357666015624,-0.962162193390727,2.9000445654034612,0.36689233439229424
1774472702746375700,8.372375732421874,-2.281202472963929,1.2131371881216764,0.1489408901998773
1774472702756393700,8.382393798828126,-1.678852081120014,-1.1956164367392659,0.19362053787112235
1774472702766411500,8.39241162109375,-1.4626841958761214,-0.4261301938459277,0.6089484749346972
1774472702776429600,8.4024296875,-1.2926204746812582,1.0116945783227682,0.26977343789897856
1774472702786447600,8.412447509765625,-1.0022364296257495,0.4060974596425891,-0.7008822238750755
1774472702796465700,8.422465576171875,-1.4831617512375115,0.5998375322401523,-1.505474559202045
1774472702806484700,8.432484619140626,-1.0673948382347822,0.8358411678105592,-2.0293214693039654
1774472702816502500,8.44250244140625,-0.9089543348163366,0.9296621918022632,-2.29293148920238
1774472702826520600,8.4525205078125,-1.2060182960271835,0.27864859907627104,-2.517612935769558
1774472702836538600,8.46253857421875,-1.4249170675396918,0.2623053670406341,-1.6249948187261818
1774472702846556700,8.472556640625,-1.0811813715249299,0.0970318027317524,-0.8594177121005951
1774472702856574500,8.482574462890625,-0.9060153587549924,-0.5240621602877974,-0.12295352190844713
1774472702866592800,8.4925927734375,-0.3848474586039781,-0.48751522139608855,0.6721182670097797
1774472702876610600,8.502610595703125,-0.28769582888484,-0.5602233147323131,0.7807600627101957
1774472702886628600,8.512628662109375,-0.34916298176050187,-0.8503414023280144,0.5335222086809576
1774472702896646700,8.522646728515625,0.16578151383101938,-0.7541817062556743,0.5420912995837629
1774472702906664700,8.532664794921875,0.23874212062358854,-0.6248322727650404,-0.3143503923807293
1774472702916683800,8.542683837890625,0.24592414108216762,-1.0190849808350204,-1.5641460900098085
1774472702926701600,8.55270166015625,0.8647481133431195,-1.0217635523945092,-1.6477938027724623
1774472702936719600,8.5627197265625,1.5001310062170028,-1.062695574502647,-1.663160006469488
1774472702946737400,8.5727373046875,1.7477450000822543,-1.2509198062881826,-1.9803190995953976
1774472702956755700,8.582755615234374,2.1922890947580336,-1.1596592804342507,-1.5718788762189446
1774472702966773500,8.5927734375,2.578805363357067,-0.9720230776697397,-1.4759510892063379
1774472702976791600,8.60279150390625,2.366726208731532,-0.7362097039744258,-1.9845883013471959
1774472702986809900,8.612809814453126,1.5509440786093474,-0.4857014499723911,-2.4324248616971076
1774472702996828000,8.622827880859376,1.3316934249192476,-0.0377037077113986,-2.599481071639061
1774472703006845700,8.632845703125,1.2941174352407454,-0.05580576611310243,-2.49724351695776
1774472703016863700,8.64286376953125,0.40328678613603114,-0.35541152076125143,-1.9372958042964339
1774472703026882800,8.6528828125,-1.1452671824663876,-0.5798123968213796,-1.1955658025305718
1774472703036900900,8.66290087890625,-1.5726210728883743,-0.8081184636265039,-0.5575106947727501
1774472703046919000,8.6729189453125,-0.2362204931914806,-0.5322197477802634,0.32665421283245083
1774472703056936700,8.682936767578125,0.9574252279967069,-0.5326312511906027,0.6712912416011094
1774472703066954800,8.692954833984375,0.8302461242824792,-0.3708607265666127,0.6270024564109742
1774472703076972800,8.702972900390625,0.47237025923430914,-0.5010869428917766,0.5199778135836124
1774472703086990800,8.712990966796875,-0.027801614639163016,-0.4242737523242831,-0.10620806574746966
1774472703097008600,8.723008544921875,0.10057751251459121,-0.31830928607434034,-0.41123189992159603
1774472703107026700,8.733026611328125,0.3401069841235876,-0.2483212653517723,-0.5649864374808967
1774472703117044700,8.743044677734375,0.8736077116250991,-0.435896677839756,-0.6319657779067754
1774472703127062800,8.753062744140625,1.4844196423441172,-0.5402706600278616,-0.5997679741352796
1774472703137081900,8.763081787109375,1.5358189901918171,-0.2739613180428743,-0.6327062210105359
1774472703147099600,8.773099609375,1.382982298129797,-0.2099579246878624,-1.0248185560509562
1774472703157118000,8.783117919921875,1.1981909634023904,-0.27545944764614105,-1.4818136976294218
1774472703167135700,8.7931357421875,0.7559370254904031,0.04212590806782245,-1.7333518792010842
1774472703177153800,8.80315380859375,0.9023463148534298,0.5669757116019726,-1.6992393278494475
1774472703187171600,8.813171630859374,0.7525047129541635,1.0854314301848411,-0.9660793668344616
1774472703197190000,8.82318994140625,-0.06400339335501194,1.8207552912354468,0.2676931975588202
1774472703207207700,8.833207763671876,-1.408653915002942,2.2254601274758574,2.0042983794674276
1774472703217225700,8.843225830078126,-2.489891400629282,2.4704163003087043,3.495134903116524
1774472703227243800,8.853243896484376,-3.391884079739451,2.5594728863775726,4.561295231120288
1774472703237261800,8.86326171875,-4.0863656427919866,2.1677900287956,4.642814699682593
1774472703247279900,8.87327978515625,-4.286906335315108,0.19262451257109642,2.4065014620199796
1774472703257298700,8.883298583984375,-4.014216352382302,-1.3844313278943299,0.6617356238789857
1774472703267316700,8.893316650390625,-3.5698259869635103,-1.0246686261862517,0.4287888916611671
1774472703277334800,8.903334716796875,-3.677476798865199,-0.198804077988863,0.15070596364364028
1774472703287352800,8.913352783203125,-3.700733171290159,0.06229600491523742,0.059305590927600856
1774472703297371000,8.923370849609375,-3.1950843273103233,0.1958189246982336,-0.11392908845357597
1774472703307388700,8.933388671875,-2.858211502802372,0.495597405564785,-0.5106345234379172
1774472703317407000,8.943406982421875,-2.428518940299749,0.791717363923788,-0.5392489157646894
1774472703327424800,8.9534248046875,-2.0238649574637413,1.0775906535565853,0.0707425654169172
1774472703337442800,8.96344287109375,-2.442723406741023,1.2145961547583342,-0.06061053604632616
1774472703347460900,8.9734609375,-3.0217507906645533,1.452468506810069,-0.4450457605876028
1774472703357479000,8.98347900390625,-2.662559166842699,1.5546797580063343,-0.563198238889873
1774472703367497700,8.993497802734375,-2.095885653057694,1.8487910068914293,-0.47357371673993764
1774472703377515800,9.003515869140625,-1.2857260389924048,1.8160510590672492,-0.40016880024597046
1774472703387533800,9.013533935546874,-0.5967459959656,1.5466031267955898,-0.3469206827264279
1774472703397551900,9.0235517578125,-0.32513328687548637,1.3104969076335429,-0.1927115332674235
1774472703407570000,9.03356982421875,-0.11727379577159881,1.0531459481298924,-0.1416033138534054
1774472703417587700,9.043587646484376,0.09226619576513767,0.7601274629175663,-0.005052351486124098
1774472703427605800,9.053605712890626,0.3948112187355757,0.4908458271235227,0.15627525167595593
1774472703437623800,9.063623779296876,0.7496504925668239,0.32650983592569827,0.2735681174742058
1774472703447641900,9.073641845703126,1.1708932066321371,0.13684417316019534,0.35340887570194895
1774472703457659600,9.08365966796875,1.5812264041483401,0.06386398488432168,0.421314354529418
1774472703467678000,9.093677978515625,1.8174895674377678,0.03804185362458229,0.4777213379386812
1774472703477695700,9.10369580078125,2.0894319468736646,-0.39365678800344467,0.3878573079444468
1774472703487714800,9.11371484375,2.4621049835592506,-0.6242071266040206,0.2646285858238116
1774472703497732900,9.12373291015625,2.6544670458018778,-0.5919989475689829,0.29143746309857815
1774472703507750700,9.133750732421875,2.8442747473865744,-0.6032670682974159,0.36532515814080835
1774472703517769000,9.14376904296875,3.0901907051622866,-0.7138048338122666,0.2655248588101007
1774472703527786800,9.153786865234375,3.1322371182531117,-0.7485795023344457,0.11016316918195225
1774472703537804800,9.1638046875,3.046856590348482,-0.7567126860380172,0.12668749340553767
1774472703547822600,9.173822509765625,2.9027392113149166,-0.7683259669423103,0.16852292149364947
1774472703557841000,9.1838408203125,2.645316940140724,-0.6460397498361766,0.24706277145696803
1774472703567858700,9.193858642578125,2.2808827394902704,-0.5090982537813484,0.3407590913567692
1774472703577876700,9.203876708984374,1.8424492366492746,-0.31371056010723114,0.37886100460551675
1774472703587894800,9.213894775390624,1.4495464818835258,-0.1513967223867774,0.2909844951666891
1774472703597913900,9.223913818359375,1.1919862635433673,0.08013020616099238,0.4259752955451607
1774472703607932000,9.233931884765624,1.013707087188959,0.24743279207944868,0.30922340475581583
1774472703617949700,9.24394970703125,0.9556658171087503,0.3131748457953334,0.01798438227220904
1774472703627967700,9.2539677734375,0.9126005823642015,0.46933564077876505,-0.24708803376238792
1774472703637985800,9.26398583984375,0.7212012276738882,0.4010069315705448,-0.5928230503682047
1774472703648003800,9.27400390625,0.2402648001462221,0.4238524581722915,-0.76395768873021
1774472703658021600,9.284021728515626,-0.28216800537407394,0.4757933655507862,-0.6751267281107605
1774472703668039700,9.294039794921876,-0.5569248577088117,0.6566553980052471,-0.5404520444767549
1774472703678058000,9.30405810546875,-0.6275508840739726,0.8159084599155932,-0.4660177484024316
1774472703688075800,9.31407568359375,-0.6121721131563186,0.859288021306321,-0.3862615997182205
1774472703698093800,9.32409375,-0.6806026753038168,0.6847926012743264,-0.4746921628432348
1774472703708112600,9.334112548828125,-0.6590542758405208,0.37196817635186014,-0.6992809261582792
1774472703718131000,9.344130859375,-0.5915156940966845,0.04996149706430733,-0.8870857634879649
1774472703728148700,9.354148681640625,-0.5499012426823378,-0.038675475353002545,-0.9323935895275324
1774472703738166800,9.364166748046875,-0.4969955819249153,0.00827949683908373,-0.7717127598363905
1774472703748184600,9.3741845703125,-0.370033920353651,0.010723748186044395,-0.579598681005463
1774472703758203000,9.384202880859375,-0.36121816121339795,-0.07437266554757953,-0.379744838235341
1774472703768221000,9.394220947265625,-0.44546530117392535,-0.2439210576314479,-0.20595245190616696
1774472703778238700,9.40423876953125,-0.29100480730235573,-0.45243634576294567,-0.03040905719120055
1774472703788256800,9.4142568359375,-0.032495909935235975,-0.6490769986402243,0.055117893446795636
1774472703798274800,9.42427490234375,0.1283674367159605,-0.8542213125012814,0.10683244472350925
1774472703808292900,9.43429296875,0.26529695007205006,-0.8717047275479882,0.05273925468195229
1774472703818311700,9.444311767578125,0.42803719651103017,-0.9673074473246931,0.003081599402427673
1774472703828329700,9.454329833984374,0.5406710575222968,-1.0936547763898967,-0.018834245133772493
1774472703838348000,9.46434814453125,0.34301030434966084,-1.0900350515227764,-0.015467581712268292
1774472703848365800,9.47436572265625,0.17190379610359668,-1.1268500667661427,0.05494436351079494
1774472703858384000,9.4843837890625,0.1301765319645405,-1.1282976352259515,0.100393753445521
1774472703868401700,9.494401611328126,0.1443535258769989,-1.150140779852122,0.17185959163568912
1774472703878420000,9.504419921875,0.3406915060132742,-1.1517791947089135,0.12051153558380902
1774472703888437800,9.514437744140626,0.6570540419340133,-1.163766569622606,0.06597476649321615
1774472703898455800,9.524455810546876,0.5302729976266622,-1.2068103231877088,0.021668372581154106
1774472703908473900,9.534473876953125,0.21471827095746993,-1.1540870332598685,-0.00021013561934232712
1774472703918492000,9.544491943359375,0.13797756110429762,-1.0640323029991239,0.033883345705643296
1774472703928511000,9.554510986328125,0.20469430507123468,-1.1016593652777373,0.031811361737176774
1774472703938528800,9.56452880859375,0.31703356705009933,-1.2448564145959913,-0.00435439581722021
1774472703948546800,9.574546875,0.3445739004045725,-1.3719140838876365,0.0189814715847373
1774472703958564900,9.58456494140625,0.2536152801066637,-1.4398720600873232,0.14111213280297816
1774472703968583000,9.5945830078125,0.2680406958222389,-1.361324446942657,0.34199024058692157
1774472703978600700,9.6046005859375,0.382359733441472,-1.4073947087220846,0.4004845151316374
1774472703988619500,9.61461962890625,0.4885001407802105,-1.5237772547423838,0.3579905774690211
1774472703998637300,9.62463720703125,0.5170101959496736,-1.5978573670841754,0.2764758581470698
1774472704008655600,9.634655517578125,0.5127057767540216,-1.650198525826633,0.234590700032562
1774472704018673400,9.64467333984375,0.4011573728919029,-1.6599634023852645,0.2661920722808689
1774472704028691500,9.65469140625,0.2715922508239746,-1.588785733486712,0.3571651594955474
1774472704038710500,9.66471044921875,0.25924597947001454,-1.525535496586561,0.3553019229069352
1774472704048728600,9.674728515625,0.31500293800532814,-1.5324265712745486,0.28112353782244026
1774472704058746600,9.68474658203125,0.3590454933494329,-1.5766932907633482,0.1585844419337809
1774472704068764400,9.694764404296874,0.3198053698509931,-1.5755695474304259,0.014568404382839798
1774472704078782500,9.704782470703124,0.1628103890657425,-1.594883027448505,-0.12877009923271834
1774472704088800500,9.714800537109374,-0.08015314864516258,-1.6515788742691278,-0.24650508277527985
1774472704098818600,9.724818603515626,-0.2644330267190933,-1.6399730460189281,-0.34092363426871597
1774472704108836400,9.73483642578125,-0.38042788859605786,-1.5770128781065345,-0.37412235871106386
1774472704118854400,9.7448544921875,-0.40938334944546223,-1.5219199364379048,-0.47324821111261844
1774472704128872400,9.75487255859375,-0.46029520603716373,-1.4529109898805617,-0.5890220506500452
1774472704138890500,9.764890380859375,-0.5181213720619678,-1.4284014025241136,-0.7479531140644102
1774472704148909600,9.77490966796875,-0.5202046080768108,-1.4508062726862727,-0.9279107450250536
1774472704158927400,9.78492724609375,-0.45275136652886866,-1.4153110348045825,-1.03253943262659
1774472704168945700,9.794945556640625,-0.45427287700772284,-1.3741174391508102,-1.06829865520671
1774472704178963500,9.80496337890625,-0.6162099903702736,-1.296434480011463,-1.071746676768735
1774472704188981500,9.8149814453125,-0.7213900282442569,-1.1355222527172415,-1.0783607611462473
1774472704198999300,9.824999267578125,-0.9003846593916416,-1.0319907127026469,-1.0495475583117455
1774472704209017600,9.835017578125,-1.0593541551202534,-0.9070099958155303,-0.9992767030373215
1774472704219035400,9.845035400390625,-1.187516424652934,-0.6635629123713821,-0.8638353093471377
1774472704229053400,9.855053466796875,-1.331245096629858,-0.38189138527736066,-0.6793382083259523
1774472704239071500,9.865071533203125,-1.429748725479841,-0.1185610956357792,-0.5068254865437746
1774472704249089500,9.875089599609375,-1.561213543689251,0.12128679427262395,-0.37618623243831095
1774472704259108600,9.885108642578125,-1.6720055762261152,0.32630788361281154,-0.19789061640575528
1774472704269126400,9.89512646484375,-1.7251000375539063,0.5263645189460366,0.0036832185573875903
1774472704279144400,9.90514453125,-1.7729022376924752,0.7298550742506981,0.11701960181482135
1774472704289162500,9.91516259765625,-1.7690934930592774,0.8615069394648075,0.24018669340871274
1774472704299180500,9.9251806640625,-1.4019307442277669,1.0227267714034765,0.41181605648510156
1774472704309198600,9.935198486328124,-1.3387445124745367,1.0648518757537007,0.40526108188368376
1774472704319216400,9.94521630859375,-1.2924024480164051,1.1036248931970447,0.3258910464402288
1774472704329234700,9.955234619140626,-1.103967788350582,1.2719582104027272,0.36107031370792536
1774472704339252500,9.96525244140625,-0.8251654600173235,1.387739721789956,0.36821331733036783
1774472704349270500,9.9752705078125,-0.5616308434426784,1.4143424820333719,0.2797644148310646
1774472704359288600,9.98528857421875,-0.4173877922028303,1.4024844325877726,0.2198158132921904
1774472704369307400,9.995307373046876,-0.2540367203891277,1.4388462241709232,0.17783475705515592
1774472704379325400,10.005325439453125,-0.1730973898023367,1.4893924623206256,0.15808438345715403
1774472704389343500,10.015343505859375,-0.14598843360245228,1.488394098933041,0.12587722733542323
1774472704399361500,10.025361572265625,-0.048339375755190844,1.479528509301692,0.16055654572434722
1774472704409379600,10.035379638671875,0.029289222848415373,1.4783897145301104,0.18694730718489735
1774472704419397600,10.045397705078125,0.030330840855836868,1.4568834006428717,0.23007936008796095
1774472704429415400,10.05541552734375,0.15384148519039154,1.4484119248956442,0.2729728184621781
1774472704439433500,10.06543359375,0.41136312508583067,1.44048376224488,0.19921634858418255
1774472704449451500,10.075451416015625,0.6227934604138136,1.4005723153561354,0.14385032559521496
1774472704459469600,10.085469482421875,0.6992009927898645,1.3380311035081744,0.09963442297820001
1774472704469487400,10.0954873046875,0.826249748122692,1.2406857047826052,0.03009195406604558
1774472704479506400,10.10550634765625,1.0153010783821343,1.1235651998765765,0.015191614315100013
1774472704489524500,10.1155244140625,1.205610884270072,1.0320425890203564,0.039104916278831656
1774472704499542500,10.12554248046875,1.3599690868109464,0.9324695043079555,0.03217833188604563
1774472704509560600,10.135560546875,1.549301572099328,0.8631820330701768,0.006595379677042365
1774472704519578400,10.145578369140624,1.7558078950285911,0.8562798524662851,-0.003112323334254324
1774472704529596700,10.1555966796875,1.9382453601062297,0.8213582497540861,-0.0897895034532994
1774472704539614500,10.165614501953126,2.017541599661112,0.7494994667235761,-0.2642086068460718
1774472704549632500,10.175632568359376,1.954832337769866,0.677731065390259,-0.5047768103856594
1774472704559650300,10.185650390625,1.83419637208879,0.6493981203533709,-0.6656731094583869
1774472704569668600,10.195668701171876,1.5973118620306253,0.5872148550976067,-0.7852925915732979
1774472704579686400,10.205686279296875,1.3042799328148365,0.5308686254322529,-0.8612626093149185
1774472704589705500,10.21570556640625,0.9744155257642269,0.5319703030638396,-0.8351727670297027
1774472704599723500,10.2257236328125,0.4603536582261324,0.5322592030078173,-0.8104945451080798
1774472704609741600,10.235741455078125,-0.01033317796587944,0.5587327108483762,-0.7038791406687349
1774472704619759600,10.245759521484375,-0.48567631553113455,0.6084232820168137,-0.5938034031750634
1774472704629777400,10.25577734375,-0.9747826055109501,0.6708266928292811,-0.5457233359431848
1774472704639795500,10.26579541015625,-1.3216145139753819,0.7274553196325898,-0.4408918557785451
1774472704649813500,10.2758134765625,-1.832978228470683,0.7718214078426361,-0.39467685176618394
1774472704659831600,10.28583154296875,-2.3030776201635597,0.8236769750252365,-0.40171223029568787
1774472704669849300,10.295849365234375,-2.48103647852242,0.9148977533906698,-0.31291867907717824
1774472704679867400,10.305867431640625,-2.820979796516895,0.9462819026917219,-0.2912503795612603
1774472704689885700,10.3158857421875,-2.7460055118143556,0.908637377821654,-0.24602782065235076
1774472704699904500,10.325904541015625,-2.3712907401680945,0.9230245073534548,-0.22145503186658025
1774472704709922600,10.335922607421875,-1.9801649319469927,0.9140991503588854,-0.36718331669550386
1774472704719940400,10.3459404296875,-1.4986018969535826,0.9055344433702528,-0.5145552040129899
1774472704729958700,10.355958740234374,-0.9873410583108663,0.8816073320768774,-0.7252004533778875
1774472704739976400,10.3659765625,-0.44737376514375204,0.8605525613494217,-0.887502381464839
1774472704749994500,10.375994384765624,0.07644611082077025,0.8372446048676967,-1.0271805359419435
1774472704760012300,10.38601220703125,0.4399351395756006,0.8115170200236141,-1.1111287660211324
1774472704770030600,10.396030517578126,0.7094032378524542,0.775831228005886,-1.1293640223484485
1774472704780048600,10.406048583984376,0.9275649272620677,0.7500995515085757,-1.0844560092814266
1774472704790066400,10.41606640625,1.0697294186621904,0.7175318915113806,-1.0256959234073757
1774472704800084500,10.42608447265625,1.237817455869913,0.674485069206357,-0.9378700481772422
1774472704810103300,10.436103271484376,1.4459107557296753,0.6291340616121888,-0.8701566943883895
1774472704820121600,10.44612158203125,1.4923504353433847,0.5930861582837998,-0.7725541060313582
1774472704830139400,10.456139404296875,1.4169535413146017,0.5181492829822003,-0.6439543218642473
1774472704840157400,10.466157470703125,1.3110346677720546,0.43030265722498295,-0.5173483783954754
1774472704850175700,10.47617578125,1.1500485715240238,0.3512098312877118,-0.3816352916244417
1774472704860193500,10.486193603515625,0.9958107804924249,0.3277333863712847,-0.24609683076795189
1774472704870211600,10.496211669921875,0.7515016733914613,0.3419694169946015,-0.12701017688810826
1774472704880229400,10.5062294921875,0.46932490018904205,0.32358722647726534,0.022332024121657013
1774472704890247700,10.51624755859375,0.33234979412555693,0.26875600448474285,0.15035064739994705
1774472704900265500,10.526265380859375,0.2166010159641504,0.1427723941653967,0.23923231529332695
1774472704910283500,10.536283447265625,0.1924678607046604,-0.003441664886474609,0.29727935752719636
1774472704920302300,10.54630224609375,0.24422902760207651,-0.13809227352514863,0.3005568448279053
1774472704930320400,10.5563203125,0.29190672457814215,-0.2616793440967798,0.33499570552445945
1774472704940338700,10.566338623046875,0.3849485808908939,-0.3962655091971159,0.3495547575570643
1774472704950356500,10.5763564453125,0.4948433723270893,-0.49743485012501476,0.1513170812793076
1774472704960374500,10.58637451171875,0.6978425639182328,-0.6109666828893124,0.13692038020156322
1774472704970392600,10.596392578125,0.6804156282991171,-0.70043111910671,0.2820068965282291
1774472704980410600,10.60641064453125,0.334210911822319,-0.7116757128290832,0.21979360146038232
1774472704990427400,10.616427490234376,0.06402502066493033,-0.6481751544296741,0.23968334699645638
1774472705000445700,10.62644580078125,0.03866203134953976,-0.5799110348902642,0.30595329704396423
1774472705010463500,10.63646337890625,0.2111246303796768,-0.5843040091522038,0.213770760974288
1774472705020481500,10.6464814453125,0.2879664625197649,-0.6692096130214631,0.11856142442934214
1774472705030500400,10.656500244140625,0.19378245043456555,-0.7693686078630387,0.1422939629986882
1774472705040518400,10.666518310546875,0.05081891761124134,-0.6920081586763263,0.26605690159387885
1774472705050536400,10.676536376953125,-0.11619710645079612,-0.5626381207890808,0.43206418700478966
1774472705060554500,10.686554443359375,-0.22409458658993242,-0.47018429349735374,0.5482590284332632
1774472705070572500,10.696572509765625,-0.14151859471201897,-0.334991394675523,0.7508798882313072
1774472705080590600,10.706590576171875,-0.1429816530019045,-0.12084463999569416,0.9335523311085998
1774472705090608600,10.716608642578125,-0.28211189127266406,0.08370134264603257,0.8773071506649255
1774472705100626400,10.72662646484375,-0.40652328383922576,0.4434156751677394,0.6929511386148631
1774472705110644500,10.73664453125,-0.22232523882985114,0.7181497311487793,0.5537248195584863
1774472705120662500,10.74666259765625,-0.105667529129982,1.0625056048884987,0.5186443730227649
1774472705130680600,10.7566806640625,-0.0757253953307867,1.5352470355227588,0.16200893648974596
1774472705140699400,10.766699462890625,0.3010106530100107,0.9526181199759244,-0.48003659261111165
1774472705150717400,10.776717529296874,0.7485615282863378,0.2726971433259547,-0.4887868487671017
1774472705160735500,10.786735595703124,1.1695061361879109,-0.1178685467943549,-0.534400233624503
1774472705170753500,10.79675341796875,1.1719991220474242,-0.10626096497848629,-0.28827244146270675
1774472705180771600,10.806771484375,0.5265642062366008,0.06305383754521608,-0.06536999639994465
1774472705190789400,10.816789306640626,-0.3410568321943283,0.1804492138698697,-0.11061839300300925
1774472705200807700,10.8268076171875,-1.2637538611590862,0.28712650456428523,0.10228389630736782
1774472705210825500,10.836825439453126,-2.3246821337282655,0.239745598577708,0.3219099774474278
1774472705220844500,10.846844482421876,-3.087938542321324,0.22530118590071796,0.3295998012976721
1774472705230862600,10.856862548828126,-3.1748809127151962,0.4470782893285155,0.6501835716426372
1774472705240880400,10.86688037109375,-2.842413045167923,0.9636443947724997,1.212126111382991
1774472705250898700,10.876898681640625,-2.1428572475910186,1.5680353525333106,1.4766133525073528
1774472705260916500,10.88691650390625,-1.2526941224843262,1.5671156073398886,1.114195752376318
1774472705270934500,10.8969345703125,-0.7447738264411687,1.1513241444177924,0.49926907981485125
1774472705280952600,10.90695263671875,-0.33705344177186486,0.5631759539928287,-0.3170527832072228
1774472705290970600,10.916970703125,0.29626784239709375,0.1521778628271073,-0.8678896262392402
1774472705300988400,10.926988525390625,0.7351309688270091,-0.043495588985830544,-1.2425951916657387
1774472705311006500,10.93700634765625,0.8019143482893705,0.06559409661255776,-1.1775205158174038
1774472705321024500,10.9470244140625,0.8758966993451118,0.10208207185864449,-0.7814144349656998
1774472705331043600,10.957043701171875,0.7485223653197288,0.12250555894523858,-0.37008192421384156
1774472705341061600,10.9670615234375,0.776575324371457,0.0011919131983071565,-0.013597659654542803
1774472705351079400,10.977079345703125,0.7365373284935951,-0.4095603134475648,0.029726006830483674
1774472705361097500,10.987097412109375,0.6339876391232013,-0.5191767993990332,0.4937040660988539
1774472705371115500,10.997115478515624,0.6839280203342437,-0.6034167789664119,1.0507026466310023
1774472705381133600,11.007133544921874,0.820367704346776,-0.8041071090932935,1.5873570158578454
1774472705391151400,11.0171513671875,0.8645335938096046,-1.0014607690781354,2.010645994928479
1774472705401169700,11.027169677734374,0.7246171735972166,-1.0724717761728912,2.2744769641011953
1774472705411187500,11.0371875,0.47475452402234075,-1.0458317526590077,2.410709288973361
1774472705421205500,11.04720556640625,0.2340653609842062,-1.0149231119152158,2.4367718048602343
1774472705431224600,11.057224609375,-0.06832593272924423,-1.0221064475480466,2.265697153057158
1774472705441242400,11.067242431640626,-0.17758184174001215,-0.9550088145047426,1.9414025089628992
1774472705451260700,11.0772607421875,-0.2905816134542227,-0.8214079341147095,1.729441427759081
1774472705461278500,11.087278564453126,-0.370492770037055,-0.6687937987621874,1.696270687302202
1774472705471296500,11.097296630859375,-0.6418763465464115,-0.5564673231996595,1.550998731406033
1774472705481314300,11.107314208984375,-0.9712398183375597,-0.4666451595857739,1.409383106060326
1774472705491332600,11.11733251953125,-1.0103700517207383,-0.35070144337415693,1.2394631772503255
1774472705501350400,11.127350341796875,-0.9843249253600835,-0.2153053501304239,1.0805823827184735
1774472705511368400,11.137368408203125,-0.8825438822746277,-0.09265387990847229,0.9725446903910487
1774472705521386500,11.147386474609375,-0.7732002949804068,0.014619696178659795,0.8390024083204567
1774472705531404500,11.157404541015625,-0.7590875984758139,0.07051080248765647,0.6514981613725424
1774472705541423600,11.167423583984375,-0.8026432470858097,0.10253551471456884,0.40831623167060316
1774472705551441400,11.17744140625,-0.7621370491743087,0.11928352815881371,0.21731818779017775
1774472705561459500,11.18745947265625,-0.6771154177099465,0.07247559975460172,0.13070497628543526
1774472705571477500,11.1974775390625,-0.6917120983392,0.0474378238055855,0.022947343008406458
1774472705581495600,11.20749560546875,-0.5686012669771909,-0.01847878275960684,-0.03856207810640335
1774472705591513300,11.217513427734374,-0.3587023790001869,-0.0657272945381701,-0.06196827079821378
1774472705601531400,11.227531494140624,-0.27161913883090016,-0.11168379374481736,-0.14241769897621123
1774472705611549700,11.2375498046875,-0.2733569224089384,-0.20365115269385278,-0.3698151265038177
1774472705621567500,11.2475673828125,-0.29142683210670944,-0.15252192702442408,-0.21295566346542907
1774472705631585500,11.25758544921875,-0.14412439329624174,-0.07644340740703046,0.26033335458161305
1774472705641603600,11.267603515625,0.03320668855309486,-0.14511888422630725,0.37978860431183126
1774472705651622700,11.27762255859375,0.20633914966881273,-0.1973926037557423,0.23714683252247049
1774472705661640400,11.287640380859376,0.6335732131034135,-0.15571685060821472,0.522336067147553
1774472705671658500,11.297658447265626,0.9495669157117604,-0.16077807952053844,0.845214122442156
1774472705681676300,11.30767626953125,1.1738771908789873,0.10645385720208286,1.1655616363458334
1774472705691694600,11.317694580078125,1.2954641736745833,0.058410687914490694,1.2172446965057402
1774472705701712600,11.327712646484375,1.2364461675167082,-0.29151451039016246,0.896271013527736
1774472705711730400,11.33773046875,1.137457970020175,-0.3508579491101205,0.87535682031475
1774472705721748500,11.34774853515625,1.1686924817174673,-0.6073547760024667,1.1490977005399763
1774472705731766500,11.3577666015625,1.163862577342987,-0.7988065915323793,1.527390622933954
1774472705741784600,11.36778466796875,0.9729805245250462,-1.0002136916264892,1.735489768012613
1774472705751802400,11.37780224609375,0.570716067174077,-1.0014081621080637,2.1410320779904723
1774472705761821400,11.387821533203125,-0.06666822865009307,-0.8684012290231883,2.4029091366164383
1774472705771839700,11.39783984375,-0.7681681460320949,-0.4576458605721593,2.477431439767778
1774472705781857500,11.407857421875,-1.012140568524599,-0.10703618713468313,2.3048865692816674
1774472705791875600,11.41787548828125,-0.9952981547951698,0.13609700805470346,2.005467130985856
1774472705801893400,11.427893310546875,-0.9319044177711009,0.283971912990883,1.60594729616791
1774472705811911700,11.43791162109375,-0.456215827769041,0.3097006668787449,1.5020327481850981
1774472705821929500,11.447929443359374,0.21206629514396189,0.3800179926209152,1.789597498036176
1774472705831947500,11.457947509765624,0.7130027236491441,0.079868413419649,1.672951332643628
1774472705841965300,11.46796533203125,0.7936562230318784,-0.4392204154349863,1.3431357331708074
1774472705851983600,11.477983642578126,0.8174538627266883,-0.6712494482859969,0.966745283397287
1774472705862001400,11.48800146484375,1.127895776426792,-0.6474008090563118,0.416883422877267
1774472705872020500,11.4980205078125,1.304248953154683,-0.6396189960736781,0.04171212136885151
1774472705882038500,11.50803857421875,1.1751631390362978,-0.62515931276232,-0.09028415510244667
1774472705892056600,11.518056640625,1.0912164433270692,-0.35557036458477376,0.06431921783853321
1774472705902074600,11.52807470703125,1.6117992370665073,0.6894546748012303,-0.4136595289273187
1774472705912092400,11.538092529296875,1.1466852325707673,0.5181312358688562,-1.3104478077948092
1774472705922110500,11.5481103515625,0.508570284384489,0.28635957531239836,-1.3107993977114558
1774472705932128500,11.55812841796875,-0.028041268613934515,0.3289383782468736,-1.032692577361688
1774472705942146600,11.568146484375,-0.1755494591295719,0.4564091218514368,-1.1586555102191864
1774472705952164400,11.578164306640625,0.030178865164518353,0.6634497343204915,-1.399540780351311
1774472705962182400,11.588182373046875,-0.007142857491970062,0.9605223172292112,-1.5756528417997062
1774472705972200400,11.598200439453125,-0.25950258457958697,1.1495887719925493,-1.7576538151562213
1774472705982219500,11.608219482421875,-0.4314285925149917,1.098568851916492,-1.9082588026434182
1774472705992237600,11.618237548828125,-0.40178222679197784,1.0281409054066986,-1.9095958964660762
1774472706002255400,11.62825537109375,-0.2654185306251049,0.9827494196716695,-1.7805675116233526
1774472706012273700,11.638273681640625,-0.11394319004416466,0.937873774504289,-1.6165144290201365
1774472706022291700,11.648291748046875,-0.17299042229652403,0.7297958914093673,-1.386076172491908
1774472706032309500,11.6583095703125,-0.463276852196455,0.3391342301012948,-1.147410478105396
1774472706042327600,11.66832763671875,-0.47782209489941596,0.059101126997219394,-0.8388749094832688
1774472706052345600,11.678345703125,-0.4157943855315447,-0.048911280191899276,-0.41285836861226705
1774472706062363600,11.68836376953125,-0.46570495612621304,-0.07256840173774398,0.0796705892926082
1774472706072381400,11.69838134765625,-0.6460498328387737,-0.11991988983359188,0.4300038204088807
1774472706082399500,11.7083994140625,-0.9305296222865581,-0.18357257005479186,0.6645520695392042
1774472706092418600,11.71841845703125,-1.0939824009090662,-0.20661436814730985,0.6878601721514016
1774472706102436600,11.7284365234375,-1.1850941659420728,-0.012225257056485861,0.594881809528917
1774472706112454700,11.73845458984375,-1.1073001476436852,0.19146609978359191,0.6062293156364932
1774472706122472400,11.748472412109376,-0.8751870897710323,0.41486806446686386,0.6317747853793203
1774472706132490800,11.75849072265625,-0.693453973570466,0.6653073448859155,0.7133483222164213
1774472706142508500,11.768508544921875,-0.5949322245419025,0.7018550144299864,0.6767001879725605
1774472706152526600,11.778526611328125,-0.5575222390800714,0.6550111379295587,0.647404023926705
1774472706162544400,11.78854443359375,-0.36027006670832634,0.8075862564459443,0.8573143831457942
1774472706172562700,11.798562744140625,-0.16333996589779853,1.0921247903436422,1.0228525897402316
1774472706182580500,11.80858056640625,-0.06600888795852661,1.1029597803518176,0.9058682053692638
1774472706192598500,11.8185986328125,0.16216799950897692,0.9717775784760713,0.5788630967399105
1774472706202617600,11.82861767578125,0.28085926086306573,0.759228395185992,0.5147897434212267
1774472706212635400,11.838635498046875,0.3811141172945499,0.5540288805389777,0.9102646136973053
1774472706222653700,11.84865380859375,0.36614217361211776,0.3631622444858774,1.2085223147373645
1774472706232671500,11.85867138671875,0.3766413557946682,0.15857899857368318,1.2988693059429526
1774472706242689500,11.868689453125,0.49748073509335516,0.04318433107957244,1.346859137608111
1774472706252707600,11.87870751953125,0.7285708796590566,-0.10515490343272685,1.349906250219047
1774472706262725600,11.8887255859375,0.9096656979560852,-0.15015037558749317,1.154505185606703
1774472706272743400,11.898743408203124,0.9246861569553613,0.055517450691014526,0.7569033863045275
1774472706282761500,11.908761474609374,0.6685153471469879,0.4208781916018575,0.10607737030619754
1774472706292779500,11.918779541015626,0.5701514190286397,0.5080551744692027,-0.4987604361729696
1774472706302798600,11.928798583984374,0.5765671312898397,0.49632681581787763,-0.7327022803753614
1774472706312816600,11.938816650390624,0.8019950123101472,0.48365160477049646,-0.8503170716043561
1774472706322834400,11.94883447265625,0.824729991209507,0.4109170618187636,-0.9011979485359042
1774472706332852500,11.9588525390625,0.511541409149766,0.5961039717350155,-0.8599006002467126
1774472706342870500,11.96887060546875,-0.01362228263914585,0.6260903830673545,-0.8812038658425211
1774472706352888600,11.978888671875,-0.3202992908477783,0.5947780568934977,-1.0513885830685497
1774472706362906400,11.98890625,-0.4789122282236814,0.5920725973270833,-1.1502006933458149
1774472706372924700,11.998924560546875,-0.6165437523692846,0.5072520413927734,-1.1389654519736767
1774472706382942500,12.0089423828125,-0.7737117516338825,0.48168848800398406,-1.1532252287987619
1774472706392960500,12.01896044921875,-0.6240840847462416,0.5058764421906322,-1.106413208741322
1774472706402978600,12.028978515625,-0.4562789561331272,0.4483126534290611,-0.85075509769544
1774472706412997400,12.038997314453125,-0.27081892836391924,0.24607122140266,-0.6910566301051527
1774472706423015700,12.049015625,0.11134265215694904,-0.05810469070523977,-0.5228609678044915
1774472706433033500,12.059033447265625,0.39068157158493994,-0.521197929963097,-0.7125364213116466
1774472706443051500,12.069051513671875,0.41614919031858444,-0.6122836107067764,-0.6210932323671877
1774472706453069600,12.079069580078125,0.162874686473608,-0.266652017942816,-0.4347494075007736
1774472706463087600,12.089087646484375,0.2703974880814552,0.13382380242571235,-0.4562994143992662
1774472706473105400,12.09910546875,0.6530868918687105,0.39482217852100726,-0.2981980798073113
1774472706483123500,12.10912353515625,0.8361328442335129,0.4753717060726136,-0.06873539031296969
1774472706493141800,12.119141845703124,0.6465823322802782,0.45613823248818514,0.03813201612606645
1774472706503159600,12.12915966796875,0.3292874839454889,0.40405587081238625,-0.05435352147817611
1774472706513177600,12.139177490234376,0.0992968250542879,0.4023408835880458,-0.29825200195163487
1774472706523196400,12.149196533203124,-0.007696984243392944,0.5883391098871826,-0.4918728320837021
1774472706533214500,12.15921435546875,0.08725099795162677,0.9722497990977018,-0.42656741621941324
1774472706543232500,12.169232421875,0.17851824580729006,1.0620775156695395,-0.4616071654185652
1774472706553250600,12.17925048828125,0.043536943909525866,1.1509466163422912,-0.549952972869575
1774472706563268600,12.1892685546875,-0.201338564902544,1.1807674618493764,-0.5473585724622011
1774472706573286700,12.19928662109375,-0.3276514071762562,1.101657903973013,-0.6313695655792951
1774472706583304700,12.2093046875,-0.30188392871320247,1.0267844492964446,-0.8470107966005802
1774472706593322500,12.219322509765625,-0.15413140804767608,1.1896227492824196,-1.020622565665841
1774472706603340500,12.229340576171875,-0.06288169584870339,1.4851520482718943,-1.2805594500094652
1774472706613358600,12.239358642578125,-0.26029168913066386,1.5193015706330537,-1.5231734436303377
1774472706623376600,12.249376708984375,-0.4760609304457903,1.2862374956458806,-1.6735814472407102
1774472706633395500,12.2593955078125,-0.4541039501816034,1.3521101900041101,-1.5702160575732589
1774472706643413500,12.26941357421875,-0.5104010069429874,1.4472949035644531,-1.5885707755617797
1774472706653431600,12.279431640625,-0.6198088916450738,1.5043258275583387,-1.791850245399028
1774472706663449600,12.28944970703125,-0.5754202993422747,1.5969325073242187,-1.8118920396916567
1774472706673467600,12.299467529296875,-0.536127568873763,1.6427102158978582,-1.810673603812605
1774472706683485400,12.3094853515625,-0.6085094989955425,1.6038229974903164,-1.992306766770035
1774472706693503700,12.319503662109375,-0.5100625687688589,1.6647366081364452,-2.1184350462570785
1774472706703521500,12.329521484375,-0.33287235669493676,1.8762239343486726,-2.206401499001682
1774472706713539600,12.33953955078125,-0.29333529607653613,1.9011663601644335,-2.0863044625028966
1774472706723557400,12.349557373046874,-0.5126905791848898,1.837595951399207,-1.8903138344995676
1774472706733575700,12.35957568359375,-0.7382680978089571,1.6500781143173575,-1.4903303276926279
1774472706743594800,12.3695947265625,-0.8484580727994442,1.6095590569242835,-1.1627229057885706
1774472706753612500,12.379612548828124,-0.7597562915176153,1.7280584489680826,-1.1755047920808195
1774472706763630600,12.389630615234376,-0.6342839917212725,1.5326166870191693,-1.061231054908037
1774472706773648400,12.3996484375,-0.3579442541092634,1.5204843506768344,-1.0159715980548412
1774472706783666700,12.409666748046876,0.10538520505726337,1.641739763430506,-1.1845654658928513
1774472706793684500,12.4196845703125,0.559770310267806,1.7774764137402175,-1.4502924779452382
1774472706803702500,12.42970263671875,0.8121002267390489,1.9867399264231322,-1.82803711880669
1774472706813720600,12.439720458984375,1.102063416033983,1.9524008728392421,-2.0563123520821334
1774472706823738600,12.449738525390625,1.2411088986307381,1.4357333528473972,-1.8833758519299326
1774472706833756400,12.45975634765625,1.4051415229678152,0.97079631235376,-1.5313684405237435
1774472706843774500,12.4697744140625,1.4497656775921581,0.5098921806380152,-1.312121293964982
1774472706853793500,12.47979345703125,1.3259826460570097,-0.1403422444090247,-0.9391682712942361
1774472706863811600,12.4898115234375,1.3807020782381296,-1.2493244999207556,-0.04575834628604352
1774472706873829600,12.49982958984375,1.741279603460431,-2.0945250322289763,1.093291934426874
1774472706883847400,12.509847412109375,1.8400906908243893,-2.4449922284558414,1.5887132527723908
1774472706893865500,12.519865478515625,1.7207967874020338,-1.7553904002688825,1.353007431104779
1774472706903883500,12.529883544921875,1.679126221886277,-0.6405275622859596,0.0548570140209049
1774472706913901600,12.539901611328125,2.0187334397941825,-0.22508125953972338,-1.115515895064175
1774472706923919400,12.54991943359375,2.3693360989689825,-0.47863238836899397,-1.2301852074258028
1774472706933937700,12.559937744140624,2.4282196650922296,-0.842773889683187,-0.8725009194269776
1774472706943955700,12.569955810546874,2.164904828748107,-1.0349624950550496,-0.6057387921731918
1774472706953974500,12.579974609375,1.452542741090059,-0.963385597705841,-0.31674064851813016
1774472706963992600,12.58999267578125,0.4109609740257263,-0.8792322735086083,0.10939590200334787
