time,seconds_elapsed,z,y,x
1774472694427583200,0.053583251953125,-0.32242411375045776,-0.14420990645885468,0.16367948055267334
1774472694437601000,0.06360107421875,-0.35779330134391785,-0.10111650079488754,0.1709216833114624
1774472694447619000,0.073619140625,-0.3931843042373657,-0.04724714159965515,0.16867929697036743
1774472694457637000,0.08363720703125,-0.40205344557762146,0.003103115363046527,0.15703462064266205
1774472694467656200,0.09365625,-0.38477402925491333,0.02322276495397091,0.14049293100833893
1774472694477674200,0.10367431640625,-0.34266653656959534,0.022706111893057823,0.13876374065876007
1774472694487692000,0.113692138671875,-0.2914627492427826,0.017739316448569298,0.14222505688667297
1774472694497710300,0.12371044921875,-0.24940823018550873,-0.04319460690021515,0.13750672340393066
1774472694507728100,0.13372802734375,-0.19203229248523712,-0.07819893211126328,0.1392417848110199
1774472694517746200,0.14374609375,-0.15508945286273956,0.1417110562324524,0.17336566746234894
1774472694527764000,0.153763916015625,-0.13182274997234344,0.41600173711776733,0.2142835259437561
1774472694537782300,0.1637822265625,-0.1087067723274231,0.618956983089447,0.2399422973394394
1774472694547800000,0.173800048828125,-0.09903363883495331,0.6921526193618774,0.23708738386631012
1774472694557819100,0.183819091796875,-0.08242962509393692,0.7006387710571289,0.23164068162441254
1774472694567837200,0.193837158203125,-0.0678592100739479,0.6893666982650757,0.2296379804611206
1774472694577855200,0.203855224609375,-0.06556116789579391,0.6105738878250122,0.2387894093990326
1774472694587873300,0.213873291015625,-0.10416129231452942,0.5229247212409973,0.26692038774490356
1774472694597891000,0.22389111328125,-0.200688898563385,0.5551306009292603,0.37061935663223267
1774472694607909000,0.2339091796875,-0.3298173248767853,0.5850075483322144,0.4970420002937317
1774472694617927200,0.24392724609375,-0.4385395348072052,0.4924522936344147,0.5601421594619751
1774472694627945200,0.2539453125,-0.5028380751609802,0.507176399230957,0.6077384352684021
1774472694637963000,0.263962890625,-0.5569034814834595,0.5753634572029114,0.6824390292167664
1774472694647981000,0.27398095703125,-0.5762491822242737,0.6080939769744873,0.7402674555778503
1774472694658000100,0.284000244140625,-0.5870997309684753,0.6670392751693726,0.7704490423202515
1774472694668018200,0.29401806640625,-0.47898921370506287,0.9586876630783081,0.7077715396881104
1774472694678036200,0.3040361328125,-0.3422532081604004,1.4345256090164185,0.5291664004325867
1774472694688054000,0.314053955078125,-0.15880988538265228,1.7328778505325317,0.23337386548519135
1774472694698072300,0.324072265625,-0.23906105756759644,1.9010114669799805,-0.028366394340991974
1774472694708090000,0.334090087890625,-0.3739040791988373,2.1118052005767822,-0.22572606801986694
1774472694718108200,0.344108154296875,-0.41737860441207886,2.226820468902588,-0.39829039573669434
1774472694728126000,0.3541259765625,-0.4344547688961029,2.3614706993103027,-0.5441599488258362
1774472694738144300,0.364144287109375,-0.5719684362411499,2.647117853164673,-0.5638554096221924
1774472694748162000,0.374162109375,-0.8609251379966736,2.7199079990386963,-0.37925225496292114
1774472694758181000,0.38418115234375,-1.1662802696228027,2.2455756664276123,-0.10924579948186874
1774472694768199200,0.39419921875,-1.4544053077697754,1.1521830558776855,0.06658542156219482
1774472694778217000,0.404217041015625,-1.6377357244491577,-0.48657336831092834,0.22552047669887543
1774472694788235300,0.4142353515625,-1.5800201892852783,-1.9865381717681885,0.46493518352508545
1774472694798253000,0.424253173828125,-1.5133633613586426,-3.3623287677764893,0.5671614408493042
1774472694808271000,0.43427099609375,-1.570267677307129,-4.557006359100342,0.4391227662563324
1774472694818289200,0.4442890625,-1.713036298751831,-5.531230926513672,0.08986464142799377
1774472694828307200,0.45430712890625,-1.772068738937378,-6.15856409072876,-0.30678337812423706
1774472694838325000,0.464324951171875,-1.7087265253067017,-6.36575174331665,-0.6633510589599609
1774472694848344000,0.474343994140625,-1.6725386381149292,-5.854767799377441,-1.1343401670455933
1774472694858362000,0.484362060546875,-1.5772409439086914,-4.864718437194824,-1.6051868200302124
1774472694868380200,0.494380126953125,-1.3595149517059326,-3.75486159324646,-1.8833683729171753
1774472694878398200,0.504398193359375,-1.100812315940857,-2.4700891971588135,-1.9950981140136719
1774472694888416000,0.514416015625,-0.8113431930541992,-1.0822521448135376,-1.8368780612945557
1774472694898434000,0.52443408203125,-0.4802539646625519,0.19510024785995483,-1.4038273096084595
1774472694908452000,0.5344521484375,-0.2379574328660965,1.337056279182434,-0.743516206741333
1774472694918470100,0.54447021484375,-0.14785310626029968,2.2875118255615234,-0.050455983728170395
1774472694928488000,0.554488037109375,-0.16741588711738586,3.1399290561676025,0.741859495639801
1774472694938507000,0.564507080078125,-0.2856314778327942,3.9401779174804688,1.4719454050064087
1774472694948525300,0.574525390625,-0.4185059070587158,4.153589725494385,2.0022335052490234
1774472694958543000,0.584543212890625,-0.3997652530670166,-0.5475195646286011,1.7354185581207275
1774472694968561200,0.59456103515625,-0.2108832150697708,-2.1102664470672607,1.4756144285202026
1774472694978578700,0.60457861328125,0.04148299619555473,-2.0233466625213623,1.414932131767273
1774472694988596700,0.6145966796875,0.4200798273086548,-1.2529163360595703,1.2555259466171265
1774472694998614500,0.624614501953125,0.7374338507652283,-0.07145953923463821,0.850501537322998
1774472695008632600,0.634632568359375,0.8973252177238464,0.14292572438716888,0.42118531465530396
1774472695018650600,0.644650634765625,0.8028053641319275,0.46670806407928467,0.03181811794638634
1774472695028669700,0.654669677734375,0.5648548603057861,0.3339947462081909,-0.3484024405479431
1774472695038687700,0.664687744140625,0.460220605134964,0.18614457547664642,-0.5789672136306763
1774472695048705500,0.67470556640625,0.4010922908782959,0.24803563952445984,-0.6788400411605835
1774472695058723600,0.6847236328125,0.41659003496170044,0.3318687379360199,-0.7075233459472656
1774472695068741600,0.69474169921875,0.4788704514503479,0.37064462900161743,-0.6963407397270203
1774472695078759700,0.704759765625,0.5255641937255859,0.34916892647743225,-0.6229405403137207
1774472695088777500,0.714777587890625,0.441649854183197,0.3386811316013336,-0.47513270378112793
1774472695098795800,0.724795654296875,0.31134483218193054,0.3153640627861023,-0.2670593857765198
1774472695108813600,0.7348134765625,0.24580922722816467,0.2589295506477356,-0.01733371615409851
1774472695118831600,0.74483154296875,0.225965216755867,0.1841392070055008,0.21909160912036896
1774472695128850700,0.7548505859375,0.22421711683273315,0.12827648222446442,0.4023919105529785
1774472695138868500,0.764868408203125,0.2591436803340912,0.10330375283956528,0.5320167541503906
1774472695148886800,0.77488671875,0.24690672755241394,0.07525001466274261,0.5875540375709534
1774472695158904600,0.784904541015625,0.17067986726760864,0.04560743272304535,0.5505739450454712
1774472695168922600,0.794922607421875,0.08755221962928772,0.012805543839931488,0.44676443934440613
1774472695178940400,0.8049404296875,0.03362933173775673,0.04579918086528778,0.3029731810092926
1774472695188958700,0.814958740234375,0.00800306536257267,0.12572383880615234,0.14609329402446747
1774472695198976500,0.8249765625,0.017599234357476234,0.19735488295555115,-0.012431635521352291
1774472695208995600,0.83499560546875,0.04780028015375137,0.2599745988845825,-0.15892386436462402
1774472695219013600,0.845013671875,0.05849659815430641,0.3348592221736908,-0.27098730206489563
1774472695229031700,0.85503173828125,0.1226220577955246,0.41316547989845276,-0.3216533958911896
1774472695239049700,0.8650498046875,0.16586540639400482,0.5269924402236938,-0.33026421070098877
1774472695249067500,0.875067626953125,0.21439991891384125,0.6006991267204285,-0.3144277036190033
1774472695259085600,0.88508544921875,0.24757170677185059,0.533331573009491,-0.2830578088760376
1774472695269103600,0.895103515625,0.2380029708147049,0.37007206678390503,-0.236555278301239
1774472695279121700,0.90512158203125,0.16972404718399048,0.19571223855018616,-0.18638505041599274
1774472695289139500,0.915139404296875,0.05904654040932655,0.008469651453197002,-0.17593108117580414
1774472695299157500,0.925157470703125,-0.012894227169454098,-0.08023171871900558,-0.2276344895362854
1774472695309176600,0.935176513671875,-0.022718628868460655,-0.12754251062870026,-0.33238592743873596
1774472695319194600,0.945194580078125,0.058040134608745575,-0.18932785093784332,-0.40495309233665466
1774472695329212700,0.955212646484375,0.13441479206085205,-0.17109984159469604,-0.425811231136322
1774472695339230500,0.96523046875,0.15308675169944763,-0.15781253576278687,-0.40212640166282654
1774472695349248800,0.975248779296875,0.12950046360492706,-0.20979183912277222,-0.34041082859039307
1774472695359266600,0.9852666015625,0.08985824882984161,-0.32450857758522034,-0.279927521944046
1774472695369284600,0.99528466796875,0.1451295018196106,-0.4025493264198303,-0.23632651567459106
1774472695379302700,1.005302734375,0.2830021381378174,-0.3308194577693939,-0.3452945351600647
1774472695389320700,1.01532080078125,0.40667587518692017,0.009855027310550213,-0.5197526216506958
1774472695399339800,1.02533984375,0.3957670331001282,0.1486605852842331,-0.6884737610816956
1774472695409357600,1.035357666015625,0.22293081879615784,-0.02340572327375412,-0.8455736041069031
1774472695419375600,1.045375732421875,0.05823294445872307,-0.10894645750522614,-0.9298527836799622
1774472695429393400,1.055393310546875,-0.016946759074926376,-0.10658875852823257,-0.8641992211341858
1774472695439411700,1.06541162109375,-0.17708024382591248,0.3122716248035431,-0.7494001984596252
1774472695449429500,1.075429443359375,-0.27793973684310913,0.6195873618125916,-0.8012178540229797
1774472695459447600,1.085447509765625,-0.24370107054710388,-0.2969629764556885,-0.9575443267822266
1774472695469465900,1.0954658203125,-0.23987065255641937,-0.2885931730270386,-0.9221490621566772
1774472695479483600,1.105483642578125,-0.2968260645866394,0.08912587910890579,-0.7780805826187134
1774472695489502700,1.115502685546875,-0.38748034834861755,0.06202022731304169,-0.6143901944160461
1774472695499520500,1.1255205078125,-0.5110848546028137,-0.04950523376464844,-0.3943510353565216
1774472695509538600,1.13553857421875,-0.572493314743042,-0.003746002446860075,-0.07116951793432236
1774472695519556600,1.145556640625,-0.47642195224761963,-0.008386560715734959,0.3232864439487457
1774472695529574700,1.15557470703125,-0.30036380887031555,-0.25279152393341064,0.6538734436035156
1774472695539592700,1.1655927734375,-0.14909787476062775,-0.6340975761413574,0.9240210056304932
1774472695549610500,1.175610595703125,-0.08254440873861313,-1.0416827201843262,1.139349341392517
1774472695559628800,1.18562890625,-0.08716659247875214,-1.4484262466430664,1.3399039506912231
1774472695569646600,1.195646484375,-0.14863181114196777,-1.6736327409744263,1.5645884275436401
1774472695579665700,1.205665771484375,-0.2927711606025696,-1.8444768190383911,1.7734618186950684
1774472695589683500,1.215683349609375,-0.4787293076515198,-1.9225575923919678,1.9341697692871094
1774472695599701800,1.22570166015625,-0.6269752383232117,-1.8516697883605957,2.0351579189300537
1774472695609719600,1.235719482421875,-0.6578492522239685,-1.711916208267212,2.0433847904205322
1774472695619737600,1.245737548828125,-0.5950026512145996,-1.4714568853378296,1.968433141708374
1774472695629755600,1.255755615234375,-0.5101506114006042,-1.3359051942825317,1.7664555311203003
1774472695639773700,1.265773681640625,-0.39819636940956116,-1.3425735235214233,1.4561933279037476
1774472695649791700,1.275791748046875,-0.24539324641227722,-1.344840407371521,1.1210435628890991
1774472695659809500,1.2858095703125,-0.20023775100708008,-1.361793875694275,0.8101130723953247
1774472695669827600,1.29582763671875,-0.30057206749916077,-1.1659036874771118,0.551044762134552
1774472695679846400,1.305846435546875,-0.47224584221839905,-0.943386971950531,0.3168621063232422
1774472695689864700,1.31586474609375,-0.6033311486244202,-0.8246872425079346,0.09459467977285385
1774472695699882800,1.3258828125,-0.6523370146751404,-0.717888355255127,-0.04381858557462692
1774472695709900500,1.335900634765625,-0.5948689579963684,-0.6395008563995361,-0.03730316460132599
1774472695719918800,1.3459189453125,-0.4714612662792206,-0.6975271701812744,0.042034801095724106
1774472695729936600,1.3559365234375,-0.35791873931884766,-0.8809334635734558,0.125189870595932
1774472695739954700,1.36595458984375,-0.2736073136329651,-1.0856459140777588,0.19112281501293182
1774472695749972500,1.375972412109375,-0.2131066769361496,-1.181496262550354,0.26891881227493286
1774472695759990800,1.38599072265625,-0.11226022988557816,-1.2631354331970215,0.3701770007610321
1774472695770009600,1.396009521484375,0.07002995163202286,-1.3256821632385254,0.5462952852249146
1774472695780027600,1.406027587890625,0.26228275895118713,-1.3541710376739502,0.8154143691062927
1774472695790045700,1.416045654296875,0.32980746030807495,-1.3423125743865967,1.1285818815231323
1774472695800063500,1.4260634765625,0.16846863925457,-1.196153998374939,1.445340871810913
1774472695810081800,1.436081787109375,-0.1868194192647934,-0.9322773218154907,1.6434571743011475
1774472695820099600,1.446099609375,-0.5832831263542175,-0.8760963678359985,1.5595332384109497
1774472695830117600,1.45611767578125,-0.852448046207428,-1.0188623666763306,1.2357892990112305
1774472695840135700,1.4661357421875,-0.8578944802284241,-1.120464563369751,0.8468719124794006
1774472695850153700,1.47615380859375,-0.5993521213531494,-1.1276711225509644,0.5105713605880737
1774472695860171500,1.486171630859375,-0.19179180264472961,-1.032220482826233,0.25726428627967834
1774472695870190600,1.496190673828125,0.16321448981761932,-0.6767212152481079,0.10887934267520905
1774472695880208600,1.506208740234375,0.41897648572921753,-0.18842211365699768,0.007309045642614365
1774472695890226700,1.516226806640625,0.538415789604187,0.6345625519752502,-0.1345788538455963
1774472695900244700,1.52624462890625,0.5214972496032715,1.5264863967895508,-0.25936979055404663
1774472695910262500,1.536262451171875,0.38659989833831787,2.053968906402588,-0.2437111884355545
1774472695920280600,1.546280517578125,0.34234800934791565,1.9058984518051147,-0.21435783803462982
1774472695930298600,1.556298583984375,0.33625951409339905,1.684784173965454,-0.3241083025932312
1774472695940316700,1.566316650390625,0.2594563364982605,1.5797442197799683,-0.500828742980957
1774472695950334500,1.57633447265625,0.1939377784729004,1.675842523574829,-0.6345481872558594
1774472695960353500,1.586353515625,0.07242386788129807,1.6621909141540527,-0.6817335486412048
1774472695970371800,1.596371826171875,-0.021883195266127586,1.5278608798980713,-0.6596165299415588
1774472695980390000,1.606389892578125,-0.023316774517297745,1.3765445947647095,-0.5851516127586365
1774472695990407700,1.61640771484375,0.06704188138246536,1.358506679534912,-0.5036059021949768
1774472696000425700,1.62642578125,0.20747995376586914,1.5343384742736816,-0.425774484872818
1774472696010443800,1.63644384765625,0.3210938572883606,1.8439905643463135,-0.3948434591293335
1774472696020461800,1.6464619140625,0.4463987946510315,2.132171154022217,-0.5791491270065308
1774472696030479600,1.656479736328125,0.5440467596054077,2.0910747051239014,-0.7637802362442017
1774472696040497700,1.66649755859375,0.6554058194160461,1.8289834260940552,-0.9838369488716125
1774472696050516700,1.676516845703125,0.8106641173362732,1.454885721206665,-1.2558724880218506
1774472696060534800,1.68653466796875,1.0425550937652588,0.9740487933158875,-1.5759114027023315
1774472696070552800,1.696552734375,1.3432936668395996,0.3429456353187561,-1.7993415594100952
1774472696080570600,1.706570556640625,1.6687755584716797,-0.25915274024009705,-1.910170078277588
1774472696090589000,1.7165888671875,1.9986003637313843,-0.6575528383255005,-1.8574632406234741
1774472696100606700,1.726606689453125,2.236948013305664,-0.5040777921676636,-1.5901082754135132
1774472696110624800,1.736624755859375,2.374558448791504,-0.18902930617332458,-1.1066299676895142
1774472696120642600,1.746642578125,2.421380043029785,-0.20644105970859528,-0.46616291999816895
1774472696130660900,1.756660888671875,2.493565320968628,-0.2952643930912018,0.11294732242822647
1774472696140678700,1.7666787109375,2.483292579650879,-0.6076382994651794,0.6126626133918762
1774472696150697700,1.77669775390625,2.49276065826416,-0.7975038290023804,0.9614245891571045
1774472696160715800,1.7867158203125,2.509322166442871,-0.5880358219146729,1.1377990245819092
1774472696170733600,1.796733642578125,2.4332807064056396,-0.16306588053703308,1.1509233713150024
1774472696180752000,1.806751953125,2.2899253368377686,0.1365184336900711,0.9409754872322083
1774472696190769700,1.816769775390625,2.099341630935669,0.09956813603639603,0.6471635699272156
1774472696200787700,1.82678759765625,1.81047785282135,-0.4224780201911926,0.30081042647361755
1774472696210805800,1.8368056640625,1.431205153465271,-0.9798099994659424,-0.11015766113996506
1774472696220823800,1.84682373046875,1.0627522468566895,-1.321317195892334,-0.5163139700889587
1774472696230841600,1.856841552734375,0.6995130777359009,-1.5069499015808105,-0.9160892963409424
1774472696240860700,1.866860595703125,0.36981692910194397,-1.261000394821167,-1.3058346509933472
1774472696250878700,1.876878662109375,0.06640538573265076,-0.8305088877677917,-1.5751897096633911
1774472696260896800,1.886896728515625,-0.1768200397491455,-0.4142898619174957,-1.7270690202713013
1774472696270914800,1.896914794921875,-0.37257570028305054,-0.11838682740926743,-1.9185007810592651
1774472696280932600,1.9069326171875,-0.38976773619651794,0.04171362519264221,-2.084726572036743
1774472696290950700,1.91695068359375,-0.28260454535484314,0.8466620445251465,-2.19457745552063
1774472696300968700,1.92696875,-0.31642189621925354,1.487697958946228,-2.1741015911102295
1774472696310986800,1.93698681640625,-0.3717693090438843,1.343050479888916,-2.0163931846618652
1774472696321004800,1.9470048828125,-0.3577248454093933,1.1361058950424194,-1.6971577405929565
1774472696331023600,1.957023681640625,-0.31756889820098877,1.2050249576568604,-1.3062101602554321
1774472696341042000,1.9670419921875,-0.22832025587558746,1.4772911071777344,-0.8112257719039917
1774472696351059700,1.977059814453125,-0.05265921726822853,1.7915215492248535,-0.37814489006996155
1774472696361077800,1.987077880859375,0.14302480220794678,1.9370249509811401,-0.05019046738743782
1774472696371095600,1.997095458984375,0.3606540560722351,1.684122920036316,0.1526569128036499
1774472696381113900,2.00711376953125,0.4417435824871063,1.4047714471817017,0.2179459184408188
1774472696391131600,2.017131591796875,0.2669627368450165,0.8898659944534302,0.021830463781952858
1774472696401149700,2.027149658203125,0.07956486940383911,0.4516122043132782,-0.0672573372721672
1774472696411167700,2.037167724609375,-0.08067966252565384,0.10505637526512146,-0.22239179909229279
1774472696421186600,2.0471865234375,-0.36721235513687134,-0.6218497157096863,-0.3931821882724762
1774472696431204900,2.057204833984375,-0.6565483212471008,-1.3681355714797974,-0.6177537441253662
1774472696441222700,2.06722265625,-0.9756866097450256,-1.362717628479004,-0.7357832193374634
1774472696451240700,2.07724072265625,-1.2424911260604858,-0.8226930499076843,-0.5871567130088806
1774472696461258800,2.0872587890625,-1.2837294340133667,-0.401645690202713,-0.4324435591697693
1774472696471276800,2.09727685546875,-1.2855746746063232,-0.10184567421674728,-0.37147819995880127
1774472696481294800,2.107294921875,-1.2668180465698242,-0.023149527609348297,-0.3467576801776886
1774472696491312600,2.117312744140625,-1.1440311670303345,-0.053038984537124634,-0.24530643224716187
1774472696501331000,2.1273310546875,-1.022887945175171,0.06880223006010056,-0.0642080157995224
1774472696511349800,2.137349853515625,-0.8815715909004211,-0.05832189694046974,0.1266583353281021
1774472696521367800,2.147367919921875,-0.7973282933235168,-0.356407105922699,0.3551138937473297
1774472696531385600,2.157385498046875,-0.6429041028022766,-0.48927968740463257,0.597735583782196
1774472696541403600,2.167403564453125,-0.4371051490306854,-0.39917269349098206,0.7863398790359497
1774472696551421700,2.177421630859375,-0.24258361756801605,-0.3465515673160553,0.8526376485824585
1774472696561439700,2.187439697265625,-0.04019002988934517,-0.3830147683620453,0.7277671098709106
1774472696571457800,2.197457763671875,0.10297778248786926,-0.3835180997848511,0.4616645574569702
1774472696581475800,2.207475830078125,0.28663894534111023,-0.33868324756622314,0.27633970975875854
1774472696591494000,2.217493896484375,0.34177252650260925,-0.08378331363201141,0.2626848816871643
1774472696601512700,2.2275126953125,0.45139673352241516,0.034266095608472824,0.3752402067184448
1774472696611530800,2.23753076171875,0.5281442403793335,0.24502919614315033,0.47775885462760925
1774472696621548500,2.247548583984375,0.468513160943985,0.17336566746234894,0.5512130856513977
1774472696631566800,2.25756689453125,0.37628015875816345,-0.07377541810274124,0.462162584066391
1774472696641584600,2.267584716796875,0.20103217661380768,-0.14377127587795258,0.3110244572162628
1774472696651602700,2.277602783203125,0.043827641755342484,-0.28453585505485535,0.1231115460395813
1774472696661620700,2.287620849609375,-0.07256581634283066,-0.322182834148407,-0.09560508280992508
1774472696671638800,2.297638671875,-0.13830994069576263,-0.43217191100120544,-0.30217450857162476
1774472696681656800,2.30765673828125,-0.20748953521251678,-0.5320625901222229,-0.3866896629333496
1774472696691675600,2.317675537109375,-0.33912187814712524,-0.4291260540485382,-0.36568132042884827
1774472696701693700,2.327693603515625,-0.4355621337890625,-0.34818753600120544,-0.26519012451171875
1774472696711711700,2.337711669921875,-0.46618208289146423,-0.042999133467674255,-0.18594110012054443
1774472696721729800,2.347729736328125,-0.41825664043426514,0.2305637001991272,-0.05597991123795509
1774472696731747800,2.357747802734375,-0.24075429141521454,0.7182063460350037,-0.025947710499167442
1774472696741765600,2.367765625,0.1024390235543251,1.2826870679855347,-0.2917620837688446
1774472696751784000,2.377783935546875,0.4548282325267792,2.046118974685669,-0.6409459114074707
1774472696761801700,2.3878017578125,0.8358791470527649,2.6344621181488037,-0.8897421360015869
1774472696771819800,2.39781982421875,0.9865168929100037,2.4254183769226074,-0.7751300930976868
1774472696781838600,2.407838623046875,0.7460901737213135,2.0456488132476807,-0.06512334197759628
1774472696791856600,2.417856689453125,0.5167616605758667,0.9674720764160156,0.535427451133728
1774472696801874700,2.427874755859375,0.21993422508239746,0.2539023160934448,0.7194966673851013
1774472696811892700,2.437892822265625,0.13867266476154327,-0.18579836189746857,0.5962279438972473
1774472696821910800,2.447910888671875,0.24370986223220825,-0.7092069983482361,0.35330134630203247
1774472696831928800,2.4579287109375,0.4547853469848633,-1.3734654188156128,0.16178277134895325
1774472696841947000,2.46794677734375,0.619779109954834,-1.8511680364608765,0.12759098410606384
1774472696851964700,2.477964599609375,0.6610575914382935,-2.2611868381500244,0.2795775830745697
1774472696861983700,2.487983642578125,0.6526928544044495,-2.2973215579986572,0.5112385153770447
1774472696872001500,2.49800146484375,0.8362866640090942,-1.5889049768447876,0.7478121519088745
1774472696882019800,2.508019775390625,1.2209917306900024,-1.0472664833068848,1.3078570365905762
1774472696892038000,2.518037841796875,1.5163676738739014,-0.17830635607242584,1.7726149559020996
1774472696902055700,2.5280556640625,1.6649055480957031,0.4930158257484436,1.854272723197937
1774472696912073700,2.53807373046875,1.829743504524231,0.5446321368217468,1.605541467666626
1774472696922091800,2.548091796875,1.9551799297332764,-0.14974874258041382,1.0610017776489258
1774472696932109800,2.55810986328125,1.6855067014694214,-1.5011298656463623,-0.19757086038589478
1774472696942128600,2.568128662109375,1.2395590543746948,-1.6937332153320312,-1.5149754285812378
1774472696952146700,2.578146728515625,0.8742518424987793,-1.4678277969360352,-2.0191824436187744
1774472696962164700,2.588164794921875,0.627774715423584,-1.1285709142684937,-1.799346685409546
1774472696972182800,2.598182861328125,0.32858482003211975,-0.4119041860103607,-1.2738794088363647
1774472696982201000,2.608201171875,0.003919640555977821,0.03166365250945091,-0.8811952471733093
1774472696992219100,2.61821923828125,-0.2902483344078064,0.2592827081680298,-0.7419121861457825
1774472697002237200,2.6282373046875,-0.5475136637687683,0.5900587439537048,-0.7175200581550598
1774472697012255200,2.638255126953125,-0.8019044399261475,0.7437849044799805,-0.6781752705574036
1774472697022273000,2.64827294921875,-1.018110990524292,0.5564299821853638,-0.7401316165924072
1774472697032292000,2.6582919921875,-1.1199297904968262,0.26738137006759644,-0.8453413844108582
1774472697042310100,2.66831005859375,-1.10626220703125,0.0811728835105896,-0.81276535987854
1774472697052328200,2.678328125,-1.0057315826416016,-0.055996157228946686,-0.64070063829422
1774472697062346200,2.68834619140625,-0.8098068237304688,-0.20696011185646057,-0.26518747210502625
1774472697072364000,2.698364013671875,-0.5823377370834351,-0.42363595962524414,0.10282731056213379
1774472697082382000,2.708382080078125,-0.3872763514518738,-0.41806623339653015,0.32727906107902527
1774472697092400000,2.718400146484375,-0.2597373127937317,-0.2642795741558075,0.4630366265773773
1774472697102418200,2.728418212890625,-0.20060473680496216,0.11208339780569077,0.5638676285743713
1774472697112436000,2.73843603515625,-0.26651105284690857,1.1085221767425537,0.3796282708644867
1774472697122455000,2.748455078125,-0.30345097184181213,0.6908578276634216,0.377625048160553
1774472697132473300,2.758473388671875,-0.389869749546051,0.6750040054321289,0.3074907064437866
1774472697142491100,2.7684912109375,-0.47921985387802124,0.6767086982727051,0.22116194665431976
1774472697152509200,2.77850927734375,-0.5905210971832275,0.47421684861183167,0.1983615607023239
1774472697162527000,2.78852685546875,-0.6342600584030151,0.11652128398418427,0.1839306801557541
1774472697172545300,2.798545166015625,-0.6994140148162842,-0.5278201699256897,0.16053853929042816
1774472697182563000,2.80856298828125,-0.8985558748245239,-1.4767897129058838,0.2368849813938141
1774472697192581000,2.8185810546875,-0.9989679455757141,-1.9858611822128296,0.22778363525867462
1774472697202599200,2.82859912109375,-0.9665769934654236,-2.17773699760437,0.05877356976270676
1774472697212618200,2.8386181640625,-0.7959410548210144,-2.095048427581787,-0.17907467484474182
1774472697222636300,2.84863623046875,-0.45385271310806274,-2.008401870727539,-0.22117525339126587
1774472697232654000,2.858654052734375,-0.19083093106746674,-1.7886823415756226,-0.22042478621006012
1774472697242672000,2.868672119140625,-0.03156937658786774,-1.5699597597122192,-0.24430108070373535
1774472697252690200,2.878690185546875,0.07413015514612198,-1.3238844871520996,-0.27411118149757385
1774472697262708200,2.888708251953125,0.17946909368038177,-1.1177388429641724,-0.23432035744190216
1774472697272726000,2.89872607421875,0.2654583156108856,-0.9256255626678467,-0.23893454670906067
1774472697282744000,2.908744140625,0.4577065706253052,-0.7065824270248413,-0.3063913583755493
1774472697292762000,2.91876220703125,0.7104341387748718,-0.706745982170105,-0.5291568040847778
1774472697302780200,2.9287802734375,1.0503156185150146,-0.5066472291946411,-0.8418973684310913
1774472697312799200,2.93879931640625,1.3785933256149292,0.03230760619044304,-1.2494428157806396
1774472697322817000,2.948817138671875,1.7060878276824951,0.3593573570251465,-1.8418108224868774
1774472697332835000,2.9588349609375,1.9128258228302002,1.2244391441345215,-2.606740951538086
1774472697342853000,2.96885302734375,1.970529556274414,2.4011683464050293,-3.440335750579834
1774472697352871200,2.97887109375,1.8802169561386108,1.1419823169708252,-3.9273998737335205
1774472697362889000,2.988888916015625,1.544399380683899,-1.3672621250152588,-3.5518696308135986
1774472697372907300,2.9989072265625,1.2049912214279175,-2.537433385848999,-3.0855398178100586
1774472697382925000,3.008925048828125,0.9736279845237732,-2.692143440246582,-2.975815534591675
1774472697392943000,3.018943115234375,0.8470391631126404,-2.1501898765563965,-2.87754225730896
1774472697402962200,3.028962158203125,0.6471579670906067,-1.3475792407989502,-2.6622440814971924
1774472697412980000,3.03897998046875,0.4306406080722809,-0.6548784971237183,-2.19999361038208
1774472697422998300,3.048998291015625,0.14487142860889435,-0.3768724501132965,-1.4925271272659302
1774472697433016000,3.05901611328125,-0.18360711634159088,-0.23394671082496643,-0.7497085928916931
1774472697443034000,3.0690341796875,-0.5437466502189636,-0.027170900255441666,-0.1503082811832428
1774472697453052200,3.07905224609375,-0.8223550915718079,0.3340858221054077,0.26075035333633423
1774472697463070200,3.0890703125,-0.9626775979995728,0.6982965469360352,0.5075103640556335
1774472697473088000,3.099087890625,-0.9377131462097168,1.0822601318359375,0.7424458861351013
1774472697483106000,3.10910595703125,-0.8955262303352356,1.373901605606079,0.8900915384292603
1774472697493125000,3.119125,-0.8290649652481079,1.5317423343658447,0.9150890707969666
1774472697503143200,3.12914306640625,-0.8240640759468079,1.5490939617156982,0.8921030163764954
1774472697513161200,3.1391611328125,-0.7918105125427246,1.3355803489685059,0.7404195070266724
1774472697523179000,3.149178955078125,-0.7602488398551941,0.9393501877784729,0.5253756046295166
1774472697533197000,3.159197021484375,-0.7548549175262451,0.5170793533325195,0.31954896450042725
1774472697543215000,3.169215087890625,-0.7828327417373657,0.4259023070335388,0.1528521329164505
1774472697553233200,3.179233154296875,-0.883831799030304,0.43663111329078674,0.0948072001338005
1774472697563251000,3.1892509765625,-1.0255391597747803,0.26440954208374023,0.1816883087158203
1774472697573269200,3.199269287109375,-1.1701111793518066,0.16341368854045868,0.30711761116981506
1774472697583288300,3.209288330078125,-1.3287972211837769,0.21004751324653625,0.44866007566452026
1774472697593306000,3.21930615234375,-1.551518440246582,0.2258690744638443,0.6000445485115051
1774472697603324200,3.22932421875,-1.8668197393417358,0.40760159492492676,0.7486222982406616
1774472697613342000,3.239342041015625,-2.036273717880249,0.5512186884880066,0.7856330275535583
1774472697623360300,3.2493603515625,-1.9965614080429077,1.7015290260314941,0.17295952141284943
1774472697633378000,3.2593779296875,-1.874651312828064,2.2005701065063477,-0.2964947819709778
1774472697643396000,3.26939599609375,-1.8590216636657715,1.837142825126648,-0.3976781368255615
1774472697653414000,3.279413818359375,-1.8351610898971558,0.917083203792572,-0.06154245510697365
1774472697663432200,3.28943212890625,-1.9499154090881348,0.2278456836938858,0.3038954436779022
1774472697673451300,3.299451171875,-2.1644628047943115,-0.3043220639228821,0.46799996495246887
1774472697683469000,3.309468994140625,-2.2839252948760986,-1.0141974687576294,0.510479748249054
1774472697693487000,3.319487060546875,-1.4923808574676514,-0.9996324181556702,0.3637297451496124
1774472697703505200,3.329505126953125,-0.34744691848754883,-0.7807642817497253,0.15474005043506622
1774472697713523200,3.339523193359375,0.10487901419401169,-1.1142876148223877,0.3936522305011749
1774472697723541000,3.349541015625,0.19315987825393677,-1.1887339353561401,0.5539755821228027
1774472697733559000,3.35955908203125,0.24804069101810455,-0.8167150616645813,0.34417760372161865
1774472697743577300,3.369577392578125,0.19121229648590088,-0.5206061601638794,0.07132824510335922
1774472697753595100,3.37959521484375,0.0673135295510292,-0.4093712568283081,-0.07276981323957443
1774472697763613200,3.38961328125,-0.052683450281620026,-0.49681881070137024,0.05016623064875603
1774472697773632000,3.399632080078125,-0.2843523621559143,-0.3699972331523895,0.23814332485198975
1774472697783650000,3.409650146484375,-0.7260922193527222,-0.10837840288877487,0.4127095341682434
1774472697793668000,3.419668212890625,-1.1811249256134033,0.21981385350227356,0.6119678020477295
1774472697803686100,3.42968603515625,-0.9257395267486572,0.749417245388031,0.5683718323707581
1774472697813704000,3.439703857421875,-0.38921165466308594,1.3218485116958618,0.10050130635499954
1774472697823722200,3.44972216796875,-0.22994399070739746,1.2346090078353882,-0.05736235901713371
1774472697833740300,3.459740234375,-0.7161453366279602,0.9085406064987183,0.24783216416835785
1774472697843758000,3.469758056640625,-1.3784199953079224,0.8042373657226562,0.42166122794151306
1774472697853776100,3.479776123046875,-1.6421195268630981,0.7714506387710571,0.11517053097486496
1774472697863794200,3.489794189453125,-1.705726981163025,0.8222634792327881,-0.3003358542919159
1774472697873813200,3.499813232421875,-1.5581806898117065,0.7952768802642822,-0.5689915418624878
1774472697883831000,3.5098310546875,-1.0109522342681885,0.5479408502578735,-0.5878307819366455
1774472697893849000,3.51984912109375,-0.47268447279930115,0.4161743223667145,-0.595502495765686
1774472697903867100,3.5298671875,0.09073895961046219,0.27628830075263977,-0.704658031463623
1774472697913885200,3.53988525390625,0.6254907846450806,0.31727275252342224,-0.9189966917037964
1774472697923903200,3.5499033203125,1.1884663105010986,0.4178531765937805,-1.0645360946655273
1774472697933921000,3.559921142578125,1.4915587902069092,0.5728201270103455,-1.1089890003204346
1774472697943939300,3.569939208984375,1.3698221445083618,0.7041730880737305,-1.1924186944961548
1774472697953957000,3.57995703125,1.146160364151001,0.5802151560783386,-1.0357630252838135
1774472697963976200,3.58997607421875,0.8738222718238831,0.5732401013374329,-0.5940684080123901
1774472697973993700,3.59999365234375,0.7396754026412964,0.520032525062561,0.22268767654895782
1774472697984011800,3.61001171875,0.8174626231193542,0.012241752818226814,1.8332655429840088
1774472697994029800,3.62002978515625,1.1633121967315674,0.018247978761792183,3.112401008605957
1774472698004047600,3.630047607421875,1.4346637725830078,0.09632866829633713,3.650907278060913
1774472698014065700,3.640065673828125,1.479331135749817,-0.2254168838262558,3.646770477294922
1774472698024083700,3.650083740234375,1.3263026475906372,-0.8504661321640015,3.6381499767303467
1774472698034101800,3.660101806640625,1.1702568531036377,-0.8528949022293091,3.6557188034057617
1774472698044119600,3.67011962890625,1.1603704690933228,-0.40732038021087646,3.6090407371520996
1774472698054137600,3.6801376953125,1.265052080154419,0.14526398479938507,3.3825786113739014
1774472698064156700,3.69015673828125,1.360076904296875,0.5318516492843628,2.8478031158447266
1774472698074174700,3.7001748046875,1.437624454498291,0.5814668536186218,2.1245017051696777
1774472698084192800,3.71019287109375,1.4973695278167725,0.1667407751083374,1.3516141176223755
1774472698094210600,3.72021044921875,1.5113755464553833,-0.3570782244205475,0.7414823770523071
1774472698104228600,3.730228515625,1.573866367340088,-0.7480303049087524,0.329806923866272
1774472698114246700,3.74024658203125,1.6877259016036987,-0.9561267495155334,0.062071893364191055
1774472698124264700,3.7502646484375,1.789486050605774,-1.0285450220108032,-0.10092634707689285
1774472698134282500,3.760282470703125,1.9012423753738403,-0.9475412368774414,-0.19830802083015442
1774472698144300800,3.77030078125,2.0954110622406006,-0.7094964981079102,-0.24493812024593353
1774472698154318600,3.780318603515625,2.3248519897460938,-0.43153703212738037,-0.28145644068717957
1774472698164337700,3.790337646484375,2.4704906940460205,-0.3238787353038788,-0.24398469924926758
1774472698174355700,3.800355712890625,2.580890655517578,-0.06399576365947723,-0.04301830753684044
1774472698184373500,3.81037353515625,2.7886803150177,0.3740614652633667,0.18313200771808624
1774472698194391800,3.820391845703125,2.842902421951294,0.3047953248023987,0.27909955382347107
1774472698204409600,3.83040966796875,2.891932725906372,0.16183790564537048,0.07104834169149399
1774472698214427600,3.840427734375,3.0579328536987305,0.318817138671875,-0.11887498944997787
1774472698224445700,3.85044580078125,3.2179267406463623,0.4369536340236664,-0.29233518242836
1774472698234463700,3.860463623046875,3.248425245285034,0.707051157951355,-0.4879086911678314
1774472698244481500,3.8704814453125,3.1525347232818604,0.5912712812423706,-0.6451795101165771
1774472698254500600,3.88050048828125,3.0283689498901367,0.1313774585723877,-0.5738049745559692
1774472698264518700,3.8905185546875,2.9155921936035156,-0.16105706989765167,-0.21270747482776642
1774472698274536700,3.90053662109375,2.81251859664917,-0.36091452836990356,0.16139182448387146
1774472698284554800,3.9105546875,2.7244632244110107,-0.343814879655838,0.32065844535827637
1774472698294572500,3.920572509765625,2.615851402282715,-0.1307489573955536,0.41299688816070557
1774472698304590600,3.930590576171875,2.447678327560425,0.24909371137619019,0.43711262941360474
1774472698314608600,3.940608642578125,1.803462266921997,1.533647894859314,1.3939067125320435
1774472698324626700,3.950626708984375,1.5502327680587769,1.981566309928894,2.0108156204223633
1774472698334644500,3.96064453125,1.6657038927078247,2.0061378479003906,2.1349425315856934
1774472698344662800,3.970662841796875,1.9078172445297241,1.3763091564178467,1.1891608238220215
1774472698354681900,3.980681884765625,1.9246585369110107,0.9342437982559204,0.0006354302167892456
1774472698364699600,3.99069970703125,1.8707436323165894,1.1078600883483887,-0.6982616782188416
1774472698374717700,4.0007177734375,1.9201843738555908,1.103729009628296,-0.9728386402130127
1774472698384735500,4.010735595703125,1.9437930583953857,0.7334007620811462,-1.0258762836456299
1774472698394753800,4.02075390625,1.7214471101760864,0.21058626472949982,-1.1116268634796143
1774472698404771600,4.030771484375,1.5137447118759155,0.006874151527881622,-1.4071863889694214
1774472698414789600,4.04078955078125,1.2898788452148438,0.07018228620290756,-1.7448983192443848
1774472698424807700,4.0508076171875,0.9754807353019714,0.20965895056724548,-1.7155686616897583
1774472698434825700,4.06082568359375,0.7418570518493652,0.6323481798171997,-1.6325576305389404
1774472698444843800,4.07084375,0.5959858894348145,1.1012269258499146,-1.7454235553741455
1774472698454862600,4.080862548828125,0.4684452414512634,1.3035438060760498,-1.869821310043335
1774472698464880600,4.090880615234375,0.40023714303970337,1.2086567878723145,-1.9212009906768799
1774472698474898700,4.100898681640625,0.5062437653541565,1.0663344860076904,-1.9759331941604614
1774472698484916700,4.110916748046875,0.6008472442626953,1.08756685256958,-1.877516269683838
1774472698494934500,4.1209345703125,0.674401044845581,1.29568612575531,-1.5979725122451782
1774472698504952600,4.13095263671875,0.7511086463928223,1.264597773551941,-1.181675672531128
1774472698514971000,4.140970947265625,0.6911560893058777,1.1344741582870483,-0.600804328918457
1774472698524988700,4.15098876953125,0.7734565138816833,0.9588961601257324,-0.36174488067626953
1774472698535006700,4.1610068359375,0.9044105410575867,0.7221904397010803,-0.2863079309463501
1774472698545024500,4.1710244140625,0.9486891031265259,0.2598576843738556,-0.2007075399160385
1774472698555043600,4.181043701171875,0.8256481289863586,-0.27878448367118835,0.15742237865924835
1774472698565061600,4.1910615234375,0.44335877895355225,-0.4433888792991638,0.49332714080810547
1774472698575079700,4.20107958984375,-0.1283971220254898,-0.06409163773059845,0.8565554022789001
1774472698585097500,4.211097412109375,-0.46507367491722107,0.42195042967796326,0.9762610793113708
1774472698595115800,4.22111572265625,-0.5977201461791992,0.6634725332260132,1.0389430522918701
1774472698605133800,4.2311337890625,-0.5343353152275085,0.49632027745246887,1.2508758306503296
1774472698615151600,4.241151611328125,-0.29455041885375977,0.1611710488796234,1.5035994052886963
1774472698625169700,4.251169677734375,-0.08747072517871857,-0.1059085875749588,1.9418833255767822
1774472698635187700,4.261187744140625,-0.04024249315261841,0.0569642148911953,2.2590086460113525
1774472698645206800,4.271206787109375,0.017973141744732857,0.584580659866333,2.2788684368133545
1774472698655224600,4.281224609375,0.07751210033893585,1.0098615884780884,2.0800206661224365
1774472698665242600,4.29124267578125,-0.05247066542506218,1.2359144687652588,1.8628902435302734
1774472698675260700,4.3012607421875,-0.14550766348838806,1.1964030265808105,1.6504626274108887
1774472698685278700,4.31127880859375,-0.26967862248420715,0.9012882709503174,1.4669697284698486
1774472698695296800,4.321296875,-0.44333401322364807,0.4841054379940033,1.225589632987976
1774472698705314600,4.331314453125,-0.4822414815425873,0.13358469307422638,0.8954048156738281
1774472698715332900,4.341332763671875,-0.4255979061126709,-0.10700767487287521,0.5938851833343506
1774472698725350700,4.3513505859375,-0.3955153822898865,-0.1936837136745453,0.37762346863746643
1774472698735368700,4.36136865234375,-0.352332204580307,-0.15047259628772736,0.06945710629224777
1774472698745387500,4.371387451171875,-0.24224086105823517,-0.16072629392147064,-0.216439887881279
1774472698755405600,4.381405517578125,-0.08221151679754257,-0.25460779666900635,-0.25052303075790405
1774472698765423900,4.391423828125,0.05046530440449715,-0.5370264053344727,-0.07035032659769058
1774472698775441700,4.401441650390625,0.15915103256702423,-1.134953498840332,0.1578327715396881
1774472698785459700,4.411459716796875,0.24261130392551422,-1.8094538450241089,0.3877980709075928
1774472698795477500,4.4214775390625,0.2863292396068573,-1.8211613893508911,0.5743700861930847
1774472698805495800,4.431495849609375,0.3475949764251709,-1.4016273021697998,0.6488930583000183
1774472698815513600,4.441513671875,0.5108153223991394,-1.0693387985229492,0.5832583904266357
1774472698825531600,4.45153173828125,0.5738584995269775,-0.8274393677711487,0.49377191066741943
1774472698835550700,4.46155078125,0.45822829008102417,-0.5460146069526672,0.4061605632305145
1774472698845568800,4.47156884765625,0.36227431893348694,-0.40093302726745605,0.24576795101165771
1774472698855586800,4.4815869140625,0.32844871282577515,-0.39518994092941284,0.1097366139292717
1774472698865604600,4.4916044921875,0.3340964913368225,-0.31919050216674805,0.013668674044311047
1774472698875622700,4.50162255859375,0.35501429438591003,-0.29621994495391846,-0.0021880532149225473
1774472698885640700,4.511640625,0.4700404703617096,-0.20099516212940216,0.005602758377790451
1774472698895658800,4.52165869140625,0.628900408744812,-0.05769924819469452,0.006262157112360001
1774472698905676500,4.531676513671875,0.7600411176681519,0.07081052660942078,-0.028428178280591965
1774472698915694600,4.541694580078125,0.8224107623100281,0.18018388748168945,-0.10410642623901367
1774472698925712600,4.551712646484375,0.8071085214614868,0.2446662038564682,-0.21058759093284607
1774472698935731700,4.561731689453125,0.6969505548477173,0.060801565647125244,-0.3830547034740448
1774472698945749800,4.571749755859375,0.541092038154602,-0.46751073002815247,-0.4675181806087494
1774472698955767600,4.581767578125,0.33708640933036804,-0.9582724571228027,-0.46997496485710144
1774472698965785900,4.591785888671875,0.1527453362941742,-1.4251786470413208,-0.45211365818977356
1774472698975804200,4.60180419921875,0.039382293820381165,-1.8620697259902954,-0.40917739272117615
1774472698985822000,4.611822021484375,0.04681491106748581,-1.6841473579406738,-0.2414669543504715
1774472698995840000,4.621840087890625,0.21655841171741486,-1.4734634160995483,-0.038242727518081665
1774472699005858000,4.631858154296875,0.41031214594841003,-1.141311764717102,0.16358333826065063
1774472699015876000,4.6418759765625,0.33289459347724915,-0.8108425140380859,0.269621342420578
1774472699025894000,4.651893798828125,0.03825177997350693,-0.7637677192687988,0.27188530564308167
1774472699035913000,4.661912841796875,-0.27865853905677795,-0.9507452845573425,0.24806545674800873
1774472699045931000,4.671930908203125,-0.5642854571342468,-1.1021548509597778,0.30958181619644165
1774472699055949000,4.681948974609375,-0.7340409755706787,-1.0503003597259521,0.48614034056663513
1774472699065967000,4.691967041015625,-0.6597113609313965,-0.86829674243927,0.6971186399459839
1774472699075985000,4.70198486328125,-0.4703267514705658,-0.5651289224624634,0.8287352323532104
1774472699086003000,4.7120029296875,-0.33154383301734924,-0.11833250522613525,0.859019935131073
1774472699096021000,4.72202099609375,-0.3465590178966522,0.40968337655067444,0.847297191619873
1774472699106039000,4.7320390625,-0.44597774744033813,1.022442102432251,0.8977310657501221
1774472699116057000,4.74205712890625,-0.6378883123397827,1.5741792917251587,0.9750426411628723
1774472699126076000,4.752075927734375,-0.8632764220237732,1.7009966373443604,1.0076751708984375
1774472699136094200,4.76209423828125,-1.0410957336425781,1.7191122770309448,1.01884925365448
1774472699146112000,4.772112060546875,-1.1905773878097534,1.5733747482299805,1.0054490566253662
1774472699156130000,4.782130126953125,-1.276922583580017,1.5396631956100464,1.0528074502944946
1774472699166147800,4.79214794921875,-1.2991949319839478,1.6307893991470337,1.0945477485656738
1774472699176166100,4.802166259765625,-1.2637757062911987,1.5414496660232544,1.0345406532287598
1774472699186184000,4.812183837890625,-1.267661690711975,1.363594651222229,0.9462876915931702
1774472699196202000,4.822201904296875,-1.3765901327133179,1.3349387645721436,0.8993651866912842
1774472699206220000,4.832219970703125,-1.596025824546814,1.5069113969802856,0.8863530158996582
1774472699216238000,4.842238037109375,-1.8742824792861938,1.8097177743911743,0.877998411655426
1774472699226257200,4.852257080078125,-2.1817126274108887,2.138329267501831,0.8256611824035645
1774472699236275000,4.86227490234375,-2.458303213119507,2.1051177978515625,0.7923961281776428
1774472699246293000,4.87229296875,-2.678105115890503,1.858803391456604,0.8386427164077759
1774472699256311000,4.88231103515625,-2.779134511947632,1.668134093284607,0.8492090702056885
1774472699266329000,4.8923291015625,-2.7642455101013184,1.3644963502883911,0.8234933614730835
1774472699276347100,4.90234716796875,-2.724879026412964,0.9602948427200317,0.751055896282196
1774472699286365000,4.912364990234375,-2.669544219970703,0.6398457288742065,0.6033772230148315
1774472699296383200,4.92238330078125,-2.531743049621582,0.4376433789730072,0.3829580247402191
1774472699306401000,4.932401123046875,-2.4258198738098145,0.3041849136352539,0.29084354639053345
1774472699316420000,4.942420166015625,-2.32542085647583,0.3159331977367401,0.3051822781562805
1774472699326438000,4.95243798828125,-2.2503628730773926,0.4045914113521576,0.4186827540397644
1774472699336456000,4.9624560546875,-2.1091461181640625,0.6975082755088806,0.36683472990989685
1774472699346474000,4.972473876953125,-1.920155644416809,0.6136687397956848,0.4143678843975067
1774472699356492000,4.982491943359375,-1.7399877309799194,0.508604109287262,0.5347915291786194
1774472699366510000,4.992510009765625,-1.3014085292816162,0.6802919507026672,0.036907684057950974
1774472699376528100,5.002528076171875,-0.9979801774024963,0.37198367714881897,-0.15470676124095917
1774472699386546200,5.012546142578125,-0.7662327289581299,0.04014342650771141,-0.3028722405433655
1774472699396564000,5.02256396484375,-0.714450478553772,-0.24707795679569244,0.01396002434194088
1774472699406582000,5.03258203125,-0.645566463470459,-0.47888776659965515,0.42996150255203247
1774472699416600800,5.042600830078125,-0.6003928780555725,0.030948061496019363,0.018910307437181473
1774472699426619100,5.052619140625,-0.4881627559661865,0.09758540987968445,-0.0725245326757431
1774472699436636000,5.062635986328125,-0.3708195984363556,-0.03797880560159683,0.0916481614112854
1774472699446654200,5.072654296875,-0.2170657366514206,-0.12456909567117691,0.313855916261673
1774472699456672000,5.082672119140625,-0.1374974101781845,0.04880881682038307,0.3557828664779663
1774472699466690000,5.09268994140625,-0.038167890161275864,-0.20493769645690918,0.4680902361869812
1774472699476707800,5.102707763671875,0.06136668846011162,-0.6078374981880188,0.49249544739723206
1774472699486726100,5.11272607421875,0.15666072070598602,-0.7026588320732117,0.28744348883628845
1774472699496745200,5.1227451171875,0.39126551151275635,-0.5938060879707336,-0.003991279285401106
1774472699506763000,5.132762939453125,0.4720032215118408,-0.44302937388420105,-0.0033595776185393333
1774472699516781000,5.142781005859375,0.518772304058075,-0.19851282238960266,-0.16102376580238342
1774472699526798800,5.152798828125,0.6385669112205505,-0.1333351582288742,-0.09630070626735687
1774472699536817200,5.162817138671875,0.5772929191589355,0.08470716327428818,-0.05246986448764801
1774472699546835000,5.1728349609375,0.5039947032928467,-0.2741253077983856,0.10921943187713623
1774472699556853000,5.18285302734375,0.5951134562492371,-0.9218683838844299,0.43464359641075134
1774472699566871000,5.19287109375,0.41860470175743103,-0.9572173357009888,0.3411264419555664
1774472699576889000,5.20288916015625,0.06298615783452988,-0.8057830333709717,0.0960245355963707
1774472699586908200,5.212908203125,-0.07207685708999634,-0.4670441448688507,-0.15501141548156738
1774472699596926000,5.222926025390625,0.0005313006113283336,-0.2265886664390564,-0.2587982714176178
1774472699606944000,5.232944091796875,0.21389177441596985,-0.17362824082374573,-0.2725425660610199
1774472699616962000,5.242962158203125,0.36251160502433777,-0.23621626198291779,-0.1541893035173416
1774472699626980000,5.25297998046875,0.35409310460090637,-0.22530075907707214,-0.02749980054795742
1774472699636998000,5.262997802734375,0.2406914383172989,-0.12928874790668488,0.00007297061529243365
1774472699647016000,5.273015869140625,0.03436090424656868,0.010891529731452465,-0.024056866765022278
1774472699657034200,5.2830341796875,-0.12697578966617584,0.223704993724823,-0.015779228881001472
1774472699667052000,5.293052001953125,-0.2325488179922104,0.48823705315589905,0.0204490814357996
1774472699677070000,5.303070068359375,-0.2359885573387146,0.637271523475647,0.11481792479753494
1774472699687089000,5.3130888671875,-0.24510402977466583,0.6344382166862488,0.24225923418998718
1774472699697107200,5.323107177734375,-0.3045756220817566,0.4664579927921295,0.33241042494773865
1774472699707125000,5.333125,-0.39127880334854126,0.3352394998073578,0.42949944734573364
1774472699717143000,5.34314306640625,-0.43172183632850647,0.1964893490076065,0.506058394908905
1774472699727160800,5.353160888671875,-0.46142327785491943,-0.2467314898967743,0.6624240279197693
1774472699737179100,5.36317919921875,-0.4001210331916809,-0.5658945441246033,0.5960103869438171
1774472699747197200,5.373197265625,-0.34747326374053955,-1.5236378908157349,0.7697629928588867
1774472699757215000,5.383215087890625,-0.3433520495891571,-2.2705070972442627,0.9460381865501404
1774472699767233000,5.39323291015625,-0.3330402672290802,-2.227604866027832,0.6600226759910583
1774472699777251800,5.403251953125,-0.31098929047584534,-1.961550235748291,0.39825549721717834
1774472699787270100,5.413270263671875,-0.2654809355735779,-1.9175881147384644,0.4607263207435608
1774472699797288000,5.423287841796875,-0.38902896642684937,-2.2402923107147217,0.6874212622642517
1774472699807306000,5.433305908203125,-0.5065287351608276,-2.7466344833374023,0.41142162680625916
1774472699817324300,5.44332421875,-0.623588502407074,-3.2281572818756104,-0.33407145738601685
1774472699827342000,5.453342041015625,-0.6061415672302246,-3.0965826511383057,-0.9965609908103943
1774472699837360000,5.463360107421875,-0.3657681345939636,-2.4940662384033203,-1.409252643585205
1774472699847378000,5.4733779296875,0.021975873038172722,-2.3954129219055176,-1.6352211236953735
1774472699857396200,5.483396240234375,0.4717603325843811,-2.0718724727630615,-1.4956235885620117
1774472699867415000,5.4934150390625,0.6783129572868347,-1.2569336891174316,-1.1256006956100464
1774472699877433000,5.50343310546875,0.6496956944465637,-0.195440873503685,-0.7153961658477783
1774472699887451000,5.513450927734375,0.46656370162963867,0.8782598972320557,-0.4345701038837433
1774472699897469000,5.523468994140625,0.2446179986000061,1.6566816568374634,-0.32963916659355164
1774472699907487200,5.5334873046875,0.05672799423336983,2.236172676086426,-0.3534451425075531
1774472699917505000,5.543505126953125,0.09589430689811707,2.5149025917053223,-0.45790523290634155
1774472699927523000,5.553523193359375,0.0581866055727005,2.389383316040039,-0.7137932181358337
1774472699937541000,5.563541015625,0.18287554383277893,1.2541574239730835,-1.035452961921692
1774472699947559200,5.57355908203125,0.4699781537055969,0.27738261222839355,-1.3612982034683228
1774472699957578000,5.583577880859375,0.5606995224952698,-0.12624289095401764,-1.6235346794128418
1774472699967596000,5.593595947265625,0.5063294768333435,-0.3798051178455353,-1.6770585775375366
1774472699977613800,5.60361376953125,0.5718451142311096,-0.5486080050468445,-1.861815094947815
1774472699987631900,5.6136318359375,0.7623754143714905,-0.42317256331443787,-1.9015110731124878
1774472699997650000,5.62364990234375,0.8114407062530518,-0.02262674830853939,-1.7307982444763184
1774472700007667700,5.633667724609375,0.7409294843673706,0.5671427845954895,-1.4447425603866577
1774472700017686000,5.64368603515625,0.606327474117279,0.6843562126159668,-0.9793655276298523
1774472700027703800,5.653703857421875,0.33347463607788086,0.3715727627277374,-0.4026321470737457
1774472700037723000,5.663722900390625,0.042504582554101944,0.12878833711147308,0.09184683114290237
1774472700047740700,5.67374072265625,-0.16942098736763,0.15999552607536316,0.3303914964199066
1774472700057758700,5.6837587890625,-0.284220814704895,0.2167951613664627,0.4623388648033142
1774472700067776800,5.69377685546875,-0.31143832206726074,0.09038369357585907,0.4916701316833496
1774472700077794800,5.703794921875,-0.3688632547855377,-0.003608050523325801,0.4641210734844208
1774472700087812900,5.713812744140625,-0.11763662099838257,0.23221060633659363,0.5657281279563904
1774472700097830700,5.72383056640625,0.3196887969970703,0.9172872304916382,0.9227983355522156
1774472700107849000,5.733848876953125,0.5776428580284119,1.221402883529663,1.1303153038024902
1774472700117867800,5.74386767578125,0.5256835222244263,0.8899320363998413,0.9268772602081299
1774472700127885800,5.7538857421875,0.3010123074054718,0.3685106635093689,0.7594938278198242
1774472700137903600,5.763903564453125,0.1538556069135666,-0.17705626785755157,0.4012022912502289
1774472700147922000,5.773921875,0.10576025396585464,-0.917007565498352,-0.09897398203611374
1774472700157940000,5.78393994140625,0.13763189315795898,-1.351560354232788,-0.6354256868362427
1774472700167957800,5.793957763671875,0.18587160110473633,-1.4953476190567017,-1.0136758089065552
1774472700177975800,5.803975830078125,0.21761327981948853,-1.6521785259246826,-1.0762883424758911
1774472700187993900,5.813993896484375,0.31900835037231445,-1.3846274614334106,-0.9857208728790283
1774472700198013000,5.824012939453125,0.36771196126937866,-1.172171950340271,-1.1316988468170166
1774472700208030700,5.83403076171875,0.34228864312171936,-1.3254529237747192,-1.2992273569107056
1774472700218048800,5.844048828125,0.4093528985977173,-1.4386100769042969,-1.218544840812683
1774472700228066600,5.854066650390625,0.4641474187374115,-1.5090669393539429,-0.9503692388534546
1774472700238084900,5.8640849609375,0.39841341972351074,-1.297920823097229,-0.5197150707244873
1774472700248103000,5.87410302734375,0.14470365643501282,-0.3625473082065582,0.2574549615383148
1774472700258120700,5.88412060546875,-0.2514881491661072,0.5517765879631042,1.2621018886566162
1774472700268139800,5.894139892578125,-0.5025931000709534,1.488673210144043,1.6492195129394531
1774472700278157800,5.90415771484375,-0.6573017239570618,2.125927448272705,1.4855096340179443
1774472700288175900,5.91417578125,-0.7470329403877258,2.4838366508483887,0.9407528638839722
1774472700298193700,5.924193603515625,-0.6435166597366333,2.4957435131073,0.12916970252990723
1774472700308211700,5.934211669921875,-0.4214327335357666,1.5858911275863647,-0.5959177017211914
1774472700318229800,5.944229736328125,-0.1807980090379715,0.3900196850299835,-0.9132307171821594
1774472700328247800,5.954247802734375,0.0273906122893095,-1.1369754076004028,-0.8915978074073792
1774472700338265900,5.964265869140625,0.146111398935318,-2.3078391551971436,-0.5744582414627075
1774472700348284700,5.97428466796875,0.23704397678375244,-3.0649735927581787,-0.3121325969696045
1774472700358302700,5.984302734375,0.287252277135849,-3.2968242168426514,-0.20073789358139038
1774472700368320800,5.99432080078125,0.31468790769577026,-3.1029274463653564,-0.2701217532157898
1774472700378338800,6.0043388671875,0.32471737265586853,-2.670792579650879,-0.38412901759147644
1774472700388356600,6.014356689453125,0.313961923122406,-2.1558997631073,-0.38657939434051514
1774472700398375000,6.024375,0.22938178479671478,-1.6943384408950806,-0.2825121283531189
1774472700408393000,6.03439306640625,0.09389853477478027,-1.2095528841018677,-0.15468065440654755
1774472700418411800,6.044411865234375,-0.04430541396141052,-0.7480965852737427,-0.07219909876585007
1774472700428429800,6.054429931640625,-0.1325649619102478,-0.3587224781513214,-0.03631992265582085
1774472700438447600,6.064447509765625,-0.1477857381105423,0.04151202365756035,-0.07597066462039948
1774472700448466000,6.0744658203125,-0.006878945045173168,0.8074057102203369,-0.22940309345722198
1774472700458483700,6.084483642578125,-0.005065065808594227,0.8453611135482788,-0.33122718334198
1774472700468501800,6.094501708984375,-0.2923801839351654,0.6593025326728821,-0.27995067834854126
1774472700478519600,6.10451953125,-0.3983098268508911,0.9029341340065002,-0.2295418530702591
1774472700488538600,6.11453857421875,-0.29458290338516235,0.9739789962768555,-0.4845544397830963
1774472700498557000,6.124556884765625,-0.25670021772384644,0.9231848120689392,-0.872409462928772
1774472700508574700,6.13457470703125,-0.25667625665664673,0.9610328078269958,-0.9094029068946838
1774472700518592800,6.1445927734375,-0.16152258217334747,1.1324983835220337,-0.6683607697486877
1774472700528610800,6.15461083984375,-0.1305050104856491,1.1440454721450806,-0.3348882496356964
1774472700538628900,6.16462890625,-0.09731324017047882,1.2184950113296509,-0.03326234966516495
1774472700548646700,6.174646728515625,-0.07627745717763901,1.1686880588531494,0.2697950005531311
1774472700558665700,6.184665771484375,-0.11396651715040207,1.0011813640594482,0.41407760977745056
1774472700568683800,6.194683837890625,-0.14151984453201294,0.8931595087051392,0.2981531322002411
1774472700578701800,6.204701904296875,0.06030728295445442,1.1296836137771606,-0.009365271776914597
1774472700588719900,6.214719970703125,0.3387381136417389,1.4208300113677979,-0.3024536073207855
1774472700598737700,6.224737548828125,0.4531797468662262,1.4789183139801025,-0.41064852476119995
1774472700608755700,6.234755615234375,0.420060932636261,1.4535826444625854,-0.41186344623565674
1774472700618773800,6.244773681640625,0.3314085602760315,1.284024715423584,-0.3874864876270294
1774472700628792800,6.254792724609375,0.33084049820899963,1.1870439052581787,-0.37580958008766174
1774472700638811000,6.264810791015625,0.37448492646217346,1.064345359802246,-0.32400763034820557
1774472700648828700,6.27482861328125,0.379935085773468,1.1099623441696167,-0.3109264373779297
1774472700658847000,6.284846923828125,0.42285990715026855,1.3667066097259521,-0.2821246385574341
1774472700668864800,6.29486474609375,0.5247476696968079,1.6441717147827148,-0.2009008824825287
1774472700678882800,6.3048828125,0.6620833873748779,1.849941372871399,-0.11009987443685532
1774472700688902000,6.31490185546875,0.7809293866157532,1.916131854057312,-0.06832552701234818
1774472700698919700,6.324919677734375,0.8597570657730103,1.7999628782272339,-0.12387853860855103
1774472700708938000,6.33493798828125,0.8522674441337585,1.5198763608932495,-0.20836199820041656
1774472700718955800,6.344955810546875,0.7799301743507385,1.112168788909912,-0.33249565958976746
1774472700728973800,6.354973876953125,0.7243936657905579,0.7230202555656433,-0.47171613574028015
1774472700738991600,6.36499169921875,0.7589066028594971,0.21223290264606476,-0.6011183261871338
1774472700749010000,6.375010009765625,0.815689206123352,-0.13293807208538055,-0.6214041709899902
1774472700759029000,6.385029052734375,0.8409790992736816,-0.31813642382621765,-0.5704848170280457
1774472700769046800,6.395046875,0.9130930304527283,-0.33672288060188293,-0.466089129447937
1774472700779064800,6.40506494140625,0.878008246421814,-0.3856305181980133,-0.39266765117645264
1774472700789083000,6.415082763671875,0.7350471019744873,-0.5013078451156616,-0.3664237856864929
1774472700799101000,6.425100830078125,0.6496691107749939,-0.555156409740448,-0.33379873633384705
1774472700809118700,6.43511865234375,0.5645025372505188,-0.6193476915359497,-0.32736214995384216
1774472700819137800,6.4451376953125,0.4638552665710449,-0.5380229949951172,-0.32245129346847534
1774472700829155600,6.455155517578125,0.34934762120246887,-0.2823406159877777,-0.3506017029285431
1774472700839174000,6.465173828125,0.23131898045539856,-0.0070669641718268394,-0.4289169907569885
1774472700849192000,6.47519189453125,0.14098908007144928,0.1481332778930664,-0.5479190349578857
1774472700859209700,6.485209716796875,0.10242890566587448,0.15685352683067322,-0.6648685336112976
1774472700869227800,6.495227783203125,0.09078928828239441,0.004889297299087048,-0.7430900931358337
1774472700879246600,6.50524658203125,0.14144687354564667,-0.24963513016700745,-0.7377142310142517
1774472700889265000,6.515264892578125,0.18719811737537384,-0.6075496077537537,-0.6861924529075623
1774472700899282700,6.52528271484375,0.21560153365135193,-1.0216524600982666,-0.5682892799377441
1774472700909300700,6.53530078125,0.19919352233409882,-1.5371136665344238,-0.4013245105743408
1774472700919318800,6.54531884765625,0.24416659772396088,-2.0154898166656494,-0.27252259850502014
1774472700929337900,6.555337890625,0.0909608006477356,-1.4684240818023682,0.2838607430458069
1774472700939356000,6.56535595703125,0.018639730289578438,-0.8800019025802612,1.3039801120758057
1774472700949373700,6.575373779296875,0.11353109031915665,-1.0646984577178955,1.5552517175674438
1774472700959391700,6.585391845703125,0.11921107769012451,-1.6054147481918335,1.1813710927963257
1774472700969409800,6.595409912109375,0.16419880092144012,-2.004667282104492,0.7398362755775452
1774472700979427800,6.605427734375,0.1917308121919632,-1.8861854076385498,0.4741443991661072
1774472700989447200,6.615447265625,0.21216098964214325,-1.2616925239562988,0.33216702938079834
1774472700999465000,6.62546484375,0.23111097514629364,-0.6088582873344421,0.23182816803455353
1774472701009483000,6.63548291015625,0.25106924772262573,-0.11586534976959229,0.1600131094455719
1774472701019501000,6.6455009765625,0.26151469349861145,0.02424408681690693,0.18305930495262146
1774472701029519000,6.65551904296875,0.2462712973356247,-0.0168524831533432,0.2719407081604004
1774472701039537000,6.665536865234375,0.2048325091600418,-0.18928709626197815,0.3776993453502655
1774472701049556000,6.675555908203125,0.2892525792121887,-0.12919233739376068,0.24882952868938446
1774472701059574000,6.685573974609375,0.37093624472618103,0.07114581763744354,-0.028835643082857132
1774472701069592000,6.695592041015625,0.39442187547683716,0.1530819535255432,-0.3242369294166565
1774472701079610000,6.705610107421875,0.36326608061790466,0.08638308942317963,-0.6040683388710022
1774472701089628000,6.7156279296875,0.301410973072052,-0.1391965001821518,-0.7295732498168945
1774472701099647000,6.72564697265625,0.32465237379074097,-0.5039268136024475,-0.5906276106834412
1774472701109665000,6.7356650390625,0.3342733085155487,-0.8126574754714966,-0.23950766026973724
1774472701119683000,6.74568310546875,0.11655484139919281,-0.7704628705978394,0.2144089639186859
1774472701129700900,6.755700927734375,0.025833195075392723,-0.2473469376564026,0.5476383566856384
1774472701139719000,6.765718994140625,0.17541123926639557,0.23743891716003418,0.3396022915840149
1774472701149737200,6.7757373046875,0.4346281588077545,0.7896597385406494,-0.5555050373077393
1774472701159756000,6.785756103515625,0.07649929821491241,0.6616775393486023,0.1603420078754425
1774472701169774000,6.795774169921875,0.061297446489334106,1.413293480873108,0.8696190118789673
1774472701179792000,6.8057919921875,-0.031500667333602905,1.4055365324020386,1.595215082168579
1774472701189810000,6.815809814453125,-0.311535507440567,0.2657299339771271,1.9148293733596802
1774472701199828000,6.825827880859375,-0.5287743806838989,-0.7658971548080444,1.7121542692184448
1774472701209847000,6.835846923828125,-0.5259974598884583,-1.092980980873108,1.742431402206421
1774472701219865000,6.845864990234375,-0.5571178197860718,-0.9834491610527039,1.4750876426696777
1774472701229883000,6.8558828125,-0.4223717451095581,-0.7661924958229065,0.9742170572280884
1774472701239901200,6.865901123046875,-0.3124077022075653,-0.6318192481994629,0.5452848672866821
1774472701249919000,6.8759189453125,-0.1527852863073349,-0.6386536955833435,0.4501999318599701
1774472701259937000,6.88593701171875,-0.15494456887245178,-0.9130631685256958,0.538783848285675
1774472701269956000,6.8959560546875,-0.17464637756347656,-0.9968691468238831,0.5186402201652527
1774472701279974000,6.905973876953125,-0.16448108851909637,-0.7521927952766418,0.4534207582473755
1774472701289992200,6.9159921875,-0.15458931028842926,-0.4841136932373047,0.41687124967575073
1774472701300010000,6.926010009765625,-0.14977245032787323,-0.3429858386516571,0.3972133994102478
1774472701310028000,6.936028076171875,-0.08190711587667465,-0.22586482763290405,0.3935813903808594
1774472701320045800,6.9460458984375,-0.12027820944786072,-0.06768397241830826,0.4312238395214081
1774472701330065000,6.95606494140625,-0.10808145999908447,0.23002707958221436,0.49524036049842834
1774472701340083000,6.9660830078125,-0.08735887706279755,0.5315808057785034,0.55679851770401
1774472701350101000,6.97610107421875,-0.0725567564368248,0.6763014793395996,0.5212211012840271
1774472701360119000,6.986119140625,-0.044921137392520905,0.6795009970664978,0.4628318250179291
1774472701370137000,6.99613720703125,-0.010880877263844013,0.6429646015167236,0.3101397454738617
1774472701380155100,7.006155029296875,0.02056785859167576,0.5164138078689575,0.03714150935411453
1774472701390174000,7.016174072265625,0.015805594623088837,0.22598013281822205,-0.15098978579044342
1774472701400192000,7.02619189453125,0.12467322498559952,0.049491919577121735,-0.3256116509437561
1774472701410209800,7.036209716796875,0.10594161599874496,0.00774607015773654,-0.43492457270622253
1774472701420228000,7.04622802734375,0.13802817463874817,-0.0046999468468129635,-0.4370250105857849
1774472701430246100,7.05624609375,0.2695678174495697,-0.08863133192062378,-0.44904303550720215
1774472701440264000,7.066263916015625,0.40953531861305237,-0.08026048541069031,-0.5668919086456299
1774472701450283000,7.076282958984375,0.42193952202796936,0.03020850196480751,-0.6659183502197266
1774472701460300800,7.08630078125,0.449311226606369,0.18484282493591309,-0.7063505053520203
1774472701470319000,7.096319091796875,0.4311138391494751,0.23265987634658813,-0.73050856590271
1774472701480337000,7.1063369140625,0.38738980889320374,0.29341402649879456,-0.7663629651069641
1774472701490355000,7.11635498046875,0.34669217467308044,0.25113368034362793,-0.7174150943756104
1774472701500373000,7.126373046875,0.31172993779182434,0.27776476740837097,-0.7149103879928589
1774472701510391000,7.13639111328125,0.26882320642471313,0.24145230650901794,-0.7603356838226318
1774472701520410000,7.14641015625,0.22062505781650543,0.21425050497055054,-0.732006847858429
1774472701530428000,7.156427978515625,0.20767836272716522,0.2267303466796875,-0.7136533856391907
1774472701540446000,7.166446044921875,0.19226717948913574,0.2434006780385971,-0.6859583854675293
1774472701550464000,7.176464111328125,0.16846197843551636,0.2383989840745926,-0.6833676695823669
1774472701560482000,7.18648193359375,0.15055328607559204,0.2689491808414459,-0.6686356067657471
1774472701570499800,7.196499755859375,0.14063914120197296,0.27072471380233765,-0.6392713189125061
1774472701580518000,7.206517822265625,0.1741827130317688,0.14902862906455994,-0.5188540816307068
1774472701590537000,7.216536865234375,0.048057008534669876,0.11336623877286911,-0.34673771262168884
1774472701600555000,7.226554931640625,-0.07730810344219208,0.05571838840842247,-0.16361530125141144
1774472701610573000,7.236572998046875,-0.18324998021125793,-0.10434265434741974,-0.08761187642812729
1774472701620590800,7.2465908203125,-0.23049232363700867,-0.195964977145195,-0.062003981322050095
1774472701630609200,7.256609130859375,-0.29516640305519104,-0.16973018646240234,-0.02846306748688221
1774472701640627000,7.266626953125,-0.36689305305480957,-0.011404721066355705,-0.047868456691503525
1774472701650645000,7.27664501953125,-0.38732054829597473,0.12447161972522736,-0.17279280722141266
1774472701660664000,7.2866640625,-0.44692209362983704,0.03522350266575813,-0.2549494802951813
1774472701670681900,7.296681884765625,-0.4628603160381317,-0.15328063070774078,-0.2465282827615738
1774472701680700200,7.3067001953125,-0.32004112005233765,-0.21173489093780518,-0.19564193487167358
1774472701690718000,7.316718017578125,-0.05079713463783264,0.031535554677248,-0.0872209221124649
1774472701700736000,7.326736083984375,0.09867970645427704,0.39459073543548584,-0.07694485038518906
1774472701710753800,7.33675390625,0.017193900421261787,0.4991413652896881,-0.07080413401126862
1774472701720772000,7.346772216796875,-0.02966495044529438,0.39796122908592224,-0.08365068584680557
1774472701730791200,7.356791259765625,-0.013411945663392544,0.15198740363121033,-0.06945257633924484
1774472701740809000,7.36680908203125,0.026763970032334328,-0.08309754729270935,-0.12093600630760193
1774472701750827000,7.376826904296875,-0.01107368990778923,-0.31404101848602295,-0.26903384923934937
1774472701760845000,7.386844970703125,0.1458280384540558,-0.35388803482055664,-0.36216193437576294
1774472701770863000,7.396863037109375,0.3462471663951874,-0.2950015366077423,-0.24864976108074188
1774472701780881000,7.406880859375,0.29494908452033997,-0.3324493169784546,-0.07228804379701614
1774472701790899000,7.41689892578125,0.4411795437335968,-0.3459387719631195,0.026461169123649597
1774472701800917000,7.4269169921875,0.6387978196144104,-0.13245098292827606,0.05922790244221687
1774472701810936000,7.43693603515625,0.5822674036026001,-0.09018369019031525,0.19201870262622833
1774472701820954000,7.4469541015625,0.6062595844268799,-0.1924184411764145,-0.00830773077905178
1774472701830972000,7.456971923828125,0.5271916389465332,-0.34667086601257324,-0.2545792758464813
1774472701840990000,7.466989990234375,0.5933666825294495,-0.41657909750938416,-0.22816738486289978
1774472701851008000,7.477008056640625,0.7776821851730347,-0.5224530696868896,-0.148427814245224
1774472701861026000,7.487026123046875,0.9314112663269043,-0.701964795589447,-0.07540873438119888
1774472701871043800,7.4970439453125,0.8254166841506958,-1.0612342357635498,-0.3461845815181732
1774472701881062100,7.507062255859375,0.6149864792823792,-1.3956364393234253,-0.6746194362640381
1774472701891081200,7.517081298828125,0.41094785928726196,-1.5799576044082642,-0.4862857460975647
1774472701901099000,7.52709912109375,0.12278371304273605,-1.4509375095367432,-0.33643901348114014
1774472701911117000,7.537116943359375,-0.0772164911031723,-1.1783065795898438,-0.37136316299438477
1774472701921134800,7.547134765625,-0.04796752706170082,-0.7659626603126526,-0.35244274139404297
1774472701931153200,7.557153076171875,0.022521020844578743,-0.35980531573295593,-0.29298821091651917
1774472701941171000,7.5671708984375,0.12801122665405273,-0.14873701333999634,-0.33895808458328247
1774472701951189000,7.57718896484375,0.12718911468982697,-0.047933969646692276,-0.21787214279174805
1774472701961207000,7.58720703125,0.1758653074502945,0.08958394825458527,-0.13641563057899475
1774472701971225000,7.59722509765625,0.2260669618844986,0.13683535158634186,-0.12597177922725677
1774472701981243600,7.60724365234375,0.26263561844825745,0.15039296448230743,-0.2317810356616974
1774472701991261700,7.61726171875,0.28898680210113525,0.09596221894025803,-0.3002415895462036
1774472702001279500,7.627279541015625,0.3198794722557068,0.10199720412492752,-0.3628019094467163
1774472702011297800,7.6372978515625,0.38904282450675964,0.10313091427087784,-0.4799540936946869
1774472702021315600,7.647315673828125,0.4958081543445587,0.09548604488372803,-0.6544129848480225
1774472702031333600,7.657333740234375,0.6041095852851868,0.048586711287498474,-0.8304678797721863
1774472702041351700,7.6673515625,0.7277923822402954,0.024049676954746246,-1.0077641010284424
1774472702051369700,7.67736962890625,0.7620201110839844,0.02996562235057354,-1.0739809274673462
1774472702061388800,7.687388916015625,0.823230504989624,0.10062327980995178,-0.9801162481307983
1774472702071406600,7.697406494140625,0.7978619933128357,0.19032040238380432,-0.7656551003456116
1774472702081424600,7.707424560546875,0.6784616112709045,0.45639336109161377,-0.40460526943206787
1774472702091442700,7.717442626953125,0.550212025642395,0.6416242122650146,-0.12761281430721283
1774472702101460700,7.727460693359375,0.44473564624786377,0.5940596461296082,-0.0433429479598999
1774472702111478500,7.737478515625,0.31803256273269653,0.5445735454559326,-0.022351378574967384
1774472702121496600,7.74749658203125,0.25912556052207947,0.5537633299827576,-0.02665344811975956
1774472702131514600,7.7575146484375,0.21105284988880157,0.4410572946071625,-0.024596955627202988
1774472702141532700,7.76753271484375,0.12546710669994354,0.47133582830429077,0.03254435956478119
1774472702151550500,7.777550537109375,0.0659361407160759,0.4481101334095001,0.03924567252397537
1774472702161569500,7.787569580078125,0.058026816695928574,0.28782567381858826,0.009550628252327442
1774472702171587600,7.797587646484375,-0.00768854608759284,0.26882559061050415,0.032463934272527695
1774472702181605600,7.807605712890625,-0.09240396320819855,0.3152695298194885,0.0742473304271698
1774472702191623700,7.817623779296875,-0.15360048413276672,0.3452383577823639,0.12188143283128738
1774472702201641500,7.827641357421875,-0.22743581235408783,0.25165459513664246,0.1374574601650238
1774472702211659800,7.83765966796875,-0.4161743223667145,0.13062112033367157,0.1200835332274437
1774472702221677600,7.847677490234375,-0.5027515292167664,-0.033059947192668915,0.025069933384656906
1774472702231695600,7.857695556640625,-0.45996999740600586,-0.0008940231637097895,-0.048404816538095474
1774472702241713400,7.86771337890625,-0.41997650265693665,0.24376605451107025,-0.05317853391170502
1774472702251732500,7.877732421875,-0.36387115716934204,0.4717283844947815,-0.005452822428196669
1774472702261750800,7.887750732421875,-0.36434653401374817,0.6395429372787476,0.08064770698547363
1774472702271768600,7.8977685546875,-0.3184339106082916,0.6303009986877441,0.03441416472196579
1774472702281786600,7.90778662109375,-0.3187124729156494,0.4515775740146637,-0.010243848897516727
1774472702291804700,7.9178046875,-0.39191851019859314,0.5338346362113953,-0.059179700911045074
1774472702301822700,7.92782275390625,-0.40582793951034546,0.6700867414474487,-0.14856763184070587
1774472702311840500,7.937840576171875,-0.3930117189884186,0.8616157174110413,-0.2681281268596649
1774472702321858600,7.947858642578125,-0.4037863612174988,1.1063157320022583,-0.4064524471759796
1774472702331876600,7.957876708984375,-0.39915376901626587,1.2013168334960938,-0.703534722328186
1774472702341894700,7.967894775390625,-0.4359738528728485,1.2759159803390503,-0.8068632483482361
1774472702351913700,7.977913818359375,-0.38470345735549927,1.0574061870574951,-0.6979471445083618
1774472702361931500,7.987931640625,-0.23601332306861877,0.8668985962867737,-0.9039338827133179
1774472702371949600,7.997949462890625,-0.15662077069282532,0.9424415826797485,-1.1346901655197144
1774472702381967600,8.007967529296875,0.14004205167293549,0.7327799797058105,-0.9546172618865967
1774472702391985700,8.017985595703125,0.45746049284935,0.3237530291080475,-0.637643039226532
1774472702402003500,8.02800341796875,0.527800440788269,-0.2832018733024597,-0.5807963013648987
1774472702412021800,8.038021728515625,0.49548962712287903,-0.6798288822174072,-0.6772975325584412
1774472702422039600,8.04803955078125,0.5331781506538391,-0.7622358202934265,-0.8190746307373047
1774472702432057600,8.0580576171875,0.5750725865364075,-0.5000452399253845,-0.9541330933570862
1774472702442075600,8.06807568359375,0.6057152152061462,-0.35740554332733154,-1.0278360843658447
1774472702452093700,8.07809375,0.6548779606819153,-0.3049636483192444,-1.1004348993301392
1774472702462112800,8.08811279296875,0.6599507331848145,-0.3458751142024994,-1.1453286409378052
1774472702472130600,8.098130615234375,0.5818189382553101,-0.5237407088279724,-1.1301698684692383
1774472702482148600,8.108148681640625,0.832808256149292,-0.398174524307251,-1.0466960668563843
1774472702492166400,8.11816650390625,0.8667380213737488,-0.3487420082092285,-1.2580759525299072
1774472702502184700,8.128184814453125,0.9218891859054565,-0.513983964920044,-1.4163676500320435
1774472702512202800,8.13820263671875,0.9570761919021606,-0.5826138854026794,-1.3851686716079712
1774472702522220500,8.148220458984374,1.03200101852417,-0.6282380819320679,-1.3815566301345825
1774472702532238800,8.15823876953125,1.1041964292526245,-0.7001988291740417,-1.4264029264450073
1774472702542256600,8.168256591796874,1.1168173551559448,-0.8063678741455078,-1.4463337659835815
1774472702552274700,8.178274658203126,1.1733269691467285,-0.7285380959510803,-1.4209918975830078
1774472702562293500,8.18829345703125,1.2619524002075195,-0.5044317245483398,-1.4413973093032837
1774472702572311600,8.1983115234375,1.361714482307434,-0.2403010129928589,-1.5310776233673096
1774472702582329600,8.20832958984375,1.4495569467544556,-0.08188474923372269,-1.5919002294540405
1774472702592347600,8.21834765625,1.4583752155303955,-0.11506693065166473,-1.4046717882156372
1774472702602365700,8.22836572265625,1.5713001489639282,0.0054301852360367775,-1.1837798357009888
1774472702612383500,8.238383544921875,1.5589330196380615,-0.19454258680343628,-1.0524959564208984
1774472702622401800,8.24840185546875,1.393241286277771,-0.21194393932819366,-0.8858259320259094
1774472702632419600,8.258419677734375,1.2105052471160889,-0.22992880642414093,-0.8843151330947876
1774472702642437600,8.268437744140625,1.027525782585144,-0.009807889349758625,-0.9228643774986267
1774472702652455700,8.27845556640625,0.7750608325004578,0.5400056838989258,-0.7639448046684265
1774472702662473700,8.2884736328125,0.5641312599182129,1.0920121669769287,-0.840116024017334
1774472702672492800,8.298492919921875,0.6464940905570984,1.0697534084320068,-1.0340654850006104
1774472702682510600,8.308510498046875,0.975958526134491,0.9890002608299255,-0.8529431223869324
1774472702692528600,8.318528564453125,1.3586912155151367,1.1384356021881104,-0.42933377623558044
1774472702702546700,8.328546630859375,1.6030408143997192,1.0447402000427246,-0.12116237729787827
1774472702712564700,8.338564697265625,1.5718998908996582,0.5834493041038513,-0.3716942071914673
1774472702722582500,8.34858251953125,1.3037095069885254,0.5999992489814758,-0.3009888529777527
1774472702732600600,8.3586005859375,1.0689600706100464,0.7793226838111877,-0.38842442631721497
1774472702742618600,8.36861865234375,0.7669144868850708,0.8027092218399048,-0.19466136395931244
1774472702752636700,8.37863671875,0.5487286448478699,0.44528132677078247,-0.17510177195072174
1774472702762654500,8.388654541015624,0.48358744382858276,0.03184714540839195,-0.1785830557346344
1774472702772672800,8.3986728515625,0.49522411823272705,-0.3305744528770447,-0.04807298630475998
1774472702782691800,8.40869189453125,0.39847999811172485,-0.24323289096355438,0.10132528841495514
1774472702792709600,8.418709716796876,0.2799336612224579,0.05637752264738083,0.2623775601387024
1774472702802727700,8.428727783203126,0.20524902641773224,0.4493090808391571,0.32437700033187866
1774472702812745500,8.438745361328126,0.12495151907205582,0.7936481237411499,0.34709298610687256
1774472702822763800,8.448763671875,-0.05203204229474068,0.9471537470817566,0.39433932304382324
1774472702832781600,8.458781494140625,-0.10680127888917923,0.7597018480300903,0.4554128050804138
1774472702842799600,8.468799560546875,-0.13352343440055847,0.4441865086555481,0.4597177803516388
1774472702852817400,8.4788173828125,-0.14884141087532043,0.15821494162082672,0.49118170142173767
1774472702862835700,8.488835693359375,-0.09845706820487976,-0.06094697490334511,0.4930778741836548
1774472702872853500,8.498853515625,-0.04059403017163277,-0.2249058187007904,0.5066349506378174
1774472702882872600,8.50887255859375,-0.05429572984576225,-0.24184592068195343,0.5458550453186035
1774472702892890600,8.518890625,-0.06232782453298569,-0.04428756982088089,0.5330660343170166
1774472702902908700,8.52890869140625,-0.12601464986801147,0.3302854895591736,0.540282130241394
1774472702912926700,8.5389267578125,-0.24247628450393677,0.6412976980209351,0.5593512058258057
1774472702922944500,8.548944580078125,-0.3301331698894501,0.8199675679206848,0.5174673795700073
1774472702932962600,8.558962646484375,-0.419351190328598,0.913720965385437,0.4080466032028198
1774472702942980600,8.568980712890625,-0.5483161211013794,0.9784808158874512,0.3059367537498474
1774472702952998700,8.57899853515625,-0.6220438480377197,1.0215110778808594,0.14250734448432922
1774472702963016400,8.589016357421874,-0.7174713015556335,0.9366058111190796,-0.046969905495643616
1774472702973034500,8.599034423828124,-0.8780207633972168,0.6272796392440796,-0.19961723685264587
1774472702983052800,8.609052734375,-1.0629280805587769,0.23528122901916504,-0.2597050666809082
1774472702993070800,8.61907080078125,-1.181057333946228,0.13873177766799927,-0.3230568766593933
1774472703003090000,8.62908984375,-1.3199914693832397,0.2050572782754898,-0.4360409677028656
1774472703013107700,8.639107666015626,-1.5006203651428223,0.43662846088409424,-0.49126774072647095
1774472703023125800,8.649125732421876,-1.6440348625183105,0.9287553429603577,-0.4624358117580414
1774472703033143800,8.659143798828126,-1.754291296005249,1.5175679922103882,-0.3770010769367218
1774472703043161900,8.669161865234376,-1.688183069229126,1.7953433990478516,-0.439785361289978
1774472703053179600,8.6791796875,-1.5090978145599365,1.7141162157058716,-0.5894315838813782
1774472703063198000,8.689197998046875,-1.3020657300949097,1.4721273183822632,-0.596540093421936
1774472703073215700,8.6992158203125,-1.1079636812210083,1.2793372869491577,-0.4614989161491394
1774472703083233800,8.70923388671875,-0.952793538570404,1.1824547052383423,-0.3042139410972595
1774472703093251600,8.71925146484375,-0.81448894739151,1.1032613515853882,-0.3157784640789032
1774472703103270000,8.729269775390625,-0.7026159167289734,0.9194725751876831,-0.47651034593582153
1774472703113289000,8.7392890625,-0.627249538898468,0.5479472279548645,-0.7721947431564331
1774472703123306800,8.749306640625,-0.5665352940559387,0.27066266536712646,-1.0220892429351807
1774472703133324800,8.75932470703125,-0.5217843651771545,0.04604845121502876,-1.155286431312561
1774472703143342800,8.7693427734375,-0.5429905652999878,-0.10735441744327545,-1.2162805795669556
1774472703153361000,8.77936083984375,-0.6426034569740295,-0.13195110857486725,-1.2350726127624512
1774472703163378700,8.789378662109375,-0.8218603134155273,-0.03825098276138306,-1.1992608308792114
1774472703173396700,8.799396728515624,-1.0691771507263184,0.05167065188288689,-1.2520763874053955
1774472703183414800,8.809414794921874,-1.2577710151672363,0.2557806372642517,-1.3961470127105713
1774472703193432800,8.819432861328124,-1.3288848400115967,0.45398640632629395,-1.5092452764511108
1774472703203450600,8.82945068359375,-1.2169418334960938,0.6799697279930115,-1.4393317699432373
1774472703213468700,8.83946875,-0.9374784827232361,0.8233790993690491,-1.1563870906829834
1774472703223487700,8.84948779296875,-0.5611727833747864,0.8327987194061279,-0.7554240226745605
1774472703233505800,8.859505859375,-0.20060287415981293,0.7519094347953796,-0.3542446196079254
1774472703243523800,8.86952392578125,-0.14393161237239838,0.34382209181785583,0.05090152844786644
1774472703253541600,8.879541748046876,-0.20173950493335724,-0.21175698935985565,0.4353719651699066
1774472703263560000,8.889559814453126,-0.20325139164924622,-0.6139795184135437,0.7226322293281555
1774472703273577700,8.89957763671875,-0.1530848890542984,-0.860663890838623,0.961833655834198
1774472703283595800,8.909595703125,-0.14782407879829407,-0.9433185458183289,1.1519920825958252
1774472703293613800,8.91961376953125,-0.19203202426433563,-1.03827965259552,1.3241567611694336
1774472703303632000,8.9296318359375,-0.2726871967315674,-0.8505768775939941,1.3934217691421509
1774472703313650000,8.93964990234375,-0.38877758383750916,-0.5976410508155823,1.4287281036376953
1774472703323667700,8.949667724609375,-0.35839036107063293,-0.471800297498703,1.4883384704589844
1774472703333685800,8.959685791015625,-0.34538084268569946,-0.40782076120376587,1.6287273168563843
1774472703343704600,8.96970458984375,-0.3615909516811371,-0.4734242856502533,1.8435498476028442
1774472703353723000,8.979722900390625,-0.43047070503234863,-0.6420931816101074,2.064718723297119
1774472703363740700,8.98974072265625,-0.49334606528282166,-0.7198771834373474,2.262136697769165
1774472703373758700,8.9997587890625,-0.558889627456665,-0.6644666790962219,2.383824348449707
1774472703383777000,9.009777099609375,-0.6518115997314453,-0.5367241501808167,2.435537815093994
1774472703393794800,9.019794921875,-0.7410938143730164,-0.36987125873565674,2.439666748046875
1774472703403812900,9.029812744140624,-0.7906131744384766,-0.26869723200798035,2.4061782360076904
1774472703413830700,9.03983056640625,-0.8051955699920654,-0.23341301083564758,2.3753111362457275
1774472703423849000,9.049848876953124,-0.786622166633606,-0.2645677328109741,2.334381103515625
1774472703433866800,9.05986669921875,-0.7459143996238708,-0.3008948564529419,2.2642922401428223
1774472703443884800,9.069884765625,-0.7080801725387573,-0.3323262929916382,2.1683311462402344
1774472703453904000,9.07990380859375,-0.6676105260848999,-0.34137463569641113,2.05014967918396
1774472703463921700,9.089921630859376,-0.6232500076293945,-0.3561522662639618,1.918205976486206
1774472703473940000,9.09993994140625,-0.6066933870315552,-0.4454863965511322,1.8040980100631714
1774472703483957800,9.109957763671876,-0.5790002346038818,-0.48042547702789307,1.711330533027649
1774472703493975800,9.119975830078126,-0.5331369042396545,-0.3591616153717041,1.6086499691009521
1774472703503993900,9.129993896484375,-0.47842171788215637,-0.16639269888401031,1.4957404136657715
1774472703514012000,9.140011962890625,-0.4255262613296509,-0.01119086891412735,1.3667603731155396
1774472703524029700,9.15002978515625,-0.36660781502723694,0.1219959482550621,1.2256826162338257
1774472703534047700,9.1600478515625,-0.30594688653945923,0.2650926411151886,1.0837723016738892
1774472703544065800,9.170065673828125,-0.25459179282188416,0.3903200626373291,0.9455561637878418
1774472703554083800,9.180083740234375,-0.2131173312664032,0.4343264102935791,0.8245252966880798
1774472703564103000,9.19010302734375,-0.18773049116134644,0.41796183586120605,0.7319176197052002
1774472703574120700,9.20012060546875,-0.1762368083000183,0.36401045322418213,0.6801921129226685
1774472703584138800,9.210138671875,-0.18578185141086578,0.21628250181674957,0.6602255702018738
1774472703594156800,9.22015673828125,-0.21486489474773407,0.10776827484369278,0.6667205095291138
1774472703604174800,9.2301748046875,-0.26232561469078064,0.04236716404557228,0.671337902545929
1774472703614192600,9.240192626953124,-0.33134889602661133,-0.013594372197985649,0.6748766899108887
1774472703624211000,9.2502109375,-0.3946082890033722,-0.010541324503719807,0.6437715291976929
1774472703634228700,9.260228759765624,-0.49045678973197937,0.01353365182876587,0.58383709192276
1774472703644246800,9.270246826171874,-0.5705643892288208,0.09535288065671921,0.5371574759483337
1774472703654264600,9.2802646484375,-0.6492254137992859,0.1316531002521515,0.524588942527771
1774472703664283000,9.290282958984376,-0.7211112976074219,0.0363505519926548,0.5400840044021606
1774472703674302000,9.300302001953124,-0.800294041633606,-0.1758970022201538,0.5689271092414856
1774472703684319700,9.31031982421875,-0.8911272287368774,-0.3355045020580292,0.5854586958885193
1774472703694337800,9.320337890625,-0.9919449687004089,-0.4068535268306732,0.5896848440170288
1774472703704355800,9.33035595703125,-1.091230034828186,-0.41804996132850647,0.5899373292922974
1774472703714374000,9.340373779296876,-1.1783515214920044,-0.4010922908782959,0.5879756212234497
1774472703724391700,9.3503916015625,-1.2435494661331177,-0.35594531893730164,0.5841252207756042
1774472703734409700,9.36040966796875,-1.2688117027282715,-0.30598390102386475,0.588848888874054
1774472703744427800,9.370427734375,-1.2649993896484375,-0.26380154490470886,0.5973467826843262
1774472703754445800,9.38044580078125,-1.2230859994888306,-0.20298373699188232,0.610296368598938
1774472703764463900,9.3904638671875,-1.158867359161377,-0.1585899144411087,0.6100274324417114
1774472703774481700,9.400481689453125,-1.083493709564209,-0.1998816877603531,0.5950844287872314
1774472703784500700,9.410500732421875,-1.0112334489822388,-0.2899700403213501,0.5525696873664856
1774472703794518800,9.420518798828125,-0.9453430771827698,-0.3464157283306122,0.4735417366027832
1774472703804536800,9.430536865234375,-0.8769286274909973,-0.34582212567329407,0.3715037703514099
1774472703814554600,9.4405546875,-0.8095490336418152,-0.3581030070781708,0.24137267470359802
1774472703824573000,9.450572998046875,-0.7370998859405518,-0.40024036169052124,0.10325022041797638
1774472703834591000,9.460591064453125,-0.6618636846542358,-0.3784034848213196,0.003308977698907256
1774472703844608800,9.47060888671875,-0.5804013609886169,-0.32305634021759033,-0.062129683792591095
1774472703854626800,9.480626708984374,-0.5018317103385925,-0.28526341915130615,-0.09268412739038467
1774472703864644900,9.490644775390624,-0.4318952262401581,-0.25671035051345825,-0.10249574482440948
1774472703874663000,9.500662841796874,-0.3892718553543091,-0.2097095549106598,-0.11577267199754715
1774472703884680700,9.5106806640625,-0.36261922121047974,-0.17099304497241974,-0.16943217813968658
1774472703894699800,9.52069970703125,-0.356481671333313,-0.12957610189914703,-0.24104030430316925
1774472703904717600,9.530717529296876,-0.36560940742492676,-0.16141365468502045,-0.245278999209404
1774472703914735900,9.54073583984375,-0.3843138515949249,-0.22710612416267395,-0.20345325767993927
1774472703924754000,9.55075390625,-0.3992706835269928,-0.25158190727233887,-0.15643461048603058
1774472703934771700,9.560771728515626,-0.41151484847068787,-0.20818489789962769,-0.11622168123722076
1774472703944789800,9.570789794921875,-0.4232439398765564,-0.12887968122959137,-0.07872037589550018
1774472703954807800,9.580807861328125,-0.42107266187667847,-0.08475430309772491,-0.046656183898448944
1774472703964825900,9.590825927734375,-0.40188273787498474,-0.11601848155260086,-0.02003948763012886
1774472703974843600,9.60084375,-0.38281476497650146,-0.1643998622894287,-0.006455768831074238
1774472703984862500,9.610862548828125,-0.3662126064300537,-0.16467922925949097,-0.015957660973072052
1774472703994880500,9.620880615234375,-0.3387807309627533,-0.11331696808338165,-0.032046083360910416
1774472704004899600,9.630899658203125,-0.3089599609375,-0.04115276411175728,-0.04697922617197037
1774472704014917600,9.640917724609375,-0.26912254095077515,0.016828248277306557,-0.05627179518342018
1774472704024935400,9.650935302734375,-0.2223755419254303,0.02340545691549778,-0.06701844930648804
1774472704034953500,9.660953369140625,-0.18288059532642365,-0.02401159331202507,-0.08253056555986404
1774472704044971500,9.670971435546875,-0.16126905381679535,-0.08273216336965561,-0.11054036021232605
1774472704054989600,9.680989501953125,-0.15116527676582336,-0.1215224340558052,-0.14955966174602509
1774472704065007400,9.69100732421875,-0.15904025733470917,-0.127544105052948,-0.18109868466854095
1774472704075025700,9.701025634765625,-0.1670084297657013,-0.11233346909284592,-0.20479655265808105
1774472704085043500,9.71104345703125,-0.17068278789520264,-0.07875100523233414,-0.20778915286064148
1774472704095061500,9.7210615234375,-0.17240585386753082,-0.06265166401863098,-0.19531357288360596
1774472704105079300,9.731079345703124,-0.17210465669631958,-0.06637529283761978,-0.1653255820274353
1774472704115097600,9.74109765625,-0.1908181607723236,-0.08807553350925446,-0.11784034967422485
1774472704125116700,9.75111669921875,-0.20792363584041595,-0.12061483412981033,-0.05932430922985077
1774472704135134500,9.761134521484376,-0.24138624966144562,-0.15643247961997986,-0.013948306441307068
1774472704145152500,9.771152587890626,-0.2952103316783905,-0.19286160171031952,0.031915854662656784
1774472704155170600,9.781170654296876,-0.362489253282547,-0.2110310196876526,0.08790748566389084
1774472704165188600,9.791188720703126,-0.42943045496940613,-0.15871134400367737,0.15058603882789612
1774472704175206400,9.801206298828125,-0.4796944260597229,-0.038544729351997375,0.21793685853481293
1774472704185224400,9.811224365234375,-0.5182482004165649,0.11063569784164429,0.28526556491851807
1774472704195242500,9.821242431640625,-0.5417293310165405,0.27829447388648987,0.3490237593650818
1774472704205260500,9.831260498046875,-0.5552834868431091,0.4141516387462616,0.40938830375671387
1774472704215278300,9.8412783203125,-0.5605221390724182,0.5113783478736877,0.46801939606666565
1774472704225296400,9.85129638671875,-0.5544195175170898,0.5683364272117615,0.5345789790153503
1774472704235315500,9.8613154296875,-0.5387710928916931,0.5834059119224548,0.5983571410179138
1774472704245333500,9.87133349609375,-0.5205177664756775,0.5735793709754944,0.6524286270141602
1774472704255351600,9.8813515625,-0.496608167886734,0.5416321158409119,0.7004963159561157
1774472704265369300,9.891369384765625,-0.4645487666130066,0.47911280393600464,0.7399630546569824
1774472704275387600,9.9013876953125,-0.43114686012268066,0.41602542996406555,0.77474045753479
1774472704285405400,9.911405517578125,-0.398724228143692,0.3280654847621918,0.7985211610794067
1774472704295423500,9.921423583984375,-0.3630455732345581,0.17336459457874298,0.761884868144989
1774472704305441500,9.931441650390624,-0.3411373496055603,0.050522029399871826,0.7438035607337952
1774472704315459600,9.94145947265625,-0.33065569400787354,-0.024418789893388748,0.7362511157989502
1774472704325477600,9.9514775390625,-0.3191787898540497,-0.08311592787504196,0.7222069501876831
1774472704335495400,9.961495361328126,-0.31170836091041565,-0.11716630309820175,0.6797561645507812
1774472704345514500,9.971514404296874,-0.3062573969364166,-0.12273550778627396,0.6075541377067566
1774472704355532300,9.9815322265625,-0.2954598665237427,-0.10312425345182419,0.5200021862983704
1774472704365550600,9.991550537109376,-0.27888089418411255,-0.07716882228851318,0.4236133098602295
1774472704375568400,10.001568359375,-0.2608715295791626,-0.04550942778587341,0.317999005317688
1774472704385586400,10.01158642578125,-0.2482316493988037,-0.008552475832402706,0.2147919237613678
1774472704395604700,10.021604736328126,-0.24968652427196503,-0.0002069276088150218,0.11809547990560532
1774472704405622500,10.03162255859375,-0.2565305829048157,0.0007153250626288354,0.03922756388783455
1774472704415640600,10.041640625,-0.2680215835571289,0.006658435333520174,-0.020982779562473297
1774472704425658400,10.051658447265625,-0.27375510334968567,-0.006244846619665623,-0.06298349052667618
1774472704435676700,10.0616767578125,-0.28813672065734863,-0.031860195100307465,-0.10316606611013412
1774472704445694500,10.071694580078125,-0.30700281262397766,-0.03899160772562027,-0.14203916490077972
1774472704455713500,10.081713623046875,-0.32925593852996826,-0.03269349783658981,-0.16606487333774567
1774472704465731600,10.091731689453125,-0.3617960214614868,-0.02863723784685135,-0.16906172037124634
1774472704475749400,10.101749267578125,-0.3998368978500366,-0.018028002232313156,-0.15144890546798706
1774472704485767700,10.111767578125,-0.43620288372039795,0.0024828650057315826,-0.13021047413349152
1774472704495785500,10.121785400390625,-0.4687456488609314,0.01866103522479534,-0.09792230278253555
1774472704505803500,10.131803466796875,-0.4936824142932892,-0.008216917514801025,-0.05405071750283241
1774472704515821600,10.141821533203125,-0.5100893378257751,-0.04280046001076698,-0.004002997186034918
1774472704525839600,10.151839599609374,-0.5268784761428833,-0.04369714856147766,0.03973755985498428
1774472704535857400,10.161857421875,-0.5475088953971863,-0.013400227762758732,0.07759945094585419
1774472704545875500,10.17187548828125,-0.579590916633606,0.057728011161088943,0.11866939067840576
1774472704555893500,10.1818935546875,-0.6192765831947327,0.15838004648685455,0.16010764241218567
1774472704565912600,10.19191259765625,-0.6599683165550232,0.27772510051727295,0.20057916641235352
1774472704575930600,10.2019306640625,-0.6956746578216553,0.4189876616001129,0.2446209341287613
1774472704585948400,10.211948486328126,-0.7189709544181824,0.5932859778404236,0.2935352027416229
1774472704595966500,10.221966552734376,-0.7214274406433105,0.7973371148109436,0.34198981523513794
1774472704605984500,10.231984619140626,-0.7065584659576416,0.9536590576171875,0.39412492513656616
1774472704616002600,10.24200244140625,-0.6710806488990784,1.0622726678848267,0.4445897042751312
1774472704626020400,10.252020263671875,-0.6163276433944702,1.1363346576690674,0.4827040731906891
1774472704636038700,10.26203857421875,-0.546418309211731,1.141972541809082,0.5023906826972961
1774472704646056400,10.272056396484375,-0.46225738525390625,1.0958316326141357,0.5218485593795776
1774472704656074500,10.282074462890625,-0.3688507378101349,1.0321930646896362,0.5158103704452515
1774472704666092300,10.29209228515625,-0.2573132812976837,0.8773983716964722,0.4808694124221802
1774472704676111400,10.302111328125,-0.1649114489555359,0.7154585123062134,0.516821026802063
1774472704686129700,10.312129638671875,-0.088502436876297,0.5332071781158447,0.5412802696228027
1774472704696147500,10.3221474609375,-0.03419205918908119,0.3248944580554962,0.5634055733680725
1774472704706165500,10.33216552734375,-0.016636766493320465,0.13057105243206024,0.5774063467979431
1774472704716183300,10.342183349609375,-0.024339960888028145,-0.03241546452045441,0.5653722882270813
1774472704726201600,10.35220166015625,-0.058096058666706085,-0.16585394740104675,0.526393473148346
1774472704736219400,10.362219482421875,-0.10235806554555893,-0.2682783305644989,0.45662665367126465
1774472704746237400,10.372237548828124,-0.1416090577840805,-0.31584638357162476,0.3517377972602844
1774472704756255500,10.38225537109375,-0.17725414037704468,-0.30657485127449036,0.2336535006761551
1774472704766273500,10.3922734375,-0.19350261986255646,-0.268685519695282,0.12099193781614304
1774472704776291600,10.40229150390625,-0.19241951406002045,-0.21929879486560822,0.022607574239373207
1774472704786310400,10.412310302734374,-0.1817825734615326,-0.14673803746700287,-0.06361972540616989
1774472704796328400,10.422328369140626,-0.16891178488731384,-0.0687393844127655,-0.14368872344493866
1774472704806346500,10.432346435546876,-0.1601441353559494,0.011836685240268707,-0.2191041260957718
1774472704816364500,10.442364501953126,-0.14801210165023804,0.0924266055226326,-0.2905940115451813
1774472704826382300,10.45238232421875,-0.13683614134788513,0.171119824051857,-0.3506065011024475
1774472704836400400,10.462400390625,-0.12818273901939392,0.23449718952178955,-0.39559420943260193
1774472704846418700,10.472418701171875,-0.11723421514034271,0.28789809346199036,-0.4236109256744385
1774472704856436500,10.4824365234375,-0.09916359931230545,0.32788997888565063,-0.4346103072166443
1774472704866454500,10.49245458984375,-0.07724179327487946,0.3583086133003235,-0.42478376626968384
1774472704876472600,10.50247265625,-0.05402887985110283,0.3512355387210846,-0.39067134261131287
1774472704886490600,10.51249072265625,-0.03357607126235962,0.2777024507522583,-0.3287299573421478
1774472704896509400,10.522509521484375,-0.018955048173666,0.1918243020772934,-0.25612524151802063
1774472704906527500,10.532527587890625,0.002785133896395564,0.13622601330280304,-0.1841392070055008
1774472704916545300,10.542545166015625,0.03803766146302223,0.10845749825239182,-0.1215251013636589
1774472704926563600,10.5525634765625,0.10196870565414429,0.1178446114063263,-0.07121053338050842
1774472704936581600,10.56258154296875,0.1932016760110855,0.14884833991527557,-0.03910612314939499
1774472704946599400,10.572599365234375,0.25333505868911743,0.22019335627555847,-0.042276617139577866
1774472704956617500,10.582617431640625,0.3072470426559448,0.2256709486246109,-0.08227836340665817
1774472704966635500,10.592635498046874,0.4018116295337677,0.18927618861198425,-0.12330968677997589
1774472704976653600,10.602653564453124,0.49246323108673096,0.2123628556728363,-0.08636977523565292
1774472704986670600,10.612670654296876,0.5842272043228149,0.25812023878097534,-0.00042796999332495034
1774472704996688600,10.622688720703126,0.6880409717559814,0.28463733196258545,0.08760575205087662
1774472705006707500,10.63270751953125,0.7532128095626831,0.287811279296875,0.09932845085859299
1774472705016725500,10.6427255859375,0.7757665514945984,0.23425431549549103,0.06310120224952698
1774472705026743300,10.652743408203126,0.793423593044281,0.14577025175094604,0.04169951006770134
1774472705036761600,10.66276171875,0.8451603055000305,0.0660591796040535,0.05085891857743263
1774472705046779400,10.672779296875,0.9412825703620911,0.045993588864803314,0.07787908613681793
1774472705056797400,10.68279736328125,1.0561034679412842,0.06814443320035934,0.13099130988121033
1774472705066815500,10.6928154296875,1.2130155563354492,0.08167355507612228,0.17893485724925995
1774472705076833500,10.70283349609375,1.4178643226623535,0.08567442744970322,0.21713897585868835
1774472705086851600,10.7128515625,1.6222070455551147,0.07553603500127792,0.2785831689834595
1774472705096869400,10.722869384765625,1.7782787084579468,0.03428740054368973,0.35661885142326355
1774472705106888400,10.732888427734375,1.855697512626648,-0.1148269847035408,0.37921229004859924
1774472705116906500,10.742906494140625,1.9199562072753906,-0.40682661533355713,0.47438275814056396
1774472705126924500,10.752924560546875,1.8374296426773071,-0.6689061522483826,0.6400185823440552
1774472705136942300,10.7629423828125,1.5666310787200928,-0.8222110271453857,0.6668153405189514
1774472705146960400,10.77296044921875,1.415381908416748,-0.8699378371238708,0.573528528213501
1774472705156978700,10.782978759765625,1.3461402654647827,-0.8002554178237915,0.36234810948371887
1774472705166996500,10.79299658203125,1.3963779211044312,-0.5355241298675537,0.10257510840892792
1774472705177014500,10.8030146484375,1.5578975677490234,-0.07436637580394745,-0.12056076526641846
1774472705187032600,10.813032470703124,1.7103140354156494,0.49800047278404236,-0.30762627720832825
1774472705197050600,10.823050537109374,1.9222619533538818,1.0069146156311035,-0.492352694272995
1774472705215835600,10.841835693359375,2.319098949432373,1.4518581628799438,-0.8212994337081909
1774472705225853400,10.851853515625,2.395932197570801,1.1817550659179688,-0.9988777041435242
1774472705235871500,10.86187158203125,2.3730218410491943,0.5628034472465515,-1.1430598497390747
1774472705245889500,10.8718896484375,2.271699905395508,-0.23102469742298126,-1.2397632598876953
1774472705255907600,10.881907470703124,2.101945161819458,-1.0080384016036987,-1.2813786268234253
1774472705265925400,10.89192529296875,1.921815276145935,-1.5031049251556396,-1.2368460893630981
1774472705275943400,10.901943359375,1.7307924032211304,-1.660902500152588,-1.1364758014678955
1774472705285961500,10.91196142578125,1.553750991821289,-1.5321767330169678,-1.0198132991790771
1774472705295979500,10.9219794921875,1.3585615158081055,-1.2049627304077148,-0.9003756046295166
1774472705305997600,10.93199755859375,1.1705242395401,-0.8282217979431152,-0.7349163293838501
1774472705316015400,10.942015380859376,0.9692862629890442,-0.46329042315483093,-0.5521329641342163
1774472705326034400,10.952034423828126,0.7588227391242981,-0.11250417679548264,-0.35370588302612305
1774472705336052500,10.962052490234376,0.5155536532402039,0.23325829207897186,-0.22757136821746826
1774472705346070500,10.972070556640626,0.26982802152633667,0.3370611071586609,-0.10039158165454865
1774472705356088300,10.98208837890625,0.08771254122257233,0.3938298523426056,0.04108458757400513
1774472705366106600,10.992106689453125,-0.01798565872013569,0.5202322602272034,0.12385004013776779
1774472705376124700,11.002124755859375,-0.02743109129369259,0.6766762137413025,0.1513274759054184
1774472705386142500,11.012142578125,0.04469343647360802,0.7955754399299622,0.1619606763124466
1774472705396160500,11.022160400390625,0.18207420408725739,0.8680139183998108,0.17762964963912964
1774472705406178600,11.032178466796875,0.34923255443573,0.9086412787437439,0.19719216227531433
1774472705416196600,11.042196533203125,0.5113096237182617,0.9473788142204285,0.20315711200237274
1774472705426214400,11.05221435546875,0.656094491481781,0.9914711713790894,0.17394809424877167
1774472705436233500,11.0622333984375,0.759195864200592,0.9793777465820312,0.11103837192058563
1774472705446251500,11.07225146484375,0.8251532912254333,0.9132133722305298,0.03296061232686043
1774472705456269600,11.08226953125,0.8860430121421814,0.8272558450698853,-0.05729205161333084
1774472705466287600,11.09228759765625,0.931136429309845,0.7838883996009827,-0.13030794262886047
1774472705476305400,11.102305419921874,0.977894127368927,0.7466813921928406,-0.15928658843040466
1774472705486323700,11.11232373046875,1.0098999738693237,0.6537823677062988,-0.17109104990959167
1774472705496341500,11.122341552734374,1.030436396598816,0.5191597938537598,-0.169102743268013
1774472705506359600,11.132359619140624,1.0433902740478516,0.343624472618103,-0.16409440338611603
1774472705516377300,11.14237744140625,1.0568840503692627,0.15010854601860046,-0.15644820034503937
1774472705526395600,11.152395751953126,1.0571482181549072,-0.02847185544669628,-0.13174471259117126
1774472705536413400,11.162413330078126,1.0415364503860474,-0.1875925362110138,-0.09031285345554352
1774472705546432500,11.1724326171875,1.0085004568099976,-0.3227711319923401,-0.025771142914891243
1774472705556450600,11.182450439453126,0.9641596674919128,-0.3973740041255951,0.04531022533774376
1774472705566468400,11.19246826171875,0.9171335697174072,-0.3821766674518585,0.11807257682085037
1774472705576486700,11.202486572265625,0.8826586604118347,-0.3037028908729553,0.18151973187923431
1774472705586504400,11.21250439453125,0.8419298529624939,-0.22576841711997986,0.2156960666179657
1774472705596522500,11.2225224609375,0.7934443950653076,-0.16100512444972992,0.23990847170352936
1774472705606540500,11.23254052734375,0.6631782650947571,-0.0884784683585167,0.2622241675853729
1774472705616558600,11.24255859375,0.5493789911270142,-0.10188375413417816,0.30642783641815186
1774472705626576400,11.252576416015625,0.5364232063293457,-0.2271045297384262,0.3541836440563202
1774472705636594400,11.262594482421875,0.5347148180007935,-0.3425554931163788,0.39521896839141846
1774472705646612500,11.272612548828125,0.49284830689430237,-0.3789348006248474,0.41869020462036133
1774472705656631600,11.282631591796875,0.4692407250404358,-0.38559243083000183,0.41306987404823303
1774472705666649600,11.292649658203125,0.5003634691238403,-0.3834773600101471,0.40124940872192383
1774472705676667400,11.30266748046875,0.6085700988769531,-0.3670419156551361,0.3957936763763428
1774472705686685400,11.312685546875,0.7546040415763855,-0.3333665132522583,0.3850283622741699
1774472705696703500,11.322703369140624,0.8455496430397034,-0.2137189358472824,0.3986741602420807
1774472705706721500,11.332721435546874,0.9326432943344116,-0.014867895282804966,0.43045976758003235
1774472705716739300,11.3427392578125,0.8803710341453552,0.16759192943572998,0.36943289637565613
1774472705726757600,11.352757568359374,0.7389483451843262,0.28713616728782654,0.25217205286026
1774472705736775400,11.362775390625,0.5324745774269104,0.4229635000228882,0.11728881299495697
1774472705746793500,11.37279345703125,0.3699711263179779,0.510166347026825,-0.016467923298478127
1774472705756811500,11.3828115234375,0.2971414029598236,0.5890600681304932,-0.15750227868556976
1774472705766830300,11.392830322265626,0.34529322385787964,0.7547731399536133,-0.28065136075019836
1774472705776848600,11.4028486328125,0.4518372416496277,0.8000380992889404,-0.42710551619529724
1774472705786866400,11.412866455078126,0.5696991682052612,0.6277493834495544,-0.593934178352356
1774472705796884500,11.422884521484375,0.6534262895584106,0.3449627161026001,-0.7479591965675354
1774472705806902500,11.432902587890625,0.7097902297973633,-0.016415191814303398,-0.9106490015983582
1774472705816920600,11.442920654296875,0.8355542421340942,-0.44878312945365906,-1.0475765466690063
1774472705826938400,11.4529384765625,0.9628581404685974,-0.8432998061180115,-1.1765196323394775
1774472705836956400,11.462956298828125,1.0224748849868774,-1.031019926071167,-1.2560391426086426
1774472705846974700,11.472974609375,1.0601292848587036,-1.0038173198699951,-1.241869568824768
1774472705856992500,11.482992431640625,1.0687252283096313,-0.8636205196380615,-1.1734976768493652
1774472705867010600,11.493010498046875,1.0858349800109863,-0.6537283062934875,-1.0572935342788696
1774472705877029400,11.503029296875,1.1291874647140503,-0.34331050515174866,-0.8574159145355225
1774472705887047400,11.51304736328125,1.2710964679718018,0.08591890335083008,-0.5815467834472656
1774472705897065500,11.5230654296875,1.491140604019165,0.20528444647789001,-0.4538162350654602
1774472705907083500,11.53308349609375,1.47969388961792,-0.1649114489555359,-0.5392187237739563
1774472705917101600,11.5431015625,1.4338812828063965,-0.3846089243888855,-0.609984815120697
1774472705927119600,11.55311962890625,1.4476817846298218,-0.3349151313304901,-0.5921155214309692
1774472705937137700,11.5631376953125,1.4433273077011108,-0.10342705249786377,-0.49849316477775574
1774472705947155500,11.573155517578124,1.3953890800476074,0.053154297173023224,-0.3842363655567169
1774472705957173500,11.583173583984374,1.312799334526062,0.07667720317840576,-0.2955656051635742
1774472705967191600,11.593191650390626,1.2236160039901733,0.030175745487213135,-0.2538626194000244
1774472705977210600,11.603210693359374,1.1199817657470703,0.06507913768291473,-0.18428994715213776
1774472705987228700,11.613228759765626,1.0076054334640503,0.08437933027744293,-0.06398457288742065
1774472705997246500,11.62324658203125,0.8934098482131958,0.09544183313846588,0.07792169600725174
1774472706007264500,11.633264404296876,0.7770001292228699,0.10592137277126312,0.20751138031482697
1774472706017282600,11.643282470703125,0.6449704766273499,0.1690196543931961,0.31236669421195984
1774472706027300600,11.653300537109375,0.5012140870094299,0.2738935947418213,0.37499865889549255
1774472706037318400,11.663318359375,0.3489103317260742,0.2820705771446228,0.42054376006126404
1774472706047336700,11.673336669921875,0.23903627693653107,0.22513778507709503,0.44078192114830017
1774472706057354500,11.6833544921875,0.18716323375701904,0.17622403800487518,0.44030892848968506
1774472706067372500,11.69337255859375,0.1904306709766388,0.13012205064296722,0.4212729334831238
1774472706077390300,11.703390380859375,0.2301165610551834,0.12760695815086365,0.3930079936981201
1774472706087408600,11.71340869140625,0.2743538022041321,0.24104590713977814,0.37578028440475464
1774472706097427700,11.723427734375,0.32446756958961487,0.3665452301502228,0.36429911851882935
1774472706107445500,11.733445556640625,0.36887016892433167,0.4739944636821747,0.344817578792572
1774472706117463600,11.743463623046875,0.4201192557811737,0.5222248435020447,0.31569644808769226
1774472706127481300,11.7534814453125,0.5016015768051147,0.520039439201355,0.2866341471672058
1774472706137499600,11.763499755859375,0.5615570545196533,0.5153672099113464,0.2418999820947647
1774472706147517400,11.773517333984374,0.5785408616065979,0.4820209741592407,0.19299182295799255
1774472706157535500,11.783535400390624,0.5956791043281555,0.37284255027770996,0.17892740666866302
1774472706167553500,11.793553466796874,0.6599435806274414,0.27782201766967773,0.19860151410102844
1774472706177571600,11.803571533203124,0.72565096616745,0.2503153085708618,0.2443903088569641
1774472706187589600,11.813589599609376,0.7708184123039246,0.25087589025497437,0.30062639713287354
1774472706197608400,11.8236083984375,0.7687251567840576,0.32499247789382935,0.31600430607795715
1774472706207626500,11.83362646484375,0.7737358808517456,0.31139543652534485,0.264985054731369
1774472706217644500,11.84364453125,0.8173771500587463,0.15316452085971832,0.20146094262599945
1774472706227662600,11.85366259765625,0.9074822664260864,-0.06379229575395584,0.1559227555990219
1774472706237680400,11.863680419921875,1.0470577478408813,-0.2262973189353943,0.13043737411499023
1774472706247698400,11.873698486328125,1.233728051185608,-0.3293240964412689,0.09175601601600647
1774472706257716700,11.883716796875,1.4113401174545288,-0.34485378861427307,0.05434339866042137
1774472706267734500,11.893734619140625,1.5596201419830322,-0.3062478005886078,0.03514307364821434
1774472706277752600,11.903752685546875,1.6477371454238892,-0.1767931431531906,0.06647835671901703
1774472706287770600,11.9137705078125,1.692865252494812,-0.016634104773402214,0.12631505727767944
1774472706297788700,11.92378857421875,1.7022427320480347,0.16250315308570862,0.17124392092227936
1774472706307807500,11.933807373046875,1.6519694328308105,0.41393032670021057,0.13210690021514893
1774472706317825500,11.943825439453125,1.520275592803955,0.5952631235122681,0.06268575042486191
1774472706327843300,11.95384326171875,1.4349085092544556,0.7500407099723816,0.03743845224380493
1774472706337861600,11.963861572265625,1.3551838397979736,0.9555842876434326,0.07389818876981735
1774472706347879700,11.973879638671875,1.2691630125045776,1.057390570640564,0.1414996087551117
1774472706357897500,11.9838974609375,1.1925501823425293,1.0717766284942627,0.19880923628807068
1774472706367915500,11.99391552734375,1.1198598146438599,1.1262964010238647,0.2312806248664856
1774472706377933600,12.00393359375,1.0305826663970947,1.300602912902832,0.2664031982421875
1774472706387951600,12.01395166015625,0.9277246594429016,1.4290176630020142,0.29474854469299316
1774472706397969400,12.023969482421874,0.828614354133606,1.4273126125335693,0.2903473973274231
1774472706407987700,12.03398779296875,0.7642372250556946,1.4127342700958252,0.24719993770122528
1774472706418006800,12.0440068359375,0.7412874102592468,1.368687391281128,0.14648078382015228
1774472706428024600,12.054024658203126,0.7432493567466736,1.3969731330871582,0.00788455456495285
1774472706438042600,12.064042724609376,0.7907034158706665,1.5781258344650269,-0.15341299772262573
1774472706448060400,12.074060302734376,0.8698973059654236,1.7872114181518555,-0.3101416230201721
1774472706458078700,12.08407861328125,0.9650587439537048,1.9052938222885132,-0.4469090402126312
1774472706468096500,12.094096435546875,1.0589516162872314,1.9088026285171509,-0.5848426818847656
1774472706478114600,12.104114501953125,1.1559929847717285,1.8915876150131226,-0.7032217979431152
1774472706488132400,12.11413232421875,1.2602459192276,1.8538621664047241,-0.7791708707809448
1774472706498150700,12.124150634765625,1.346567988395691,1.7127670049667358,-0.7913910746574402
1774472706508168400,12.13416845703125,1.4111483097076416,1.5544215440750122,-0.7871968746185303
1774472706518186500,12.1441865234375,1.4643415212631226,1.396982192993164,-0.8013145327568054
1774472706528205600,12.15420556640625,1.5289769172668457,1.2068705558776855,-0.8299983739852905
1774472706538223600,12.1642236328125,1.5864192247390747,0.9718561768531799,-0.8369747996330261
1774472706548241700,12.17424169921875,1.6104155778884888,0.6662662029266357,-0.8231534957885742
1774472706558259500,12.184259521484375,1.6229761838912964,0.2782593071460724,-0.8005603551864624
1774472706568277500,12.194277587890625,1.6219401359558105,-0.07997073233127594,-0.7574216723442078
1774472706578295600,12.204295654296875,1.5898107290267944,-0.3699716627597809,-0.6853706240653992
1774472706588313600,12.214313720703124,1.5293996334075928,-0.6230619549751282,-0.6280149221420288
1774472706598331400,12.224331298828124,1.4493769407272339,-0.8896052241325378,-0.6000258922576904
1774472706608349400,12.234349365234374,1.4065362215042114,-1.1040674448013306,-0.582267701625824
1774472706618367500,12.244367431640624,1.4015170335769653,-1.1548302173614502,-0.5294193625450134
1774472706628386600,12.254386474609374,1.4320964813232422,-1.206181287765503,-0.4569222629070282
1774472706638404600,12.264404541015624,1.4786189794540405,-1.2543128728866577,-0.3767233192920685
1774472706648422400,12.27442236328125,1.507648229598999,-1.3030344247817993,-0.29231786727905273
1774472706658440700,12.284440673828126,1.5264583826065063,-1.4076052904129028,-0.20925548672676086
1774472706668458500,12.29445849609375,1.5590251684188843,-1.4763704538345337,-0.1116410419344902
1774472706678476500,12.3044765625,1.5750195980072021,-1.3587666749954224,0.01013652328401804
1774472706688494300,12.314494384765625,1.5490928888320923,-1.1381540298461914,0.15609505772590637
1774472706698512600,12.3245126953125,1.4344706535339355,-0.9591965675354004,0.2878251373767853
1774472706708530400,12.334530517578125,1.3879750967025757,-0.8290010094642639,0.3511494994163513
1774472706718548500,12.344548583984375,1.3296045064926147,-0.6452668905258179,0.39018744230270386
1774472706728566500,12.35456640625,1.347601294517517,-0.5043119192123413,0.4378194212913513
1774472706738584600,12.36458447265625,1.392883062362671,-0.3852861821651459,0.5165677666664124
1774472706748603600,12.374603759765625,1.412248969078064,-0.3176722526550293,0.6228571534156799
1774472706758621400,12.384621337890625,1.4346702098846436,-0.26504871249198914,0.7398056387901306
1774472706768639500,12.394639404296875,1.4552761316299438,-0.2502484619617462,0.8019630312919617
1774472706778657500,12.404657470703125,1.3914002180099487,-0.2898366153240204,0.7816481590270996
1774472706788675600,12.414675537109375,1.2387981414794922,-0.3305845856666565,0.7024886012077332
1774472706798693600,12.424693603515625,1.012937068939209,-0.28305619955062866,0.6228907108306885
1774472706808711400,12.43471142578125,0.7973461747169495,-0.20930156111717224,0.5419468879699707
1774472706818729700,12.444729736328124,0.5966088175773621,-0.1577528715133667,0.46603748202323914
1774472706828747500,12.45474755859375,0.4425225555896759,-0.1410577893257141,0.36050093173980713
1774472706838765600,12.464765625,0.3159840703010559,-0.1527930051088333,0.2374279946088791
1774472706848784400,12.474784423828124,0.2116512656211853,-0.16044799983501434,0.17666718363761902
1774472706858802400,12.484802490234374,0.10151650756597519,-0.25482696294784546,0.242365762591362
1774472706868820500,12.494820556640626,0.07812675833702087,-0.46126243472099304,0.2469959408044815
1774472706878838500,12.504838623046876,0.19119977951049805,-0.6990464925765991,0.16571280360221863
