time,seconds_elapsed,accel_x,accel_y,accel_z,gyro_x,gyro_y,gyro_z
1774469811067126300,0.061126220703125,-0.0374181687682867,-0.0048763738647103,-0.0237618925279937,-0.0028018276207149,0.0540585443377494,9.27557703107e-05
1774469811077142300,0.071142333984375,-0.0204389769166708,-0.0311522402413189,8.767828345298767e-07,-0.0018292411696165,0.0640318170189857,-0.0023347155656665
1774469811087158300,0.081158203125,-0.051787470382452,-0.0125124217011034,-0.0200676228536292,-0.0027969437651336,0.075107030570507,-0.0013133896281942
1774469811097174500,0.091174560546875,0.021885668593645,0.0181447284996509,0.0263049463406205,0.002705946099013,0.0709591507911682,-0.0026047565042972
1774469811107190300,0.101190185546875,0.0961187795400619,0.0447971731036901,0.0976498067659325,0.0062379632145166,0.0534640252590179,-0.0102789094671607
1774469811117206300,0.111206298828125,0.1151987430632114,0.1180009410023689,0.1373353542106226,0.0132170440629124,0.0469054616987705,-0.019755769520998
1774469811127222300,0.12122216796875,0.1095885019659995,0.135395727917552,0.1548495297217741,0.0286623612046241,0.0327276736497879,-0.0228836331516504
1774469811137238300,0.13123828125,0.046123453271389,0.1258876025989651,0.1433417367522604,0.0308493487536907,0.021098181605339,-0.022638889029622
1774469811147254300,0.141254150390625,-0.0444943907648324,0.1093438795551657,0.0407475689193233,0.0366714522242546,0.0084081077948212,-0.0135519746690988
1774469811157271300,0.151271240234375,-0.0807072753965854,-0.0182151633873581,-0.0444503141610883,0.0325006768107414,0.0019305010791867,-0.0058940546587109
1774469811167287300,0.161287353515625,0.0707271486520767,-0.2034906283698976,-0.1615393096840009,0.0212017130106687,-0.0075776549056172,-0.0086784716695547
1774469811177303300,0.17130322265625,0.1036748940080404,-0.34513796402812,-0.2797217082004994,0.0035121997352689,-0.016918160021305,-0.0042070234194397
1774469811187319300,0.1813193359375,0.0855804343909025,-0.3059260437108576,-0.3380518782246857,-0.0105345603078603,-0.0134063027799129,-0.0095371017232537
1774469811197335300,0.191335205078125,0.0113724578857421,0.0670601505771279,-0.0148732142820023,-0.0072812428697943,-0.0022370049264281,-0.0148394554853439
1774469811207351300,0.201351318359375,-0.1440086579620838,0.0358846755906939,0.1632761982128955,-0.0007194851059466,-0.0173991695046424,0.0066455621272325
1774469811217367300,0.2113671875,-0.0675923577576875,-0.0298914265252649,0.0300927760499529,-0.0023251050151884,-0.0115649830549955,-0.002825970062986
1774469811227383300,0.22138330078125,0.0799275231957435,-0.0190992527455091,-0.0672115600128658,-0.0029571461491286,0.0051626302301883,-0.007191062439233
1774469811237399300,0.2313994140625,-0.0278828631818294,-0.0261743056982755,-0.054218697851058,-0.0037635513581335,0.0189181230962276,-0.0026232083328068
1774469811247415300,0.241415283203125,-0.104818803346157,-0.0081660630598664,-0.0610004852119833,-0.0106375142931938,0.0194787625223398,-0.0006888925563544
1774469811257431300,0.251431396484375,0.0077045830279588,-0.0066549278445541,0.0549924952351488,-0.002257612068206,0.0135614834725856,-0.0036524583119899
1774469811267448300,0.2614482421875,0.0821551361173391,0.0009511632449924,0.1180270252916961,0.0018649559933692,0.0040564080700278,-0.0069912960752844
1774469811277464300,0.27146435546875,0.0469429529607295,0.0004794540800154,0.0451790120281279,0.0035225076135247,-0.000575095647946,-0.0019158443901687
1774469811287480300,0.281480224609375,-0.0546995584368705,0.0009209142372012,0.0003601750819012,0.0030088569037616,0.0116719529032707,0.0052524916827678
1774469811297496300,0.291496337890625,-0.0602034165501594,-0.0235087397508323,-0.0038629407721571,0.002061836887151,0.0181820504367351,0.0019978422205895
1774469811307512300,0.30151220703125,-0.0131149176388978,-0.0536899430029094,-0.0031171639061532,0.002410220215097,0.021087396889925,-0.0027183638885617
1774469811317528300,0.3115283203125,0.0111076694697141,-0.0131263158157467,-0.0326603797819465,0.0001318859867751,0.0288150906562805,0.002679597120732
1774469811327544300,0.32154443359375,0.0204430685698986,0.016807342416048,-0.0445011310328729,0.0001192423515021,0.0249481368809938,0.0014047857839614
1774469811337560300,0.331560302734375,0.0247281985431909,-0.0342164501175284,0.0052368960064835,-0.0023660194128751,0.0264024883508682,0.0001925148535519
1774469811347576300,0.341576416015625,-0.0077846625268459,-0.0600067249342799,-0.0014928506399504,-0.0033949383068829,0.0204277317970991,-0.003363115247339
1774469811357592300,0.35159228515625,0.028312486770749,-0.0261427415162324,0.0067594841975718,-0.0033267613034695,0.0291581060737371,-0.0062632975168526
1774469811367608300,0.3616083984375,-0.0097907416522502,-0.0164160050109028,0.0562836858231574,-0.003031333675608,0.0408096499741077,-0.0067642661742866
1774469811377625300,0.371625244140625,-0.0181985045135021,-0.0093660864993929,0.0282647934378124,-0.0059666698798537,0.046770866960287,-0.0156432464718818
1774469811387641000,0.38164111328125,0.050420273682475,0.0024216741889715,0.0384038918700069,-0.0100451232865452,0.0741871148347854,-0.0308549590408802
1774469811397657300,0.3916572265625,-0.0443307246357202,-0.0533927136220037,0.0188163258845917,-0.019425043836236,0.0801339522004127,-0.0267992336302995
1774469811407673300,0.40167333984375,-0.0393570278763771,-0.1098658576026558,0.0231534783060662,-0.0440170876681804,0.0605467297136783,-0.0252621322870254
1774469811417689300,0.411689453125,0.3575853576689958,-0.2092619052477181,-0.0839339640918187,-0.1010364294052124,-0.0672096386551857,-0.0392972566187381
1774469811427705300,0.421705322265625,0.3693605511367321,-0.416429760825634,-0.0722513260120525,-0.1657159626483917,-0.0165253542363643,-0.0280830282717943
1774469811437721300,0.431721435546875,-0.1461187819838524,-0.4120741959646344,0.0253673549632541,-0.2202532440423965,-0.0081822033971548,-0.0006934815319254
1774469811447737300,0.4417373046875,-0.1016436804413795,-0.2089937558308243,0.0382938190916553,-0.2408227920532226,-0.1391180455684662,0.0266539826989173
1774469811457753300,0.45175341796875,0.3335369580835103,0.0583998742595315,0.0678048679972067,-0.1700855046510696,-0.3662918210029602,0.0561098754405975
1774469811467769300,0.461769287109375,0.8218038746297359,0.7277668697997928,0.3264112709220498,0.0250954739749431,-0.4985458552837372,0.0502530038356781
1774469811477785300,0.471785400390625,0.4742734625071287,0.931163828536868,0.303719911968708,0.0598976649343967,-0.2907236814498901,-0.0048826858401298
1774469811487802400,0.48180224609375,-0.8390870178639889,-0.0299494403228163,-0.2666466659142635,0.0019193629268556,-0.0679206252098083,-0.0124068967998027
1774469811497818000,0.491818115234375,-1.314801326829195,-0.4881333532944321,-0.4820834056057035,-0.0050754295662045,0.039907306432724,-0.0040712021291255
1774469811507834000,0.501834228515625,-0.4446978239327669,-0.0851154472276568,-0.3304111542131752,-0.0061699473299086,0.054763589054346,0.0007216745289042
1774469811517850400,0.511850341796875,0.5371206715643405,0.0958642202571034,-0.0095988814751151,-0.0203163921833038,0.0646697431802749,0.0033488827757537
1774469811527866400,0.521866455078125,0.6416074664771556,0.0212771813064813,0.3376792455200105,0.0083083547651767,-0.075118102133274,-0.0063446043059229
1774469811537882400,0.53188232421875,0.1431996796667575,-0.0093346684478223,0.3211641640488058,0.0170728173106908,-0.1259139031171798,-0.0102400099858641
1774469811547898400,0.5418984375,-0.3290677037149667,-0.0554180819697678,-0.0707602198046166,0.0097280964255332,-0.0300566405057907,-0.0097286170348525
1774469811557914400,0.551914306640625,-0.235029822102189,0.0739405577406287,-0.3419801575843245,-0.0011708908714354,-0.0023626959882676,0.0054841581732034
1774469811567930000,0.56193017578125,0.0048486090749502,-0.0255137959629297,0.0235422310284804,0.0008668866939842,-0.0034564239904284,0.0036219046451151
1774469811577947000,0.57194677734375,0.1749392182767391,-0.081857760605961,0.1409448225452099,0.0007936498150229,-0.0318630337715148,-0.0109977843239903
1774469811587964200,0.581964111328125,0.0128097972124814,-0.0496940052345395,0.0151394640027545,0.003392816754058,-0.0240551326423883,-0.0067595681175589
1774469811597980000,0.59197998046875,-0.0981692823290824,0.0310955416180193,-0.0716711332376115,-0.0026091490872204,-0.0067802728153765,0.0017857166239991
1774469811607996000,0.601995849609375,-0.0581476530641317,0.0196568866282701,-0.0388267934571951,-0.0026803659275174,0.0006261594826355,0.0045917662791907
1774469811618012000,0.612011962890625,0.0587123012095689,-0.0613937953785061,0.023486628383724,-0.0011210851371288,-0.0097849359735846,-0.0046054604463279
1774469811628028000,0.62202783203125,0.0705067838996648,-0.0229958217926323,0.0198378874846734,0.0018431965727359,-0.0141564616933465,-0.0039652083069086
1774469811638044200,0.632044189453125,-0.0147200147479772,0.0011484393827617,-0.0145746057947631,1.94639433175e-05,-0.0102791655808687,-0.0010650261538103
1774469811648060200,0.64206005859375,-0.0588408960253,-0.0431046899721026,-0.1072523780354764,-0.0102666839957237,0.0158622525632381,-0.0006351720076054
1774469811658076200,0.652076171875,-0.0697509970963001,-0.0934669498570263,-0.1015323290213942,-0.0100914472714066,0.0341871976852417,-0.0045976894907653
1774469811668092000,0.662091796875,0.0678489628672599,0.0106764384455978,0.0331122243358287,-0.0118923876434564,-0.0102951312437653,-0.0036366775166243
1774469811678108000,0.67210791015625,0.116292383518815,-0.0429252417519688,0.0069881053216755,-0.0218049399554729,-0.0132102267816662,-0.0070164948701858
1774469811688125200,0.682125244140625,0.1877811641931533,-0.186050979399681,-0.1797529752340167,-0.0367171242833137,-0.0354100279510021,-0.0130727281793951
1774469811698141200,0.69214111328125,0.0291670577734708,-0.0887212166346609,0.0288058415119536,-0.0355482622981071,-0.0329380817711353,-0.0132628781720995
1774469811708157200,0.7021572265625,-0.1293745679318904,0.0227357095517218,0.1134648319426924,-0.0339247584342956,-0.0309089049696922,-0.0040904665365815
1774469811718173000,0.7121728515625,-0.2024550017118453,0.0737616940423846,0.142979406245891,-0.0274048075079917,0.0054637501016259,0.0074921534396708
1774469811728189000,0.72218896484375,0.0179623576700687,0.0076622051909565,-0.0308882646760437,-0.0303156841546297,-0.0497040040791034,-0.0075560244731605
1774469811738205000,0.732204833984375,0.344658656078577,-0.0274301509782671,-0.0957577368084807,-0.0426988489925861,-0.0904565006494522,-0.0168102420866489
1774469811748221000,0.742220947265625,0.1685954022079706,-0.0583811695590615,0.1394003147832583,-0.0256130397319793,-0.0713428780436515,-0.0233004130423069
1774469811758237200,0.7522373046875,-0.0281377147257328,-0.0433456591211259,0.4915884987169876,-0.0100141055881977,-0.0824139043688774,-0.0170491747558116
1774469811768253200,0.762253173828125,-0.0391068525075912,-0.212056650532782,0.0375459735661512,-0.0498862378299236,-0.1058368757367134,-0.0167865585535764
1774469811778269000,0.77226904296875,0.0139145435839891,-0.226586987927556,-0.3014360570815391,-0.0879220366477966,-0.0611604861915111,-0.0270671602338552
1774469811788286000,0.782285888671875,-0.0078951371639966,-0.1941910312354564,-0.5032676844643429,-0.1283619701862335,-0.0458599328994751,-0.0302952323108911
1774469811798302000,0.792302001953125,0.2429974399805068,-0.3472393202215433,-0.579313470855914,-0.2253228724002838,-0.1510768979787826,-0.0569529458880424
1774469811808318000,0.80231787109375,0.4538146118462085,-0.3867964007146656,-0.611017134434916,-0.3141906857490539,-0.2601690292358398,-0.0813150703907013
1774469811818334200,0.812334228515625,0.7793892127484082,-0.735024878104031,-1.9580235350266095,-0.5800543427467346,-0.4666968882083893,-0.1280295848846435
1774469811828350000,0.822349853515625,0.2484551208645105,-0.7068542840220033,-2.515380646672845,-0.8280711770057678,-0.4486874341964721,-0.1071995124220848
1774469811838366000,0.832365966796875,-0.2841384286642074,-0.4327120564542711,-2.543335990568995,-1.0024558305740356,-0.2387363463640213,-0.0580676533281803
1774469811848382000,0.8423818359375,-0.7810200288206338,-0.1554259779028594,-0.9792724642761051,-0.9801652431488036,0.0241399332880973,0.031135868281126
1774469811858398000,0.85239794921875,-1.40006027418077,0.3220955266147852,0.8126265887007117,-0.8287171721458435,0.1190733760595321,0.1204353868961334
1774469811868414000,0.8624140625,-0.3384849358797073,0.7446057763978838,1.678202969561517,-0.6678016781806946,-0.054922055453062,0.0666239783167839
1774469811878430200,0.87243017578125,0.7906342448621988,0.7290987029254437,1.816634119652212,-0.5053682923316956,-0.0604012422263622,-0.0011052679037675
1774469811888447000,0.882447021484375,0.1879711338073015,0.7149651097632944,1.9207060501538216,-0.3222607970237732,0.0215419866144657,0.013035331852734
1774469811898463000,0.892462890625,-0.1751151593655347,0.7322653502628207,1.959457367222011,-0.0889380648732185,0.0038844300433993,0.0354269221425056
1774469811908479000,0.90247900390625,-0.1446785200476646,0.7366781982690096,1.7384085780687628,0.0445812903344631,-0.0263154804706573,0.0014527076855301
1774469811918495000,0.912494873046875,0.0272404736250638,-0.0378431161820888,0.1020110889816656,0.0019004074856638,-0.0405263751745224,0.0017424597172066
1774469811928511000,0.922510986328125,0.1254670390993356,-0.4188150485269725,-0.524689315742813,-0.0263719577342271,0.0245836060494184,-0.009574775584042
1774469811938527200,0.93252734375,0.1247661973536014,-0.0665261898308992,0.0177953807724406,-0.0081679206341505,0.0258041322231292,-0.0077284052968025
1774469811948543000,0.94254296875,-0.0040010523349046,0.0899623027369379,0.4362803068624809,0.0338414534926414,-0.0242124702781438,0.0028704507276415
1774469811958559000,0.95255908203125,-0.0356949982374906,0.1867044748723506,0.5390838248634711,0.0617631003260612,-0.0602575577795505,0.0121435774490237
1774469811968575000,0.962574951171875,0.1002829134821891,-0.0514995933517813,0.1447936069278512,0.0408554263412952,-0.0594418421387672,-0.0053142090328037
1774469811978591000,0.972591064453125,0.0793453393936157,-0.0755569068960845,-0.2020990096147172,0.0219451170414686,-0.0026067902799695,-0.0081366272643208
1774469811988607000,0.98260693359375,0.0256318693846464,-0.1735246753036975,-0.2872019078880548,-0.0032756973523646,-0.0156588777899742,-0.0162790529429912
1774469811998624000,0.9926240234375,0.0228074596136808,0.0657638271562755,-0.2807201263870112,0.0164324939250946,-0.0501476153731346,-0.0128166759386658
1774469812008640000,1.002639892578125,-0.1518587869405746,0.3441990757428109,-0.0874045080129057,0.0390814207494258,-0.0190533753484487,0.0053856684826314
1774469812018656000,1.012656005859375,-0.1913689595520496,0.1204515490248799,-0.1242431141944136,0.0234827548265457,0.0176337994635105,0.0229713190346956
1774469812028672000,1.022672119140625,0.0731517454504966,-0.0057268532142043,-0.1686294871406629,0.0082846255972981,-0.0200805570930242,0.0065555954352021
1774469812038688000,1.03268798828125,0.2437941433161497,-0.1249362932235002,-0.2645256917049177,-0.0297080297023057,-0.0211580712348222,-0.0167353469878435
1774469812048704000,1.0427041015625,0.2893623007923364,-0.1966802177026868,-0.7486720759887248,-0.0966946259140968,0.0605577379465103,-0.0586868785321712
1774469812058720000,1.052719970703125,-0.1660392879843711,0.0921016528531909,-1.009266839719191,-0.1826004832983017,0.172183871269226,-0.0267835408449172
1774469812068736000,1.062736083984375,-0.1018640451937913,0.0472507037356495,-1.4424804890200495,-0.4184790849685669,0.0180386733263731,-0.0272128656506538
1774469812078752000,1.072751953125,0.1435392868846654,-0.0728434101536869,-2.238890540804714,-0.7144649028778076,-0.1638530939817428,-0.0438158065080642
1774469812088768000,1.08276806640625,0.1579296312868595,-0.1131770279772579,-1.9923796858757732,-0.9064033031463624,-0.2580263614654541,-0.0671600848436355
1774469812098785000,1.092784912109375,0.2040086608946323,0.0036960780389606,-0.787207412218675,-0.9310466051101683,-0.2633857131004333,-0.0675622224807739
1774469812108801000,1.102801025390625,-0.1603635804355144,0.125365624551475,0.779109445958957,-0.7760751843452454,-0.2050400227308273,-0.0437157973647117
1774469812118817000,1.112817138671875,-0.3111281423985957,0.1646611314989626,2.161056775017828,-0.4908828437328338,-0.0987293049693107,-0.0115850251168012
1774469812128833000,1.1228330078125,-0.4368383426040411,0.1893482673794031,2.748256505611539,-0.1962403953075409,0.0594525262713432,0.001122125191614
1774469812138849000,1.13284912109375,0.9146908326417208,0.0985080127641558,2.7241441008791325,0.0363457165658474,0.369784265756607,-0.105477288365364
1774469812148865000,1.142864990234375,1.1000134977668523,-0.1704851614773273,0.472830789418146,-0.012845316901803,0.3215149343013763,-0.0789035186171531
1774469812158881000,1.152881103515625,-0.7271160046756268,0.2245215798303484,-1.0850220456663515,-0.0647327452898025,0.3232814073562622,-0.0194551106542348
1774469812168897000,1.16289697265625,-0.7531973713934421,-0.0467753413088619,-0.4212445406962186,-0.0965792387723922,0.3107997477054596,-0.044424682855606
1774469812178913000,1.1729130859375,0.0367775327771902,-0.2431312954932451,-0.1343891446908935,-0.1053668707609176,0.296536386013031,-0.0695276334881782
1774469812188929000,1.182928955078125,0.0604191051274538,0.0218305774055421,0.4002787634264677,-0.0891379043459892,0.1849084496498108,-0.015765244141221
1774469812198945000,1.192945068359375,-0.4313707248479128,0.1009565749600529,0.682471830176562,-0.0613805763423442,0.1546362936496734,0.0370172746479511
1774469812208962000,1.202962158203125,-0.2050549550771713,0.0033069325909018,0.3466964089838787,-0.0802515223622322,0.2289493232965469,-0.0052687162533402
1774469812218978000,1.21297802734375,0.2156143430143594,0.0083577862396836,-0.0900217778392136,-0.0865126177668571,0.2502242624759674,-0.0420552268624305
1774469812228994000,1.222994140625,0.2038438257217407,0.1167602932915091,-0.2271622670648619,-0.1098008602857589,0.2381325662136078,-0.0329582132399082
1774469812239010000,1.233010009765625,0.2161848363786935,0.1569553794272244,-0.3740719071654603,-0.1059512645006179,0.2119001597166061,-0.0358354933559894
1774469812249026000,1.243026123046875,0.2275502800017595,0.1613956999622285,0.0638305575387552,-0.0572437867522239,0.1478261649608612,-0.0556132681667804
1774469812259042000,1.2530419921875,0.1187654956340789,0.0811703628636896,0.3734154890833422,-0.0074645145796239,0.1022914350032806,-0.0811463296413421
1774469812269058000,1.26305810546875,-0.0062274962127208,0.0548071104645729,0.3421343617653474,0.0074049783870577,0.0666652619838714,-0.0791548192501068
1774469812279074000,1.273073974609375,-0.2019663414120674,0.1448709738798439,0.1877922701090574,0.0130452867597341,0.022878373041749,-0.0589387565851211
1774469812289089800,1.28308984375,-0.373066419917345,0.103887221584469,0.2220488330412656,0.0431641563773155,-0.0976663455367088,-0.0130435489118099
1774469812299106000,1.29310595703125,-0.4828349546253681,0.0788528797015547,0.3297809665508568,0.0869427919387817,-0.1017524376511573,0.0120974909514188
1774469812309122000,1.3031220703125,-0.3460240992128849,0.1430930044218897,0.6476100678928196,0.1772892475128173,-0.0360800921916961,0.0042954459786415
1774469812319139000,1.31313916015625,-0.0798269854307174,0.2320982986949384,1.2513899080179631,0.3120228052139282,0.0181277524679899,-0.0138915460556745
1774469812329155000,1.323155029296875,-0.1629442445784807,0.518665561941266,1.4028788387328386,0.467859536409378,0.1326281130313873,-0.0045088832266628
1774469812339170800,1.3331708984375,-0.2603817055016756,1.056166903386265,1.3735364243924617,0.652294397354126,0.2489677518606186,-0.0418762266635894
1774469812349186800,1.343186767578125,0.0453384403735399,1.2527588582836091,1.4915020018205043,0.8580532073974609,0.2193485647439956,-0.1081532835960388
1774469812359203000,1.353203125,-0.1681318763494491,1.012806777348369,1.3910489924684166,1.0632432699203491,0.1805729418992996,-0.1039034128189086
1774469812369219000,1.363218994140625,-0.499364649143815,0.8429407706826925,1.0104003007285296,1.248469352722168,0.1445047110319137,-0.0597543902695179
1774469812379235000,1.373235107421875,-0.1985878048896789,0.7466146320022642,0.8698288506735116,1.3993830680847168,0.0613280571997165,-0.0425860583782196
1774469812389251000,1.3832509765625,-0.1926882254570722,0.5108544497989118,0.8173648692689836,1.4708937406539917,0.0082369782030582,-0.0175953954458236
1774469812399267000,1.39326708984375,-0.698951986464858,-0.1279148706428706,0.4721585892450064,1.447257161140442,0.0446256101131439,0.0288533307611942
1774469812409282800,1.40328271484375,-0.6811667389273643,-0.4334501614704728,0.4481090936809778,1.4239990711212158,0.0701281875371933,0.0175228882580995
1774469812419300000,1.413300048828125,0.3256435744851827,-0.0435457117378711,0.6133005326643586,1.4401628971099854,0.0560099743306636,-0.1145818829536438
1774469812429316000,1.423316162109375,0.667804568529129,0.4128934033930301,0.2847519939852878,1.4591113328933716,0.0844727754592895,-0.2695724368095398
1774469812439332000,1.43333203125,0.156779876729846,0.667145373968035,-0.3696566845390945,1.418437123298645,0.0072259241715073,-0.3254777789115906
1774469812449348000,1.44334814453125,-0.3583271159470081,0.5593628985106944,-1.3672630432114004,1.3262109756469729,-0.0376426875591278,-0.2865818738937378
1774469812459363800,1.45336376953125,-0.5167284563988447,0.2763780237957835,-1.363776077878475,1.2205127477645874,0.043972548097372,-0.2313804179430008
1774469812469379800,1.4633798828125,-0.0916881036162376,0.1211747487328946,-1.5004865416564046,1.045180320739746,0.0974033027887344,-0.1999019831418991
1774469812479396000,1.47339599609375,0.2260761157959699,0.2056326088346541,-1.62074169132635,0.8532540202140808,0.0993141233921051,-0.1788667291402816
1774469812489412000,1.483412109375,0.5248030417829752,0.244796890617907,-1.3608216119870542,0.657071590423584,0.088589608669281,-0.1560383290052414
1774469812499428000,1.493427978515625,0.628577889034152,0.2766765683509409,-1.452138251942396,0.4763812124729156,0.0652699023485183,-0.1154530867934227
1774469812509444000,1.503444091796875,0.694462858352065,0.4532477717436849,-1.3685865469001233,0.3676430284976959,0.0228116661310195,-0.0541340708732605
1774469812519459800,1.5134599609375,0.9475228426635264,0.5805469947062433,-0.7910406337060034,0.336405485868454,-0.0538588762283325,-0.0349260233342647
1774469812529475800,1.523475830078125,1.099109826925397,0.4584105613343417,-0.4737150614393874,0.3495802879333496,-0.0369348190724849,-0.0697318613529205
1774469812539493000,1.5334931640625,1.0002952324301004,0.3674854049146175,-0.5075523395135998,0.3795048892498016,-0.0232006311416625,-0.1248691454529762
1774469812549509000,1.543509033203125,0.7635796491980552,0.1892348701328039,-0.486360279207304,0.3837576806545257,-0.0430791340768337,-0.1818055510520935
1774469812559525000,1.553525146484375,0.2126642610371112,-0.2223991808488964,-0.5492543961461633,0.3575811982154846,-0.0833309516310691,-0.166334182024002
1774469812569540900,1.563540771484375,-0.0816319890260696,-0.726924427626282,-0.471381102066487,0.3408745229244232,-0.1468662917613983,-0.147489383816719
1774469812579556900,1.573556884765625,-0.1592296079695224,-1.0819457800261676,-0.2247322086400352,0.3073652982711792,-0.1842261850833892,-0.1413872838020324
1774469812589572900,1.58357275390625,-0.2994721913963556,-1.031582204966992,-0.4612532739469781,0.2492219060659408,-0.1745938509702682,-0.1361064910888672
1774469812599588900,1.5935888671875,-0.6433738916277885,-0.963532897222042,-0.3191531164873391,0.1940800994634628,-0.1798080652952194,-0.1118080839514732
1774469812609604900,1.60360498046875,-0.692523414722085,-0.7991394767485559,-0.0693058060454903,0.142728567123413,-0.1798565536737442,-0.0886240601539611
1774469812619621000,1.61362109375,-0.5171674323379993,-0.6987637704163789,-0.1019517965424805,0.1168969646096229,-0.1711160540580749,-0.0856066942214965
1774469812629637000,1.62363720703125,-0.4529448432743549,-0.4205160072259604,-0.0537555555850267,0.1140908002853393,-0.2170340269804,-0.1192652881145477
1774469812639652900,1.63365283203125,-0.4050707469433546,-0.245890677203983,-0.167468517069891,0.0939530357718467,-0.207531601190567,-0.1445272415876388
1774469812649670000,1.643669921875,-0.135671622249484,-0.4632565400607883,-0.2683359159091487,0.0673132911324501,-0.1933794915676117,-0.1651119589805603
1774469812659686000,1.653685791015625,0.0302951850205659,-0.5480331107228994,-0.2277422223772853,0.0380217134952545,-0.1606582999229431,-0.1472109854221344
1774469812669702000,1.663701904296875,0.0147141695290803,-0.5402518091969192,-0.2868793979354203,-0.0279174409806728,-0.1553324460983276,-0.1094396412372589
1774469812679718100,1.67371826171875,0.1687421172022819,-0.318553177832812,-0.1831377040351741,-0.0761981531977653,-0.173930361866951,-0.0882515311241149
1774469812689734000,1.68373388671875,0.2574222711741924,-0.1351920220389962,0.2413005181358195,-0.0751800537109375,-0.1990214735269546,-0.0832782313227653
1774469812699750000,1.69375,0.1292155779778957,-0.1445521171890199,0.5800981184275821,-0.0296160317957401,-0.200526162981987,-0.0657319948077201
1774469812709766000,1.703765869140625,-0.0936994434386491,-0.0273588393077254,0.5154092635590583,-0.0021213362924754,-0.1725561469793319,-0.0738650411367416
1774469812719782000,1.713781982421875,0.0749959120124578,-0.3343856838673353,0.2724400815586559,0.0001114578917622,-0.2049886584281921,-0.080650508403778
1774469812729798000,1.7237978515625,-0.0509837527841329,-0.2803746922165155,0.2252976239704527,-0.008694926276803,-0.2560178339481354,-0.0597253777086734
1774469812739814100,1.733814208984375,-0.0361509253114461,-0.1534196065165102,0.0258222225912846,-0.0162841379642486,-0.2223948985338211,-0.0586236268281936
1774469812749831000,1.743830810546875,0.0699672701954841,-0.4261994596898555,0.1449752745045349,-0.0137755768373608,-0.1611826121807098,-0.0598334334790706
1774469812759847000,1.753846923828125,-0.0864174697369337,-0.2928314382076263,0.199496882558614,-0.0204156357795,-0.1367409229278564,-0.0363693870604038
1774469812769863000,1.76386279296875,-0.1951391257405281,-0.122073889529705,8.75686855986e-05,-0.0333664081990718,-0.1373334378004074,-0.0148353781551122
1774469812779879000,1.77387890625,-0.0067190791219472,-0.0191816703319549,-0.168217435741052,-0.045608427375555,-0.1364921331405639,-0.0119956498965621
1774469812789895000,1.78389501953125,-0.0250257201850414,0.1350426766961812,-0.0951196855001151,-0.0488901957869529,-0.1623630374670028,-0.0057126991450786
1774469812799911000,1.793910888671875,-0.4618734151393175,0.5491157913930714,0.2477420041590929,-0.0507043413817882,-0.1865890175104141,-0.0297189652919769
1774469812809927000,1.803927001953125,-0.195704358407855,0.6779173817425966,0.1760258079370483,-0.0584362559020519,-0.1184868216514587,-0.1513503342866897
1774469812819943000,1.81394287109375,0.2177887644439935,0.4597353801973163,-0.0605518646616488,-0.0656869783997535,-0.0447883680462837,-0.2489229589700698
1774469812829959000,1.823958984375,0.2100526172339916,0.2310451363801956,-0.0892821749856695,-0.0407775267958641,-0.0042059700936079,-0.2736553847789764
1774469812839975000,1.833974853515625,0.0737029495924711,0.1923153004914522,0.0704049674930051,0.0048133954405784,-0.0095368195325136,-0.1764625310897827
1774469812849991000,1.843990966796875,0.0354050753802061,0.2251163308531046,0.0275504163570702,0.0655829906463623,0.0260904431343078,-0.0902204141020774
1774469812860008000,1.854008056640625,0.3044926499068737,0.4365777919717132,0.069405800387822,0.103244349360466,0.1561062335968017,-0.0570249184966087
1774469812870024000,1.86402392578125,0.0623462737977504,0.6961297686509788,0.1678658092917874,0.1647628396749496,0.197125032544136,-0.036809891462326
1774469812880040000,1.8740400390625,-0.1719289305448532,0.6248878023445605,0.1648464980032294,0.2073627710342407,0.2370500713586807,-0.040146566927433
1774469812890056000,1.884055908203125,-0.3360527402967214,0.6357813906721771,0.034153577481769,0.2179082781076431,0.3594194054603576,-0.1075773388147354
1774469812900072000,1.894072021484375,-0.0969973159402608,0.5723968598678708,-0.1607243035066872,0.2706101238727569,0.6174477338790894,-0.1900964528322219
1774469812910088000,1.904087890625,-0.0677279668360948,0.3176788792163133,-0.2990111497558653,0.3836829662322998,0.9398853182792664,-0.2291879057884216
1774469812920104000,1.91410400390625,-0.1205833587110042,0.2310185406342148,-0.1096846375505439,0.5390238165855408,1.153612494468689,-0.2504212856292724
1774469812930120000,1.924119873046875,0.4498141440331936,0.4693189088396727,-0.0396579516182886,0.6608326435089111,1.5117766857147217,-0.4066841900348663
1774469812940136000,1.934135986328125,0.1256616848886013,0.6841796570077538,-0.3378411215508357,0.7713586091995239,1.130907654762268,-0.402112603187561
1774469812950152000,1.94415185546875,-0.8013374251842499,0.258085484323278,0.0089060860385186,0.8294439911842346,0.8084384202957153,-0.2696516811847687
1774469812960169000,1.9541689453125,-0.7739858924001455,-0.4064404278613627,0.3585827712085098,0.8625454902648926,0.505405843257904,-0.1719592064619064
1774469812970185000,1.96418505859375,0.4208446546584367,-0.2023519797287881,1.0286589379314333,0.8509443402290344,0.1571042388677597,-0.1524170637130737
1774469812980201000,1.974200927734375,0.8280062364012002,0.0335959070663899,1.5499169275186957,0.8264656662940979,0.1441279798746109,-0.1683449000120163
1774469812990217000,1.984217041015625,0.8569570210754871,0.1497613762699067,1.3238951722584664,0.7639076709747314,0.1436694264411926,-0.168925866484642
1774469813000233000,1.99423291015625,1.160958672595024,0.0080711513180285,0.3330185602325946,0.6294944286346436,0.256991446018219,-0.2361392676830291
1774469813010249000,2.0042490234375,0.4070131131827831,-0.2351040563821792,-0.0549855357713997,0.5916101336479187,-0.0971680432558059,-0.1447111666202545
1774469813020265000,2.014264892578125,0.041878655308485,-0.970678531192988,0.1168550041039474,0.5904157161712646,-0.4701213836669922,-0.0399871543049812
1774469813030280700,2.02428076171875,-0.1720236230909824,-1.4199413249537347,-0.0484648287657648,0.577714741230011,-0.5478282570838928,0.0970063284039497
1774469813040297000,2.034296875,-1.0171955138266089,-1.2315130950286983,0.0090454762428998,0.5393074750900269,-0.6319042444229126,0.2403355240821838
1774469813050313000,2.04431298828125,-1.002612277200818,-0.9596877661012112,0.2185288422215729,0.511374294757843,-0.5903471112251282,0.3032849729061126
1774469813060330000,2.054330078125,-1.2456997335523363,-0.7091231057368218,0.3871326469317078,0.554705023765564,-0.3519541919231415,0.2981924712657928
1774469813070346000,2.064345947265625,-0.8830307890087365,-0.3333709538668394,0.3187442068928852,0.5962310433387756,-0.0777090340852737,0.2064538300037384
1774469813080361700,2.07436181640625,0.0925502734035253,-0.1108525305524468,-0.1941937894481234,0.5516835451126099,0.1032951101660728,0.1269092112779617
1774469813090378000,2.0843779296875,0.6729115362793207,-0.1443197697378695,-0.7030556223914027,0.4530793130397796,0.1316707879304886,0.0852390080690383
1774469813100394000,2.09439404296875,1.0029320106744766,-0.5064252351798116,-1.1221077676098794,0.3332282602787018,0.1069680973887443,0.0478018894791603
1774469813110410000,2.104409912109375,1.1189549296021462,-1.019184934078157,-1.4704368558295071,0.2106165587902069,0.0683572143316268,0.0166396480053663
1774469813120426000,2.114426025390625,0.7576952673345804,-1.113308594278246,-2.111788009458035,0.0774358585476875,0.1442362666130066,0.0103734964504837
1774469813130442000,2.12444189453125,0.3939584012985229,-0.9511525774680076,-2.837928593230248,-0.1279263496398925,0.4148501753807068,-0.0045510535128414
1774469813140458000,2.1344580078125,0.4187520662933587,-1.134488598820567,-2.986640898838639,-0.3126570284366607,0.5806974768638611,-0.0333675220608711
1774469813150473700,2.1444736328125,2.0094757821053264,-1.350973002667725,-1.3129425472199916,-0.4108512699604034,0.0849305987358093,-0.2918556034564972
1774469813160491000,2.154490966796875,2.2989584944069383,-1.2511613599590956,0.1329984483843203,-0.4595966935157776,-0.3755366206169128,-0.322656899690628
1774469813170507000,2.164507080078125,0.5210130018502473,-0.9129979841839522,-0.3628982597874477,-0.5035280585289001,-0.6922959685325623,-0.1492553651332855
1774469813180523000,2.17452294921875,-0.6249275498330593,-0.2684918005906045,0.0649577532040886,-0.4468916356563568,-0.8853980302810669,0.0760358124971389
1774469813190539000,2.1845390625,-1.18655430162251,0.2567665837444365,0.6331823871549218,-0.3676669299602508,-0.9782604575157166,0.1794931292533874
1774469813200554800,2.1945546875,-1.3409773860931395,0.6625243631038814,0.5974798631981015,-0.2769570052623749,-0.8824074268341064,0.1669238209724426
1774469813210571000,2.204571044921875,-1.5958154859930276,1.0364312524333597,0.976276351200044,-0.1565549224615097,-0.54033362865448,0.1062221750617027
1774469813220587000,2.2145869140625,-1.6621026063710451,1.39720663831532,1.1649973535265772,-0.0414719954133033,-0.0947545543313026,0.0614163540303707
1774469813230603000,2.22460302734375,-1.2451666495889424,1.5003409957058726,1.1845471995837986,0.0055031976662576,0.1731220483779907,0.0246330890804529
1774469813240619000,2.234618896484375,-0.1355833594441413,1.3821525693073868,0.8094460589684546,0.0184299144893884,0.1931530237197876,-0.0109467431902885
1774469813250635800,2.2446357421875,0.5562520730137824,0.9474196745499968,0.418402814464271,0.0311038624495267,0.0060975258238613,0.0219084564596414
1774469813260651800,2.25465185546875,0.7572673973113297,-0.1452161340557038,0.0948959962794557,0.0296931844204664,-0.1676542907953262,0.0218008644878864
1774469813270668000,2.26466796875,0.425135629850626,-0.6770600342608988,-0.1204076733505353,0.0093846414238214,-0.1310230046510696,-0.0239622648805379
1774469813280684000,2.27468408203125,-0.388258728352189,-0.23596520325616,-0.3447788483921438,-0.0047689941711723,0.007770562544465,-0.0244581457227468
1774469813290700000,2.284699951171875,-0.7124673015981913,0.2704344590909779,-0.337201471940428,-0.0098847365006804,0.077599212527275,0.0115760806947946
1774469813300716000,2.294716064453125,-0.1812795272141694,0.0335062560215592,-0.057418589870911,-0.0150968097150325,0.0509521588683128,0.0139476265758275
1774469813310731800,2.304731689453125,0.4321171593010425,-0.2337408052049577,0.1930003236135467,-0.0037742657586932,-0.016758369281888,-0.0099479611963033
1774469813320747800,2.314747802734375,0.3600157996863126,0.0156350837662816,0.1984881621737964,0.0065918220207095,-0.0504785180091857,-0.0068278019316494
1774469813330763800,2.324763671875,-0.0811965202182531,0.1718368683472275,0.0093839874822646,0.0064054396934807,-0.0255027431994676,0.0008873636834323
1774469813340780000,2.334780029296875,-0.2389461187630891,-0.0670357467882335,-0.1061619615834206,0.0029153674840927,0.0101111773401498,0.0008468836313113
1774469813350797000,2.344797119140625,-0.1045341411858797,-0.1901636754155158,-0.1183345203382894,-0.005637870170176,0.0164445675909519,0.0008757082978263
1774469813360812800,2.354812744140625,0.0975157868564128,0.0318526435956358,-0.0479231231044977,-0.0064786300063133,0.0085075497627258,-0.0010763888712972
1774469813370828800,2.364828857421875,0.1223807635217905,0.0638539018817245,0.0885441978336311,0.0012444211170077,-0.0068187657743692,-0.0023007178679108
1774469813380844800,2.3748447265625,-0.0033335283368825,-0.0658713791839778,0.0532748411296866,0.0013685245066881,-0.0188171043992042,-0.0011848533758893
1774469813390861000,2.384861083984375,-0.0874701936602592,-0.0425170993424952,-0.0354664867112413,-0.0004437535535544,-0.0077463435009121,0.0011244817869737
1774469813400877000,2.394876953125,-0.0288221898585557,0.0247729144677519,-0.0405307295645587,-0.0008797131013125,0.0085066622123122,-0.0001580966636538
1774469813410893000,2.40489306640625,0.0428863710463047,-0.0311281287133693,-0.0284526441601105,-0.0015795547515153,0.004653978627175,-0.0010788361541926
1774469813420908800,2.41490869140625,0.0452910941004753,-0.0701741909444332,-0.0055896732332184,-0.0011694279965013,-0.008501504547894,-0.0015645967796444
1774469813430924800,2.4249248046875,-0.0242927297353744,0.000293576119095,0.0326886742946691,0.0007507454138249,-0.0063932286575436,-0.0005244857165962
1774469813440942000,2.434942138671875,-0.0469108042567968,-0.0108218382656574,-0.0036294425435364,-0.0006620613858103,-0.002666134852916,0.0010680846171453
1774469813450958000,2.4449580078125,0.0413859033554792,-0.0411151235900819,-0.0524903762211091,-0.0003935731947422,0.0015460314461961,-0.0018986539216712
1774469813460974000,2.45497412109375,0.0285503871798515,-0.0287285202257335,-0.0023022307940758,-0.0013387291692197,0.0061194780282676,-0.0023942682892084
1774469813470989800,2.46498974609375,-0.0146785136938095,-0.0173168993733823,0.015721191147156,-0.0006869386415928,-0.0051847649738192,-0.0002097497927024
1774469813481005800,2.475005859375,0.0153594816952943,-0.034709494331479,0.00902194923684,0.0011367939878255,-0.0129366936162114,0.0015053258975967
1774469813491021800,2.485021728515625,0.0304430690586566,-0.0364898018769919,-0.0113179694858379,0.0009181858040392,-0.0076137073338031,-0.0012453908566385
1774469813501037800,2.495037841796875,0.0011123451560735,-0.0227935772188007,-0.0396448318418115,-0.0010261880233883,0.0008074742509052,-0.0001646799501031
1774469813511054000,2.50505419921875,-0.042426936841011,-0.0096137776501476,-0.0267367984192445,-0.0003267279826104,0.0024544354528188,0.0006236260524019
1774469813521070000,2.515070068359375,0.0076917235463857,-0.0107512572474777,0.0149417312072589,-0.0005158123094588,-0.0006175206508487,0.0005716943414881
1774469813531086800,2.5250869140625,0.0293792392194271,-0.0328833018176257,-0.0001551722954027,0.0013531181029975,-0.0043959757313132,-0.0006628504488617
1774469813541102800,2.535102783203125,0.0186117614895105,-0.0116265787772834,-0.0175248430356383,-0.000296177342534,-0.0038694685790687,-0.0002391415182501
1774469813551118800,2.545118896484375,-0.0155097038209438,-0.0315730960018932,-0.0185331432953476,-0.0018758114892989,-0.001848736545071,-0.0012115825666114
1774469813561134800,2.555134765625,-0.0125017541766166,-0.0291379778094589,-0.0182742548971436,-0.0014100247062742,-0.0005962519207969,0.000575398444198
1774469813571151000,2.565151123046875,0.0120434890151023,-0.0116761170074343,0.013794954058621,-0.0006703885737806,5.11257676407e-05,-0.0014430717565119
1774469813581167000,2.5751669921875,0.0238625216245651,-0.0118723702318966,0.0084071052741259,-0.001709554111585,-0.005601167678833,-0.0008108373731374
1774469813591182800,2.585182861328125,0.012189619487524,-0.014699848742783,0.0035645971463993,9.05136112123e-05,-0.0080519635230302,-0.0001070487778633
1774469813601198800,2.59519873046875,-0.0166968677788972,-0.0342157194651663,-0.0171485388028435,0.00012380303815,-0.0009775419021025,-0.0014117313548922
1774469813611216000,2.6052158203125,-0.0151888013035058,-0.0276757963024079,-0.0303992847158573,-0.0011970859486609,0.0049377237446606,-0.0009435229003429
1774469813621232000,2.615232177734375,0.0006920739173889,-0.0192057818599045,-0.0281382992476224,-0.0009680541697889,0.0024420754052698,0.0008937919046729
1774469813631248000,2.625247802734375,0.0316483531951904,-0.0102902156069874,0.0242166322918608,0.0009181490167975,-0.0075075710192322,0.0004488865379244
1774469813641263900,2.635263916015625,0.0138198510378599,-0.0125371177509427,0.0283266248939558,0.0016281474381685,-0.0088934795930981,-0.0001449984265491
1774469813651280000,2.64527978515625,-0.0222556709498167,-0.0309619783662259,-0.0200507082514464,-0.0007814045529812,-0.0025117835029959,-0.0009203049121424
1774469813661295900,2.6552958984375,-0.0241904384046793,-0.0326655674137175,-0.0472535715461708,-0.0020208398345857,0.0043684933334589,-0.0001429280964657
1774469813671312000,2.665311767578125,0.0047153380841016,-0.0230523742854595,-0.0271720114987343,-0.0015503740869462,0.0041550919413566,-0.0014233402907848
1774469813681327900,2.675327880859375,0.0282066883087158,-0.0216895614996552,0.0265376225853338,0.0024334485642611,-0.0033478313125669,-0.0015407856553792
1774469813691344100,2.68534423828125,0.0111421562612056,-0.0243048585645854,0.0055597530189901,0.0015240181237459,-0.0064289905130863,-0.0009463435271754
1774469813701361000,2.69536083984375,-0.0137181442290544,-0.0007798983313143,-0.0182318953264504,0.0006105536594986,-0.0027636822778731,0.0008270554244518
1774469813711377000,2.705376953125,-0.0050263037294149,-0.0324288360483944,-0.0452942907045595,-0.0008185745682567,0.003281733719632,-0.0012985825305804
1774469813721393000,2.715392822265625,0.0088999302923679,-0.0353571445852518,-0.0059012599330395,-0.0014910227619111,-0.0032478044740855,0.0002764109522104
1774469813731409000,2.725408935546875,0.0211532626658678,-0.0062314417354762,-0.003175287301559,0.0002076928503811,-0.0025016688741743,0.0007235911907628
1774469813741425200,2.735425048828125,0.018312486281991,-0.0148395494744181,0.0044403570676222,7.82629940658e-05,-0.0038002263754606,-0.0015408946201205
1774469813751441000,2.74544091796875,0.0037836101919412,-0.0229177881203591,-0.010183668226283,-0.0004700846038758,-0.0043733362108469,-0.000157187692821
1774469813761457000,2.755456787109375,0.0040893151402473,-0.0219753927037119,-0.0070870173851959,-0.000441855052486,-0.0003138799220323,-0.0013643985148519
1774469813771473000,2.765472900390625,-0.0048895256072282,-0.0112462011575698,-0.0140304433149285,-0.0001498931087553,-0.0053624743595719,0.0007102148374542
1774469813781490000,2.775489990234375,-0.020623101311922,-0.0334638781845569,-0.0101451080478727,0.0001635607331991,-0.0035872107837349,-5.3765252232e-06
1774469813791506000,2.785505859375,0.001684007564187,-0.0186016784869134,-0.022356975899823,-0.0004522379022091,0.0013372834073379,-0.0031488379463553
1774469813801522000,2.79552197265625,-0.0008498948276042,-0.0123778355360031,-0.0221580192616209,-0.0004434494767338,0.0025743218138813,0.0006389758782461
1774469813811538000,2.805537841796875,0.0210112238466739,-0.0244137257665395,-0.0054557081226259,0.0004952379968017,0.0003884312463924,-0.0007378910668194
1774469813821554000,2.815553955078125,0.0147059862226247,-0.0295795840971171,0.0004978665195405,-0.0015239708591252,-0.0060921050608158,0.0015263285022228
1774469813831570000,2.82556982421875,0.0013484919995069,-0.0081356679216027,-0.0062752443445846,-0.0002242354676127,-0.0035601607523858,0.000820179702714
1774469813841586000,2.8355859375,0.0047778819262981,-0.0386062095090746,-0.0276271531214006,0.0010820450261235,-4.05272003263e-05,-0.0003896943526342
1774469813851602000,2.845601806640625,0.0083726915478706,-0.0203618200272321,-0.0089948237678967,0.0006428540218621,0.0005322057986631,-0.0003520231693983
1774469813861618000,2.855617919921875,-0.0061515083670616,-0.0062600833080708,0.0121257787373848,0.0003096924629062,-0.0037506897933781,0.0008594488026574
1774469813871635000,2.865635009765625,-0.003483750462532,-0.0164895086385309,0.0037862770730629,0.0009210014250129,-0.0036574047990143,0.0008023118134588
1774469813881651000,2.87565087890625,0.007875847941637,-0.021069822166115,-0.0304217888086102,0.0002123343292623,-4.5891967602e-05,-0.0021902821026742
1774469813891667000,2.8856669921875,-0.0019856208592653,-0.0310302212968468,-0.0178522300927899,-0.0013400986790657,0.0010732059599831,-0.0002935184165835
1774469813901683000,2.895682861328125,0.0080313307642936,-0.0173597156018018,0.0136546688050962,-0.000990159343928,-0.0017444184049963,0.0003030296647921
1774469813911699000,2.905698974609375,0.0048749125599861,-0.0122302437588572,-0.0030982765425927,0.0014267365913838,-0.0046821828000247,0.0003688225988298
1774469813921715000,2.91571484375,0.0165185886025428,-0.0243988204583525,0.0047762196921743,-6.86284620314e-05,-0.0041567413136363,-9.66979423537e-05
1774469813931731000,2.92573095703125,-0.004433014011383,-0.0294533273689448,-0.0292475391311571,-0.0014912509359419,0.0046150218695402,-0.0007244906155392
1774469813941747000,2.935746826171875,-0.0063625207692384,-0.0158985570080578,-0.0145629062238149,-0.0004241224378347,-0.0011483251582831,0.0003333170898258
1774469813951764000,2.945763916015625,-0.0026361937224864,-0.0242173264116048,0.0036270313907414,0.0008993158116936,-0.0041629485785961,0.0003395633539184
1774469813961779700,2.95577978515625,0.013795301118493,-0.0297645852752029,0.0037354236686602,0.0007318025454878,-0.0029874294996261,0.0004016150487586
1774469813971796000,2.9657958984375,0.0223106160074472,-0.0198252289324998,-0.0279059883290901,-0.0008321946952491,-0.0019717346876859,-0.0011824571993201
1774469813981812000,2.97581201171875,-0.0127039987504482,-0.0300213365152478,-0.0064525188739411,-9.23685729503e-05,-0.0005405519623309,-0.0003747204318642
1774469813991828000,2.985827880859375,0.0100409170210361,-0.022884470372647,0.0064811056476086,-0.00058318907395,-0.0028146251570433,-0.0005952301435172
1774469814001844000,2.995843994140625,0.0028501287341117,-0.0267509365424513,8.93039849586e-05,0.0019095297902822,-0.0012481538578867,-0.0005017530638724
1774469814011860000,3.00585986328125,0.0001455459505319,-0.029648849941045,-0.0148965951575897,0.0013739680871367,0.0014485630672425,0.0011070624459534
1774469814021876000,3.0158759765625,-0.0054091655671596,-0.0299630304567515,-0.0111198530978523,-0.0007677462417632,-0.0012750518508255,-0.0005065468139946
1774469814031893000,3.02589306640625,0.0019061258822679,-0.0166783092088997,-0.0031180041563697,-0.0011594975367188,-0.0009200478089042,0.0013012439012527
1774469814041909000,3.035908935546875,0.00652735594213,-0.0144528882443904,-0.004441343448311,-0.0008194118272513,-0.0004974041366949,0.0005936420056968
1774469814051925000,3.045925048828125,0.0041156186252832,-0.0138977385796606,-0.0059295727120712,0.000106185907498,-0.0022871308028697,0.0006375476950779
1774469814061941000,3.05594091796875,0.0060357730329036,-0.0161567695528268,0.0025871304163709,0.0011781081557273,-0.0008964281878434,0.0012546021025627
1774469814071957000,3.06595703125,-0.0008551555246114,-0.0272705765023827,-0.004509604645241,-0.0010890755802392,0.0022664964199066,-0.0002480627736076
1774469814081972700,3.07597265625,-0.0045937575310468,-0.0302573372282087,-0.0041776327445171,-0.0008358091581612,0.0001250485656782,-1.69003615155e-05
1774469814091989000,3.085989013671875,0.0055745852619409,-0.0101721421852707,0.000258212544769,-0.000390795757994,-0.0014195889234542,-0.0003322914708405
1774469814102005000,3.0960048828125,0.0058668462067842,-0.0197248372979462,0.0029406930943951,0.0001069488935172,-0.0015173268038779,-0.0002449399325996
1774469814112022000,3.10602197265625,-0.0001297638595104,-0.0214519533514976,-0.0011536270145326,-0.0012898780405521,-0.0007990683079697,-0.0002283552894368
1774469814122037800,3.116037841796875,-0.0047732057511806,-0.024877251625061,-0.0075047313406132,0.0015469212085008,-0.0004725647740997,-0.0006810926133766
1774469814132053800,3.1260537109375,0.0016489362508058,-0.0108646544940769,-0.0035952297466807,0.0001487997360527,0.0010255763772875,0.0011923923157155
1774469814142069800,3.13606982421875,0.0083650927633047,-0.0370842606388032,-0.0043991300080902,-0.0008003509137779,-0.002044515684247,0.0005284663056954
1774469814152086000,3.1460859375,0.0222673613876104,-0.0132044956184923,-0.0122260607740841,0.0002673484850674,-0.0010454508010298,-0.0006771951448172
1774469814162102000,3.15610205078125,0.015828268250823,-0.0208364518016576,-0.0108681798917241,0.0006077003199607,-0.0020462665706872,-0.0004596149083226
1774469814172118000,3.166117919921875,-0.0016892682611942,-0.0213889711178839,-0.0048804837842471,-0.000876061618328,-0.0013962669763714,0.0001548490254208
1774469814182134000,3.176134033203125,0.0089285718649625,-0.0056651861548423,0.0078550974145531,0.0008520637638866,-0.0026373001746833,-0.0007799204904586
1774469814192150800,3.18615087890625,0.011007131704688,-0.0151442315094172,-0.008588069597911,0.000846279785037,-0.0015113536501303,8.57764389365e-05
1774469814202167000,3.1961669921875,0.0111404026955366,-0.0205760472998023,-0.0230035667076706,-0.0012677372433245,-0.0010998952202498,3.33121279254e-05
1774469814212183000,3.20618310546875,0.0129307932436466,-0.0193693018585443,0.0043767355131916,-6.49006105959e-05,-0.0023948000743985,-0.0001689430791884
1774469814222199000,3.216198974609375,0.0147089088320732,-0.0144967273861169,-0.006447988829296,-0.0002944651059806,-0.0032206461764872,-8.05261079221e-05
1774469814232215000,3.226215087890625,-0.0046118777096271,-0.0207183783799409,-0.0093990571872331,0.0010769870132207,-0.0014844840625301,0.0005255137803032
1774469814242230800,3.236230712890625,0.0068926821231842,-0.0201243580095469,-0.0098799360393546,-0.0007696489337831,0.0016146363923326,-0.000414848444052
1774469814252246800,3.246246826171875,0.0217149882018566,-0.0379895389154553,-0.0133521056619472,0.0002905938308686,-0.0022250041365623,-0.0015753100160509
1774469814262264000,3.25626416015625,0.0012105448335409,-0.0254502292074263,0.0026401209789328,-0.0005387146957218,-0.0038082532119005,-0.0001936620101332
1774469814272280000,3.266280029296875,0.0124187520682811,-0.0175949856624007,-0.026041381767299,0.0002374448813498,-0.0015343670966103,-0.0001974626211449
1774469814282296000,3.276296142578125,0.0125578682780265,-0.0235340203225612,-0.0288684218867681,-0.0006826773751527,-0.0016187892761081,0.0003458221908658
1774469814292311800,3.286311767578125,-0.010654665005207,-0.0133987030163407,0.0040665553191676,0.0014399380888789,-0.0023706397041678,0.0007079149363562
1774469814302327800,3.296327880859375,-0.0055792614370584,-0.0144847446873784,0.004757040067669,-0.0003339934628456,0.0023665912449359,-0.0003560178447514
1774469814312343800,3.30634375,0.0328828634262085,-0.0179300628356635,-0.0172659911700524,-0.0002091296482831,0.0003645775141194,-0.0026138336397707
1774469814322360000,3.316360107421875,0.0029728783309459,-0.0298934723518788,-0.0046712249477393,-0.0009982243645936,-0.0006460921722464,-0.0005506828892976
1774469814332376000,3.3263759765625,-0.0066366615355014,0.007430150000751,0.0142348067806102,-0.0004585562273859,-0.0028060832992196,0.0018219673074781
1774469814342392800,3.336392822265625,0.0063555065065622,-0.012750029849261,-0.0065671399632468,0.0013055219314992,-0.000757846108172,0.0002704097423702
1774469814352408800,3.346408935546875,0.0136842419594526,-0.0284777603350579,-0.0108503337077796,-0.0005304971709847,-0.0020567975006997,-0.0004476053873077
1774469814362424800,3.3564248046875,0.0031803836017847,-0.0265542449265718,-0.0047092736694961,8.14972445368e-05,-0.0045300750061869,0.0003305703867226
1774469814372440800,3.36644091796875,-0.018226561564207,-0.0159225224055349,0.001715882273484,0.0008808264974504,-0.0008998522534966,-9.67833912e-05
1774469814382457000,3.37645703125,-0.0053694180786609,-0.0170619016990065,-0.0150368621448054,-0.0009729999583214,-0.0025486154481768,0.0005202710162848
1774469814392473000,3.38647314453125,-0.0080757544279098,-0.023111118735373,-0.0178136881806887,-0.00020323228091,0.0009402061114087,0.0001436279853805
1774469814402488800,3.39648876953125,0.0260328514009714,-0.0131892980493605,0.0057973976997658,0.0003264704719185,-0.0046668131835758,-0.0003176316386088
1774469814412504800,3.4065048828125,-0.0140887311071157,-0.0165792327485978,0.0075563701963052,-0.0004956864286214,-0.0049058049917221,0.0004595649661496
1774469814422521900,3.41652197265625,-0.0019710078120231,-0.0169939510293304,-0.0134448802456259,-0.0005169915966689,0.0031017875298857,-0.0007042365614324
1774469814432538000,3.4265380859375,-0.0034726445466279,-0.0401189521595835,-0.0388570607312954,3.93057707697e-05,-0.0020875055342912,0.0004627349553629
1774469814442554000,3.43655419921875,-0.0117249245852231,-0.0154432144559919,0.0035299459581263,0.0006190757267177,-0.0043842159211635,-0.0002091805217787
1774469814452569900,3.44656982421875,0.0077104282468557,-0.0044397360131144,0.002741754722502,-0.0001836777664721,-0.0019306109752506,0.001061171060428
1774469814462585900,3.4565859375,0.0186146840989589,-0.0217430452525615,-0.0116445710917003,0.000939643708989,-0.0046142782084643,-0.0011713567655533
1774469814472601900,3.466601806640625,-0.0057809214890003,-0.0329876389749348,-0.0023982385144568,-0.000784759176895,-0.001560389297083,0.0013820410240441
1774469814482617900,3.476617919921875,4.38391417264e-05,-0.0204969907142221,-0.0148733786787837,-0.0011173880193382,-0.0021542743779718,-0.0001607281155884
1774469814492635100,3.48663525390625,0.0115671036750078,-0.0082419047750532,-0.0132037832324393,-0.0004009916447103,0.0004470591666176,-0.0004187475424259
1774469814502651000,3.49665087890625,0.0172656075775623,-0.0345458282023668,0.0042289793392643,0.0008959679398685,-0.0024744286201894,-0.0016051856800913
1774469814512667000,3.5066669921875,-0.0017500585377216,-0.0330301629424095,0.0075703804553486,0.0016442018095403,-0.0047107497230172,0.0004517930792644
1774469814522683000,3.516682861328125,-0.0026648352950811,-0.0220332603707909,-0.007596501277294,0.0017307547386735,-0.0010113527532666,0.0004754951223731
1774469814532699000,3.526698974609375,-0.0037158056527376,-0.029508126296103,-0.0143745988437905,0.0002784188836812,-0.0004532311577349,-0.0001433148281648
1774469814542715000,3.53671484375,0.0070505030333995,-0.0203390236735343,-0.0145939772155135,-0.0012558279559016,0.0011878088116645,0.0006665525725111
1774469814552731100,3.546731201171875,0.0143657944828271,-0.0086583766214549,-0.012598930940777,-0.0001205983571708,-0.0007674486842006,0.0009659519419074
1774469814562747000,3.556746826171875,0.000423193848133,-0.0153923610515892,-0.0030648674633353,0.0014139148406684,-0.0035722898319363,0.00175770977512
1774469814572764000,3.566763916015625,0.0041372459352016,-0.0106840372301638,0.0089347276111133,0.0013656737282872,-0.0068696709349751,0.0003781672567129
1774469814582779100,3.576779052734375,0.0045592707395553,-0.0143228321239352,-0.0050954417091794,0.0014937720261514,-0.0027958331629633,0.001125450246036
1774469814592795100,3.586795166015625,-0.0155108728647232,-0.0206597800604999,-0.0234165679553523,-0.0003607410471886,-0.0002313822624273,-0.0014769883127883
1774469814602811100,3.59681103515625,-0.0059463411837816,-0.0163766959138214,-0.0120407308024354,0.0005282221827656,3.62653518095e-05,-0.0004079953068867
1774469814612827100,3.6068271484375,0.0112578915953636,-0.0127329325839877,-0.0115296029425226,-0.0010295747779309,0.0036373145412653,1.28929968923e-05
1774469814622843100,3.616843017578125,0.0096072017788887,-0.0185356275133788,0.0080899473500438,0.0011124056763947,-0.003786246990785,0.00112582789734
1774469814632859100,3.626859130859375,0.0052408232629299,-0.0099129067271947,0.006223404559493,-0.0001084618270397,-0.0053508253768086,-0.0004811011021956
1774469814642875100,3.636875244140625,0.0112041155815124,-0.0138391402602195,-0.0145952741234563,0.0008987456094473,-0.0032637065742164,0.0006161213386803
1774469814652892200,3.64689208984375,0.0146311674207448,-0.0243998433716595,-0.0160241561491042,-0.0018655015155673,-0.0011645259801298,0.0006338558159768
1774469814662908200,3.656908203125,-0.0102156890660524,-0.0291433846369385,0.0042157727978192,0.0001577020157128,0.0004573391051962,0.0007848569657653
1774469814672924200,3.666924072265625,0.0005494505763053,-0.0097843119114637,0.0105696718691848,0.0016576668713241,-0.0010689370101317,-0.0006215428002178
1774469814682940200,3.676940185546875,0.0110123924016952,-0.0169125563561916,-0.0119968003291636,-0.0001335751730948,-0.0023821417707949,0.0007800789317116
1774469814692956200,3.6869560546875,0.0174403796225786,-0.0369303852513432,-0.0192662250765599,0.0005621197633445,0.0017771396087482,-0.0005875520873814
1774469814702972200,3.69697216796875,0.0098158760935068,-0.0142054893545806,-0.0206118857981637,-0.0018685471732169,0.000488169491291,-0.000300463521853
1774469814712988200,3.70698828125,-0.0044096331357955,-0.0148968326196074,0.0028152948827482,0.0002413995098322,-0.0039390353485941,-0.0008628632640466
1774469814723005200,3.717005126953125,0.0089081135988235,-0.008067863382399,0.0003602846797555,-0.000870736548677,-0.001138454885222,-0.0006255755433812
1774469814733021200,3.727021240234375,-0.0023123685956001,-0.0015320318728685,-0.0032383060677908,0.0020304706413298,-0.0042818854562938,-0.00057968206238
1774469814743037200,3.737037109375,0.0075374097675085,-0.0256507202155888,-0.006006455606874,-0.0005935416556894,-0.0019233901984989,0.0004096822813153
1774469814753053200,3.74705322265625,0.0036503392010927,-0.0039576515845954,-0.0165773147861473,-0.0013858301099389,0.0016929062549024,-0.0012351241894066
1774469814763069200,3.757069091796875,0.0093348145782947,-0.0196677002832293,-0.0084470719583332,-0.0011053993366658,-4.5927008613e-06,0.000464771525003
1774469814773085200,3.767085205078125,0.009449965390563,-0.0182459969170391,0.0161365852813236,-0.0012825790327042,-0.0017811327707022,0.0003927361685782
1774469814783101200,3.77710107421875,0.0200613757759332,-0.0053206105008721,-0.0053578189724124,-0.0003193134907633,-0.0003422267618589,0.0003205644898116
1774469814793117000,3.787116943359375,0.0040419688671827,-0.0198982941687107,-0.0270030116073787,-0.0019754138775169,0.0018264292739331,0.0004060581559315
1774469814803134200,3.79713427734375,-0.0101648356616497,-0.0062931087948381,-0.0170793642904609,0.000657919794321,0.0021241707727313,-0.0013034250587224
1774469814813150200,3.807150146484375,0.0042196635216474,-0.0317335472606122,0.0116392373294569,-0.0013423115015029,0.0001041643554344,-7.10883177816e-05
1774469814823166200,3.817166259765625,0.0148369191259145,-0.0117719785973429,0.0135854942927137,-0.0002584049943834,-0.0021009328775107,0.0005134755047038
1774469814833182200,3.82718212890625,0.0136351421207189,-0.0053694180786609,-0.0030164434780366,-0.0004688671324402,-0.0032199721317738,-0.0013384656049311
1774469814843198000,3.837197998046875,-0.010753449204564,-0.0202568983480334,0.0008114259807392,0.0004296831320971,-0.0024346061982214,-0.0013539120554924
1774469814853214000,3.8472138671875,-0.0068541036784648,-0.0095389588482677,-0.0065818808746524,-0.0008782723452895,0.000326870009303,-0.0003295622300356
1774469814863230200,3.857230224609375,0.0055564650833606,-0.0185967100508511,-0.0215235755492933,-0.000742983771488,-3.71842179447e-05,0.000489093363285
1774469814873246200,3.86724609375,0.0104781393945217,-0.0174742818921804,-0.0017000453835353,-0.0004836267326027,-0.0021878178231418,5.31066907569e-05
1774469814883263200,3.87726318359375,0.0095662852466106,-0.0232693780370056,-0.0012442279074341,-0.000508926808834,-0.0027542719617486,0.0014525977894663
1774469814893279000,3.887279052734375,-0.0106698625743389,-0.023786241517961,-0.017352829203289,0.0004705800674855,0.0001275548711419,-0.0001231181668117
1774469814903295000,3.897294921875,0.0134147773683071,-0.0141188339844346,-0.0133103854120709,-0.0007598004303872,0.0005528617184609,0.0003621098585426
1774469814913311200,3.907311279296875,-0.0067927288800477,-0.0158938808329403,-0.0042146037540398,0.0013018273748457,-0.0031689386814832,0.0005908157909289
1774469814923327200,3.9173271484375,-0.0008177461236715,-0.0124194827206432,-0.0004063157785683,-1.35076697915e-05,-0.0013635817449539,0.0004669788759201
1774469814933343200,3.92734326171875,0.0005132102191448,-0.0254920225225388,-0.0025088227494619,-0.0009036862757056,-0.0013725707540288,0.0010037247557193
1774469814943359200,3.937359130859375,0.0045399815171957,-0.0262875568144023,-0.0086345573544502,-0.0002117971889674,0.0005819231737405,0.000997599447146
1774469814953376000,3.9473759765625,0.0127612818956375,-0.014375439094007,0.0018901611281558,0.0004052189178764,0.0010878129396587,-0.000235128798522
1774469814963392300,3.957392333984375,-0.0008645078748464,-0.0233028419151902,0.0188911812190897,-5.47089148312e-05,-0.0006650798022747,-0.0011376739712432
1774469814973408300,3.967408203125,-0.0047656069666147,-0.0175951317928731,0.0122705209703184,0.0007400191389024,-0.002374195959419,-8.15514940768e-05
1774469814983424300,3.97742431640625,1.87047004699e-05,-0.0213726045049726,-0.0237853830014355,-0.0017511018086224,-0.003242652863264,-0.0006994048599153
1774469814993440300,3.987440185546875,-0.0023772505253553,-0.0391807945266366,-0.0135548068935051,0.0008497720118612,0.0011093653738498,-0.0006551296683028
1774469815003456000,3.9974560546875,-0.0050683893054723,-0.0193003282755613,-0.0086075780159793,0.0006998360622674,-0.0016954757738858,-0.0001669722842052
1774469815013472000,4.007471923828125,-0.0092792849987745,-0.016930384273827,0.0086456632703542,0.0002985822502523,-0.0018699907232075,0.0023582901339977
1774469815023488000,4.017488037109375,0.0227262110710144,-0.0256608032181859,-0.0045376251633279,0.0004597033839672,0.0005188648356124,-0.0011011562310159
1774469815033505300,4.02750537109375,0.0156914901286363,-0.0296858209505677,-0.0266911326466128,-0.0001418311148881,-0.0008377746562473,0.0003843331942334
1774469815043521300,4.037521240234375,-0.0149959090799093,-0.0164218502297997,0.001130191340018,-0.0020968574099242,5.38516324013e-05,-0.0002276611048728
1774469815053537000,4.047537109375,0.0042956513673067,-0.0106587566584348,-0.0004466843215748,0.0012498209252953,-0.0010242622811347,0.0009738379158079
1774469815063553000,4.057552978515625,0.0030897827088832,-0.0360473188064992,-0.0110007932954467,0.00167539389804,0.0006652470910921,0.0014129931805655
1774469815073569000,4.067569091796875,0.0122130003631114,-0.027334435518831,-0.0097795078721828,-0.0004380131140351,0.0016026349039748,-0.0007053833687677
1774469815083585000,4.0775849609375,0.0131084878981113,-0.0072739365257322,-0.0034456104092299,-0.0018683969974517,-0.00173856690526,-0.000105639337562
1774469815093601300,4.087601318359375,0.0044306759238243,-0.0061120531395077,0.0001094882564619,4.95766289532e-05,-0.0025221989490091,-0.0009610739070922
1774469815103617300,4.0976171875,0.0029302082329988,-0.0182283151298761,-0.0045637642515823,0.0001382597256451,-0.000850798911415,0.0007745081093162
1774469815113634000,4.107634033203125,-0.0084597853094339,-0.0091501056611537,-0.0052923890533857,0.0002028157468885,0.0004521291702985,-0.0004441479686647
1774469815123650000,4.117650146484375,0.0142810388088226,-0.0222797824777662,0.0060537836136296,-0.0006797558162361,-0.0006560120964422,-0.000728040933609
1774469815133666000,4.127666015625,0.0150245506525039,-0.0146476801641285,-0.0120559283715672,0.0003841377329081,-0.0028010320384055,-0.0006715327035635
1774469815143682300,4.137682373046875,0.0112666594237089,-0.0215878546908497,-0.0048427273234352,-0.0004108157008886,0.0003729233285412,0.0008323544170707
1774469815153698300,4.1476982421875,0.0012228197932243,-0.0256613877400755,-0.0018885902255773,-0.0004907143302261,-0.0020223082974553,-0.0006142354104667
1774469815163714000,4.157714111328125,0.023361001843214,-0.0389350030720233,0.0008994147914461,0.0004887962713837,-0.0006092350231483,-0.0007085113320499
1774469815173730000,4.16772998046875,0.0063099137991666,-0.0313837109096348,0.0011453158439137,0.001176624558866,-0.0006579775363206,-0.0008949894690886
1774469815183746000,4.17774609375,-0.0014718261182308,-0.0040085049889981,-0.005984627367556,0.0012413393706083,-0.0010923391673713,-0.0005612954264506
1774469815193763300,4.187763427734375,-0.0065682724744081,-0.0332880832262337,0.0056134011686779,0.0010232930071651,0.0001915774773806,-0.0008555178064852
1774469815203779300,4.197779296875,0.0223088624417781,-0.0241559516131877,-0.0133034807472489,0.0012999949976801,-0.002065451350063,-0.0003641645889729
1774469815213795000,4.207795166015625,0.0020978490620851,-0.0230795545533299,-0.0129280898299068,-5.79077750444e-05,-0.0013353845570236,0.0010778484866023
1774469815223811000,4.21781103515625,0.0041781624674797,-0.024026772275567,-0.0128763596426695,-0.0011234383564442,-8.71609081514e-05,-0.0003424151800572
1774469815233827000,4.2278271484375,0.0095639471590518,-0.0235972948171198,-0.0030296317531727,0.0010277810506522,-0.0010005627991631,-7.56948720663e-05
1774469815243843000,4.237843017578125,0.0170160167306661,-0.013685411003232,0.0034831294080242,0.0019007651135325,-0.0017190836369991,0.0011624087346717
1774469815253859000,4.247859130859375,0.0104150110304355,-0.0111823421411216,-0.0017961627017706,-0.0004982030950486,0.0008902514819055,-7.15123023837e-05
1774469815263876000,4.2578759765625,0.0149070617526769,-0.0314263810075819,-0.008589786630962,0.0004714541137218,-0.0023244502954185,-0.0009082774631679
1774469815273892000,4.26789208984375,-0.0072404726475477,-0.0211228675276041,-0.0006731134885922,2.42341775447e-05,-0.0003371667698957,-0.0022933282889425
1774469815283908000,4.277908203125,-0.0174099844843149,-0.0087719199985265,-0.0047650589773431,0.0008024098351597,-0.0015305292326956,-0.0009857158875092
1774469815293924000,4.287924072265625,-0.0045557636082172,-0.0235150233611464,-0.0135626431400887,0.0005167631898075,-0.001014317269437,0.0006949353264644
1774469815303940000,4.297940185546875,-0.0036678748577833,-0.0253888544090092,0.0050290984747,-0.0001711312215775,0.0006323151756078,-0.0015756757929921
1774469815313956000,4.3079560546875,0.0095019878387451,-0.016727993569523,-0.0052834568282589,4.85077034682e-05,-0.0014856774359941,-0.0009623293299227
1774469815323972400,4.317972412109375,0.0059106853485107,-0.014660685776174,-0.0063532232179306,0.0002128246705979,-0.0009589042165316,0.0001673835795372
1774469815333988000,4.327988037109375,0.0038093291550874,-0.0300378492586314,0.0008757781875319,0.0009093203116208,-0.001760303042829,0.0012980255996808
1774469815344005000,4.338005126953125,0.0009463409394025,-0.0239199509002268,-0.0023037651640363,0.0019138648640364,-0.000224458053708,0.0010583411203697
1774469815354021000,4.348021240234375,-0.0032534488379955,-0.0073953709483146,-0.0160032229589298,-0.0003537884913384,-0.0004322917666286,-0.0003213369054719
1774469815364037000,4.358037109375,-0.0026572365105152,-0.0131061498105525,-0.0022002682569436,1.2109521776e-06,-0.0029314020648598,0.0007053116569295
1774469815374053000,4.36805322265625,0.0037695816665887,-0.0104100425943732,0.0002894844658672,1.5904661267e-06,-0.0016141241649165,-0.0011129368795081
1774469815384069000,4.378069091796875,0.0092909754365682,-0.0180893450506031,-0.0084623791253194,0.0007664505392313,-0.0006255587795749,0.0004647197201848
1774469815394085000,4.388085205078125,0.0148240596443414,-0.0147718910656869,-0.0208748110506683,0.0012312112376093,0.0016568796709179,0.0004454955924302
1774469815404101000,4.39810107421875,-0.0080775079935789,-0.0169292152300477,-0.0071098137388937,-0.0003847950138151,0.0013610026799142,0.0002337741898372
1774469815414118100,4.4081181640625,0.0094184012085199,-0.0090466452866792,0.0051319560609757,-1.87142286449e-05,-0.0007297023548744,-1.50103587657e-05
1774469815424134100,4.418134033203125,0.0064198039144277,-0.0135026017822325,0.0054769701063632,-0.0016879835166037,-0.0009281078819185,0.0001373224658891
1774469815434150100,4.428150146484375,0.0147995097249746,-0.0189075295656919,0.0033241577203385,0.0005101831629872,-0.000833002035506,-0.0006023888709023
1774469815444166100,4.438166259765625,0.0005775076270103,-0.0229224642954766,-0.0199248168494552,0.0011815661564469,-0.0011757508618757,-1.03682978078e-05
1774469815454182100,4.44818212890625,0.0108954880237579,-0.0227208042435348,-0.0025558767615817,0.0001109719742089,-0.0018101015593856,-0.0001296385889872
1774469815464198100,4.4581982421875,0.0034106852263212,-0.0246649240486323,-0.0145811542665585,0.000104313949123,0.0006352129857987,0.0002996629336848
1774469815474214100,4.468214111328125,0.0008627543091773,-0.0024957623384892,0.0080502546604722,-0.0003045592457056,-0.0005253454437479,-0.0005798805505037
1774469815484230100,4.478230224609375,0.0011538462102413,-0.0147248370535671,-0.0011079064429737,-0.0005357216577976,-0.0018531975802034,0.0004968353314325
1774469815494247200,4.4882470703125,-0.001693359914422,-0.0157798990644514,0.0095419910555705,0.0016381507739424,-0.002390896435827,-0.0006398587720468
1774469815504263200,4.49826318359375,-0.0028957214415073,-0.0112862409070134,-0.0214402081147767,0.00105438567698,0.0002917057136073,-0.0006193524459376
1774469815514279200,4.508279052734375,-0.0030377602607011,-0.0254059516742825,-0.0175715682541951,0.0003411474172025,0.0001552648609504,-0.0009358760435134
1774469815524295200,4.518295166015625,-0.0055821840465068,-0.0212457632549107,0.0053313876232132,-0.0002335626631975,-0.0013805801281705,-0.001563583035022
1774469815534311200,4.528311279296875,0.0033855507850646,-0.0167063662596046,0.0114489754543639,-0.0017506558215245,-0.0022191158495843,0.0002201328752562
1774469815544327200,4.5383271484375,0.012640870386362,-0.0273496330879628,0.0040005226119421,-0.0005602228920906,-0.0010563797550275,0.0004600837128236
1774469815554343200,4.54834326171875,0.009205635240674,-0.0212863875262439,-0.0125100105483084,-0.0007595340721309,-0.0005707259988412,-0.0003159310435876
1774469815564359200,4.558359130859375,-0.0006815525233745,-0.0239025613740086,-0.016211586746294,-0.0007257119286805,0.0003193024313077,-0.0002474876819178
1774469815574376200,4.568376220703125,0.0094838676601648,-0.0159054251402616,-0.0055299972015433,0.0004224092699587,-0.0026742191985249,0.0010279288981109
1774469815584392200,4.57839208984375,0.0111170218199491,-0.0094216160789132,-0.0042671011262573,-7.53356143832e-05,-0.0017229379154741,0.0001168614253401
1774469815594408200,4.588408203125,-0.0043079263269901,-0.0201342948816716,-0.0033573476038873,-0.0004470292478799,-0.0012196719180792,-0.0006463101599365
1774469815604424200,4.598424072265625,0.0062941317081451,-0.014166472518444,-0.0054214587931521,0.0008997314143925,-0.0020106309093534,-1.24777434393e-05
1774469815614440200,4.608440185546875,0.006896773776412,-0.0251141291208565,-0.0139931435118429,-4.5696273446e-05,0.0009082186734303,-0.0003037501592189
1774469815624456200,4.618456298828125,-0.0014893617749214,0.0038169279396533,-0.0002304660213179,0.000111696543172,-0.0011581280268728,-2.11886363103e-05
1774469815634472400,4.628472412109375,0.0058306058496236,-0.0042032969087362,0.0024866474502719,0.0006516405846923,-0.0016459762118756,-0.0004824062343686
1774469815644489200,4.6384892578125,0.0167523973584175,-0.0137904788129031,-0.0047445276459679,-0.0005164218600839,-0.0004819085588678,-0.0001420541666448
1774469815654505200,4.648505126953125,-2.39653974771e-05,6.00596241652e-05,-0.0181673604565672,0.0008052194025367,-0.0023391149006783,0.000193452113308
1774469815664521200,4.658521240234375,-0.0073585460692644,-0.012077683545649,0.0032522797942161,0.0004193272907286,-0.0003667779965326,-0.0012973855482414
1774469815674537200,4.668537109375,-0.0037625674039125,-0.0152682962805032,-0.0107733046825043,-0.0006767485756427,0.0002387643326073,-0.0014216264244168
1774469815684553200,4.67855322265625,0.0098521164506673,-0.0229002524636685,-0.0127800231287255,9.79648903012e-05,-0.0005758967017754,-0.001204578904435
1774469815694569500,4.688569580078125,-0.0025660510957241,-0.0224690214395523,-0.0037854368228465,-0.0005791664589196,0.0011778869666159,-0.0009601701749488
1774469815704585200,4.698585205078125,-0.00257364988029,-0.012231558933109,-0.017865436634235,-0.0004233715590089,0.0003230122383683,0.0009099016315303
1774469815714601200,4.708601318359375,-0.0036287118911743,-0.0123217214345932,0.0072807315926998,7.34606292098e-05,-0.0006608376861549,0.0010263902368023
1774469815724618200,4.7186181640625,-0.0004985971719026,-0.0149580612875521,-0.0037936201293021,-6.167916581e-06,-0.0010717634577304,-0.0006431454094126
1774469815734634200,4.72863427734375,0.0053325931996107,-0.0077576283894479,-0.0143336640452034,-0.0004270188510417,-0.0012238109484314,0.0003707404248416
1774469815744650200,4.738650146484375,0.0196785139381885,-0.0133158470384776,-0.010338584793359,0.000786583404988,-0.0010858592577278,0.000201896065846
1774469815754666200,4.748666259765625,0.0059054246515035,-0.0212112764634191,-0.0114684473398141,-0.0005561851430684,0.0005453397752717,-0.0010433592833578
1774469815764682200,4.75868212890625,0.0090425536334514,-0.0124874333903193,-0.0078916300326585,-0.0014265060890465,-0.0014517647214233,5.7058990933e-05
1774469815774698200,4.7686982421875,-0.0016027590215206,-0.0081684011474251,-0.0147791427903808,0.0001169838942587,-0.0014277498703449,0.0010276134125888
1774469815784714200,4.77871435546875,0.0117079734504222,-0.0239893628746271,-0.0046957566007971,-0.0005767697002738,-0.0006543678464367,0.000175135442987
1774469815794730200,4.788730224609375,0.0018242928177118,-0.0197676535263657,0.0059022645800374,0.000828314339742,0.0003421870060265,0.0001791302347555
1774469815804747300,4.798747314453125,-0.005518471160531,-0.0082971420936286,-0.0034354360750876,0.0005188549403101,-0.0007949827704578,-0.0004144884878769
1774469815814763300,4.80876318359375,0.0069026189953088,-0.0191400231473147,-0.0069158986019901,0.000215032370761,-0.0015139512252062,-0.0003983697388321
1774469815824779300,4.818779296875,-0.0079115037769079,-0.0315581906937062,-0.0058734768769703,-0.0021591754630208,-0.0001666580792516,0.0006557093001902
1774469815834795300,4.828795166015625,0.0018003274202346,-0.0190660811282694,-0.0098926859230734,0.0008853448089212,-0.0017059401143342,0.0001788147492334
1774469815844811300,4.838811279296875,0.0013274492114782,-0.0106749771408736,0.0010101268906146,-0.0009434479288756,0.0007801206083968,0.0015463479794561
1774469815854827300,4.8488271484375,0.0198895263403654,-0.0249525088183581,0.0029707777054049,0.0003833076916635,-0.0005065985606051,-0.0014319317415356
1774469815864843300,4.85884326171875,0.0031225159347057,-0.0292424610972404,-0.0062646681516431,0.0006709289737045,0.0004265730967745,0.0008410761365666
1774469815874859300,4.868859375,0.0031073183655738,-0.0192632111355662,0.0038287279753014,0.0010270250495523,-0.0003764901775866,-0.0002230561804026
1774469815884876300,4.878876220703125,-0.0054249476581811,-0.0200000009775161,0.0001376366387121,9.4312708824e-06,-0.0002928669564425,-0.0005154714453965
1774469815894892300,4.888892333984375,-0.0025789105772972,-0.0264607214242219,-0.0041780711359344,-0.0004279681015759,-0.0016437247395515,0.0001250499626621
1774469815904908300,4.898908203125,0.0071346741855144,-0.0007959726832807,-0.0057268532142043,-0.0008594002574682,-0.0004650096525438,-0.0003599115880206
1774469815914924300,4.90892431640625,0.0027951836764812,-0.0174264972276985,5.12187305837e-05,0.0015349676832556,-0.0008923904970288,-0.0003592424327507
1774469815924940300,4.918940185546875,-0.0096311671763658,-0.0337003172889351,-0.0048278037489391,0.0011914200149476,0.0001089579891413,0.0010394498240202
1774469815934956300,4.928956298828125,0.012053425887227,-0.0051956689469516,-0.0132490106136538,0.0001028382685035,-0.0003679593210108,-0.0001756696728989
1774469815944972300,4.93897216796875,-0.0008235913425683,-0.0121679921776056,-0.0084392905106768,0.0007294798269867,0.0011489773169159,-0.0004102942766621
1774469815954989300,4.9489892578125,-0.0030839374899864,-0.0231299695663154,0.0173600626616738,-0.0003099176101386,-0.0020530740730464,0.0001002615317702
1774469815965005000,4.959005126953125,0.0114192196369171,-0.0145638012729585,-0.0093554372412152,0.0003694547340273,-0.000334269949235,0.0002901449333876
1774469815975021300,4.969021240234375,0.0001999064862728,-0.0191924839869141,-0.005307056899555,-0.0004205864388495,0.0010772607056424,-0.0004994014743715
1774469815985037300,4.979037353515625,0.0003548047870397,-0.0112912093430757,0.0054178055313415,-0.0011289874091744,-0.001001336495392,-0.0007073944434523
1774469815995053300,4.98905322265625,-0.0066869304180145,-0.000306727861613,0.0102326767334714,0.0002217679284512,-0.0006069223163649,-0.0001840833574533
1774469816005069300,4.9990693359375,0.0009229600638151,-0.0157227620497345,-0.005531294109486,-0.0006714563351124,-0.0014016095083206,-0.0004546605050563
1774469816015085300,5.009085205078125,-0.0044663317590951,-0.0091540511839091,-0.0038968430417589,-0.0007776992861181,-0.000406455801567,-0.0002914289943873
1774469816025101300,5.019101318359375,0.004354688078165,0.0043802609108388,-0.0137922506448812,-0.0006429434288293,0.0017256708815693,0.0018510840600356
1774469816035118300,5.029118408203125,0.002250993797183,-0.0151266958527266,-0.0097351572738029,0.0004181810654699,3.33390198647e-05,0.0004218051908537
1774469816045134300,5.03913427734375,0.014214987835288,-0.0183763452984392,0.001093110732641,-0.0002915514633059,-0.0008745326194912,-0.000619224505499
1774469816055150300,5.049150390625,0.0110673374593257,-0.0165517602197825,-0.004236505058594,0.001332969404757,0.0013124800752848,0.0002233261475339
1774469816065166300,5.059166259765625,0.0041822541207075,0.004442366361618,-0.0101948837400414,0.0006173779256641,0.00093271327205,-0.0002408629516139
1774469816075182000,5.06918212890625,0.0058323594152927,-0.0295772460095584,0.0199662265720777,0.0017992523498833,-0.0016940851928666,-0.0006448540370911
1774469816085198000,5.079197998046875,0.019291560447216,-0.0201119369193911,-0.001931461252924,0.0005763289518654,-0.0003923320327885,0.0002140154829248
1774469816095214300,5.08921435546875,0.0125491004496812,-0.0139097212783992,-0.0129917296506464,-0.0012624221853911,-0.0009241097141057,-0.0012751290341839
1774469816105231400,5.0992314453125,-1.69511348009e-05,-0.0270021348245441,0.0066625631617382,4.51898667961e-05,-0.0015574095305055,-0.0012559542665258
1774469816115247400,5.109247314453125,0.0097018943250179,-0.011881868712604,-0.0004462641964666,-0.000434520188719,-0.0007924116216599,0.0012106043286621
1774469816125263000,5.11926318359375,-0.0012274959683418,-0.0187264739103615,-0.0047568026056513,0.0020286375656723,0.0001037420588545,-0.0004077986814081
1774469816135279000,5.129279052734375,0.0044587329745292,-0.0155903678417205,-0.0072784483040682,-0.0006878974381834,0.0001301626907661,-0.0008763176156207
1774469816145295400,5.13929541015625,-0.004375146344304,-0.0176582601569592,0.0023534312583506,-0.0004295706748962,-0.0004368242807686,0.0005567295011132
1774469816155311400,5.149311279296875,-0.0007990414232015,-0.0114094288952648,0.0062785322802141,0.0002996346447616,-0.0012108657974749,0.0008904526475816
1774469816165327400,5.159327392578125,-0.0025935236245393,-0.0349142231233417,0.0017932035597041,0.000242376467213,-4.36023110523e-05,0.0004001647466793
1774469816175343400,5.16934326171875,-0.001107668980956,-0.0020722762294113,-0.001150649606157,-0.0020390988793224,0.0004916667821817,-0.0008805830730125
1774469816185360100,5.179360107421875,0.0072609309136867,-0.0129116501517593,0.0036512159839272,-1.96238979697e-05,-0.0010223402641713,-0.0004073391901329
1774469816195376000,5.189376220703125,0.0090425536334514,-0.0119129945032298,0.0092259656426496,0.0007009534165263,0.0016901227645576,0.0002613040851429
1774469816205392400,5.199392333984375,0.008278583523631,-0.006868716725707,-0.0095569328963756,6.84526748955e-05,-0.0022689325269311,0.0014434813056141
1774469816215408400,5.209408447265625,-0.0020697920113801,-0.019430530526489,-0.0106504820204339,0.0018071590457111,-0.000763694755733,0.0019012431148439
1774469816225424400,5.21942431640625,0.0003045359045267,-0.0106087800368666,2.78926539234e-05,-4.6134693548e-05,-0.0005090965423732,0.0015513037797063
1774469816235440000,5.229440185546875,0.0143628718733787,-0.0174316117942333,0.0007736147210001,-0.0019690985791385,0.00034890655661,0.0008283163188025
1774469816245456100,5.2394560546875,-0.0067436290413141,-0.017367752777785,-0.0062821855420246,-0.0011182187590748,-2.76644714176e-05,0.0002586662303656
1774469816255472000,5.24947216796875,0.0092734397798776,-0.0231055657774209,0.0054339712148532,0.0007520078215748,0.0007760183070786,-0.0010391796240583
1774469816265489400,5.259489501953125,0.0031429742008447,-0.0219521579585969,0.0068003276646137,-0.0001729079522192,-0.0009331984911113,-0.0004980253288522
1774469816275505400,5.26950537109375,-0.005537175861001,-0.0131149176388978,-0.0002331694350577,-0.0015651748981326,-0.0005064069991931,-8.33198428153e-05
1774469816285521200,5.279521240234375,0.0112140524536371,-0.018291005102545,-0.0135359195299446,-0.0011617059353739,0.0003130476106889,0.000442654476501
1774469816295537200,5.289537109375,0.0005856909334659,-0.0082375208608806,-0.0008000095375813,0.0007236704695969,-0.0009535857243463,-0.000308524351567
1774469816305553200,5.29955322265625,0.0065606736898422,0.0045193771205842,-0.0039023594670929,-4.38524875789e-05,-0.0022300388664007,0.0002241077600046
1774469816315569200,5.309569091796875,0.006094809743762,-0.0166164960190653,-0.002613525232952,-0.0003969219978898,0.0011056680232286,0.0001251720823347
1774469816325585400,5.31958544921875,-0.0019873744249343,-0.0213645673289895,-0.0106594690444879,-0.0002022448461502,0.0002675711293704,0.0015358484815806
1774469816335601400,5.329601318359375,-0.011132219389081,-0.0185360659047961,0.0038514147311449,-0.0007588337175548,0.0002228141529485,-0.0004327857168391
1774469816345618200,5.3396181640625,-0.002465513330698,-0.011131196475774,-0.0044425490247085,-0.0004278027918189,-0.0018544514896348,-0.0008929799078032
1774469816355634200,5.34963427734375,0.0129378075063228,-0.0137825877673923,-0.0132768667349591,0.0009928636718541,-0.0013252958888188,-0.0003961191978305
1774469816365650200,5.359650146484375,0.0093500121474266,0.0012849252440035,-0.008119502238091,0.0002509069163352,0.000386850326322,-0.0013961361255496
1774469816375666400,5.36966650390625,-0.0050058454632759,-0.0116362233884632,-0.0152250781932845,-0.000342482002452,0.0002295082667842,-0.0003111055120825
1774469816385682400,5.379682373046875,-0.0207277307301759,-0.0063011459708213,-0.0136775016914121,-0.0015086801722645,0.0004654644289985,0.0003980943001806
1774469816395698400,5.389698486328125,0.0169756847202777,-0.0179616270177066,0.0067944824457168,0.000924615887925,-0.0030559012666344,-7.53311906e-06
1774469816405714200,5.399714111328125,0.028045944789052,-0.0007712766334414,-0.0075402593117207,-7.77977984398e-05,0.0018168846145272,-0.0015188769903033
1774469816415731200,5.409731201171875,-0.0069593176186084,-0.0005175941333174,-0.0215799271127209,-0.0003853342495858,0.0020351181738078,-0.0006461540469899
1774469816425747200,5.419747314453125,-0.0084545246124267,-0.0258100024305284,-0.0046967064488679,-7.74727668613e-05,-0.0006924915942363,0.0009663900709711
1774469816435763500,5.429763427734375,0.0046948798179626,-0.0146247376799583,0.0118961164336651,-0.000268944306299,-0.0011452718172222,-0.0004052554722875
1774469816445779200,5.439779296875,0.0151572371214628,-0.0042563422702252,-0.0037445750894956,0.0016506623942404,-0.0017748430836945,5.94662269577e-05
1774469816455795200,5.449795166015625,0.0022784663259983,-0.0257554957643151,-0.0124529283325187,0.000180470990017,-0.0002629350346978,-0.0011126790195703
1774469816465811200,5.459811279296875,-0.0025070143848657,-0.0205360075503587,-0.0006468648024834,-0.0015897320117801,-0.0009441716247238,0.0005366166587918
1774469816475827200,5.4698271484375,-0.0126975690096616,-0.0083002108335494,0.0002671447698958,-0.0003733525518327,-0.0014801879879087,0.0008534243097528
1774469816485843200,5.47984326171875,0.0098971246361732,-0.0306138955809175,-0.002037168383412,0.0011049681343138,-0.0005691205151379,-0.0011394191533327
1774469816495860200,5.489860107421875,0.0079535893529653,-0.0213873636826872,-0.0114447559369727,0.0009552205447107,-0.0011467144358903,0.0012766988947987
1774469816505876200,5.499876220703125,0.0029974282503128,-0.0100246965385973,-0.0042597763363271,0.0027161028701812,0.0052792271599173,0.0025363741442561
1774469816515892200,5.509892333984375,-0.0391834248751401,0.0261864345274865,-0.0153873378165997,-0.0134512623772025,0.0322806723415851,0.0215368047356605
1774469816525908200,5.519908203125,0.1313011520802974,0.054417965016514,0.0954798971146345,0.0076526906341314,0.0053462604992091,0.0046196072362363
1774469816535924200,5.52992431640625,-0.0116208796888589,-0.0069894204959273,0.1339248151147738,0.0225380454212427,0.0083992443978786,-0.0024842272978276
1774469816545940200,5.539940185546875,-0.0700736531794071,-0.111133685581386,-0.1451891181846149,-0.0001281180884689,0.0231696683913469,0.0006018438143655
1774469816555956500,5.54995654296875,0.0366740724027156,-0.0679636752881109,-0.150770334116742,-0.003899680217728,-0.0090394271537661,-0.0029996267985552
1774469816565972200,5.55997216796875,-0.0455015219807624,0.0481732254080474,0.0954938708410598,0.0131405564025044,0.0216031707823276,0.0055845403112471
1774469816575990000,5.569989990234375,0.0385807828068733,-0.0348483182802796,0.0305316423912532,0.0056433035060763,0.0410899966955184,-0.0118686221539974
1774469816586006000,5.580006103515625,0.0764601393461227,0.0138894091427326,-0.0544615849625319,0.0005577311385422,0.0041876407340168,-0.0003752176417037
1774469816596022000,5.59002197265625,-0.0199912331491708,-0.0135870651952922,-0.0532548212549649,-0.0055494313128292,-0.0209371428936719,0.0051010786555707
1774469816606037800,5.600037841796875,-0.0215174198031425,-0.0199262050889432,0.0244860420840792,0.0007297697011381,-0.0034537576138973,-0.0042021418921649
1774469816616053800,5.6100537109375,-0.0841951175123453,0.0024378946714103,0.0403910105666145,0.0047797160223126,0.0173990149050951,0.0034761861898005
1774469816626069800,5.62006982421875,0.020572832429409,-0.0326591376729309,-0.0491131183403544,0.001837988384068,0.005425710696727,-0.0031236598733812
1774469816636086000,5.6300859375,0.0971340940624475,-0.0375941098570823,-0.0653688364893197,-0.002414014423266,0.0122053194791078,-0.008243054151535
1774469816646102800,5.640102783203125,0.0039198037922382,0.0120151397034525,0.0291612673535011,-2.24958639591e-05,0.0177726577967405,-0.0088792834430933
1774469816656118800,5.650118896484375,-0.063244099420309,-0.0144612176813185,0.0415159777422435,0.0011610896326601,0.0101122986525297,-0.0104538416489958
1774469816666134800,5.660134765625,-0.0408282694727182,-0.0480808709494769,-0.0307865304677747,0.0064408066682517,0.020162533968687,-0.0021841942798346
1774469816676150800,5.67015087890625,0.0221907890200614,-0.0731549603208899,-0.0569504426361992,-0.0009996893350034,0.0353868603706359,-0.0147370360791683
1774469816686167000,5.6801669921875,0.0400824195414781,-0.0111998777978122,-0.0766587123918347,-0.0065403962507843,0.0235632248222827,-0.0059627196751534
1774469816696183000,5.69018310546875,-0.0074883099287748,0.0373212842650711,0.0276140561778098,-0.0088053345680236,-0.0059116324409842,0.0001557568321004
1774469816706199000,5.700198974609375,0.0906996771007776,0.0698046269796788,0.1543310588056221,0.00641596224159,-0.0158830415457487,-0.0039529679343104
1774469816716214800,5.71021484375,-0.0904635302573442,0.0017225860089063,0.0197019861453212,-0.0079161822795867,-0.0005663583287969,0.0132801784202456
1774469816726231800,5.720231689453125,0.1142816282182931,-0.0185948103547096,-0.0635072073359042,6.6909007728e-05,-0.0431183464825153,-0.0021762754768133
1774469816736247800,5.730247802734375,-0.0062847793579101,-0.0317959449723362,0.0828685268173925,-0.0008908119052648,-0.0223625358194112,0.0030820360407233
1774469816746264000,5.74026416015625,-0.0609317308247089,0.022999182793498,-0.0503207222981378,0.0048187389038503,0.0112604042515158,-0.0010637067025527
1774469816756280000,5.750280029296875,-0.0681874010413885,0.0021948796957731,-0.1186902932397089,-0.0064180004410445,0.0339917987585067,0.0017751273699104
1774469816766295800,5.7602958984375,0.0439630603671073,-0.1289402681678533,-0.0501333830324932,-0.0067053553648293,-0.0018908351194113,-0.0046950224786996
1774469816776311800,5.770311767578125,0.0928857889682054,0.039136224732548,0.1442438366911373,0.0064053852111101,-0.0240272879600524,0.0008507821476086
1774469816786327800,5.780327880859375,-0.0267535668909549,0.076146251091361,0.0955764528242871,0.0044682016596198,-0.0132308322936296,0.002217249944806
1774469816796343800,5.79034375,-0.0225917710363864,-0.0697058427803218,-0.1441191143329255,-0.0011422797106206,-0.0001957239583134,-0.0007654902292415
1774469816806361000,5.800361083984375,-0.0415524920940399,-0.0594789016678929,-0.1110734980930574,-0.0051010688766837,0.0199369750916957,-0.0017876116326078
1774469816816376800,5.810376953125,0.0102893388241529,0.0386725527435541,0.0663744881342165,-0.0015709737781435,0.0094054704532027,-0.0033043413423001
1774469816826392800,5.820392822265625,0.063721653804183,0.0134022101476788,0.0803327795283868,0.002252526814118,-0.0105663733556866,0.0005401979433372
1774469816836408800,5.830408935546875,0.0089069445550441,-0.0232547649897634,0.0282625832144171,0.0028251854237169,-0.0189258214086294,0.0007083738455548
1774469816846424800,5.8404248046875,-0.0232967044353485,-0.0142148417048156,-0.0455761033206246,4.35134861618e-05,0.0054575484246015,0.0018095909617841
1774469816856440800,5.85044091796875,-0.0148673142641782,-0.0176088680572807,-0.0851574780047871,-0.0031994925811886,0.015108335763216,-0.0022743807639926
1774469816866457000,5.86045703125,0.0043143560677766,-0.0293738323919475,0.010046068120189,-0.0021968125365674,-0.0036211432889103,0.0005949087208136
1774469816876473900,5.870473876953125,0.0170317988216876,-0.0016956980019807,0.0922744886694476,0.002691188128665,0.0032603379804641,-0.0018135528080165
1774469816886489900,5.88048974609375,0.0305342544734478,0.0051253801897168,-0.0338602753573097,-0.0004324337933212,0.0014224904589354,-0.0018202108331024
1774469816896505900,5.890505859375,-0.0402437475830316,-0.0484524807408452,-0.0425240588062442,-0.0014717928133904,-0.0025642828550189,0.00046316254884
1774469816906521900,5.90052197265625,-0.0604530073970556,0.0034317280143499,0.0334388533411547,0.0037887492217123,0.007644678466022,0.0008184282341971
1774469816916538000,5.9105380859375,0.0330915377408266,-0.0081169632211327,-0.004893946054019,-0.0015528642106801,0.0020610052160918,-0.001535736140795
1774469816926553900,5.920553955078125,0.0392430461078882,-0.0293165492467582,-0.0431761477731168,-0.0027182635385543,0.0030996380373835,-0.0013421244220808
1774469816936569900,5.93056982421875,-0.0108779523670673,-0.0013514146089553,0.034579182482697,-0.0001046722754836,-0.0010337179992347,-0.0008880824316293
1774469816946585900,5.9405859375,0.0093266312718391,-0.0058865738205611,0.0161190313583239,0.0010354269761592,-0.0016142870299518,0.0008973006624728
1774469816956603000,5.950602783203125,0.0117068044066429,-0.0204994749322533,-0.0306174392448738,-0.0012459543067961,-0.0016188729787245,-0.0004436824237927
1774469816966619000,5.960618896484375,0.0142477210611104,-0.0016528817735612,-0.0068269599432125,0.0009218587074428,-0.0009315110510215,0.0003595268353819
1774469816976635000,5.970634765625,-0.0028121348112821,-0.0037245734810829,-0.0016588183240033,0.0003528599627315,0.0034539680927991,-0.0003466993803158
1774469816986651000,5.98065087890625,0.021893267378211,-0.0306016206212341,-0.0152324943147599,-0.0016189445741474,-0.0031804987229406,-0.0005789269926026
1774469816996667000,5.9906669921875,-0.0162824417591094,-0.0251759423106908,0.0220276708802208,0.0010358458384871,-0.0067100566811859,0.0020867770072072
1774469817006683000,6.000682861328125,0.0104909988760948,-0.019560148255527,0.0050434740599244,0.0014220038428902,0.0059239794500172,0.0001005915692076
1774469817016699000,6.010698974609375,0.0409141941905021,-0.0163115217231214,-0.0581520004456862,-0.0016118728090077,0.0068153580650687,-0.0037697041407227
1774469817026715000,6.02071484375,-0.0202723881781101,-0.0222334591180086,-0.0069737845353782,-0.0031642294488847,-0.0030742906965315,-0.0013108077691867
1774469817036732000,6.03073193359375,-0.0141524439930915,-0.0020180618241429,0.0499140229270793,0.0046195420436561,-0.0043012741953134,0.001332793268375
1774469817046748000,6.040747802734375,0.0109504330813884,-0.0060328504234552,-0.015587408699654,-0.0002838703803718,-0.0047540115192532,0.002076347824186
1774469817056764000,6.050763916015625,0.0191606275439262,-0.0258627555310726,-0.0560588640913367,-0.0010972695890814,-0.0008093325886875,-0.0010726285399869
1774469817066780000,6.06077978515625,-0.0029611878931522,-0.0186431795410811,0.0165999832756817,-0.0004085761029273,0.0053785219788551,-0.0009695641929283
1774469817076796000,6.0707958984375,-0.0102951840430498,0.0174580614097416,-0.0050520226925611,-0.0005129450000822,-0.0022914828732609,0.0021105245687067
1774469817086812000,6.08081201171875,0.020660510712862,-0.0214890704914927,0.005020111450646,0.0005746902897953,-0.0017489967867732,-0.0001624834258109
1774469817096828000,6.090827880859375,0.0196148010522127,-0.022484511269629,0.0022531857542693,0.0003747704904526,-0.0032090130262076,0.001503147999756
1774469817106844000,6.100843994140625,-0.0064344169616699,-0.0104050741583108,-0.0275800808429718,-0.0002042008563876,0.0047434521839022,-0.0009317800868302
1774469817116861000,6.11086083984375,-0.000117488899827,-0.0095342826731503,-0.0144666793077252,0.0006446260958909,-0.0005221935571171,-0.0033273913431912
1774469817126877000,6.120876953125,-0.017775310665369,-0.0174710670217871,0.0186679669224657,-0.0002001286484301,-0.0021656302269548,0.0027297020424157
1774469817136892700,6.130892578125,0.0157271459639072,-0.0050936698772013,0.0030445553276687,0.0017709536477923,-0.0019339784048497,-0.0022012384142726
1774469817146909000,6.140908935546875,0.0049631753653287,-0.0030813071414828,-0.0099575678528286,-0.000380081590265,0.0032354835420846,0.0007311681983992
1774469817156925000,6.150925048828125,-0.0022077391773462,-0.0363160527452826,-0.0207781092105433,-0.0019817082211375,0.0005217316793277,-0.0013718920527026
1774469817166941000,6.16094091796875,-0.0032452655315399,-0.0084220836475491,0.0048669667155481,-0.0006645086687058,-0.0005917359958402,-0.0001857202732935
1774469817176957000,6.17095703125,-0.0020586860954761,-0.0013283259943127,0.0084076897960156,0.0008998299017548,-0.0010303475428372,-0.0012309724697843
1774469817186973700,6.1809736328125,-0.0008370353460311,-0.0240628665022552,-0.0461655753800645,-0.000895407050848,0.0049215508624911,0.0001789050875231
1774469817196989700,6.19098974609375,-0.0101005382537841,-0.0208054721415042,0.0025895050365477,-0.001011521089822,-0.0002806676493491,-0.0009103276534006
1774469817207006000,6.201005859375,0.0262619839817285,0.0144278999336063,0.0214963770151138,0.0008484306745231,-0.0045023104175925,0.0003765117144212
1774469817217022000,6.21102197265625,0.00634089345932,0.0006089256785809,-0.0221106729885563,0.0004067649133503,0.0015323346015065,0.0002945947926491
1774469817227038000,6.221037841796875,0.0063701195538043,-0.0275410640068352,-0.0354098428868688,-0.0016678373795002,0.0035427550319582,-0.0023858770728111
1774469817237054000,6.231053955078125,-0.0096165541291236,-0.0272078865297138,-0.0026741328463889,-0.0006912178359925,0.0022850548848509,0.0008809737628325
1774469817247070000,6.241070068359375,-0.0129261170685291,0.017343495119363,0.0240838910239748,0.0011945662554353,-0.0035579204559326,0.0008974854135885
1774469817257085700,6.251085693359375,0.0274503169834613,-0.0078027827054262,-0.0002075052708387,0.0008270863909274,-0.002256843727082,-7.53777567297e-05
1774469817267103000,6.26110302734375,0.0243219558298587,-0.0432066890418529,-0.0258782636274583,-0.0018736250931397,0.0039070425555109,-0.0019774073734879
1774469817277119000,6.271118896484375,-0.0388145915627479,0.0037160979136824,0.0012706957892514,0.0002274920698255,-0.0049195364117622,0.0012571493862196
1774469817287135000,6.281135009765625,0.0023047698110342,-0.003447363974899,-0.0057282231873832,0.0012197860050946,0.0008741703350096,0.0014318528119474
1774469817297151000,6.29115087890625,0.0582879383176565,-0.0288847337007522,-0.0206778819727711,-0.0004535887856036,-0.0016673756763339,-0.0033385981805622
1774469817307166700,6.301166748046875,-0.0150479315280914,0.003357932125777,-0.0098960834565572,0.000210603699088,-0.0012258235365152,0.0034964047372341
1774469817317182700,6.3111826171875,-0.0204471602231264,-0.0045846974417567,0.0029420813338831,-0.000680373981595,0.0040398454293608,-0.0015256651677191
1774469817327199000,6.321198974609375,0.014595511585474,-0.032271015138179,-0.0127699035935103,-0.0022548348642885,-0.0007269469206221,0.0009271062444895
1774469817337215000,6.331215087890625,0.0058937342137098,-0.0083398121915757,0.0037286103353835,-0.0001889069098979,-0.0023868177086114,-0.0002344070235267
1774469817347231700,6.341231689453125,0.0213175133168697,0.008393295944482,-0.0004467939194291,0.0005463920533657,0.0071243960410356,-0.0011835574405267
1774469817357247700,6.351247802734375,0.0063747957289218,-0.0228439922317862,-0.027607188045606,-0.0022050319239497,-0.000354646530468,0.0005821887170895
1774469817367263700,6.361263671875,-0.0217523976027965,-0.0188483467243611,0.0108744635020382,0.0028919919859617,-0.0008601145236752,0.0007598215015605
1774469817377280000,6.371280029296875,0.0130985510259866,0.0057578328743577,0.0244351704133674,-0.0001048282720148,-0.0024197963066399,-0.0002497552195563
1774469817387296000,6.3812958984375,0.0316629662424325,-0.020391922904551,-0.0267304234773851,0.0007939888164401,-0.0038448539562523,-0.0023222272284328
1774469817397312000,6.39131201171875,-0.0209761525332927,-0.0237678290784358,-0.0136695193143561,-0.002258529420942,0.0049888640642166,-0.0030497638508677
1774469817407328000,6.401327880859375,-0.0244002817630767,-0.0107867669522762,-0.0075484791507944,-8.08627810329e-05,0.0016370096709579,0.0021252906881272
1774469817417344800,6.4113447265625,0.0100058457076549,-0.0097135847628116,0.0179976299128495,0.0045844297856092,-0.0094983335584402,-0.0001038033515214
1774469817427360800,6.42136083984375,0.0111947632312774,-0.0312910641901195,0.0230683573058806,-0.0019650829490274,0.0001766636269167,-0.0005850365851074
1774469817437377000,6.431376953125,0.0116489367395639,-0.0259597861647605,-0.0323928696858696,0.0027436537202447,-0.0001615673536434,2.47891293838e-05
1774469817447393000,6.44139306640625,-0.031158523851633,0.0067801616594195,-0.0051455279286019,-0.0020196759141981,0.0029284982010722,0.0017494522035121
1774469817457409000,6.451408935546875,0.0055161330729722,-0.025884382840991,0.0041545623961836,0.00184913771227,0.0014686583308503,-0.0015601443592458
1774469817467424800,6.4614248046875,0.0531084898531436,0.001577624580264,0.0101780604694038,-0.0002267963718622,-0.0025330074131488,0.0009892997331917
1774469817477440800,6.471440673828125,-0.0051221653193235,-0.0111775198355317,-0.0208387350902892,0.0005476500373333,0.0001450743293389,1.99467176571e-05
1774469817487456800,6.481456787109375,-0.0257715701162815,-0.0112703126855194,-0.0024024032329209,-0.0018942024325951,0.006581668742001,-2.69250012934e-05
1774469817497474000,6.49147412109375,0.0049088148295879,-0.0332179405994713,-0.0098384349851869,0.0004598754458129,0.0004359890008345,-0.0003774292999878
1774469817507489800,6.50148974609375,0.0469575660079717,0.0034074703559279,0.0123162415418773,0.0004204609431326,-0.0020865572150796,-0.0015116696013137
1774469817517505800,6.511505859375,0.0099924017041921,-0.0021780746914446,0.002066613673605,0.0018353615887463,-0.0063874181360006,-7.96773238107e-05
1774469817527521800,6.521521728515625,-0.0328238267153501,-0.0310049407251179,-0.0113840569919906,-0.0009636203758418,-0.0014653638936579,-0.0003995228325948
1774469817537537800,6.531537841796875,0.0096995562374591,-0.023499971922487,-0.007992989781592,-0.0005319972988218,0.0061049712821841,-0.0013664570869877
1774469817547553800,6.5415537109375,0.0020686229676008,-0.0065466451644897,-0.0053875930561684,-0.0018894105451181,-0.002196634421125,0.0007768549257889
1774469817557570000,6.551570068359375,0.0031178397595882,-0.0242570739001035,0.0121537992554716,0.0015220236964523,-0.0009070978267118,-0.0023208740167319
1774469817567586000,6.5615859375,0.018099720314145,-0.004514116423577,-0.0114050997800193,0.0014000507071614,-0.0002359812497161,-0.0001762306783348
1774469817577602600,6.5716025390625,-0.0116758247464895,-0.0121378893002867,-0.0270925713206641,-0.0003662714734673,0.003342431038618,-0.0003537547308951
1774469817587618600,6.58161865234375,0.0092927290022373,-0.0400885570213198,-0.0052411703228019,-0.0001979595981538,-0.001221960876137,-0.0025934732984751
1774469817597634600,6.591634521484375,0.0048047699332237,-0.0020239070430397,0.0249049068169668,-0.0003937063738703,-0.0044395704753696,0.0008982738945633
1774469817607650600,6.601650634765625,-0.0188631059020757,0.0068254621058702,-0.0212118427189998,-0.0016432616394013,0.002051884541288,0.0005834882613271
1774469817617666600,6.61166650390625,0.0133265145629644,-0.03274477012977,0.0030219599033705,-0.0022638121154159,0.0027945074252784,-0.0005694217979907
1774469817627682600,6.6216826171875,-0.01510638371706,-0.012675503308326,-0.0020863595536909,-0.0005671121180057,-0.0020151617936789,-0.000159561401233
1774469817637698300,6.6316982421875,0.0026864626049995,0.0016489362508058,0.0068994771901518,-0.0005394541658461,0.0002420222153887,0.0004522156668826
1774469817647715600,6.641715576171875,0.0305091200321912,-0.0283672856979072,-0.007694262563344,-0.0004917834885418,-0.0014035450294613,5.6035351008e-06
1774469817657731600,6.651731689453125,-0.0043517654687166,-0.008948153348267,-0.0223759180623106,-0.0008731868583709,0.0005939808906987,-0.0022359299473464
1774469817667747600,6.66174755859375,-0.0091506901830434,-0.0139442080698907,-0.0122318511940538,0.0009327025618404,-0.0014385436661541,0.0016251207562163
1774469817677763600,6.671763671875,-0.0019733458995819,-0.0197555246971547,0.0134138457865454,-0.0006866112817078,-0.0010026709642261,-0.0009788474999368
1774469817687779300,6.681779296875,0.0073071081429719,-0.0091815237127244,-0.024764603297133,-0.0012578594032675,-0.0013739155838266,-0.0003612604923546
1774469817697795600,6.691795654296875,-0.0091559508800506,0.0004454056799411,0.0029563107886351,-6.26342371106e-05,0.0031955456361174,2.14737374335e-05
1774469817707811600,6.7018115234375,-0.013940847069025,-0.0182017193838953,0.0059943815765902,-0.0004786199424415,0.0038288449868559,0.0010465243831276
1774469817717827600,6.71182763671875,0.0291653042078018,-0.0104828155696392,-0.0270134599361568,-0.0006302651017904,0.0002614475088194,-0.0008807720150798
1774469817727844400,6.72184423828125,0.0055289925545454,0.0047327276103198,0.0136964438538998,-5.7539436966e-06,-0.0014307249803096,-0.0002621195744723
1774469817737860400,6.7318603515625,0.0053682490348815,-0.0090320322394371,0.0006019114159047,-2.79019586741e-05,-0.0028457464650273,0.0014616411644965
1774469817747876400,6.74187646484375,-0.0163356332510709,-0.0148386726915836,-0.0335689825268462,-0.001773337717168,0.0006746861618012,-0.0008025784045457
1774469817757892600,6.751892578125,0.0154027363151311,-0.0100906013816595,-0.0085022179453633,8.5667008534e-05,0.0022020651958882,-0.0018722892273217
1774469817767908600,6.76190869140625,0.0475987865209579,-0.0029920214228332,0.018642101828847,0.0002491849008947,-0.0049445275217294,-0.0002946325112134
1774469817777924600,6.771924560546875,-0.0410059641271829,-0.006228957517445,0.0153566138847731,0.0003185796085745,-0.0033376533538103,0.0016248163301497
1774469817787940600,6.781940673828125,-0.0164665661543607,-0.0211694831483066,-0.0385795954967848,-0.0006438868585973,0.0029306290671229,-5.83016080781e-05
1774469817797957400,6.791957275390625,0.0116705640494823,-0.025003069961816,-0.0306401442670263,-0.0023381900973618,0.0054931226186454,0.0001337124267593
1774469817807973600,6.8019736328125,0.0347322906851768,-0.0033602702133357,0.0240399605507031,-0.0010524159297347,0.0008509664330631,-0.0008037203224375
1774469817817989600,6.81198974609375,0.0178173962414264,-0.0137406483218073,0.0119264933056198,0.0028201634995639,-0.0089921196922659,-0.000503147020936
1774469817828005600,6.822005615234375,-0.014811784684658,-0.0227922620445489,-0.0163251118570566,0.0002520773559808,-0.0019501888891682,0.000307252863422
1774469817838021600,6.832021728515625,-0.0231973357141017,-0.0195810449130833,-0.0231632325151003,0.0003178191836923,0.003107308410108,0.0018431467469781
1774469817848037400,6.842037353515625,-0.006292378142476,-0.0169241006635129,-0.0217350994081236,-6.99372030794e-05,0.00290970178321,0.0005432578036561
1774469817858053400,6.852053466796875,0.0136211135953664,-0.0141160575054585,0.0064456324754282,-0.0004865368828177,0.0019837855361402,-0.0004549867007881
1774469817868069400,6.8620693359375,-0.0025350714355707,-0.0048320963315665,-0.0043858321350999,-0.0002258133608847,0.0008878948865458,0.0001479529310017
1774469817878086700,6.872086669921875,0.017070377266407,-0.0207432205602526,0.0008307882683351,0.0015365940053015,-0.0028397100977599,-0.0008307377574965
1774469817888102700,6.8821025390625,0.0031634324669837,-0.0236718213580548,-0.0039032910488545,-0.0011215070262551,-0.000781353097409,-6.08178088441e-05
1774469817898118400,6.892118408203125,0.0003185644298791,-0.0085617843791842,-0.0069672999956645,-0.0021442361176013,-0.0031760334968566,-0.0005031093023717
1774469817908134400,6.902134521484375,-0.0020820669710636,-0.0097699911251664,0.0126187864187173,0.0013455701991915,-0.0001743847387842,-0.0008051116019487
1774469817918150400,6.912150390625,-0.0013116671204566,-0.00197685303092,0.0078090663157403,-0.00067192572169,0.0014613977400586,-0.0010899500921368
1774469817928166700,6.922166748046875,-0.0004115034103393,-0.0095668697685003,-0.0274687294229865,-0.0002687231171876,0.0034302729181945,-0.0006673063617199
1774469817938182700,6.9321826171875,-0.0092336922913789,-0.0080935823455452,0.0090513762607239,-0.0008176388218998,0.0013805920025333,0.0001258316915482
1774469817948198700,6.94219873046875,-0.0055126259416341,-0.0227606978625059,0.0105938381960615,0.0023491256870329,-0.0022860481403768,0.0031445247586816
1774469817958215400,6.95221533203125,0.0242395382434129,-0.0149801269888877,-0.0183395021530799,-0.0003049420192837,-0.0010752632515504,-0.0005740958731621
1774469817968231400,6.9622314453125,0.0200566996008157,0.0008145312532782,-0.0049810946145094,0.0002961333375424,0.0030555659905076,-0.0010342900641262
1774469817978247400,6.972247314453125,-0.0097094931095838,-0.0095547409392893,-0.0158283961149863,-0.0001852905843406,0.0014411230804398,0.0006277287611737
1774469817988263700,6.982263671875,-0.0094084643363952,-0.023164164096862,-0.0082791497792117,-0.0005655901040881,0.0007537611527368,-0.0007563160033896
1774469817998279700,6.99227978515625,0.0055535424739122,-0.0093923899844288,0.0113610231762751,0.0009404260199517,-0.002907809568569,0.0001571864122524
1774469818008295400,7.00229541015625,0.0234995335310697,-0.0105742932453751,-0.0009053148092702,0.0004338927101343,-0.000749317521695,-0.0011666710488498
1774469818018311400,7.0123115234375,-0.0083604165881872,-0.0118183019571006,-0.0261440566904842,-0.0011440303642302,0.0033543475437909,0.0006176469614729
1774469818028328400,7.022328369140625,-0.0162970548063516,-0.001814648206532,-0.0134806456787511,-0.0005725158844143,0.0038656743708997,0.0007635881192982
1774469818038344700,7.0323447265625,0.0052355625659227,-0.0189336869202554,0.0141731945201754,0.000972417416051,-0.0045740148052573,0.0015745488926768
1774469818048360700,7.042360595703125,0.0082061028093099,-0.0031298224583268,0.0078150028661824,-0.0008742182981222,-0.0042983773164451,7.2786351665e-06
1774469818058376400,7.05237646484375,0.0129828156918287,-0.0060807812184095,-0.011254914186988,-0.0002449171151965,0.0002599040744826,0.0002110498026013
1774469818068392400,7.062392333984375,-0.0025730653584003,-0.0252447697632014,-0.0186222098182886,0.0002925090957432,0.0040687569417059,-0.0025360006839036
1774469818078408400,7.072408447265625,-0.0089952073603868,-0.0140602356649935,-0.0263614075019024,-0.0010697250254452,0.0020099666435271,0.0006029237993061
1774469818088424400,7.082424560546875,0.0146305828988552,-0.015590513972193,0.0066432008741423,0.0004448145627975,-0.0013283055741339,0.0013877572491765
1774469818098440400,7.0924404296875,0.0200046771526336,-0.0210648537300527,-0.0056094921785406,0.0010194771457463,-8.44112946651e-05,-0.0006152699934318
1774469818108457500,7.10245751953125,0.0044470425367355,-0.0151570909909903,-0.0272755814710631,-0.0018000113777816,-0.0027672797441482,0.0009053950197994
1774469818118473500,7.112473388671875,-0.006339139893651,0.0100923549473285,-0.0062429312438704,-0.0002585293259471,0.0018323508556932,0.0006006027106195
1774469818128489500,7.122489501953125,0.0059393269211053,-0.0180725400462746,0.0090270090044476,0.0004275010433048,0.0010808068327605,-0.0009767876472324
1774469818138505500,7.13250537109375,0.0177530988335609,-0.0183528182923793,0.0026390250003896,0.0007548853754997,-0.0028334050439298,0.0018202235223725
1774469818148521500,7.142521484375,0.006654197192192,0.0080133567161858,-0.0037179610772058,0.0021977862343192,0.0009762468980625,0.0001024847151711
1774469818158537700,7.152537841796875,0.0069546414434909,-0.0206976278528571,-0.0253832283858209,-0.0007732710801064,0.0015449180500581,-0.0002889435272663
1774469818168553500,7.162553466796875,0.0120569330185651,-0.0224229903407394,-0.0135662781355902,-0.0009298650547862,0.0004199988907203,-0.0004436732269823
1774469818178570500,7.172570556640625,-0.002623918762803,0.0083902272045612,0.0128618379269726,-0.0010987825226038,-0.0002431282191537,0.0001097760396078
1774469818188586500,7.18258642578125,0.004705401211977,-0.0219848911844193,-0.00782526853187,-0.0002140803262591,-0.0015419519040733,-0.0008076830999925
1774469818198602500,7.1926025390625,-0.0056236851006746,-0.0104329850785434,-0.0072126347925513,-0.0010597330983728,-0.0003814238298218,0.0020459771621972
1774469818208618500,7.202618408203125,0.0114227267682552,0.0044788989797234,-0.0096174309119582,0.000236427411437,-5.3588708397e-05,-0.0006097269942983
1774469818218634500,7.212634521484375,0.0195025728493928,-0.0233221311375498,-0.0121440450464375,0.0003099616151303,0.000782532733865,-0.0008286965312436
1774469818228650500,7.222650390625,-0.0161070851922035,-0.0169445589296519,-0.0145732266884297,0.0002713457215577,-0.0028127348050475,-0.0010073947487398
1774469818238666500,7.23266650390625,-0.0114928693950176,0.0005706394948065,0.0116200577049516,-0.0010311268270015,0.0018663100199773,0.0018420114647597
1774469818248682500,7.2426826171875,0.011682254487276,-0.0139285721093416,-0.0198718810858204,0.0015971467364579,-7.3003815487e-05,-0.0004781343741342
1774469818258699500,7.252699462890625,0.0300923559248447,-0.0199593767061829,-0.0167073526402935,-0.0014089494943618,0.000174589920789,0.000428975210525
1774469818268715500,7.262715576171875,-0.0089841014444828,-0.0079779931418597,0.0168365685105323,0.0005577949341386,-0.0005804162938147,0.0004550741286948
1774469818278731500,7.2727314453125,0.0004483282893896,-0.0121988257072865,-0.012985007648915,0.0003498762380331,0.0006638099439442,0.0005484127905219
1774469818288747500,7.28274755859375,-0.0025350714355707,-0.0261716753497719,-0.0058758514971472,-0.0014690628740936,0.0005764582892879,-0.0018116805003955
1774469818298763500,7.292763427734375,-0.0065653498649597,-0.0072409110389649,-0.011290606554877,-0.0017800700152292,-0.0009566665976308,-0.0011637909337878
1774469818308779500,7.302779541015625,-0.0086672905802726,-0.016045564263314,-0.0098019206333905,0.0013691179919987,-0.0005436103092506,0.0009880433790385
1774469818318795500,7.31279541015625,-0.0058346975028514,-0.0078965984687209,-0.0140802555397152,-0.0004095723852515,-7.362687028944492e-07,0.0006252625025808
1774469818328812500,7.3228125,0.0100233813643455,-0.01594575715065,-0.0112457992987707,-0.0005440621171146,-4.22815792262e-05,0.0006199361523613
1774469818338828500,7.33282861328125,0.0085129768013954,-0.0032619244053959,0.0032377946111373,-0.0007483111694455,0.0007353284745477,0.0003193457378074
1774469818348844500,7.342844482421875,-0.0055564650833606,-0.0115723643720149,0.0029173487514257,-8.27873591333e-05,0.0012602375354617,0.0005627586506307
1774469818358860500,7.352860595703125,0.0147907418966293,-0.0070415890745818,0.003900331906788,0.0007500392384827,0.0012058016145601,-0.0001397752203047
1774469818368876500,7.36287646484375,0.0116489367395639,-0.015727438224852,-0.0109030320093967,-0.000831079436466,-0.0008205976337194,-0.0006428463384509
1774469818378892500,7.372892578125,-0.0138011463373899,0.0045177696853876,-0.0065116103837266,9.41627658903e-05,-0.0011841022642329,0.0005171948578208
1774469818388908500,7.382908447265625,-0.0054284547895193,-0.0123578156612813,-0.0061073952306993,0.0005234642885625,-0.0015931637026369,6.3392217271e-05
1774469818398924500,7.392924560546875,0.0044429508835077,-0.0013993454039096,-0.0123792237754911,-0.0005653169937431,0.0019925667438656,0.0007640902185812
1774469818408941600,7.402941650390625,-0.0036462475478649,-0.0113294955268502,-0.0140041580962017,-0.0017964964499697,-8.92262905836e-05,0.0013201582478359
1774469818418957600,7.41295751953125,0.0023427637338638,-0.0207895439200103,0.0002247304002754,-0.0005706050433218,7.8079290688e-05,-0.0006090933457016
1774469818428973300,7.422973388671875,-0.0049830491095781,-0.012292203079164,-0.0034505605789832,0.0017881568055599,0.0011673122644424,0.0002567004412412
1774469818438989300,7.4329892578125,0.0005529577076435,-0.0025434008724987,-0.0137045358288101,-0.0009488798677921,0.0022339189890772,-7.23476987332e-05
1774469818449005600,7.443005615234375,-0.0066331544041633,-0.0114832247838377,-0.0058167965199798,-5.03293704241e-05,-0.0011719976319,-0.0012433396186679
1774469818459021600,7.453021484375,-0.0061830725491046,-0.0122914724268019,-0.0066269803917035,0.0002732169814407,-0.002548012882471,0.0003504429478198
1774469818469037600,7.46303759765625,-0.0045528409987688,-0.0153378543853759,-0.012042685297504,-0.0010157530196011,0.0005428519216366,0.000969894172158
1774469818479054300,7.473054443359375,-0.0102379008978605,-0.0055890521787106,-0.0169678850063122,-0.0010591479949653,0.0014793204609304,-0.0001936662010848
1774469818489070300,7.4830703125,0.0050315644264221,-0.0011285656385123,-0.0012185272105969,0.0024013635702431,0.0021325938869267,-0.0003622444346547
1774469818499086600,7.493086669921875,0.0126660048276185,-0.0096869890168309,0.0009191972041502,0.0012215734459459,-0.0031596072949469,4.87260986119e-05
1774469818509102600,7.5031025390625,-0.0264104525417089,-0.0052593818329274,-0.0006868680193088,0.0011169114150106,-0.0031145997345447,0.0013773771934211
1774469818519118600,7.51311865234375,0.0094780224412679,-0.0022736440204083,-0.0005971073766238,-0.0006536457221955,-0.002022348344326,0.0013833018019795
1774469818529134600,7.523134521484375,0.0424058940529823,-0.0119119715899229,-0.0107733960140496,3.50477639585e-05,0.0019593439064919,-0.0024420625995844
1774469818539150600,7.533150634765625,-0.0129594348162412,-0.0087479546010494,-0.016141571983695,-1.80446077138e-05,0.0012750992318615,6.05738023295e-05
1774469818549166300,7.543166259765625,-0.0196884508103132,-0.0365888783372938,-0.0113249837485142,-0.0008106012828648,0.0016628553858026,-0.0003705918788909
1774469818559183600,7.55318359375,0.0029208558827638,0.0059340662240982,-0.0033277013842947,0.0003230685833841,-0.004008365329355,-0.0003780804108828
1774469818569199600,7.56319970703125,0.0014168810606002,0.0015378770917654,0.0037695086013525,0.0039673382416367,-0.0057170493528246,-0.0006443965248763
1774469818579215000,7.573215087890625,-0.0241816705763339,-0.017365999212116,-0.049725733813364,-0.0019697351381182,0.0081524923443794,0.0033125597983598
1774469818589231000,7.583231201171875,-0.0180383455157279,0.0152123283095657,-0.0389734353862702,-0.0010381615720689,0.0063031935133039,-0.000414267880842
1774469818599247000,7.5932470703125,0.0355447761118412,-0.0140045599550008,0.0532077855091542,0.0015756031498312,0.0007862738566473,0.0002922322601079
1774469818609262800,7.603262939453125,0.031960487884283,-0.0116727560065686,-0.0024170345464721,-0.001210329355672,-0.0017676976276561,-0.0022106065880507
1774469818619278800,7.61327880859375,-0.0383610025763511,0.0003543663956224,-0.0205448849765583,-0.0017353191506117,-0.0015377781819552,0.0029357862658798
1774469818629295000,7.623295166015625,-0.014440613284707,-0.0175638598717749,0.002124152547121,0.0005254382267594,0.0042990720830857,-0.0006941022584214
1774469818639312100,7.63331201171875,0.0306347922384738,-0.0231441442221403,0.0135992670897394,-0.0015552123077213,0.0002379737561568,-0.0006217622430995
1774469818649327900,7.643327880859375,-0.0266916075706481,-0.0148635148718953,-0.0179726598683744,-0.0011775759048759,-0.0051160454750061,0.0006355160148814
1774469818659344000,7.65334375,0.0063829790353775,-0.0169974581606686,0.0187126645807176,-0.001728314673528,0.0039900802075862,-0.0015912655508145
1774469818669359900,7.66335986328125,0.0185223296403884,-0.0108722532786428,-0.0051896045323461,0.0010493623558431,-0.0008728514658287,-0.0004386493237689
1774469818679376100,7.673376220703125,-0.0141027596324682,-0.0268719325736165,-0.0038850430061109,-0.0019038036698475,0.0011478411033749,-0.0008799629285931
1774469818689392000,7.68339208984375,-0.0218827459841966,-0.0066408993192017,-0.0124583534263074,0.0016142323147505,0.0019867368973791,0.0013885177904739
1774469818699408100,7.693408203125,0.01312953068614,-0.0212868259176611,-0.0070496810494922,-0.0012097547296434,-0.0010102072264999,-0.0016876880545169
1774469818709425000,7.7034248046875,0.0304904153317213,-0.0127105746217072,0.0072286178129725,0.0002107755281031,-0.0062880595214664,-0.0007140361703932
1774469818719441000,7.71344091796875,-0.0072299512535333,0.0060078621126711,-0.0073627107877284,0.0011367860715836,-0.0009531545219942,0.0010383133776485
1774469818729457000,7.723456787109375,-0.0433119029819965,-0.0261504864312708,-0.01805431026984,0.0008568877819925,0.00503895804286,0.0014841265510767
1774469818739473200,7.73347314453125,0.0113198509156703,-0.0310645619578659,-0.0170008191615343,-0.0011500138789415,0.0037923580966889,-0.000407324056141
1774469818749489200,7.7434892578125,0.0170060798585414,0.006778261963278,0.0064104515641927,-0.0004251012578606,-0.0045625106431543,-0.0007197126979008
1774469818759505200,7.753505126953125,-0.0039560441493988,0.0036548692457377,0.0346143633939325,0.0025154708418995,-0.001226712600328,0.0011634370312094
1774469818769521000,7.76352099609375,-0.0138280343443155,-0.0421681397743523,-0.0319666984293609,-0.0021839432884007,0.0002452165936119,-0.0016853464767336
1774469818779537000,7.773536865234375,-0.0067822074860334,-0.0027042905226349,-0.0392883648206479,-0.0006775085348635,0.0045722867362201,-0.0004119339864701
1774469818789554200,7.78355419921875,0.0162695822775363,-0.0041731940314173,0.0239277871468104,0.0013595435302704,0.0032100798562169,0.0008615895640105
1774469818799570200,7.793570068359375,0.0035457097828388,-0.0226135444767773,0.0201972405826672,0.001510246656835,-0.0068789175711572,0.0002935047959908
1774469818809586200,7.803586181640625,-0.0154839848577976,-0.0117510819397866,-0.0141497040467336,-0.0003491721581667,-3.91210778616e-05,5.35539584234e-05
1774469818819602000,7.813601806640625,0.0044178164422512,-0.0106457510463893,-0.0138127454436384,-0.0006554308347404,0.0033439702820032,-0.0006219684146344
1774469818829618000,7.823617919921875,-0.0035182372540235,-0.0325770123474299,-0.0148190181430429,-0.0009779394604265,-0.0014505186118185,0.0004345077322795
1774469818839634000,7.833634033203125,0.0261222832500934,0.0249381880320608,0.0041939993574284,7.15251080691e-05,-0.0028016022406518,-0.002735607791692
1774469818849650000,7.84364990234375,0.0303109671115875,-0.0098282971836626,-0.0061723319593817,0.0006579533219337,-0.0037267843727022,-0.0010980301303789
1774469818859667000,7.8536669921875,-0.0301321034133434,-0.0331216406181454,-0.0144709536240436,0.0003673576284199,0.001887344289571,0.001193783362396
1774469818869683000,7.863682861328125,-0.0247474877655506,-0.0009003098405897,-0.0212055956413038,-0.0009929847437888,9.61021869443e-05,4.862411879e-05
