time,seconds_elapsed,accel_x,accel_y,accel_z,gyro_x,gyro_y,gyro_z
1774470098842940000,0.06793994140625,-0.3268167099177837,-0.2381276419870555,0.0623984423764049,-0.1149196773767471,-0.0864180326461792,-0.1883148401975631
1774470098852952800,0.077952880859375,-0.5572282245695591,-0.0917493322841823,0.0578732200369238,-0.0957196503877639,-0.0701348185539245,-0.1102905794978141
1774470098862965800,0.0879658203125,-0.6897860987126827,0.0825070182949304,0.0021517712064087,-0.0904122367501258,-0.049633540213108,-0.0116375079378485
1774470098872978700,0.097978759765625,-0.7101613627433776,0.1812247282870113,-0.0024213819280266,-0.0863962993025779,-0.0422624051570892,0.088214561343193
1774470098882990800,0.107990966796875,-0.6661293287932872,0.207849261970818,0.1163981819808483,-0.0714525058865547,-0.0464092195034027,0.1727368980646133
1774470098893003800,0.118003662109375,-0.4823018706619739,0.2219625429973006,0.2271913835614919,-0.0502958931028842,-0.0610421262681484,0.2296994179487228
1774470098903016700,0.1280166015625,-0.2988911766380071,0.1842595659382641,0.2305123446777462,-0.0288292169570922,-0.0684558376669883,0.2515277564525604
1774470098913029600,0.138029541015625,-0.1914279962629079,0.095490126247704,0.1722618157610297,-0.0187677331268787,-0.0633773729205131,0.2448074519634246
1774470098923042800,0.148042724609375,-0.104582071980834,-0.003409223921597,0.0868437323249876,-0.0083249444141983,-0.0554560720920562,0.2186131328344345
1774470098933056000,0.158055908203125,-0.0456803856790065,-0.0925346374429762,0.0081741002358496,-0.0023010903969407,-0.0494313538074493,0.1818008571863174
1774470098943068700,0.168068603515625,0.0160860424041748,-0.1541964361079037,-0.0246947346650063,-0.0178677998483181,-0.0475125461816787,0.1361622661352157
1774470098953081900,0.178081787109375,0.0404576825946569,-0.1827268034130334,-0.1065855207577347,-0.0478773117065429,-0.0440970584750175,0.0930805429816246
1774470098963094800,0.1880947265625,0.0266331553816795,-0.171571203148365,-0.1510774273045361,-0.0658304840326309,-0.0194207429885864,0.0606522969901561
1774470098973107700,0.198107666015625,0.0250491010606288,-0.1259676820978522,-0.1314827922575175,-0.0769173204898834,0.0217106193304061,0.0420199744403362
1774470098983120600,0.20812060546875,0.0903068783909082,-0.118682347395271,-0.0916585852608084,-0.0856865718960762,0.0497148223221302,0.0264679156243801
1774470098993133800,0.2181337890625,0.1618389136850833,-0.1159919392675161,-0.0470103191085159,-0.0925244092941284,0.0562682971358299,0.0113183986395597
1774470099003147000,0.22814697265625,0.2144903074204921,-0.1210096212990581,0.0016169336773455,-0.0901137143373489,0.0444073788821697,0.0027041372377425
1774470099013159700,0.23815966796875,0.2647059984415769,-0.0889852743983268,0.0132454121507704,-0.0860810801386833,0.0182522404938936,-0.0002714018337428
1774470099023172900,0.2481728515625,0.294415492528677,-0.0718675508588552,0.0311269596695899,-0.0796109363436698,-0.0084475483745336,-0.0022509293630719
1774470099033185800,0.258185791015625,0.2986217120468616,-0.0590789425648748,0.0324902108468115,-0.0681613758206367,-0.0316772386431694,-0.0037320652045309
1774470099043198700,0.26819873046875,0.2994920651406049,-0.0666428019478917,0.0386921342268586,-0.0578192621469497,-0.0686469674110412,0.0003953017294406
1774470099053211600,0.278211669921875,0.2393459317356348,-0.0912714856393635,0.039220103623718,-0.052766028791666,-0.1013676896691322,0.0081089977174997
1774470099063224800,0.288224853515625,0.1080523784399032,-0.081417615623027,0.0051307870171964,-0.0513798519968986,-0.1025248318910598,0.0231377482414245
1774470099073238000,0.298238037109375,0.0248187994360923,-0.0629842794403433,-0.0467412929087877,-0.0501796938478946,-0.0989976301789283,0.0408950932323932
1774470099083250700,0.308250732421875,0.0136836574375629,-0.0422539183616638,-0.053394174926728,-0.0577462650835514,-0.1075841933488845,0.0570759251713752
1774470099093264000,0.318263916015625,-0.0121866968780755,-0.0372071563661098,-0.0154172032319009,-0.0665067955851554,-0.1069927886128425,0.0693313553929328
1774470099103275800,0.32827587890625,-0.0398205537348985,-0.0004622106842696,-0.0074251815646886,-0.0661781653761863,-0.096013106405735,0.0781149938702583
1774470099113289000,0.3382890625,-0.033575521865487,0.0592620440468192,0.0140134739138185,-0.0594494715332984,-0.0755982995033264,0.0796250104904174
1774470099123301600,0.348301513671875,-0.0322515797853469,0.0320500658638775,0.0576565085463225,-0.0530019588768482,-0.0485618934035301,0.0724043771624565
1774470099133314800,0.358314697265625,-0.0722235246896743,0.0103004447400569,0.0581412233233451,-0.049516525119543,-0.0247521437704563,0.0609062239527702
1774470099143327700,0.36832763671875,-0.0655962155044078,0.0369607803896069,0.0469879611462354,-0.0445843487977981,0.002533006016165,0.0510621145367622
1774470099153341000,0.3783408203125,-0.039297406643629,0.0402440398439764,0.0370179174043238,-0.0386284813284873,0.0372621677815914,0.0381241776049137
1774470099163353600,0.388353515625,0.0433615873426198,-0.0103625501908361,0.0283031344205141,-0.0281177852302789,0.0560140199959278,0.0185267738997936
1774470099173366800,0.39836669921875,0.1062824461579322,-0.0558858456119895,0.0614864420980215,-0.0136289969086647,0.0435569658875465,0.0047615077346563
1774470099183380000,0.4083798828125,0.1020125137537717,-0.1059989530414342,0.0962982277601957,0.0003608537663239,0.0208433996886014,0.0032576208468526
1774470099193392600,0.418392578125,0.0640823038101196,-0.1343951725728809,0.0550588932685554,0.006090722978115,0.0110547244548797,0.0136599401012063
1774470099203405800,0.42840576171875,0.1024871455281972,-0.142999188658595,-0.0443901997379958,-0.0023501659743487,-0.0163737051188945,0.0311646312475204
1774470099213418800,0.438418701171875,0.1608171694219112,-0.1895557726502418,-0.1310642745845019,-0.0213401559740304,-0.0491065979003906,0.0412796065211296
1774470099223432000,0.448431884765625,0.1637491312205791,-0.2123738997884094,-0.1447676596358418,-0.0383279249072074,-0.0651433616876602,0.0517756566405296
1774470099233444600,0.458444580078125,0.1474117444038391,-0.195044140933454,-0.0905475552789866,-0.047533068805933,-0.0692019760608673,0.0567880012094974
1774470099243457800,0.468457763671875,0.1742535741001367,-0.1784720685780048,-0.0260028946541249,-0.0481021851301193,-0.0640927031636238,0.051706425845623
1774470099253470700,0.478470703125,0.2062596546918153,-0.1572431103274226,0.0232457049004733,-0.0378306210041046,-0.0508429780602455,0.0358940139412879
1774470099263483600,0.488483642578125,0.264454069507122,-0.147175013038516,0.0742528385601937,-0.0221800245344638,-0.028991475701332,0.0114938635379076
1774470099273496800,0.498496826171875,0.3072983549773693,-0.1992886466354131,0.139711253029108,-0.0050874543376266,-0.0017444300465285,-0.0167654603719711
1774470099283509800,0.508509765625,0.3467003910392522,-0.2370550443194806,0.1645512413837015,0.0153725463896989,0.0198215804994106,-0.0475494712591171
1774470099293523000,0.51852294921875,0.3709609720706939,-0.2598696643263101,0.1718054502956569,0.0402203798294067,0.0410412549972534,-0.0757343247532844
1774470099303534800,0.528534912109375,0.3957663275033235,-0.2775150650016963,0.1929242261700332,0.0600771754980087,0.0552843734622001,-0.1023174673318862
1774470099313547800,0.5385478515625,0.425566422483325,-0.2831641768045723,0.1969951288707554,0.0764149129390716,0.0608685985207557,-0.1280810832977295
1774470099323560700,0.548560791015625,0.4313905985921621,-0.3058724138274789,0.1531213542222976,0.0772527381777763,0.0625418648123741,-0.1566400229930877
1774470099333574000,0.558573974609375,0.3706435766845941,-0.3412526470273733,0.0659811231687664,0.0654751807451248,0.0709145739674568,-0.1819014400243759
1774470099343586600,0.568586669921875,0.3044119858860969,-0.3397327439837158,-0.0059309974841773,0.0436407215893268,0.0820146277546882,-0.2098182886838913
1774470099353599700,0.578599853515625,0.2957353429555893,-0.3459108480967581,-0.054535453916341,0.0194658525288105,0.0750683844089508,-0.2348439693450927
1774470099363613000,0.588613037109375,0.2924409775853157,-0.3780361711539328,-0.0441422163262963,-0.0001864130608737,0.034637339413166,-0.25302854180336
1774470099373625900,0.5986259765625,0.2031079126626253,-0.3768044374018907,-0.0046077860563993,-0.0054936986416578,-0.0198220200836658,-0.2424408048391342
1774470099383638800,0.608638671875,-0.0316454305857419,-0.3221330821461975,-0.0111027010336518,-0.0082042645663023,-0.0437401384115219,-0.1964413523674011
1774470099393651700,0.618651611328125,-0.304122647550702,-0.2326294829621911,-0.0525865118056535,-0.0147510897368192,-0.0288534127175807,-0.1218180432915687
1774470099403665000,0.628664794921875,-0.4662158282577991,-0.1391197168767452,-0.099466336402297,-0.0295460149645805,0.0095131509006023,-0.0470442101359367
1774470099413677600,0.638677490234375,-0.4758791441380977,-0.131044546970725,-0.1220642449185252,-0.0415107868611812,0.0471839755773544,0.008874355815351
1774470099423690800,0.648690673828125,-0.4048766856759786,-0.1467947815492749,-0.0748541654542088,-0.0439377278089523,0.0723199546337127,0.0366916060447692
1774470099433703700,0.65870361328125,-0.2939735939800739,-0.1578125807784497,-0.0311243293210864,-0.0372630022466182,0.1019179001450538,0.0339028127491474
1774470099443716900,0.668716796875,-0.166934775519371,-0.1727531064093113,0.0062428399123251,-0.0254630669951438,0.1242059022188186,0.0049814158119261
1774470099453729800,0.678729736328125,-0.0937888752877712,-0.1870572338327765,-0.0090066055372357,-0.0109143983572721,0.156419351696968,-0.030841089785099
1774470099463742700,0.68874267578125,-0.1023790089786052,-0.1432533095501363,-0.0063220426283776,0.0073173358105123,0.1942133456468582,-0.0640504360198974
1774470099473756000,0.698755859375,-0.1565092430949211,-0.0924941593021154,-0.0292971138939261,0.0227573569864034,0.2294992059469223,-0.0879789292812347
1774470099483768600,0.7087685546875,-0.2798831093072891,-0.0486610089249908,-0.0236048936016857,0.0432184226810932,0.2637264132499695,-0.1118025034666061
1774470099493781800,0.71878173828125,-0.4729571192115545,0.0628599224083125,0.0380887615062296,0.0927617028355598,0.3194181323051452,-0.1396156400442123
1774470099503794700,0.728794677734375,-0.8025204974889755,0.2766422276899218,0.1096392092399299,0.1660446971654892,0.4113046526908874,-0.1457725912332534
1774470099513808000,0.738807861328125,-1.2382377271085976,0.4887364337541163,0.1577935838170349,0.2406386286020279,0.5069838762283325,-0.1043299287557601
1774470099523819800,0.74881982421875,-1.6158943974256514,0.595252250276506,0.1617092959560453,0.3238224685192108,0.6313726902008057,-0.0221583601087331
1774470099533832700,0.758832763671875,-1.729921174100041,0.5900671027235687,0.1832699703790247,0.4315479099750519,0.7331600785255432,0.0585610568523407
1774470099543846000,0.768845947265625,-1.681882827118039,0.5697805398896336,0.2050835966497659,0.6040352582931519,0.7578291893005371,0.0952000245451927
1774470099553858300,0.7788583984375,-1.566918477332592,0.454162402370572,0.286575008161366,0.8023813366889954,0.6969364285469055,0.0981701463460922
1774470099563871200,0.788871337890625,-1.349706635993719,0.3977596932776272,0.0311183379717171,0.966265082359314,0.6813649535179138,0.0499754548072814
1774470099573884200,0.79888427734375,-1.0480284589856863,0.3685986268535256,-0.352167132012546,1.112135887145996,0.599444568157196,-0.0638471692800521
1774470099583897000,0.80889697265625,-0.7536328402012586,0.1740416849151253,-0.3840247440442442,1.2212339639663696,0.5501691699028015,-0.1855919808149337
1774470099593910300,0.81891015625,-0.6577291647166014,0.1186113279856741,-0.3546145251646638,1.2737871408462524,0.5263105630874634,-0.2983248233795166
1774470099603923200,0.828923095703125,-0.4272779025763273,0.2104040610201656,-0.5644380098178983,1.286445140838623,0.4818466603755951,-0.3787669241428375
1774470099613936000,0.83893603515625,-0.3850502876996994,0.3309961875595152,-0.6790940243065356,1.2749608755111694,0.3931401968002319,-0.4135068655014038
1774470099623949300,0.84894921875,-0.3452490231871605,0.3519588960893452,-0.738827777518332,1.2271288633346558,0.3644576966762543,-0.412329226732254
1774470099633962200,0.858962158203125,-0.2334977902293205,0.2159035352192819,-0.8515911101281642,1.1532901525497437,0.4554731845855713,-0.3899883031845093
1774470099643975200,0.86897509765625,-0.0356792161464691,-0.0104223175540566,-0.8692971549496055,1.079065442085266,0.6779872179031372,-0.3635636270046234
1774470099653988000,0.878988037109375,0.1398158824473619,-0.2093802709303796,-0.74386694072932,1.015052080154419,0.9546760320663452,-0.3230950534343719
1774470099664001300,0.889001220703125,0.0867255127727985,-0.3415009227000177,-0.6339712725102901,0.9652139544487,1.2134782075881958,-0.2587432265281677
1774470099674014200,0.89901416015625,-0.0512292519778013,-0.3667268416322767,-0.5822019223064184,0.9338397979736328,1.3942075967788696,-0.1638246178627014
1774470099684027100,0.909027099609375,-0.1219143150538206,-0.3192996122859418,-0.5332578586563468,0.9210784435272216,1.506713628768921,-0.0440550670027732
1774470099694040300,0.919040283203125,-0.045694414204359,-0.2111331059470772,-0.486339455614984,0.912749409675598,1.5796550512313845,0.0863895788788795
1774470099704053200,0.92905322265625,0.228640413326025,-0.1275873922541737,-0.3607277473479509,0.8922467827796936,1.6728910207748413,0.2003595530986786
1774470099714066200,0.939066162109375,0.5661906987041234,-0.0807106363974511,-0.1913125531896948,0.8419513702392578,1.7472398281097412,0.3004699349403381
1774470099724078000,0.949078125,0.8417898470818996,-0.0164577983260154,-0.2008300308585167,0.7354490756988525,1.733371615409851,0.388856828212738
1774470099734091300,0.95909130859375,1.0068640894263985,0.0017339841857552,-0.3639756432279944,0.5802118182182312,1.4877538681030271,0.4453249275684356
1774470099744104200,0.969104248046875,1.1958031914830207,-0.213998139989376,-0.3758876148179173,0.4164902865886688,0.9900116920471193,0.4549735784530639
1774470099754117400,0.979117431640625,1.422073368546367,-0.4950371413335204,-0.1799927022740244,0.2671622037887573,0.4417926669120788,0.4238351583480835
1774470099764130000,0.989130126953125,1.5534575227349996,-0.6804635590940713,0.0143047119453549,0.1366710662841797,0.022499818354845,0.3717770278453827
1774470099774143200,0.999143310546875,1.515134514081478,-0.6477388088390231,0.1119777351900935,0.0455077327787876,-0.2100006937980651,0.3034000098705292
1774470099784156200,1.00915625,1.2980828317403792,-0.4088841677516698,0.0766550773963332,-0.0008235444547608,-0.2997385561466217,0.2339684665203094
1774470099794169000,1.019169189453125,1.0215554626017809,-0.1552154038920998,-0.04236351621598,-0.0124558424577116,-0.2798537313938141,0.1646185666322708
1774470099804182300,1.029182373046875,0.7510352249234914,0.0047305356532335,-0.1023401382729411,-0.0050597116351127,-0.1731459200382232,0.0898641645908355
1774470099814195200,1.0391953125,0.4500707491427659,0.0327054610326886,-0.1060211648732423,0.0104141756892204,-0.0605795532464981,0.028628583997488
1774470099824208400,1.04920849609375,0.2156669499844312,0.0267176187947392,-0.0920537220582365,0.0340209677815437,0.0411161817610263,-0.0087688546627759
1774470099834221000,1.059220947265625,0.0880120454519987,0.0359025035083293,-0.0525271828338503,0.0544727109372615,0.1320815086364746,-0.0132389701902866
1774470099844234200,1.069234130859375,-0.0292190802216529,0.0419371074974536,-0.0056608022406697,0.0648079141974449,0.2203328162431717,0.0106796780601143
1774470099854247200,1.0792470703125,-0.0604927548855543,0.0370405676275491,0.0133449270024895,0.0652167499065399,0.2953850328922272,0.04213647544384
1774470099864260000,1.089260009765625,-0.1178168166071176,0.0156964585646986,0.0796568895608186,0.0555835589766502,0.2979600429534912,0.0874373763799667
1774470099874273300,1.099273193359375,-0.1922153472483158,-0.0475149076297879,0.1022717492118477,0.0285196378827095,0.2635895311832428,0.137200653553009
1774470099884286200,1.1092861328125,-0.2076174990415573,-0.1571218220353126,0.0055231473356485,-0.0249355975538492,0.2629908621311188,0.1665191203355789
1774470099894299400,1.11929931640625,-0.1736643760353326,-0.241516261512041,-0.1281082012578845,-0.0888599678874015,0.2784821689128876,0.1831629276275634
1774470099904312000,1.12931201171875,-0.1279436583459377,-0.258581085820496,-0.2104723039507866,-0.156583085656166,0.2626584768295288,0.222406730055809
1774470099914325200,1.1393251953125,-0.1822206074565649,-0.1612447471842169,-0.2373494972214102,-0.2117847800254821,0.2314352989196777,0.3092658817768097
1774470099924337200,1.149337158203125,-0.3588853343516588,0.404051633028686,-0.0520773932397365,-0.1609956324100494,0.1486392170190811,0.4674762785434723
1774470099934350300,1.159350341796875,-0.5647358237206935,1.180076922301948,0.3867193899556994,-0.013444809243083,0.0843133553862571,0.6287867426872253
1774470099944363000,1.169363037109375,-0.94425244269073,0.4638301021650433,0.3108841045096516,0.0616637915372848,-0.0090935565531253,0.7450867295265198
1774470099954376200,1.179376220703125,-1.2722294285595417,-0.166276311610639,-0.0043345220729708,-0.0441430658102035,-0.0737516433000564,0.8151558041572571
1774470099964389000,1.18938916015625,-1.1279267560869457,-0.4037444667756557,-0.3474909568950534,-0.2582817375659942,-0.0594033300876617,0.8258851766586304
1774470099974402300,1.19940234375,-0.9517302312254904,-0.5471317779690027,-0.8217182421728968,-0.526764452457428,0.0010805679485201,0.7944548726081848
1774470099984415200,1.209415283203125,-0.7008429147779941,-0.5399047493249177,-1.304004915265739,-0.7777742743492126,0.0614746734499931,0.6844383478164673
1774470099994428200,1.21942822265625,0.0471142178744077,-0.4496121917203068,-1.3545119904488323,-0.9491323232650756,-0.0742942467331886,0.4936929941177368
1774470100004441300,1.22944140625,0.8955530014514923,0.1217871815428137,-1.1622907979816195,-1.0151846408843994,-0.4848010838031769,0.2545062303543091
1774470100014454000,1.2394541015625,1.6972797182142734,0.3739101772651076,-0.6464540297254919,-0.9851614236831664,-1.1891663074493408,0.0143578387796878
1774470100024467200,1.24946728515625,2.598464003551006,0.1915302875936031,-0.0069318450897932,-0.9063124060630798,-2.1263186931610107,-0.1504457592964172
1774470100034480000,1.259480224609375,3.312594269925356,-0.2466729136228561,0.3578574526086449,-0.8616338968276978,-3.272612333297729,-0.2528076469898224
1774470100044493300,1.269493408203125,4.495805106338858,0.2672495454445481,0.5993754676863551,-0.7842823266983032,-4.834659099578857,-0.3917868435382843
1774470100054506200,1.27950634765625,5.49840978475511,1.1819298566922545,0.2282487836599349,-0.7896614074707031,-6.518044471740723,-0.5783363580703735
1774470100064519200,1.289519287109375,5.165723306021094,0.5943041557714343,0.3527338259845972,-0.8006471991539001,-8.264730453491211,-0.7426584362983704
1774470100074532400,1.299532470703125,4.206756693801284,0.6755716953992843,0.4667478893078863,-0.7962355613708496,-9.58303928375244,-0.9457095861434937
1774470100084545000,1.309544921875,2.585992644512653,0.6681091044336557,0.3675252254683524,-1.0294536352157593,-8.871034622192383,-1.6121838092803955
1774470100094558200,1.31955810546875,0.8792489323824644,0.9266289615862072,0.5877972946280613,-1.224646806716919,-7.506497383117676,-1.9173403978347776
1774470100104571100,1.329571044921875,-4.266552114072442,1.003087785758078,0.1473956700518727,-1.6056950092315674,-3.2330567836761475,-1.9417933225631716
1774470100114583300,1.339583251953125,-7.416970201182365,1.5684969786956906,-0.6464539566602557,-1.6998167037963867,-1.2363972663879397,-1.372393012046814
1774470100124596200,1.34959619140625,-4.949654789498448,1.623593281365186,-1.2136105777870865,-1.6781585216522217,0.9300945401191713,-0.7110236883163452
1774470100134609200,1.359609130859375,-5.074049230930209,0.1539639425262808,-1.331338474001735,-1.4922910928726196,2.425727367401123,0.0673770233988761
1774470100144622000,1.3696220703125,-3.4535604914516207,0.1455139479584991,-0.4953903021527454,-1.0853862762451172,3.5745365619659424,0.7851545810699463
1774470100154635300,1.37963525390625,-1.7428899612665176,-0.0927957725971937,0.5584853119585663,-0.619107723236084,3.490908622741699,0.7249159216880798
1774470100164648200,1.389648193359375,1.149843404340744,-1.1315401242785157,2.7380896241232757,-0.3155390918254852,-0.7966731190681458,-0.1162270009517669
1774470100174661000,1.3996611328125,1.3712854305952786,-2.0086491220228373,5.444056847798824,0.1419419050216674,-2.210301399230957,-0.0705503597855568
1774470100184674300,1.40967431640625,0.3277618818134069,0.8388027940951287,2.9342966713562606,0.5893726348876953,-1.9925687313079836,0.3222152888774872
1774470100194687200,1.419687255859375,-2.4860206966757774,0.2981694382347166,1.8232170051738616,0.763695478439331,-1.7532317638397217,0.6019325256347656
1774470100204700200,1.4297001953125,-1.7147282811433076,-0.601768500302732,0.9331960650168358,0.661491870880127,-1.7091082334518433,0.7910787463188171
1774470100214713000,1.439713134765625,-1.2084528296977282,-1.4120738064490257,-1.3816548489183187,0.3286155462265014,-1.4945383071899414,0.873315155506134
1774470100224726300,1.449726318359375,-0.6789560771405696,-1.806663783649355,-2.517126029035449,-0.1429610401391983,-1.303532361984253,0.7257837057113647
1774470100234739200,1.4597392578125,-0.0572866523206233,-1.5182177209191023,-1.993230457486212,-0.5202997922897339,-1.2015976905822754,0.5598157048225403
1774470100244752100,1.469752197265625,-0.059566287690401,-1.2692187024362385,-0.5889764579426496,-0.5994561314582825,-1.3020577430725098,0.5440162420272827
1774470100254765300,1.479765380859375,-0.2497176881462335,-0.9949772522777318,0.9828066297516226,-0.5089818239212036,-1.4875699281692505,0.6412873864173889
1774470100264778200,1.4897783203125,-0.1707476118057966,-0.5886246488302945,1.1777623617492616,-0.4597277641296386,-1.6476786136627195,0.7369683980941772
1774470100274791200,1.499791259765625,-0.1366454357177019,-0.4812821722254157,0.7646132300294936,-0.5258777141571045,-1.6964187622070312,0.7968469858169556
1774470100284804000,1.50980419921875,-0.155295191130042,-0.6424225822523236,0.1497789119265973,-0.629481315612793,-1.6587560176849363,0.785971999168396
1774470100294816300,1.519816162109375,-0.0302542684882879,-0.7932941117212176,-0.2352102932356297,-0.6981692314147949,-1.6175529956817627,0.7116301655769348
1774470100304829200,1.5298291015625,-0.0734925217121839,-0.6554045211613178,-0.3000936842955649,-0.7216410040855408,-1.511465072631836,0.612838089466095
1774470100314842000,1.539842041015625,-0.1654208638250827,-0.3842071148738264,-0.0692674513630569,-0.6737104058265686,-1.26853609085083,0.5438823699951172
1774470100324855000,1.54985498046875,-0.3382785996526479,-0.1753200342878699,0.137460259231925,-0.6170146465301514,-1.0134090185165403,0.5097984671592712
1774470100334868200,1.5598681640625,-0.2714016966879368,-0.0362751362130045,-0.0170458273470401,-0.5956389904022217,-0.8641417622566223,0.4890296459197998
1774470100344881400,1.56988134765625,-0.0619710107445716,-0.2312050031170248,0.005345891072601,-0.5559033155441284,-0.7154926061630249,0.4463990926742553
1774470100354894000,1.57989404296875,0.0697995124131441,-0.2879530185163021,0.2950404925592244,-0.4914067983627319,-0.5396459102630615,0.3819430768489837
1774470100364907300,1.5899072265625,-0.0459270539164543,-0.0932075682684779,0.7590992889136076,-0.4512857496738434,-0.4663306176662445,0.3249612748622894
1774470100374920200,1.599920166015625,-0.0532306549280881,0.0674418433710932,0.7364288996830582,-0.4293901324272156,-0.4898565411567688,0.3019677698612213
1774470100384933000,1.60993310546875,0.0097515786856412,0.114072953903675,0.3907841551765799,-0.4433379173278808,-0.5608758926391602,0.3292745053768158
1774470100394946000,1.619946044921875,-0.1248287411957979,0.3330208252549171,-0.1352984050229191,-0.477243959903717,-0.6144893765449524,0.3969185948371887
1774470100404959200,1.629959228515625,-0.1928138976633548,0.3687868429020047,-0.3048645519591867,-0.4871226847171783,-0.6437519192695618,0.4937846958637237
1774470100414972400,1.639972412109375,0.1421983936697244,0.1670271299779415,0.0014776713371276,-0.4987699091434479,-0.5773035287857056,0.542130708694458
1774470100424985000,1.649985107421875,0.5879448498725891,-0.0088932082906365,0.4252928662389517,-0.4915335476398468,-0.5025997161865234,0.4953587055206299
1774470100434998300,1.659998291015625,0.7911644062161445,-0.0844242500931024,0.4697060084611177,-0.4689026772975921,-0.606599748134613,0.4219744205474853
1774470100445011200,1.67001123046875,0.861815567022562,0.0848956669971346,0.580675151130557,-0.4485369324684143,-0.773064374923706,0.3730081915855407
1774470100455024000,1.680024169921875,0.0552051698714494,0.4299664110079407,0.4442006880655884,-0.4688135981559753,-0.6429210901260376,0.3919345140457153
1774470100465037000,1.690037109375,-1.062091471129656,0.2878220856130123,-0.0605637742951512,-0.4089710116386413,-0.3842090666294098,0.4797961711883545
1774470100475049200,1.70004931640625,-0.9415577967792748,0.2252162840962409,-0.4361889387845993,-0.401628166437149,-0.2624530792236328,0.4810484051704407
1774470100485062100,1.710062255859375,0.0180640644788742,0.2032350461736321,-0.7146481527686118,-0.4426749348640442,-0.3513214290142059,0.3536584973335266
1774470100495075300,1.720075439453125,0.8898784629464149,0.0706938309043645,-0.917312413316965,-0.5658716559410095,-0.5053303837776184,0.2166487127542495
1774470100505088000,1.730087890625,0.8957821340322494,-0.1591585885599255,-1.1884653959408402,-0.6940831542015076,-0.4766228497028351,0.0766146332025528
1774470100515101200,1.74010107421875,0.8348667698204517,-0.458852898274362,-1.1383823913887143,-0.7861649394035339,-0.3023449182510376,-0.1375804245471954
1774470100525114400,1.7501142578125,0.6745826843619346,-0.3858338392928242,-1.0823477849557994,-0.794537365436554,-0.3778612315654754,-0.3856370747089386
1774470100535127000,1.760126953125,0.6000660802990198,-0.3662462185084819,-0.5249798596546054,-0.7237358689308167,-0.6653904914855957,-0.5569185614585876
1774470100545140200,1.77014013671875,0.9137743023186922,-0.2352373273730278,0.2442795887455344,-0.6590663194656372,-1.077441692352295,-0.6164447665214539
1774470100555153200,1.780153076171875,1.1036661750555037,0.2063610692396759,0.1714773873850703,-0.700933039188385,-1.7652777433395386,-0.5256937742233276
1774470100565166300,1.790166259765625,1.0559493151128292,0.5635857769027351,-0.2976028903931379,-0.8936830163002014,-2.4702162742614746,-0.4357241988182068
1774470100575179000,1.800178955078125,0.97317867744565,0.3046516398608684,-0.8136217372179031,-1.1300066709518433,-3.030049562454224,-0.4329126477241516
1774470100585192200,1.810192138671875,0.53451078132689,-0.3190650728777051,-1.1595049666553736,-1.415915608406067,-3.4597201347351074,-0.4715420603752136
1774470100595205000,1.820205078125,0.0682300711393356,-0.6194198923274874,-1.4428633508577942,-1.7079119682312012,-3.7946155071258554,-0.4788832366466522
1774470100605218000,1.830218017578125,-0.0184521870136261,0.5278098223835229,-1.5230176685467365,-2.15686559677124,-3.9962174892425537,-0.5392376780509949
1774470100615231000,1.84023095703125,-0.0733089818388223,1.813852672240138,-1.217483108371496,-2.578353881835937,-4.298134326934815,-0.6377071738243103
1774470100625244200,1.850244140625,-0.1460077228248119,1.7402406158015131,0.2201888113230466,-2.830464601516724,-4.831606388092041,-0.7103853821754456
1774470100635257300,1.86025732421875,-0.3787053025871515,1.5311898690864445,1.153968959838152,-2.994899034500122,-5.081814765930176,-0.8356867432594299
1774470100645269200,1.870269287109375,-0.6758698015630245,1.837967707321048,1.3324381058067083,-2.98037052154541,-4.900692462921143,-1.0094404220581057
1774470100655282200,1.8802822265625,-0.9474503619492052,2.144305985094607,1.4428215575426817,-2.777130126953125,-4.6319899559021,-1.141795635223389
1774470100665295000,1.890295166015625,-0.9367021734416484,2.169157517756521,0.7936193981528281,-2.577770471572876,-4.489418029785156,-1.200586438179016
1774470100675308300,1.900308349609375,-0.8349684766292571,1.8697648213371636,-0.0733043056637048,-2.4898836612701416,-4.3278326988220215,-1.1561729907989502
1774470100685321200,1.9103212890625,-0.8506178811818361,1.308652156549692,-0.484134931308031,-2.5047607421875,-4.010640621185303,-1.0049930810928345
1774470100695334100,1.920334228515625,-0.7811328415453433,0.4277575027868151,-0.6285322963267564,-2.5846338272094727,-3.5250589847564697,-0.7618396878242493
1774470100705347000,1.93034716796875,-1.136314645203948,-0.042098727799952,-0.6517606117010116,-2.5896997451782227,-3.102656126022339,-0.4336455464363098
1774470100715360300,1.9403603515625,-1.782203734523058,0.4977461080312728,-0.3660316989749669,-2.468413829803467,-2.6518542766571045,-0.1390486061573028
1774470100725373200,1.950373291015625,-2.4796067379802462,1.1935714869081973,-0.1688748036712408,-2.228923320770264,-2.0811893939971924,-0.0329123176634311
1774470100735386000,1.96038623046875,-2.7032126642704006,1.503032572877407,-0.3111819184124469,-2.085846185684204,-1.918134331703186,0.0491066165268421
1774470100745399300,1.9703994140625,-2.032960702589154,1.679827648153901,-0.8219219480514526,-2.169923782348633,-2.199686050415039,0.173752948641777
1774470100755412200,1.980412109375,-0.9388450306892394,1.372638598769903,-1.300121644091606,-2.4587554931640625,-2.478050470352173,0.2665289044380188
1774470100765425200,1.990425048828125,-0.2795540234833956,0.2811637967675924,-1.6686463289260862,-2.6419920921325684,-2.5945565700531006,0.3365878760814667
1774470100775438000,2.00043798828125,-0.2603676769763231,-1.277726856932044,-2.196555520030856,-2.81237268447876,-2.2067172527313232,0.3304631412029266
1774470100785451300,2.010451171875,-0.517285505759716,-1.1444336542516946,-2.1466081245571376,-3.0723326206207275,-1.8591371774673464,0.3459858894348144
1774470100795464000,2.0204638671875,-0.9978466702342031,-0.1302571959853172,-1.498576762512326,-3.314901113510132,-1.8397096395492556,0.4354476034641266
1774470100805477000,2.03047705078125,-1.2881103037804364,0.6700263362318277,-0.9443746077656744,-3.527596473693848,-1.892505168914795,0.5629041194915771
1774470100815490300,2.040490234375,-1.2215820681229232,1.1033119547903536,-0.6575964782476424,-3.7089924812316895,-2.01110577583313,0.711106538772583
1774470100825502200,2.050502197265625,-0.9857216404154896,1.3665566485077143,-0.5761281553506851,-3.909077644348145,-2.129091739654541,0.868160605430603
1774470100835515100,2.06051513671875,-1.1609265238910913,1.609155444559455,-0.5109545491725206,-4.122060775756836,-2.231361389160156,1.0379995107650757
1774470100845528000,2.070528076171875,-1.346829034730792,1.6715519872397184,-0.3750537943422794,-4.446377754211426,-2.429279327392578,1.2195518016815186
1774470100855541200,2.080541259765625,-1.0913277947470543,1.7344933043211697,-0.3064572279781103,-4.851191997528076,-2.631911039352417,1.3936474323272705
1774470100865554200,2.09055419921875,-0.9765718270152808,2.1696225049197677,0.0009779051214456,-4.943993091583252,-2.6736879348754883,1.524205446243286
1774470100875567000,2.100567138671875,-1.0844213763594626,1.93846923198998,0.5540028327822685,-4.807547092437744,-2.308968067169189,1.5505356788635254
1774470100885580000,2.110580078125,-0.8458686408281326,1.1122305897831917,1.1169248850792646,-4.386150360107422,-1.7705785036087036,1.3910256624221802
1774470100895593200,2.12059326171875,-0.2413487959906458,1.0820482174873352,1.3321896840035914,-3.833782911300659,-1.2992953062057495,1.2400083541870115
1774470100905606100,2.130606201171875,-0.2264537169367075,0.9542688097923994,1.0591142088845371,-3.2629148960113525,-0.7565984725952148,1.1537986993789673
1774470100915619000,2.140619140625,-0.6869511675477028,0.7986381030976771,0.6346922802612185,-2.6385860443115234,-0.3570744097232818,1.042232632637024
1774470100925632300,2.15063232421875,-0.0833975373938679,1.2165180627316237,0.3801405960872769,-2.064938306808472,-0.1502210795879364,0.7505464553833008
1774470100935645200,2.160645263671875,0.91314418772161,0.5399404051601886,0.2728212080970406,-1.8784713745117188,-0.1192259043455123,0.3972856998443603
1774470100945658000,2.170658203125,1.4650442030057311,-0.6814262666463852,0.4024874524518847,-1.7910640239715576,-0.2245893329381942,0.1688059419393539
1774470100955671000,2.180671142578125,1.8520827419131995,-0.558339985203743,1.541142523302138,-1.5384151935577393,-0.3856555521488189,-0.0021828101016581
1774470100965684200,2.190684326171875,2.057852859522402,-0.4470242210537195,2.069581875760853,-1.3103176355361938,-0.4548617601394653,-0.155248537659645
1774470100975697200,2.200697265625,1.5335332173421978,-0.6604208880186081,1.643297952657938,-1.175546169281006,-0.4246614575386047,-0.2427665889263153
1774470100985710000,2.2107099609375,0.4923489251628518,-0.5580319421678781,0.6501590217232703,-1.154761552810669,-0.4100657403469085,-0.2057441174983978
1774470100995722000,2.220721923828125,-0.7359969380065798,-0.0055412675142288,-0.6397247214704752,-1.242278218269348,-0.4449810981750488,-0.1332926750183105
1774470101005735200,2.230735107421875,-1.3201438569009305,0.0197948337942361,-1.075482721491903,-1.3560584783554075,-0.5436275005340576,-0.1825587600469589
1774470101015748400,2.240748291015625,-0.8198486489087343,0.1574900708258152,-0.6039435062542557,-1.433791995048523,-0.484784185886383,-0.1209356114268302
1774470101025761000,2.250760986328125,-1.5269412717312574,0.4748445403933525,0.1417984345667064,-1.4295196533203125,-0.2661503851413727,0.1837350875139236
1774470101035774200,2.260774169921875,-3.2322087738290426,0.374582669699192,0.8707865167245268,-1.3275291919708252,0.0512145459651947,0.7048789262771606
1774470101045787100,2.270787109375,-3.822037537752092,-0.0104366383403539,1.2752461460322142,-1.2151349782943726,0.3618991672992706,1.2209875583648682
1774470101055800300,2.28080029296875,-2.4320117508515717,-0.4784451952338218,1.1269950281947851,-1.1260294914245603,0.5297837853431702,1.5806453227996826
1774470101065813000,2.29081298828125,-0.363462579139322,-0.7959487178832292,1.5518851588517426,-1.0279178619384766,0.6009975075721741,1.7502716779708862
1774470101075826200,2.300826171875,0.7298492290318012,-0.1888409023791551,2.0833952970579266,-0.9837984442710876,0.679207980632782,1.9013878107070925
1774470101085839000,2.310839111328125,-0.257629045792669,2.81962779738605,1.3620702968738971,-1.0409507751464844,0.6782862544059753,2.179403066635132
1774470101095852000,2.32085205078125,-1.6212426265858113,5.507174105969071,-0.12754311472103,-1.218819260597229,0.2961898148059845,1.76001238822937
1774470101105865200,2.330865234375,0.1026876365363597,2.397369768798351,-2.8674834812775254,-1.7783533334732056,0.3947060108184814,1.1216182708740234
1774470101115878100,2.340878173828125,1.620558443713933,-0.2135784532725811,-3.6027751936241983,-2.081303834915161,0.4539721012115478,0.9823530912399292
1774470101125891300,2.350891357421875,0.4736924477487802,-0.5017126735746861,-2.197046226157248,-2.168221473693848,0.3156025111675262,1.1107361316680908
1774470101135904000,2.360904052734375,0.9523137302018702,-0.7642576945900916,-1.6745574526660143,-2.22852110862732,0.0882245451211929,0.95102059841156
1774470101145917200,2.370917236328125,3.516398932680488,-0.8379244038254022,-0.6119044021308422,-2.2696330547332764,-0.1141218990087509,0.4116798639297485
1774470101155930000,2.38093017578125,3.944422685188055,-1.0912029993236063,-0.0471057788396254,-2.1335771083831787,-0.2371443510055542,0.1433913558721542
1774470101165942300,2.3909423828125,1.7899733456112443,-2.20180744920969,-0.201525027385354,-2.040616035461426,-0.0075300708413124,-0.0079760551452636
1774470101175955000,2.400954833984375,0.0436083286453038,-1.670795615914464,-0.9079578711248932,-2.0583863258361816,0.2369746565818786,0.028257917612791
1774470101185968000,2.410968017578125,-1.3021814992308616,-0.3495008354127407,-1.9875044810548423,-2.2098677158355717,0.3103985488414764,0.1502024680376052
1774470101195981300,2.420981201171875,-1.9875394062377512,0.8990379209578037,-1.7110707815490662,-2.367478609085083,0.2876906096935272,0.2733470499515533
1774470101205994200,2.430994140625,-1.8253098857998848,1.0995324362516403,-0.5866773141548037,-2.421271085739136,0.2704852521419525,0.3678706288337707
1774470101216007200,2.441007080078125,-1.107657728909701,0.7612117510229349,0.6918405470244586,-2.236680269241333,0.0143843190744519,0.366040974855423
1774470101226020000,2.45102001953125,-0.000674099869281,-0.0923936215370893,3.1203549572795626,-1.800793170928955,0.0272758826613426,0.1889660507440567
1774470101236033300,2.461033203125,0.5661112037271261,-0.0577490091353654,4.530485959097743,-1.2708669900894165,-0.124721884727478,0.1115369126200676
1774470101246046000,2.4710458984375,-0.0185462950378656,1.1912474278748035,4.929245038676261,-0.7728872299194336,-0.261982798576355,0.2737279534339905
1774470101256059100,2.48105908203125,-0.9611948096632956,2.023174052590132,4.092511013679206,-0.3699645102024078,-0.3418761789798736,0.5343716144561768
1774470101266072000,2.491072021484375,-1.0937807408571243,2.1025065325021743,2.4404348574124275,-0.1573340147733688,-0.3507700860500335,0.7514898180961609
1774470101276085200,2.501085205078125,-1.1081827026318758,2.2148282588243484,0.2427374738700687,-0.1087904348969459,-0.2019578665494918,1.0383422374725342
1774470101286098200,2.51109814453125,-2.137124841418862,1.120704403617978,0.0858857009477913,-0.1067523211240768,0.147032082080841,1.370498538017273
1774470101296111000,2.521111083984375,-1.7354162643849849,-0.077125325256586,-0.3372485259525478,-0.1315882205963134,0.4851830899715423,1.490786910057068
1774470101306124300,2.531124267578125,-0.7652244937956333,-0.0259492647707462,-0.7061795996308327,-0.1942092478275299,0.7445555329322815,1.3110426664352417
1774470101316137000,2.541136962890625,0.1264525064727291,1.191884556734562,-0.6789698134049773,-0.266514390707016,0.8721343278884888,0.9684120416641236
1774470101326150100,2.551150146484375,0.3555360239237546,1.829595015773177,-0.2443842181637883,-0.3047376573085785,0.9109140038490297,0.6199821829795837
1774470101336163000,2.5611630859375,-0.1302045798820909,2.004861566308141,-0.4619872507773339,-0.4155870079994201,0.8830306529998779,0.5098845362663269
1774470101346176300,2.57117626953125,-1.1121890887290238,1.7678683351784945,-1.0735476617760955,-0.5407931208610535,0.8748568892478943,0.7459034323692322
1774470101356189200,2.581189208984375,-1.8320763111948968,2.5559265920728444,-1.0517026174537838,-0.6975381970405579,0.7793923020362854,1.0786606073379517
1774470101366202000,2.5912021484375,-1.7980805180907249,2.772010890686512,-1.8541025573030112,-0.852205216884613,0.6505967378616333,1.4115477800369265
1774470101376215300,2.60121533203125,-1.4050164352834225,2.7008295685261485,-2.241849244479835,-1.0079808235168457,0.4781022071838379,1.647300124168396
1774470101386227200,2.611227294921875,0.3493570064952597,1.1958844400256872,-1.7228148492261766,-1.1604353189468384,0.2299664318561554,1.6344364881515503
1774470101396240100,2.621240234375,2.1779238847970963,-0.5751765537142753,-0.5124985637441277,-1.164455771446228,0.1018751040101051,1.450084209442139
1774470101406253000,2.631253173828125,2.4679987177729603,-1.238404900369048,1.0488786460742354,-0.927834153175354,0.0450083576142787,1.210303544998169
1774470101416266200,2.641266357421875,2.095413943892717,-1.171591125768423,1.8450097347870469,-0.4958337545394897,0.0227460842579603,1.0140914916992188
1774470101426279200,2.651279052734375,1.9559107806563376,-1.9314473705291744,2.261242219474912,-0.1547733694314956,-0.2806542515754699,0.8624743223190308
1774470101436292000,2.6612919921875,1.5439362456738948,-2.178983622983098,0.954735550521314,-0.1271063685417175,-0.8803354501724243,0.9385539889335632
1774470101446305000,2.671304931640625,0.4161921526774764,-1.6770388942182064,-0.2419084757000207,-0.2123046219348907,-0.4777988791465759,1.099008321762085
1774470101456318200,2.681318115234375,-1.7152258554019033,-0.7941197488903999,0.1805105886682868,-0.0309062059968709,0.0059759262949228,1.2074965238571167
1774470101466331100,2.6913310546875,-1.6037131073750557,-0.5344178423464298,1.5162641026332973,0.2336120009422302,0.1221086531877517,1.2065913677215576
1774470101476344000,2.701343994140625,0.2104838482581079,0.7837678662240505,0.9939178063526748,0.4461463987827301,0.2109025120735168,1.038599729537964
1774470101486357200,2.711357177734375,0.6104666244126856,2.5420845292031764,0.5152890712454915,0.5939955711364746,0.1092821434140205,1.1033046245574951
1774470101496370200,2.7213701171875,-0.912771993408352,3.583298047477007,0.0179921682864427,0.6188631057739258,0.0648733600974083,1.2956706285476685
1774470101506383000,2.731383056640625,-1.6376853734731671,3.515364913457632,0.2107405994981527,0.908146858215332,0.2499963343143463,1.4072608947753906
1774470101516396000,2.74139599609375,-2.7032126642704006,3.958527198386192,2.057809020380676,1.1472774744033811,0.4404744207859039,1.4922914505004885
1774470101526409200,2.7514091796875,-1.978526809351146,3.278540609154105,-0.7428548410773277,0.9192392826080322,0.5951135158538818,1.5291637182235718
1774470101536422100,2.761422119140625,-0.5586755007684231,1.7763339657068251,-2.111158479382843,0.6238600015640259,0.7440577745437622,1.4763081073760986
1774470101546435000,2.77143505859375,-0.0626990327581763,1.0532406406760215,-1.2506995876662432,0.2981237173080444,0.4958179295063019,1.392064094543457
1774470101556448800,2.78144873046875,0.5549146869301795,0.562813915747404,-0.6367557886622845,0.0133992806077003,0.1888969540596008,1.232373595237732
1774470101566461400,2.79146142578125,2.130697146458924,-0.637559652391076,1.3967634245924652,-0.2241711914539337,-0.0987729206681251,1.0016485452651978
1774470101576474600,2.801474609375,2.8641154661491512,-2.291491811788082,2.470354340988397,-0.5290437936782837,-0.0497523136436939,0.6741414666175842
1774470101586487800,2.81148779296875,2.582159349960089,-4.353239632922411,0.749777041555941,-0.8392444849014282,0.3689421415328979,0.3445867300033569
1774470101596500700,2.821500732421875,0.6373369495511054,-5.4288984416335815,-0.3021536855652928,-0.9991006851196288,0.5328312516212463,0.1001664921641349
1774470101606513700,2.831513671875,-0.3581681259930133,-5.421733956831694,-0.5132949748188257,-1.0702006816864014,0.6640963554382324,-0.1694327592849731
1774470101616526600,2.841526611328125,0.1597875341132283,-3.6765865720272064,-0.8885127275511622,-0.8074687719345093,0.5444609522819519,-0.5158026218414307
1774470101626539800,2.851539794921875,1.2051453125849363,-2.2353642663747078,-0.6314154505476355,-0.329487532377243,-0.1605283766984939,-0.7350406646728516
1774470101636552400,2.861552490234375,1.0079396097034214,-1.3943161775708195,-0.1724149604961276,0.2211266607046127,-0.6703692078590393,-0.8392236232757568
1774470101646565600,2.871565673828125,0.2983969633802771,-0.6427297485053539,0.137749305306375,0.664867103099823,-0.7637937068939209,-0.8787963390350342
1774470101656578600,2.88157861328125,0.0996796868920326,-0.0828325969874858,-0.2958475711584091,0.9636765718460084,-0.4686499238014221,-0.8737480640411377
1774470101666591700,2.891591796875,-0.5191802334651351,1.097095564493537,-0.1380231538116932,1.4162060022354126,-0.4850006699562073,-0.5320594310760498
1774470101676604700,2.901604736328125,-5.900126545095444,9.955671517688035,5.558562347900868,1.7231261730194092,-1.059424877166748,0.6652002334594727
1774470101686617600,2.91161767578125,-5.316016158819198,8.097277108410001,0.5917277294121682,1.3153085708618164,-0.3469837605953216,1.0097135305404663
1774470101696630800,2.921630859375,1.6638228542923927,6.0351914336234325,-0.5211451037973165,0.659278929233551,0.523766040802002,0.9563941359519958
1774470101706643500,2.9316435546875,0.4468076556935906,2.9318367109835144,-1.7797141096644102,0.1347723007202148,0.913109540939331,0.9692750573158264
1774470101716656600,2.94165673828125,0.7120341708779334,0.3546674243956804,-0.7944735307641327,-0.0507625117897987,0.7404286861419678,0.7685539126396179
1774470101726669600,2.951669677734375,2.195393782775104,-2.2912299459815024,0.7170457154296338,-0.0786980018019676,0.3638742864131927,0.5247577428817749
1774470101736682800,2.961682861328125,2.1717218152865767,-3.8069542426496734,0.0397417894102632,-0.0308442506939172,-0.0365687608718872,0.207911878824234
1774470101746695700,2.97169580078125,2.52791308824867,-4.50596585034728,0.2184871219716966,0.2521200776100158,-0.1071366667747497,-0.3003811836242676
1774470101756708600,2.98170849609375,3.339606487752497,-3.428825863167644,1.9353078453496095,0.5588136911392212,0.1590087264776229,-0.8475080132484436
1774470101766721800,2.9917216796875,2.409684768231213,-2.4387054032713174,1.1594354085505008,0.6119051575660706,0.5372162461280823,-1.1866999864578247
1774470101776734500,3.001734375,0.1530719621226191,-2.2390900088995696,-0.3544641569085419,0.4828563928604126,0.8176757097244263,-1.2052286863327026
1774470101786747600,3.01174755859375,-1.874248688752949,-2.245761741748452,-1.3194346857182682,0.3182860910892486,0.889646053314209,-0.9610741138458252
1774470101796760600,3.021760498046875,-3.4828339322090147,-2.125185397300124,-1.583334628473967,0.1957630664110183,0.5396041870117188,-0.4526919424533844
1774470101806773800,3.031773681640625,-4.312513362519443,-1.243177521598339,-1.4607783622547983,0.1550579816102981,0.2532019913196563,0.0274727921932935
1774470101816786700,3.04178662109375,-3.010666209809482,0.1587497154980897,-0.206287273351103,0.1586494445800781,0.2485843300819397,0.2696208357810974
1774470101826799600,3.051799560546875,-2.006743142271042,0.9001362375885248,0.069610273451358,0.0576685070991516,0.4713819921016693,0.3045085072517395
1774470101836812800,3.061812744140625,-1.3863105657696724,0.8620902923107147,-0.5731925402902066,-0.0953573212027549,0.5715421438217163,0.1980417519807815
1774470101846825500,3.071825439453125,-0.8577803201571106,0.1224351240575313,-0.9861638312250376,-0.2540540099143982,0.4502727091312408,-0.0351409055292606
1774470101856838700,3.081838623046875,0.589990968747437,-0.826382434591651,-1.3071167636759575,-0.3260168731212616,0.1689140796661377,-0.5126898288726807
1774470101866851600,3.0918515625,2.786167718593776,-1.3860767570137975,-0.7796214140690862,-0.3093635737895965,0.1337454468011856,-1.1937037706375122
1774470101876864800,3.10186474609375,2.769972078335285,-1.7111843249261378,-0.0621719401441514,-0.3279637694358825,0.0056265364401042,-1.7054542303085327
1774470101886877400,3.11187744140625,1.4447896427452562,-1.8606465721189973,0.4890568978801369,-0.4071494042873382,-0.2528846561908722,-1.9292151927948
1774470101896890600,3.121890625,0.0158735686972737,-1.464703134483099,0.4526251098006963,-0.4438367784023285,-0.2316963523626327,-1.89652419090271
1774470101906903800,3.13190380859375,-1.4584370598256586,-1.119727083018422,0.3570680557966232,-0.4491015672683716,0.067957729101181,-1.675887107849121
1774470101916916700,3.141916748046875,-1.9467289646826684,-0.9275053060293196,0.2279666057176887,-0.4529840648174286,0.4033690989017486,-1.4105466604232788
1774470101926930700,3.1519306640625,-1.6844646603047846,-0.8323369590818881,0.4955779702119529,-0.4878650605678558,0.5869623422622681,-1.186359405517578
1774470101936943900,3.16194384765625,-1.07341819017753,-0.3509463580459356,0.2286224392779171,-0.5921993255615234,0.5198094844818115,-1.091515302658081
1774470101946956500,3.17195654296875,-0.035187048715353,0.4216588936507701,-0.1901319651030004,-0.6758108735084534,0.2064798474311828,-1.0957348346710205
1774470101956969700,3.1819697265625,0.0975064345061779,0.7962532537877559,-0.1886784052938222,-0.6680110692977905,-0.0634152963757515,-1.092944860458374
1774470101966982700,3.191982666015625,-0.5735924993932247,0.9849608851760624,-0.1797549479953944,-0.5707628130912781,-0.06281528621912,-1.0008668899536133
1774470101976995600,3.20199560546875,-1.5170377173542977,1.0048387210786345,-0.0389510774239897,-0.4152793884277344,0.14792101085186,-0.8526079654693604
1774470101987008500,3.212008544921875,-1.6213422875680028,1.0450877293586731,0.0441701272465288,-0.2777593433856964,0.4979560077190399,-0.7691088318824768
1774470101997021700,3.222021728515625,-0.6467513321716338,0.7128156766444445,-0.2907058243557811,-0.1935386955738067,0.7856866717338562,-0.7959825992584229
1774470102007034600,3.23203466796875,0.6094762251358479,0.1848228989094495,-0.5572726482331752,-0.096059538424015,0.8027724623680115,-0.854914128780365
1774470102017047600,3.242047607421875,1.3079554064571857,-0.0937117183983325,-0.3585819674909115,-0.0086791859939694,0.6861407160758972,-0.8667548298835754
1774470102027060700,3.252060791015625,1.3279355336904526,-0.4340916742444038,-0.3762560097388923,0.0206046681851148,0.5543181896209717,-0.7855476140975952
1774470102037073700,3.26207373046875,1.014014472637698,-0.6249912627190352,-0.2881469336532056,0.0197092872112989,0.443469762802124,-0.6441120505332947
1774470102047086600,3.272086669921875,0.7472246536593884,-0.419562798154354,-0.1956193104729056,-0.0485890731215477,0.3427705764770508,-0.4208433032035827
1774470102057099500,3.282099609375,-0.0089514412838965,-0.493005050984025,-0.3542338552840053,-0.1007320955395698,0.3073967695236206,-0.0571761950850486
1774470102067112700,3.29211279296875,-1.2886264366090296,-0.3791320035666227,0.3695112116537988,-0.0729071274399757,0.4149141609668731,0.4067328870296478
1774470102077125600,3.302125732421875,-1.788810147050768,0.1295382340610027,0.9883397139593958,-0.0825494155287742,0.615077555179596,0.7388782501220703
1774470102087138600,3.312138671875,-0.9423954166471956,0.3433201009511947,0.600935702740401,-0.1689000129699707,0.6872939467430115,0.8319850564002991
1774470102097151700,3.32215185546875,0.0965559288483113,0.257478969797492,0.1728077592059969,-0.2828236520290375,0.5877544283866882,0.7154821753501892
1774470102107164700,3.33216455078125,0.5375274257343262,0.2127098537445068,-0.0426589920312166,-0.3471975922584533,0.2715432047843933,0.5442830324172974
1774470102117177600,3.342177490234375,0.7272282328784465,0.3717079910457134,-0.3155582338005304,-0.3216039836406708,-0.2292186319828033,0.3046370446681976
1774470102127190500,3.3521904296875,0.7667243038993329,0.5000350957512856,-0.3687847970753908,-0.2495119571685791,-0.3118522465229034,0.0222546178847551
1774470102137203700,3.36220361328125,0.0049625908434391,0.4868593878358602,-0.4825526305526494,-0.2133630067110061,-0.0347202531993389,-0.144939973950386
1774470102147216600,3.372216552734375,-0.2036241185564547,0.7222749943852425,-0.2130713805332779,-0.1601748913526535,0.0187443047761917,-0.2102966010570526
1774470102157229600,3.3822294921875,-0.3515608366824686,0.7335106741487979,-0.1520499255985021,-0.1016052290797233,-0.2046618014574051,-0.2561686933040619
1774470102167242800,3.39224267578125,-0.3668717299956828,0.74314885558784,-0.5051245278447866,-0.0716302841901779,-0.3286694884300232,-0.3148027062416076
1774470102177256700,3.402256591796875,-0.4574514339786023,0.5296557425111532,-0.4598211587846278,0.0054410709999501,-0.3845787346363067,-0.2987555563449859
1774470102187269600,3.41226953125,-0.9062591043829916,-0.0336608620613813,-0.200932029928267,0.1320051401853561,-0.4022386968135834,-0.116378016769886
1774470102197282600,3.422282470703125,-1.4377426468431949,-0.309864990594983,0.1161164424300193,0.2644150555133819,-0.3045312762260437,0.2277657836675644
1774470102207295700,3.432295654296875,-1.592823318439722,-0.5310656093090772,0.2174783833205699,0.326870709657669,-0.1579357236623764,0.6378360986709595
1774470102217308700,3.44230859375,-1.185330897307396,-0.5148439578264952,0.1731520425990223,0.2990203201770782,-0.0908759236335754,1.0204949378967283
1774470102227321600,3.452321533203125,-0.6061960344213992,-0.4952203889459371,0.2949061986550688,0.2287970185279846,-0.1333104521036148,1.3501769304275513
1774470102237334800,3.462334716796875,-0.3026001141585409,-0.6551315494388341,0.395729064232856,0.1652661859989166,-0.2163496762514114,1.6077696084976196
1774470102247347700,3.47234765625,-0.1670261070646345,-0.7135814003199339,0.5169001597039401,0.0992317721247673,-0.277294784784317,1.8049100637435915
1774470102257360600,3.482360595703125,-0.3237866945721209,-0.7026134315818547,0.1827615824654698,0.0664337873458862,-0.3017466962337494,2.024704694747925
1774470102267373600,3.49237353515625,-0.826172445102781,-0.2481681206166744,-0.3525910565130412,-0.020281134173274,-0.4308199882507324,2.2527356147766118
1774470102277386800,3.50238671875,-1.2235992531642317,0.2103016235589981,-0.2671773569911718,-0.0213005933910608,-0.5482635498046875,2.4001219272613525
1774470102287399700,3.512399658203125,-1.0091501545369626,0.1961439188688993,-0.2743789589330553,0.0371522568166255,-0.5290883183479309,2.444905996322632
1774470102297412600,3.52241259765625,-0.8504673667952418,-0.0531073208093643,-0.3460118242532015,0.1545261293649673,-0.3898601830005646,2.412855863571167
1774470102307425800,3.53242578125,-0.4764031680122018,-0.3067828066706657,-0.6665642130792141,0.2876317203044891,-0.142775297164917,2.375189304351806
1774470102317438700,3.542438720703125,-0.3398410266637802,0.0089852704882621,-0.6044809741318226,0.4099379777908325,-0.0244452226907014,2.372576951980591
1774470102327451600,3.55245166015625,0.2940285390377044,0.3549339663773775,-0.634804362333566,0.4892022013664245,-0.2228206247091293,2.308122396469116
1774470102337464600,3.562464599609375,1.6598007591694592,0.4662479769617318,-0.4345946553304791,0.6242775917053223,-0.7175077795982361,2.1597237586975098
1774470102347477800,3.572477783203125,2.3977742579460144,0.460109912598133,0.4326087422102689,0.7603353261947632,-1.1943459510803225,2.117587089538574
1774470102357490400,3.582490478515625,1.2463663807675245,0.0478776034623384,-0.1119943940639495,0.8031842708587646,-1.258423924446106,2.3137736320495605
1774470102367503600,3.592503662109375,0.076565937808156,-0.1859048489272594,-0.141776807256788,0.809664249420166,-0.866759717464447,2.622033834457397
1774470102377516800,3.602516845703125,-0.317132935771346,-0.677724489519,-0.1684302747741341,0.7996233701705933,-0.2184102535247802,2.883274555206299
1774470102387529700,3.61252978515625,-0.2708504925459623,-1.0404378577262163,0.0351344417452812,0.8259071707725525,0.4194056391716003,3.019084215164185
1774470102397543700,3.622543701171875,0.0373611778840422,-1.0974486157149077,0.2943383356392383,0.8686390519142151,0.9096377491950988,2.988858461380005
1774470102407556600,3.632556640625,0.5044897370725869,-0.9319698842227458,0.3772184250302612,0.9130765795707704,1.0678050518035889,2.847491502761841
1774470102417569500,3.642569580078125,0.9163941294282676,-0.7829395987063645,0.3047654754988849,0.8746242523193359,0.8773910403251648,2.614938735961914
1774470102427582700,3.652582763671875,1.217955402058363,-0.876606893441081,0.25092253389135,0.780249834060669,0.6119537949562073,2.318678855895996
1774470102437595600,3.662595703125,1.1275520775556565,-1.156890400242805,0.561872250983119,0.6813657283782959,0.5543749332427979,1.993585228919983
1774470102447608800,3.67260888671875,1.0745973169595002,-1.1220797836244103,0.8400256138883531,0.5480036735534668,0.5734447240829468,1.6745659112930298
1774470102457621500,3.68262158203125,0.9228507582217454,-1.01159813221097,0.950004138085246,0.3765235543251037,0.5835651159286499,1.4063743352890017
1774470102467634700,3.692634765625,0.8096785525500774,-0.8857003004789352,0.8912732783056795,0.1746266484260559,0.2857262194156647,1.17029070854187
1774470102477647600,3.702647705078125,0.9734200849860906,-1.1965046177506449,0.9113859458774328,-0.0189085062593221,-0.1682574450969696,0.8816810846328735
1774470102487660500,3.71266064453125,1.068876016703248,-1.6640829665333032,1.055168832259625,-0.175773486495018,-0.5187960267066956,0.5710646510124207
1774470102497673700,3.722673828125,0.3896861308068037,-1.6986504220455885,1.1455512601047753,-0.3361089825630188,-0.6282342076301575,0.2969126105308532
1774470102507686700,3.732686767578125,-0.5937362927556038,-1.299172380542755,0.8729968862503766,-0.4859906136989593,-0.4969531595706939,0.0677787587046623
1774470102517699800,3.742699951171875,-1.1119593716263771,-1.1611200006365776,0.5518504770539701,-0.5865659117698669,-0.2971894741058349,-0.1510967314243316
1774470102527712500,3.75271240234375,-1.1144722312301396,-1.492271524888277,0.4445785814672708,-0.6547249555587769,-0.1811257004737854,-0.3333200812339782
1774470102537725700,3.7627255859375,-0.7235498366266488,-1.29144207855165,0.4084020833231508,-0.7280131578445435,-0.34412282705307,-0.5549244284629822
1774470102547738600,3.772738525390625,0.6289437997370958,-0.7331593764930963,0.4503577493906021,-0.7653136849403381,-0.6811943054199219,-0.8525310754776001
1774470102557751600,3.78275146484375,0.6904775881081819,-0.6684072105973958,0.2951763938985765,-0.7858080863952637,-0.9362605214118958,-1.080104112625122
1774470102567764700,3.7927646484375,0.2172895827502012,-0.4368073629438876,0.3420258233569562,-0.8046539425849915,-0.9778181314468384,-1.254274606704712
1774470102577777700,3.802777587890625,0.1565928297251463,-0.2934802575051784,0.3753665135532617,-0.8405088186264038,-0.9919126629829408,-1.370775818824768
1774470102587790800,3.812790771484375,0.0380588047593832,-0.2489011110663413,0.1848569473095238,-0.8723421692848206,-1.0786800384521484,-1.4089196920394895
1774470102597803500,3.822803466796875,-0.1317687695920467,-0.3861445126771927,0.089633070782572,-0.8823903203010559,-1.205550193786621,-1.407780408859253
1774470102607816700,3.832816650390625,-0.0026987375646829,-0.3232102098584175,-0.0581333322778344,-0.8889361023902893,-1.4061332941055298,-1.3814010620117188
1774470102617830700,3.84283056640625,0.2374801378637552,-0.0707213034331798,-0.1986719760417938,-0.9014038443565368,-1.7027783393859863,-1.347845435142517
1774470102627843600,3.852843505859375,0.5021481423825025,0.5422983664631843,-0.4310866472095251,-0.9014400839805604,-1.9722559452056885,-1.3454523086547852
1774470102637856800,3.862856689453125,0.4896580786436796,1.21046358499825,-0.5826058269321918,-0.8407456278800964,-2.0676543712615967,-1.3509973287582395
1774470102647869700,3.87286962890625,0.0369634107381105,1.1003794084697962,-0.2603027950465679,-0.7231531739234924,-1.760892629623413,-1.21087908744812
1774470102657882600,3.882882568359375,-0.741369570955634,0.6092793143242597,-0.2635813783258199,-0.5900865793228149,-1.284204125404358,-0.8965815305709839
1774470102667895600,3.8928955078125,-0.8395242402374744,0.2530751818805933,-0.361949105836451,-0.4414768517017364,-0.7918018698692322,-0.414751261472702
1774470102677908700,3.90290869140625,-0.4369444333270192,0.0768500154465436,-0.4415352682486176,-0.305708646774292,-0.363720566034317,0.1644483208656311
1774470102687921700,3.912921630859375,0.0803793586164712,0.5049515093654394,-0.5484644878774881,-0.190023586153984,-0.0618941374123096,0.692033052444458
1774470102697934600,3.9229345703125,0.8981959171757101,1.0198884061723947,-0.4525871158778667,-0.031116833910346,0.0491673126816749,1.180863618850708
1774470102707947800,3.93294775390625,1.9628619149684905,1.3714923513442276,-0.2794131537079811,0.2096518278121948,-0.3375580310821533,1.482291579246521
1774470102717960700,3.942960693359375,3.6615304571926592,1.76780169968307,-0.1575599211916327,0.5432038307189941,-0.8593395352363586,1.5146098136901855
1774470102727973600,3.9529736328125,3.897213774767518,2.891632126367092,0.3052504825368523,0.9101001024246216,-0.692685604095459,1.3709620237350464
1774470102737986600,3.962986572265625,2.7510008358836173,3.827455178886652,0.4484560074225068,1.2191972732543943,-0.3558783829212188,1.105893850326538
1774470102747999700,3.972999755859375,2.0129548563927413,3.943127384680509,0.2828308531969785,1.4087482690811155,-0.489938735961914,0.7852623462677002
1774470102758012400,3.983012451171875,1.6462804756000635,3.1932787391930817,-0.2715399361148476,1.5692360401153564,-0.7810125350952148,0.4503407180309295
1774470102768025600,3.993025634765625,1.2214496739149092,2.1914292630583048,-0.2119321473702788,1.673180341720581,-1.2937637567520142,0.0268352460116148
1774470102778038800,4.003038818359375,0.7283996147453784,1.922386696717143,-0.0851040490508079,1.7200109958648682,-1.5694355964660645,-0.4027676284313202
1774470102788051700,4.0130517578125,-0.0608496054992079,1.9357447754621504,0.1746487108975648,1.729970932006836,-1.5842832326889038,-0.8627514839172363
1774470102798064600,4.023064697265625,-0.3259074861183762,2.056120628902316,0.1349018069207668,1.6919944286346436,-1.4831326007843018,-1.3204777240753174
1774470102808077600,4.03307763671875,-0.0710363607317209,2.553221424767375,-0.0858449305459856,1.5697736740112305,-1.553804874420166,-1.7430447340011597
1774470102818090800,4.0430908203125,-0.4084662346005439,2.196658395883441,0.064184010618925,1.5085242986679075,-1.8645204305648804,-1.8451240062713623
1774470102828103400,4.053103515625,-1.0894161159068343,0.9288689955979584,-0.6560600624606013,1.3774662017822266,-1.8986475467681885,-1.870098352432251
1774470102838116600,4.06311669921875,-1.6044807307466864,0.4777408463567495,-0.7709478398784995,1.2879562377929688,-1.613414287567139,-1.814976692199707
1774470102848130800,4.073130859375,-1.9811244246289128,-0.0741202982217073,-0.5117603125974536,1.2247895002365112,-1.1352627277374268,-1.7025138139724731
1774470102858143500,4.0831435546875,-2.4289012176156044,-0.3240402309417724,-0.7448343244567514,1.1297647953033447,-0.6784207820892334,-1.5059696435928345
1774470102868156700,4.09315673828125,-3.101362964300811,-0.8820569755405188,-1.0698089136391875,1.0406546592712402,-0.2213275134563446,-1.208328366279602
1774470102878169600,4.103169677734375,-3.678576576800644,-1.362608787664771,-1.278367639053613,0.9843403697013856,0.1382268816232681,-0.9112125635147096
1774470102888182500,4.1131826171875,-4.386807848264277,-1.4634510885953902,-1.5828969677090643,0.9939354658126832,0.5807193517684937,-0.9435425400733948
1774470102898195700,4.12319580078125,-4.217761487418413,-1.6181103199094533,-1.6557070601150392,0.9934159517288208,0.7679612040519714,-1.0136964321136477
1774470102908208600,4.133208740234375,-2.10938723192662,-1.1214040763199329,-1.3113396420679986,0.8858205080032349,0.5378097891807556,-1.2857303619384766
1774470102918221800,4.143221923828125,-2.4362603482067584,-0.7363327458322048,-0.7030515307381748,0.7633247971534729,0.4635086357593536,-1.5256608724594116
1774470102928234500,4.153234375,-2.446041152986884,-0.9627028761386872,-0.3782181035920977,0.6333460211753845,0.573265790939331,-1.6091179847717283
1774470102938247700,4.16324755859375,-2.4683923932656646,-1.0151070171147585,-0.6309905031338334,0.4612025022506714,0.6265913844108582,-1.588849663734436
1774470102948260600,4.173260498046875,-2.4252713366806504,-1.0494400793492793,-0.6532933742262422,0.3404116332530975,0.781714141368866,-1.5440044403076172
1774470102958273500,4.1832734375,-1.8005496846832334,-0.9524643907189368,-0.4847659226879477,0.2993590235710144,1.0756611824035645,-1.5787696838378906
1774470102968286700,4.19328662109375,-1.051406410986185,-0.4855260934054851,-0.4295813572131097,0.2918305397033691,1.2118641138076782,-1.708001732826233
1774470102978299600,4.203299560546875,-0.5085979030437767,0.0854249515682458,-0.3746756086796522,0.3195478320121765,1.1923295259475708,-1.851013660430908
1774470102988312800,4.213312744140625,-0.0081273384846746,0.5508113432645797,-0.3410483566269278,0.3519880473613739,1.085614800453186,-1.9882774353027344
1774470102998325500,4.223325439453125,0.3432708549819886,0.8014636819124221,-0.2897172517098486,0.3751890361309051,0.9119677543640136,-2.1113946437835693
1774470103008338700,4.233338623046875,0.4449566209994256,0.672832625824213,-0.2102532543726265,0.400043785572052,0.7508955001831055,-2.164923429489136
1774470103018351600,4.2433515625,0.2472317165493965,0.2779968571692705,-0.182661483091861,0.4054637551307678,0.6216729283332825,-2.1514017581939697
1774470103028364500,4.253364501953125,0.1400561209440231,0.0824111567050218,-0.2421604046344757,0.3757452666759491,0.4736847281455993,-2.1068003177642822
1774470103038377700,4.263377685546875,0.034513679498434,0.0181172559708356,-0.3536073939487338,0.3431324958801269,0.3241771161556244,-2.027637481689453
1774470103048390700,4.273390625,-0.09533902733922,-0.0300584536552429,-0.2471677114024758,0.3472004532814026,0.2447155863046646,-1.9615980386734009
1774470103058403800,4.28340380859375,0.0277016979286447,-0.0975999580085277,-0.0310864815287292,0.3644915819168091,0.3624727427959442,-1.902741551399231
1774470103068416500,4.29341650390625,-0.2626502166892401,0.0658165802568197,0.0210457106381654,0.3527174890041351,0.5346873998641968,-1.7560813426971436
1774470103078429700,4.3034296875,-0.7901087596833706,0.1323030225992202,-0.1520475144457072,0.3172826170921325,0.7403205037117004,-1.5087368488311768
1774470103088442600,4.313442626953125,-1.0513736777603626,-0.0599438888311386,-0.2421343934103846,0.3026061952114105,0.9626350402832032,-1.2658166885375977
1774470103098455600,4.32345556640625,-0.5543944624483585,-0.2934779194176197,-0.1093134113516658,0.3327766060829162,1.0472230911254885,-1.1275091171264648
1774470103108468500,4.333468505859375,0.3377507763862609,-0.2521808633893728,-0.0751462802685797,0.3551120162010193,0.8848890066146851,-1.093035340309143
1774470103118481700,4.343481689453125,0.9032552463918924,-0.0234668003052473,-0.1181999707058072,0.3613740503787994,0.565766453742981,-1.0920144319534302
1774470103128494800,4.353494873046875,0.9662029932141304,0.0242050514519214,-0.1250740942589938,0.3766126334667206,0.2944729328155517,-1.1052780151367188
1774470103138507500,4.363507568359375,0.8875397908657788,-0.1159913547456264,0.0367808937780559,0.3973346054553985,0.0689941719174385,-1.1185178756713867
1774470103148521700,4.373521728515625,0.6913209801297634,0.0268780700534582,0.1455208891559392,0.3917073607444763,-0.0854145735502243,-1.090766429901123
1774470103158534700,4.38353466796875,0.2767027987707406,0.2416004326641559,0.1823625001452863,0.3738230168819427,-0.1403624266386032,-1.0480918884277344
1774470103168547600,4.393547607421875,0.216307001453638,0.3356967664659023,0.2858990816611796,0.3663472533226013,-0.1210015043616294,-1.0510685443878174
1774470103178560800,4.403560791015625,0.286416310468316,0.5630225900620222,0.3855094296440482,0.3447437882423401,-0.0209320820868015,-1.0728188753128052
1774470103188573700,4.41357373046875,0.2172943319905549,0.92483754812479,0.1277371759884059,0.3115957081317901,0.171153724193573,-1.1143732070922852
1774470103198586600,4.423586669921875,0.4006413861937821,0.8322107023537159,0.0104874917447566,0.3141234517097473,0.3365828096866607,-1.1913983821868896
1774470103208599600,4.433599609375,0.8434132105000317,0.4380313517808914,0.0080552961617708,0.3525025248527527,0.3210323452949524,-1.300642013549805
1774470103218612700,4.44361279296875,1.2381887734003365,0.1517085648149251,-0.0594072977364063,0.3771816492080688,0.1330539137125015,-1.3709553480148315
1774470103228625400,4.45362548828125,0.9085669429339468,-0.1849199295431375,-0.3474501864932477,0.4120512008666992,-0.088288590312004,-1.3458881378173828
1774470103238638600,4.463638671875,0.5278099685139954,-0.8198533250838518,-0.4748782234672457,0.5030982494354248,-0.1958900243043899,-1.356711745262146
1774470103248651800,4.47365185546875,0.7190887655645608,-1.2834662773668766,-0.3208871737383306,0.6101378798484802,-0.2464173883199691,-1.397060751914978
1774470103258664700,4.483664794921875,0.5055293092533946,-1.2966092520564794,-0.3011023133488372,0.6549701690673828,-0.3048215806484222,-1.3609120845794678
1774470103268677600,4.493677734375,-0.1455973884582519,-1.1945172433257103,-0.4290108273161575,0.6558420658111572,-0.2508766055107116,-1.290378451347351
1774470103278690600,4.503690673828125,-0.0447688237920403,-1.1037614521235226,-0.2169071227712556,0.6583300828933716,-0.0928217396140098,-1.3079127073287964
1774470103288703700,4.513703857421875,0.5738854909904301,-0.8895844484359026,0.2093474281067028,0.6264307498931885,-0.0238666404038667,-1.3586418628692627
1774470103298716700,4.523716552734375,0.793470345070958,-0.5080342778116465,0.3408766167892142,0.5509828329086304,-0.0125476662069559,-1.4242863655090332
1774470103308729600,4.5337294921875,1.1630948078408836,-0.2697013225108385,0.530374814033322,0.4643248617649078,0.0053849951364099,-1.516794204711914
1774470103318742800,4.54374267578125,1.4194500343054532,-0.4298258334934711,0.6750982326686382,0.3701340854167938,-0.054916251450777,-1.569892644882202
1774470103328755700,4.553755615234375,1.253552785140276,-0.8052940538555383,0.4356100429181009,0.2667911946773529,-0.1691557466983795,-1.583518385887146
1774470103342523600,4.567523681640625,1.2848302591964602,-1.2976140451848506,0.2342473116886801,0.1574676632881164,-0.2358147501945495,-1.669766902923584
1774470103352536600,4.57753662109375,1.5529764612197876,-1.6366887636512517,0.1345267265306785,0.048185646533966,-0.3172720670700073,-1.6866679191589355
1774470103362549500,4.587549560546875,1.041603394374251,-1.7777298039793967,-0.1603627036526799,-0.0942148119211196,-0.3778022527694702,-1.584371566772461
1774470103372562700,4.597562744140625,0.6813394651457667,-2.109057269319892,-0.3390777506737038,-0.1716981381177902,-0.3589449226856231,-1.5318683385849
1774470103382575900,4.607575927734375,1.2722913878798483,-2.283839835730195,-0.2377047038672491,-0.2170420736074447,-0.4253864288330078,-1.6214760541915894
1774470103392588500,4.617588623046875,1.8756024414494632,-2.109651728081703,-0.1628322721039876,-0.2673340141773224,-0.6186475157737732,-1.7761564254760742
1774470103402601700,4.627601806640625,1.9483985053300856,-1.983165282806754,-0.2071629784733988,-0.3076317310333252,-0.7747790217399597,-1.9392684698104856
1774470103412614700,4.63761474609375,1.8763716722562909,-1.7657032660990952,-0.190635768172983,-0.3453700542449951,-0.9152911305427552,-2.0630886554718018
1774470103422627600,4.647627685546875,1.696687305279076,-1.422348678356409,-0.2529438836511224,-0.3743120431900024,-0.962921142578125,-2.1546523571014404
1774470103432640500,4.657640625,1.6105506983101368,-1.1652712750971317,-0.1658436923470348,-0.3863697648048401,-0.9163291454315186,-2.2093539237976074
1774470103442653700,4.66765380859375,1.2795949888914824,-1.0067483540922402,-0.1387035007586702,-0.4367585778236389,-0.762440025806427,-2.182250499725342
1774470103452667000,4.6776669921875,1.07452308267951,-0.6878472396045923,-0.0761452555775176,-0.4705263972282409,-0.52461838722229,-2.170233726501465
1774470103462679600,4.687679443359375,0.8668214124858379,-0.3041279082477092,0.1801370426481589,-0.558151364326477,-0.3747149109840393,-2.1125121116638184
1774470103472692700,4.697692626953125,1.2735340814173222,-0.6503191807210446,0.3074053224831819,-0.7097576856613159,-0.4170924723148346,-1.996176481246948
1774470103482705700,4.70770556640625,1.354773856255412,-0.7178992635190486,0.528037895518355,-0.8786234855651855,-0.2836771011352539,-1.758148431777954
1774470103492718600,4.717718505859375,1.1640355958223343,-0.8695446999698877,0.4787884191809222,-1.0185973644256592,-0.2947316169738769,-1.4738624095916748
1774470103502731500,4.7277314453125,1.6547762090057134,-0.8996820640802383,0.266436804289557,-1.1228621006011963,-0.5164858102798462,-1.1859506368637085
1774470103512744700,4.73774462890625,1.7676742739111184,-0.3100859398692846,0.1274962799046188,-1.198851466178894,-0.7089796662330627,-0.8724421262741089
1774470103522758000,4.7477578125,1.4322224221169948,0.6274526843965054,0.2484377678709104,-0.9749695658683776,0.4747917950153351,-1.061655879020691
1774470103532770600,4.7577705078125,-2.0939368570774795,2.973720042467117,0.0177410796022042,-0.7324512004852295,1.3758350610733032,-1.5104550123214722
1774470103542783700,4.76778369140625,-1.67182846609354,3.777149471494555,-0.6035080374464392,-0.5009654760360718,2.005377531051636,-2.3931121826171875
1774470103552796700,4.777796630859375,-2.486636198225617,4.197707125905156,0.043597661120817,-0.3098082840442657,2.162338733673096,-3.51591420173645
1774470103562809300,4.787809326171875,-0.5373474660575389,3.647232467249036,-0.1021932040829211,-0.2068802565336227,0.6453412771224976,-4.597951412200928
1774470103572822000,4.797822021484375,2.7041630968630312,2.7605507545173165,-0.5989410217918455,-0.1000041365623474,-1.3095645904541016,-5.3706464767456055
1774470103582835200,4.807835205078125,3.069820701828599,2.197588370209932,-0.2093148044787347,-0.0326354317367076,-2.674920558929444,-5.667304992675781
1774470103592848100,4.81784814453125,2.0415520053237675,2.164598539277911,-0.0959243164138868,-0.0500269383192062,-3.306021213531494,-5.496768951416016
1774470103602861000,4.827861083984375,1.3897177438646555,1.762466183874011,0.1466751006923616,-0.1735321432352066,-3.29866623878479,-5.023645877838135
1774470103612874200,4.837874267578125,0.8496884913772345,1.2115016958743332,0.27450671349857,-0.3632757067680359,-2.669424772262573,-4.362065315246582
1774470103622887200,4.84788720703125,-0.2140010625988244,0.835390209172666,0.3335942412286997,-0.6136007905006409,-1.6116946935653689,-3.5302767753601074
1774470103632900400,4.857900390625,-0.7187538345217704,0.4505445041343569,0.0228556187374982,-0.7950177192687988,-0.3776623606681824,-2.8850388526916504
1774470103642913000,4.8679130859375,-0.7588783396393061,0.6293880363732576,0.210046187493205,-0.7478525042533875,1.0248644351959229,-2.6887247562408447
1774470103652926200,4.87792626953125,-0.7245388476639986,0.6232195768713951,0.3086011081390082,-0.6318800449371338,1.642971158027649,-2.8415980339050293
1774470103662939100,4.887939208984375,1.3242688278764485,0.2198626481086015,-0.3899917626898735,-0.5164699554443359,1.2325363159179688,-3.151777744293213
1774470103672952000,4.8979521484375,2.1891040349811317,-0.3099634825333953,-0.8982271890968084,-0.3942039906978607,0.3523021936416626,-3.444379568099976
1774470103682965000,4.907965087890625,1.7865104918062686,-0.7313675246402621,-1.2705335844270884,-0.3462083339691162,-0.6758686900138855,-3.577932834625244
1774470103692978200,4.917978271484375,1.6715654312431811,-1.0404919260010124,-1.2334632061831652,-0.3716985285282135,-1.5651359558105469,-3.5015757083892822
1774470103702991400,4.927991455078125,1.2688240040302277,-1.0143351559594274,-0.6665757573865354,-0.4759272336959839,-2.101372718811035,-3.220190048217773
1774470103713004000,4.938004150390625,0.0075596215993165,-0.8044931127361953,-0.6694676794357597,-0.7200815677642822,-2.378450393676758,-2.7183070182800293
1774470103723017200,4.948017333984375,-3.2488392983734604,0.3331576033771037,-1.1523450118981302,-1.0820660591125488,-2.1592488288879395,-1.8074982166290283
1774470103733030100,4.958030029296875,-10.586505076694488,3.281865954184532,-2.5010148521900177,-1.4801102876663208,-1.0311784744262695,-0.3956070244312286
1774470103743043000,4.96804296875,-12.37312428957224,4.280358813367784,-3.6761028801634903,-1.638871431350708,0.11015285551548,0.6519339084625244
1774470103753057300,4.978057373046875,-5.162008084890246,1.713535856488347,-2.5614883178532124,-1.2698065042495728,0.6659247279167175,1.0869299173355105
1774470103763070200,4.9880703125,-0.5536258161634207,0.811764418913424,-0.2620379300097935,-0.7490404844284058,0.9773780107498168,1.2181559801101685
1774470103773083100,4.998083251953125,1.1929542317926882,1.344853643004596,-0.0107434940661303,-0.3611729145050049,0.9779021143913268,1.120879292488098
1774470103783096000,5.008095947265625,2.4116513921290634,1.3820716130256652,-0.0013033924824558,-0.1005233004689216,0.6810716390609741,0.7891539335250854
1774470103793109200,5.018109130859375,2.8100732025772333,0.7497837635576725,0.3192790078893304,0.0101036075502634,0.214355856180191,0.3213268518447876
1774470103803122000,5.028121826171875,2.2094208468228578,0.2545648359164595,0.2822283755254932,-0.0510390400886535,-0.1930793672800064,-0.0798747092485427
1774470103813135000,5.038135009765625,1.184200431972742,0.0668698887020349,0.1193907879255712,-0.2087852656841278,-0.3548216521739959,-0.3088684678077698
1774470103823148300,5.048148193359375,0.5172328987896442,-0.3069086250074208,0.1926343033127486,-0.4281845390796661,-0.2278897315263748,-0.4327242970466614
1774470103833161200,5.0581611328125,0.2845733129501342,-0.7183373626753687,0.1600202834231779,-0.710074245929718,0.078936792910099,-0.4384200274944305
1774470103843174100,5.068174072265625,-0.2126537396430969,-1.0288333446502684,-0.3845754001969471,-0.8853133916854858,0.3214472532272339,-0.3390591740608215
1774470103853187000,5.07818701171875,-0.6982710184633731,-1.2746446730077263,-0.9997907900393008,-0.936180055141449,0.4937814772129059,-0.2981668412685394
1774470103863200300,5.0882001953125,-0.8224532784491777,-1.4041884600266814,-1.197500496920198,-0.9170584678649902,0.563286542892456,-0.3548497259616852
1774470103873213000,5.098212890625,-0.3957499608904123,-1.4813317593313753,-1.490928585846722,-0.9001258015632629,0.4288016855716705,-0.4207272827625274
1774470103883226000,5.10822607421875,-0.0228004453510046,-1.5942840386420487,-1.4235362807057796,-0.9312885403633118,0.2012537270784378,-0.47724050283432
1774470103893239300,5.1182392578125,0.3898603183299303,-1.7072011005088683,-0.8255041904523969,-1.0110291242599487,0.0095855072140693,-0.5644893646240234
1774470103903252200,5.128252197265625,0.5010550864487886,-1.4174185284778476,0.0309421594209037,-1.0657879114151,-0.1063436642289161,-0.6698621511459351
1774470103913265200,5.13826513671875,0.6783160256713628,-0.6435270363628864,0.5634774211574346,-1.0986047983169556,-0.0827246233820915,-0.7182317972183228
1774470103923278000,5.148278076171875,0.3947241249740123,0.2574865685820579,0.570040944391489,-1.0811687707901,0.0252095628529787,-0.6087788939476013
1774470103933291300,5.158291259765625,-0.6538339108437299,1.0822919631153345,0.8621976982079446,-1.0170246362686155,0.1986223608255386,-0.3673804104328155
1774470103943304000,5.168303955078125,-1.1217921988546848,1.6829064710773527,1.5313219710335135,-0.8576570749282837,0.2681816518306732,-0.1079736277461052
1774470103953317000,5.178317138671875,-0.5177881945848465,1.691376047128439,1.5810967864193022,-0.7977761626243591,0.2588810920715332,-0.0358578898012638
1774470103963330300,5.188330322265625,0.848620569884777,0.9200365775838494,0.518107233938761,-0.8013654947280884,0.1364212185144424,-0.0383649840950965
1774470103973343200,5.19834326171875,1.329015730142593,0.8334903669007122,0.4552834422897547,-0.7524093985557556,-0.0736337527632713,-0.0662456229329109
1774470103983356200,5.208356201171875,1.2323375631541014,1.3530362188078462,0.8583465026725083,-0.629562497138977,-0.3073551654815674,-0.0576063394546508
1774470103993369000,5.218369140625,0.620526684525609,1.909945878947526,0.7164087327003479,-0.509944498538971,-0.4219376742839813,0.0305685251951217
1774470104003382300,5.22838232421875,-0.3083744597762823,2.167092109659314,0.6300891703799366,-0.4155754148960113,-0.4495169222354889,0.1396791338920593
1774470104013395000,5.23839501953125,-1.1267314088225364,1.9621530360467727,0.3759223208051174,-0.4229774177074432,-0.4386168718338012,0.1983685493469238
1774470104023408000,5.248408203125,-1.34886550899446,1.4943912935212254,-0.0226770381670445,-0.4880070984363556,-0.3973268270492553,0.2561346590518951
1774470104033421000,5.258421142578125,-0.8996206892818212,1.375248635137826,0.0393192531492561,-0.4704384803771972,-0.3737642467021942,0.3135934174060821
1774470104043434200,5.268434326171875,-0.0247369663715362,2.0842427076675,1.460229642330855,-0.1862270385026931,-0.4619947969913482,0.2404352128505706
1774470104053447200,5.278447265625,1.1955126841038466,1.8935053240172564,2.159097603774071,-0.0743492245674133,-0.44146928191185,0.2141061425209045
1774470104063460000,5.288460205078125,0.1624029773086309,0.5551604783847928,1.1794494380533695,-0.0599160343408584,-0.4799341261386871,0.2727914154529571
1774470104073473300,5.298473388671875,-0.473127799603343,-0.4903149351172149,0.0504316809924785,-0.0466606803238391,-0.5162273645401001,0.2883397340774536
1774470104083486200,5.308486328125,-0.582543867611885,-0.9024906917601824,-0.6057413859890773,-0.0358671061694622,-0.4790198504924774,0.2573320269584656
1774470104093499100,5.3184990234375,-0.4901040688455104,-0.9503180263400076,-1.2007247196637094,-0.0685768499970436,-0.4052295386791229,0.2006634324789047
1774470104103512000,5.328511962890625,-0.4013929352134466,-0.8946865938805043,-1.69372830934301,-0.1449823677539825,-0.2756628692150116,0.1346721649169922
1774470104113525200,5.338525146484375,-0.3536316516071557,-0.9666656422898172,-1.8880344913907348,-0.2054105550050735,-0.113811656832695,0.04723447188735
1774470104123538200,5.3485380859375,-0.1692716940343379,-1.3380547766447066,-2.082610284160077,-0.2845444977283478,0.4058167338371277,-0.118580624461174
1774470104133551000,5.358551025390625,-0.1647813968777656,-1.5350858536116778,-2.066596137948334,-0.3061816096305847,0.7930850982666016,-0.254926472902298
1774470104143564300,5.368564208984375,-0.5273708464443684,-1.347664608772099,-1.086343576593697,-0.3086109757423401,1.108670711517334,-0.3645236492156982
1774470104153577200,5.3785771484375,-0.4872352354109287,-1.04896763953194,-0.7178088087566197,-0.2970994710922241,1.5417759418487549,-0.464843600988388
1774470104163590100,5.388590087890625,-0.4008621893376112,-0.6469353835016489,-0.6610705840989947,-0.2853220403194427,1.94749128818512,-0.5242217183113098
1774470104173603000,5.39860302734375,-0.0216530288815498,-0.3297399038881063,-1.317846978135407,-0.2734313011169433,2.0454561710357666,-0.623432457447052
1774470104183616300,5.4086162109375,-0.1880956369698047,-0.2874661117821931,-0.3084171298742294,-0.1611580401659011,1.7364083528518677,-0.6138529181480408
1774470104193629200,5.418629150390625,-0.5553863960951566,-0.4338059891708195,1.257877662602067,-0.0091741010546684,0.934117317199707,-0.4770838320255279
1774470104203642000,5.42864208984375,-0.5616267517894507,-0.524518818014115,1.918555009599775,0.0426933169364929,0.0659084096550941,-0.307431697845459
1774470104213655300,5.4386552734375,0.4936263977527618,-0.2789696477241814,1.6256538671568035,0.0122200967743992,-0.6931742429733276,-0.2534107863903045
1774470104223668200,5.448668212890625,1.072491869112849,0.1804712795712053,1.4075287103652954,0.0039565740153193,-1.350043773651123,-0.2595432698726654
1774470104233682200,5.45868212890625,0.6280085647135972,0.692159549845755,1.1804828727543353,0.0290571320801973,-1.7604535818099976,-0.2266207337379455
1774470104243695400,5.4686953125,-0.0516664743512868,0.9764736273378132,0.8297427048049867,0.0652552023530006,-1.869211196899414,-0.1946876645088195
1774470104253708000,5.4787080078125,-0.5647545284211635,0.9999344362936914,0.4313050026679411,0.0931089371442794,-1.6799997091293335,-0.2051280438899994
1774470104263721200,5.48872119140625,-0.7290992874473333,0.8537240305036305,0.0244265121828764,0.1121435761451721,-1.2753924131393433,-0.2488359361886978
1774470104273734100,5.498734130859375,-0.511554268631339,0.5787516357220709,-0.4875136139608919,0.0796865671873092,-0.8286247849464417,-0.3090547919273376
1774470104283747000,5.5087470703125,-0.114708913719654,0.6466219336383044,-1.1947422842532396,-0.0230938177555799,-0.4726122617721557,-0.359806627035141
1774470104293760000,5.518760009765625,-0.0106184246480464,0.5180918537065387,-1.6470897461563347,-0.1152668893337249,-0.1871586740016937,-0.3728300333023071
1774470104303773200,5.528773193359375,-0.09035948536098,0.0655357174888253,-1.5691659639984368,-0.1837108582258224,0.0145022347569465,-0.4158331453800201
1774470104313786400,5.538786376953125,-0.3351923240751028,-0.0125987848103046,-1.2689829939842223,-0.2343228906393051,0.1599092185497284,-0.4224098324775696
1774470104323799000,5.548799072265625,-0.6073574063509702,0.1160848782479763,-0.8469389004081487,-0.2378850132226944,0.2337357103824615,-0.410607248544693
1774470104333812200,5.558812255859375,-0.5982862111449241,0.2803697237804531,-0.4860620269130915,-0.2064253538846969,0.2057584077119827,-0.4246245324611664
1774470104343825200,5.5688251953125,-0.555161939689517,0.2951451219774783,-0.2418002478188834,-0.1831685155630111,0.0802602991461753,-0.4385429918766022
1774470104353838000,5.578838134765625,-0.5778425580531359,0.1250089200682938,-0.0554867724249605,-0.158858373761177,-0.1277419030666351,-0.4441691935062408
1774470104363851000,5.58885107421875,-0.6370557945221662,-0.1624476932331919,0.092067924113525,-0.107672095298767,-0.331685870885849,-0.4407696425914764
1774470104373864200,5.5988642578125,-0.6089601653724909,-0.414435956659913,0.2363679936370812,-0.0402935855090618,-0.466137170791626,-0.4179348945617676
1774470104383877000,5.608877197265625,-0.3317091581344604,-0.4491111833956092,0.3763012371201067,0.0488055199384689,-0.5576311945915222,-0.4299101829528808
1774470104393890000,5.61889013671875,0.2322282086849212,-0.2960539804507047,0.4170918779961765,0.145579993724823,-0.6175161004066467,-0.5492352247238159
1774470104403903200,5.6289033203125,0.5999708032310008,-0.2808565574493259,0.1788434226410463,0.1997640132904052,-0.6195785999298096,-0.6820759773254395
1774470104413916200,5.638916259765625,0.3597212006539106,-0.358653571422398,-0.405803883523494,0.190308466553688,-0.597418487071991,-0.7669328451156616
1774470104423929000,5.64892919921875,-0.2431622751533985,-0.354125937930122,-1.0539850293025377,0.1187521070241928,-0.5564345121383667,-0.7924665212631226
1774470104433942000,5.65894189453125,-0.8124708136171102,-0.1685948907513171,-1.4481303314752876,0.0246604923158884,-0.4922592341899872,-0.7652719020843506
1774470104443955200,5.668955078125,-1.0281675742179155,0.1204118015363812,-1.4501821494385598,-0.0444210469722747,-0.4118241965770721,-0.7288494110107422
1774470104453969200,5.67896923828125,-0.8291349481701851,0.3705466191161424,-1.1680837021693586,-0.0867501273751258,-0.3244701027870178,-0.7023293972015381
1774470104463982000,5.688982177734375,-0.3998328462898731,0.4937733684753999,-0.8734843775063753,-0.1090547293424606,-0.2571034133434295,-0.6784405708312988
1774470104473995300,5.698995361328125,0.0304781403720378,0.5472068159665912,-0.6140162797182798,-0.1161696314811706,-0.2350540310144424,-0.659161388874054
1774470104484008200,5.70900830078125,0.3734703245431184,0.5739517611596733,-0.3802129672037437,-0.1330898404121399,-0.2425775527954101,-0.6578953862190247
1774470104494021000,5.719021240234375,0.4528665173411369,0.5524240756908432,-0.130673375570774,-0.1556830406188964,-0.2386331409215927,-0.627524733543396
1774470104504034000,5.729033935546875,0.2189186452567577,0.3946018503012135,0.1929485203610733,-0.1704987585544586,-0.2298154830932617,-0.5490204095840454
1774470104514047200,5.739047119140625,0.0963905822187662,0.3776517749462276,0.4409482256082818,-0.2650681436061859,-0.2076087146997451,-0.546733558177948
1774470104524060200,5.74906005859375,0.2220920145958662,0.5913591152954846,0.6222602303199469,-0.2009756714105606,0.1894890516996383,-0.5190250277519226
1774470104534073000,5.759072998046875,-0.0744026222944259,0.0796731648421846,1.131088727249205,-0.1448420882225036,0.3967573046684265,-0.5038297772407532
1774470104544086300,5.769086181640625,-0.1539735871374607,-0.0274432296555489,1.1882190199643372,-0.1824672967195511,0.6040575504302979,-0.4692909717559814
1774470104554099200,5.77909912109375,0.4177081101983785,0.3692021822372451,0.9188364810790866,-0.2585998773574829,1.050098180770874,-0.5136435031890869
1774470104564112100,5.789112060546875,0.5691735139071941,0.7513082697112112,0.6325221696805209,-0.3164472579956054,1.613526463508606,-0.5527311563491821
1774470104574125300,5.799125244140625,0.2632791805088519,0.7905261083126067,0.2392494125586003,-0.4210517108440399,1.9884213209152224,-0.5475289821624756
1774470104584138200,5.80913818359375,0.1244961482405662,0.5926814499404282,-0.1192170022612437,-0.558891236782074,1.829151391983032,-0.5036940574645996
1774470104594151200,5.819151123046875,0.3378782021582126,0.0491658166419714,0.2142841903891414,-0.6372515559196472,0.9329637885093688,-0.4216071963310241
1774470104604165000,5.8291650390625,0.5927279924958944,-0.4529704891722649,1.4330552196793258,-0.6654846668243408,-0.307496964931488,-0.2218354195356369
1774470104614178300,5.83917822265625,1.0867518651336432,-0.1002922475661151,2.397327390961349,-0.6996889710426331,-1.4453253746032717,-0.0669624805450439
1774470104624191200,5.849191162109375,2.1738316470474004,0.827803041979298,2.2254368927307424,-0.6221827864646912,-1.8085442781448364,0.07664555311203
1774470104634204200,5.8592041015625,2.0996973203003404,0.2133750396549701,2.61282716768533,-0.352230966091156,-1.8347920179367063,0.0079519730061292
1774470104644217300,5.86921728515625,0.7107178275823592,-0.91186189282611,2.5054309150666,-0.1867261230945587,-1.2949494123458862,-0.1030299365520477
1774470104654230000,5.87922998046875,-1.5597878948003052,-0.951319385402277,1.4278645191684365,-0.221298485994339,0.002836721483618,-0.0732760354876518
1774470104664243200,5.8892431640625,-1.5155881030678748,-0.4023694155627861,-0.2449631870955228,-0.3453589379787445,1.6796220541000366,-0.1940437406301498
1774470104674256100,5.899256103515625,-0.3823375216096639,0.1166073312195017,-1.6149613543592392,-0.4907086789608001,2.2908685207366943,-0.30217444896698
1774470104684269300,5.909269287109375,-0.0176753574222326,0.379778119450435,-2.2566242042854427,-0.7020828723907471,2.360933780670166,-0.2828676700592041
1774470104694282200,5.9192822265625,0.5593132141500711,0.6217638981703668,-2.638786077067256,-0.8587406277656555,2.0794167518615723,-0.2574712336063385
1774470104704295200,5.929295166015625,0.6922294002115726,0.2442303427763283,-1.9772490445002917,-0.8585262298583984,1.2036664485931396,-0.1369815468788147
1774470104714308400,5.939308349609375,0.8141501450061798,-0.0325020108824595,-0.1047641505494713,-0.7843425273895264,0.0837305560708046,0.0457600280642509
1774470104724322000,5.949322021484375,1.7134569460332392,0.3655960475040599,1.1690262437164782,-0.5927836298942566,-0.9462563395500184,0.1867637038230896
1774470104734335200,5.959335205078125,1.5863398016393184,0.7684192712489515,1.914283177499473,-0.2867366075515747,-1.4892988204956057,0.3151693642139435
1774470104744348200,5.96934814453125,-0.2184954514086246,0.6279718859650194,2.685576469814777,-0.2166623473167419,-1.705777645111084,0.2211258560419082
1774470104754361000,5.979361083984375,-1.830109979557991,-0.1161907315089367,2.8367314924001694,-0.282409131526947,-1.5087883472442627,0.1743359863758087
1774470104764374300,5.989374267578125,-1.44327222391963,-0.7131551377318799,1.1613717103753238,-0.3900666534900665,-0.8508931994438171,0.0909721106290817
1774470104774387200,5.99938720703125,0.8626812439411878,-0.5811453259255737,-1.298885818686336,-0.5338445901870728,-1.3481954336166382,-0.1627533733844757
1774470104784400100,6.009400146484375,1.0201502719789743,0.0278545686691068,-1.280922876494378,-0.3896592557430267,-2.209824800491333,0.0144948735833168
1774470104794413000,6.0194130859375,-0.2563286307185888,-0.496341501930356,0.31510548506435,-0.2724697887897491,-2.617063045501709,0.0147787667810916
1774470104804426200,6.02942626953125,-0.6327601431548595,-0.2645141839302145,0.1541568347498774,-0.3477186560630798,-2.884249687194824,-0.0502205602824687
1774470104814439400,6.039439453125,-0.3791366797417402,0.1216728709807619,0.155516286534816,-0.2520054578781128,-2.9157650470733643,-0.1594711542129516
1774470104824452000,6.0494521484375,0.2984966243624687,-0.0419149321982637,0.6372318817414343,-0.0728188604116439,-2.431246042251587,-0.3172832429409027
1774470104834466300,6.05946630859375,0.4229506870269775,-0.3063029507318511,-0.6818374777957796,-0.0638168379664421,-1.5459532737731934,-0.3164736330509186
1774470104844479000,6.06947900390625,-0.2094675108224153,-0.7147516131430864,-2.37529062345922,-0.0977875888347625,-0.5926300883293152,-0.2508565485477447
1774470104854492200,6.0794921875,-0.4879875150829553,-0.48548897626549,-3.568485386009514,-0.1685080975294113,-0.3583019971847534,-0.125548705458641
1774470104864505300,6.08950537109375,-0.1871639090776443,-0.1387124512501061,-3.205249162971973,-0.2653667330741882,-0.2437828183174133,-0.0860468223690986
1774470104874518300,6.099518310546875,1.0295984838038683,0.1123368508260697,-2.168963602619618,-0.2118377536535263,-0.0548675023019313,-0.0084577538073062
1774470104884531200,6.10953125,1.619597343596816,-0.3535909177379682,-0.4448144360497593,-0.0689291208982467,-0.1484221369028091,-0.0269025899469852
1774470104894544100,6.119544189453125,1.792839694827795,-0.7718509261980653,-0.1484498552799224,-0.0328808389604091,-0.2435001730918884,0.0095877777785062
1774470104904557300,6.129557373046875,0.869163591697812,-0.842598898442462,-0.0230763396829366,-0.0057048960588872,-0.5449169874191284,0.1021478101611137
1774470104914570000,6.139570068359375,0.4572743969112634,-0.8520674954682588,0.3964535791151225,0.0952584668993949,-0.6185515522956848,0.156716763973236
1774470104924583200,6.149583251953125,0.6194511642485857,-0.8043843185994773,0.4978998372882604,0.3825915157794952,-1.3269108533859253,0.2140444219112396
1774470104934597400,6.159597412109375,-0.2031710410267114,-1.4421340136699377,0.4825697278179228,0.6785988807678223,-0.8992367386817932,0.2431325316429138
1774470104944610000,6.169610107421875,-0.6755418847829103,-0.800459254110232,-0.8100456322968006,0.622442901134491,-0.5360777378082275,0.2600602209568023
1774470104954623200,6.179623291015625,-0.9475754496335984,0.5453793082784861,-1.7065110724180936,0.3433246612548828,-0.3395129740238189,0.2429062724113464
1774470104964636200,6.18963623046875,-0.6473708523094653,1.1542938809435814,-1.3656126456558704,-0.0250802468508481,-0.1592598706483841,0.1069002225995063
1774470104974649000,6.199649169921875,0.1179231995910406,1.43317796927616,-0.9121639445126056,-0.3616356551647186,-0.2552122175693512,-0.025507615879178
1774470104984662300,6.209662353515625,0.4988718971908092,0.193090851441212,-0.0685953973203897,-0.1406118720769882,-0.1391032636165619,-0.1278041005134582
1774470104994675200,6.21967529296875,0.2803139019399881,-1.203820493721962,-0.4396189132332802,-0.0009564959909766,0.1760778576135635,-0.1727175116539001
1774470105004688400,6.2296884765625,-0.3095522713840007,-0.618667320394516,-1.7177723250143229,0.0042355693876743,0.4358740746974945,-0.2424062490463256
1774470105014701000,6.239701171875,-0.2416623919844627,0.1783796775868162,-2.1903014280721544,-0.0288163907825946,0.6934056878089905,-0.3258129954338074
1774470105024715300,6.24971533203125,-0.7970265762478113,0.4769866669885814,-2.073727158872038,-0.0914212316274643,0.6418062448501587,-0.2941173613071441
1774470105034728200,6.259728271484375,-1.1034504864782095,0.136830911819823,-0.1813381255336105,0.044855386018753,0.7075815200805664,-0.3141009211540222
1774470105044741000,6.2697412109375,-0.278256969410181,-0.145085895272158,0.2719548005260527,0.1429440677165985,0.7483987808227539,-0.2609488070011139
1774470105054754300,6.27975439453125,-0.2953857988655567,-0.1583963354831561,-0.3659444590829313,0.128418892621994,0.6589046120643616,-0.2045622169971466
1774470105064767200,6.289767333984375,0.0741857646733522,-0.3239294640436768,-0.3344545113198459,0.1070770621299743,0.6098513603210449,-0.217754378914833
1774470105074780200,6.2997802734375,0.1338011522024869,-0.4949946173660456,0.1654451214835047,0.1338026821613311,0.663269579410553,-0.2367621511220932
1774470105084793000,6.30979296875,0.202123577800393,-0.4713560406904667,0.7296366091944276,0.1806011497974395,0.4520907700061798,-0.272745132446289
1774470105094806300,6.31980615234375,0.4382108000010252,-0.3629232846308499,1.1746271324634552,0.1985806822776794,0.3838387429714203,-0.2720846831798553
1774470105104820200,6.3298203125,0.641871670371294,-0.3946566857609898,1.3542296663761135,0.2516144216060638,0.4615321457386017,-0.3144174218177795
1774470105114833200,6.339833251953125,0.5260960042029619,-0.0692371658226475,0.1395858730837702,0.1006533950567245,0.4668973386287689,-0.2985753417015075
1774470105124846300,6.349846435546875,-0.359352951863408,0.2465123162336647,-0.7285314244315028,-0.0498065091669559,0.5198292136192322,-0.264418363571167
1774470105134859000,6.35985888671875,-0.2497147655367851,0.3337785848196595,-0.3120635235525667,-0.1374375522136688,0.3509422242641449,-0.2751524746417999
1774470105144872200,6.3698720703125,-0.6845920372009276,0.6301170813001692,0.1609162458822131,-0.1311894208192825,0.3102941215038299,-0.2059315741062164
1774470105154885400,6.379885498046875,-0.4498983151853084,0.177474362777546,1.2756943281911313,0.0851490050554275,0.0149248074740171,-0.16877381503582
1774470105164898000,6.38989794921875,-0.066228083667159,0.1540501595050096,0.6295256912782788,0.0953972935676574,0.1734663993120193,-0.1369625329971313
1774470105174911200,6.3999111328125,0.6582599105924367,0.3391187768038362,-0.3338400326833128,0.1219024062156677,0.1370961517095565,-0.1524200588464737
1774470105184925200,6.40992529296875,0.5886977140665054,0.2549593151267618,-1.5625341247685254,0.0823293402791023,0.2111215591430664,-0.0290952324867248
1774470105194938000,6.419938232421875,0.293242357096076,0.0370208400137722,-1.327411363685876,0.0885305106639862,0.5838173627853394,-0.0676724463701248
1774470105204951300,6.429951416015625,0.7286006902754306,0.1455059838477522,-1.4275811721824108,0.0762149766087532,0.6544308662414551,-0.0480788946151733
1774470105214964200,6.439964111328125,-0.2529039169669151,0.1930467565711587,-0.9831247557900844,0.102576807141304,0.6741702556610107,-0.0292591322213411
1774470105224977200,6.44997705078125,0.511248563683033,-0.2785977456718683,0.222116929841414,0.1567907780408859,0.235473483800888,-0.0287249069660902
1774470105234990000,6.459989990234375,-0.1239689094960689,-0.373363795428723,0.6882386500749736,0.1982716470956802,0.2519249022006988,-0.079409122467041
1774470105245003300,6.470003173828125,0.859585031491518,-1.027791434381902,0.3200659204833209,0.1972424238920211,0.1798587292432785,-0.0509514734148979
1774470105255017200,6.480017333984375,-0.2756973480552435,-0.5798674880094826,-0.8134178121436387,0.1178477257490158,0.1420442461967468,-0.0170305240899324
1774470105265030100,6.490030029296875,0.5073796132951974,-0.6553443884719162,0.2636532014530152,0.1871050149202346,0.2416678071022033,-0.11611919850111
1774470105275043300,6.500043212890625,-0.1745487576544284,-1.0698358016461134,-0.2007402336832136,0.1606750041246414,0.3789628148078918,-0.0635649114847183
1774470105285056000,6.510055908203125,-0.685980861210823,-1.0046095154326409,-0.1728344280172139,0.15542633831501,0.5352737307548523,-0.122694581747055
1774470105295069200,6.520069091796875,0.0961713865101337,-0.3480117658987641,0.3351827525291592,0.2161581367254257,0.509434700012207,-0.1169791743159294
1774470105305082000,6.53008203125,0.2097206088006496,0.2160794763080775,0.4040368738509714,0.2389321625232696,0.6249595880508423,-0.1748055964708328
1774470105315095300,6.54009521484375,0.4070978688567876,0.4356774090658873,-0.1589911230385303,0.1901425272226333,0.7895069718360901,-0.2105841040611267
1774470105325109200,6.550109130859375,0.2459638885706663,0.3548753680579364,-0.5365595305502414,0.0877176150679588,0.912802517414093,-0.2223022729158401
1774470105335122200,6.5601220703125,0.2270744791835546,0.2263596819777041,-0.0309499226022511,0.0261029880493879,0.6967051029205322,-0.2167951315641403
1774470105345135000,6.570135009765625,-0.3136421710461378,0.2291388643674552,0.9136581285931168,0.0153403505682945,0.3264412581920624,-0.1657335311174392
1774470105355148000,6.58014794921875,0.3717302028775215,0.3018301526993513,1.71893859231472,0.0248515643179416,0.1126701086759567,-0.1652403175830841
1774470105365161200,6.5901611328125,-0.3596750234246254,0.5900262592565267,0.8107565570451318,-0.017282573506236,0.0843032598495483,-0.0949664041399955
1774470105375174400,6.60017431640625,-0.2738677945405244,0.7056552104305476,0.2730446050567552,-0.0521486774086952,0.0521240159869194,-0.013496583327651
1774470105385187000,6.61018701171875,-0.250531927138567,1.0049832441158593,0.6842783681418746,-0.0040649487636983,0.1708939522504806,0.0718949064612388
1774470105395200300,6.6202001953125,0.7384960613459348,1.250332800180465,1.0042200777236372,0.0356180183589458,0.3459715247154236,0.1306964457035064
1774470105405214200,6.630214111328125,0.8365852641761302,1.2943705332189797,0.1691238465288654,-0.0287881400436162,0.3476084172725677,0.2111939638853073
1774470105415227100,6.64022705078125,0.6974030034571885,0.8093410642240196,0.3408586792737245,-0.0491147190332412,0.1726579219102859,0.2659807801246643
1774470105425240300,6.650240234375,0.1233311961144208,0.379860610102117,0.9855682034194468,-0.0712413266301155,-0.1191667392849922,0.3204788863658905
1774470105435253200,6.660253173828125,-0.4749433245927095,0.1982963476624339,1.468129747930914,-0.0604134462773799,-0.4435538649559021,0.3441962003707886
1774470105445266200,6.67026611328125,-0.8037041543155908,0.1155200109068304,1.669668949972093,0.0003377874963916,-0.7099895477294922,0.3449897170066833
1774470105455279000,6.680279052734375,-1.0433107828140258,0.0334951501056551,1.3000666990339755,0.0736269205808639,-0.8009002804756165,0.3121675848960876
1774470105465293000,6.69029296875,-1.296032328951359,-0.0278559021096676,0.6249046804141253,0.1336585581302642,-0.7557032704353333,0.2918852269649505
1774470105475306200,6.70030615234375,-1.2355121015369892,-0.2934438710175454,0.0602596037168055,0.1378311961889267,-0.6612942218780518,0.2768822908401489
1774470105485319200,6.710319091796875,-0.6824398276031017,-0.4697516742337494,0.0564364652320742,0.1050489321351051,-0.5078170895576477,0.1899059414863586
1774470105495332400,6.720332275390625,-0.1308329500466585,-0.3710574181824922,0.1650176898516714,0.107471078634262,-0.3504681885242462,0.0467612966895103
1774470105505345000,6.730344970703125,0.2872784802556037,-0.1127878094639629,-0.0885065509706735,0.0760346800088882,-0.277339220046997,-0.105094090104103
1774470105515358200,6.740358154296875,0.1989765119463205,0.2373136952556669,-0.70689330085814,0.0162365939468145,-0.2586947083473205,-0.1742326915264129
1774470105525371100,6.75037109375,-0.4694827210992574,0.1162539512045681,-0.944037484765798,-0.0305989123880863,-0.2017199695110321,-0.2035663872957229
1774470105535385000,6.760385009765625,-0.8903244531482457,0.2011817669056355,-0.8458657912839204,-0.0673441439867019,-0.1834876984357834,-0.2201674729585647
1774470105545398300,6.770398193359375,-0.9204857826560736,0.4514772549398243,-0.6675855920162052,-0.0656658187508583,-0.2120916992425918,-0.2205146104097366
1774470105555411200,6.7804111328125,-0.8883405858546495,0.601311038858816,-0.4316605746399611,-0.0176226589828729,-0.2321644723415374,-0.1930539608001709
1774470105565423900,6.790423828125,-0.4081435785174369,0.5607785374622791,-0.3105455202050506,-0.0075500500388443,-0.1806891858577728,-0.2229314446449279
1774470105575437000,6.80043701171875,0.4026046490907669,0.6715649439759552,-0.4770204231277108,-0.0769578889012336,-0.0782142058014869,-0.2788788676261902
1774470105585450000,6.810449951171875,0.3815612765401601,0.7182802256606519,-0.5707075916066765,-0.1462125927209854,0.0335433296859264,-0.3029214739799499
1774470105595463000,6.820462890625,0.2901917373538017,0.7925811411462724,-0.4914105483341962,-0.2043233066797256,-0.0021145304199308,-0.2981365919113159
1774470105605477000,6.83047705078125,0.3122656219959259,0.8952997573427856,-0.3380320775456726,-0.2250054031610489,-0.0799738690257072,-0.253682017326355
1774470105615490000,6.840489990234375,0.3731687112480402,0.7009620111130177,-0.1628528399679809,-0.2421463131904602,-0.2027463912963867,-0.2404935359954834
1774470105625503000,6.8505029296875,0.3696288466840982,0.4911323159147053,-0.198568442602083,-0.2672845125198364,-0.3661854267120361,-0.1931835711002349
1774470105635516000,6.860515869140625,-0.0743242963612079,0.1857174365963786,-0.2130692616414278,-0.2905333936214447,-0.4555166363716125,-0.1103478074073791
1774470105645529000,6.870529052734375,-0.0718248807609081,-0.1253943391893059,0.0338296427570283,-0.2684554159641266,-0.5181441903114319,-0.0709355175495147
1774470105655542000,6.8805419921875,0.1051660093486308,-0.2544883366141468,0.5325805439166724,-0.1787353754043579,-0.5149492025375366,-0.0723818838596344
1774470105665556000,6.890555908203125,0.6608072569876909,-0.218862969546765,0.9169431416131556,-0.0814921855926513,-0.4207794666290283,-0.139414981007576
1774470105675569200,6.900569091796875,1.1669757409274577,-0.1122213346876204,0.9067330055050552,0.0242646038532257,-0.3793167173862457,-0.2378704398870468
1774470105685581800,6.910581787109375,1.273709437984228,-0.2215646297208964,0.3319780382037162,0.064318373799324,-0.4307700097560882,-0.2814164161682129
1774470105695595000,6.920594970703125,0.590434913122654,-0.26681005804874,-0.485313619698584,-0.0035517583601176,-0.4924312531948089,-0.2681919634342193
1774470105705608200,6.930608154296875,0.1109796640634536,-0.3146888305548578,-0.93197134552747,-0.0884669944643974,-0.523392915725708,-0.2552908658981323
1774470105715621000,6.94062109375,-0.4241688306450843,-0.3658065119169652,-1.0413367062620815,-0.1481513679027557,-0.5105906128883362,-0.2139444798231125
1774470105725634000,6.950634033203125,-0.7655489034444093,-0.3020915070492774,-1.0035033808216451,-0.1888804286718368,-0.4443397223949432,-0.1686159968376159
1774470105735648000,6.96064794921875,-0.7059697562724352,-0.1162383883092552,-0.790657187346369,-0.1658478081226349,-0.3594831824302673,-0.135234072804451
1774470105745661000,6.970660888671875,-0.5837193411320447,0.044719504757598,-0.5765691771164536,-0.1147406697273254,-0.2416832447052002,-0.106090061366558
1774470105755674000,6.980674072265625,-0.3040139264792204,0.081695555781573,-0.5012302968852221,-0.0788085013628006,-0.1872756630182266,-0.0846388265490531
1774470105765687000,6.99068701171875,-0.128373866456747,0.0105135029688477,-0.4833559097595513,-0.0185994990170002,-0.153628408908844,-0.0438245460391044
1774470105775700000,7.000699951171875,0.1348275726407766,-0.3260569045264274,-0.3105537035115063,0.0512698628008365,-0.0798170417547226,-0.0201533082872629
1774470105785713000,7.010712890625,0.4775473696112632,-0.6551707124054431,-0.1741620964244008,0.0766777470707893,-0.0301380231976509,-0.0669069588184356
1774470105795726000,7.02072607421875,0.55123979780972,-0.5988792816672474,-0.0944873789459466,0.1395400613546371,-0.1215496957302093,-0.0959612429141998
1774470105805740000,7.030739990234375,0.5658230344355106,-0.6300128902733325,0.0851493494972586,0.1924406588077545,-0.1144110560417175,-0.1615878641605377
1774470105815753000,7.0407529296875,0.5357108047664165,-0.25589031236656,-0.2673763866946101,0.1525004357099533,0.0034639206714928,-0.1969477236270904
1774470105825766100,7.05076611328125,0.0054360535740852,-0.0028501287341117,-0.7849937547571957,0.0531174689531326,0.0955297723412513,-0.1836888790130615
1774470105835779000,7.060779052734375,-0.6258756443381309,0.0911767930932343,-1.094752070107311,-0.065841406583786,0.1835983693599701,-0.1096085309982299
1774470105845792000,7.0707919921875,-0.4118535389512777,-0.0949121802292764,-1.0162813215911388,-0.1387196034193039,0.3639899492263794,-0.0699326172471046
1774470105855805000,7.080804931640625,0.0006073182433843,0.0403951387524604,-0.5744352338276804,-0.1224697977304458,0.3866550624370575,-0.0426570549607276
1774470105865818000,7.090818115234375,0.2032826847076416,0.239111392327398,-0.0969257120087742,-0.1418384462594986,0.3548909425735473,-0.0938372761011123
1774470105875832000,7.10083203125,0.7252998951643705,0.6927274128615856,-0.1864630673319101,-0.2084353119134903,0.1946503818035125,-0.1381386816501617
1774470105885845000,7.110844970703125,-0.088393738245964,0.959063496723026,0.3073275810718536,-0.1589874178171157,0.2755869626998901,-0.0709019154310226
1774470105895858200,7.120858154296875,-0.6528934151232242,0.5691456029869616,0.6338415086507797,-0.1081633865833282,0.3977158069610595,-0.0354730822145938
1774470105905870800,7.130870849609375,-0.283852012938261,0.2518969318814575,0.572751810785383,-0.0562997423112392,0.2090177536010742,-0.0773854330182075
1774470105915884000,7.140884033203125,-0.3880839563071727,-0.0486231611326336,0.6414397086948156,-0.0168458111584186,-0.1538853347301483,-0.1376546323299408
1774470105925897200,7.150897216796875,-0.9353916753649713,-0.4687064760297537,0.5957718902364373,0.0114226648584008,-0.4378034472465515,-0.1581026017665863
1774470105935910000,7.160909912109375,-1.0658581301867962,-0.7485645970262587,0.4141068708360195,0.0597212202847003,-0.5301510095596313,-0.1591702550649643
1774470105945924000,7.170924072265625,-0.4439747703552246,-0.720380120549351,0.2591679457977414,0.1475714594125747,-0.8816829323768616,-0.2177668809890747
1774470105955937000,7.18093701171875,-0.0216717335820198,-0.2519084761887789,0.599386865863204,0.313525527715683,-1.7198148965835571,-0.1716497242450714
1774470105965950000,7.190949951171875,0.0018459201276302,0.182144765741378,0.7272957451567054,0.3476797044277191,-1.78440523147583,-0.1710754483938217
1774470105975963100,7.200963134765625,0.8115496071189642,-0.1249383390501141,-0.0800515879668295,0.3926578164100647,-1.1041496992111206,-0.2819641530513763
1774470105985976000,7.21097607421875,1.0376374133527275,-0.0861784002840519,-0.5720633901298046,0.3822351694107055,-0.245191141963005,-0.3894961178302765
1774470105995989000,7.220989013671875,-0.1126882215470075,0.4779997895538806,-1.294516517560929,0.2732932567596435,0.2937980592250824,-0.3090361654758453
1774470106006002000,7.231001953125,-1.0461462985008954,0.8566586226508021,-1.743756807228923,0.1099078729748725,0.5207120180130005,-0.1839845925569534
1774470106016016100,7.24101611328125,-0.7196674422353506,0.8666381648734212,-1.6188080929152666,-0.0156295467168092,0.5357170701026917,-0.1372650116682052
1774470106026029000,7.251029052734375,0.4529512730151415,0.8112227132521569,-1.0092832793973383,-0.0677889809012413,0.3464471697807312,-0.1703417897224426
1774470106036042000,7.2610419921875,0.851727888250351,0.6797840523973107,-0.0733463912397623,-0.0482437685132026,0.2337893396615982,-0.1916835606098175
1774470106046055200,7.27105517578125,0.7198311083644628,0.6216771697349845,0.6278793853759765,-0.0013738974230363,0.1975411921739578,-0.1651967912912368
1774470106056067800,7.28106787109375,0.4274427377492189,0.6848229233473538,0.8597514740996062,0.0397421158850193,0.1617618799209594,-0.1297996491193771
1774470106066081000,7.2910810546875,0.1326636726051568,0.6798501033708453,0.7741640254460275,0.0735973566770553,0.0708095580339431,-0.0825774893164634
1774470106076094000,7.301093994140625,-0.0950432592630386,0.3527329492017627,0.6975435809716581,0.0923348292708396,0.0273776613175869,0.0004225843586027
1774470106086108000,7.31110791015625,-0.4262865534514188,-0.4001020186200738,0.3356014893978833,0.0989908650517463,0.2591342329978943,0.0276655256748199
1774470106096121000,7.32112109375,-0.1855687488406896,-0.3193270848147571,0.1522486630409956,0.1394512057304382,0.3602613806724548,0.0692633017897605
1774470106106134000,7.331134033203125,0.1923924573808908,-0.190186617899686,-0.0133043027311563,0.1477305442094802,0.3270579278469085,0.1164003610610961
1774470106116147000,7.34114697265625,0.769980748412013,-0.2290073469422757,-0.0945011152103543,0.1137890815734863,0.3496085107326507,0.0707753598690033
1774470106126160100,7.35116015625,1.1085212138712406,-0.063406304244697,-0.0588994943447411,0.0738620012998581,0.3065036237239837,0.0078383712098002
1774470106136173000,7.361173095703125,0.805488699644804,0.0664727060779929,0.0768532303169369,0.0990656241774559,0.2897590100765228,-0.0471178218722343
1774470106146186200,7.371186279296875,0.0101776951432228,0.0244071498952806,0.168972272696346,0.0358794592320919,0.4772325456142425,0.0324470475316047
1774470106156200000,7.381199951171875,-1.0522639045983553,-0.8128663888059556,-0.4443282599680125,-0.1103437915444374,0.9283661842346193,0.1180487647652626
1774470106166213000,7.391213134765625,-0.5618091226190328,-0.6479644342884421,-0.3827696294166147,-0.1600017100572586,0.9541763067245485,0.0921942219138145
1774470106176226000,7.40122607421875,-0.0686672935128211,-0.4435778799921274,0.0189373401820659,-0.1779061406850814,0.6578487753868103,0.1591514199972152
1774470106186239000,7.411239013671875,0.4530179085105657,-0.0071887424603104,0.6956694576628506,-0.1365075707435608,0.3346400856971741,0.1840431839227676
1774470106196252200,7.421252197265625,0.2435311084657907,-0.1723096004255115,0.8571325237728655,-0.1534428745508194,0.1848082691431045,0.2243479937314987
1774470106206265000,7.43126513671875,0.202522806251049,-0.6576349105618894,0.7658363420836627,-0.1779810786247253,0.0866138562560081,0.2819129824638366
1774470106216278000,7.441278076171875,0.2476747841417789,-0.9837247675098478,0.6787789670079946,-0.2567821443080902,-0.0189676955342292,0.4172638952732086
1774470106226291000,7.451291015625,0.3689946404337882,-1.240092707325518,0.5896377713955938,-0.4573816359043121,0.0536675713956356,0.503403902053833
1774470106236305000,7.461304931640625,0.3992757969290018,-1.951320091865212,-0.3867630829669535,-0.8391414880752563,0.2430295050144195,0.561022162437439
1774470106246318000,7.471318115234375,1.0427876357227563,-0.828941179163754,-0.7468065013125539,-1.1931554079055786,0.255588948726654,0.5501577258110046
1774470106256331000,7.4813310546875,1.5612907005786896,0.5622385270122439,-0.4114708232440054,-1.480787992477417,-0.0715691894292831,0.4595847129821777
1774470106266344200,7.49134423828125,1.3979308609366417,0.8497294809747487,-0.3994279187507927,-1.732890009880066,-0.4958628714084625,0.3726238310337066
1774470106276356900,7.50135693359375,0.4943032741010189,1.2227601719915866,-0.0546672636024653,-1.8236548900604248,-0.6984735131263733,0.3491153120994568
1774470106286370000,7.5113701171875,-0.5011749134361744,1.5011941054038702,0.8657698576062918,-1.62307608127594,-0.7415786385536194,0.4444200396537781
1774470106296383200,7.52138330078125,-0.7442407424777746,1.4853700749367476,1.654387940340489,-1.1845083236694336,-0.8789609670639038,0.536117434501648
1774470106306397000,7.53139697265625,0.1064396825462579,1.6826947280228135,1.6945729434736072,-0.68648362159729,-0.9629717469215392,0.5341895818710327
1774470106316410000,7.54141015625,0.6935720469921827,1.5642808223053812,1.0116995467588306,-0.2676171064376831,-0.8705203533172607,0.5139147043228149
1774470106326423000,7.551423095703125,0.7458212896674871,1.0977570971421895,-0.0557176494382321,-0.0456533804535865,-0.7561687231063843,0.5437988042831421
1774470106336436000,7.56143603515625,0.4082558067202568,0.4012889633823186,-1.1479817021220922,-0.0592504180967807,-0.6061720848083496,0.6276034116744995
1774470106346449200,7.57144921875,0.3757710027009248,-0.2381721387159079,-1.7593825386449693,-0.2252618372440338,-0.4757622480392456,0.6977628469467163
1774470106356462000,7.581462158203125,0.3874906665891409,-0.68193253566809,-1.7543312466047702,-0.3885349333286285,-0.3485859036445617,0.7365589737892151
1774470106366475000,7.59147509765625,0.0947317090958356,-0.6144065211448818,-1.4042599178276955,-0.4964773654937744,-0.2963477373123169,0.7946031093597412
1774470106376488000,7.601488037109375,-0.4094634289443493,-0.1346521795412525,-0.9434697678804396,-0.549120306968689,-0.3141019642353058,0.8776804208755493
1774470106386502100,7.611502197265625,-0.7913590520054101,0.1242511605035513,-0.4498990458376705,-0.4934953451156616,-0.1206830739974975,0.9190598726272584
1774470106396515000,7.62151513671875,-0.6653998454749583,0.636749358921498,0.1658971030347049,-0.3100464344024658,0.0089641287922859,0.8690435886383057
1774470106406528000,7.631528076171875,-0.4025578873395919,1.1407489013243466,0.2874453612551093,-0.1158810853958129,0.0634562522172927,0.7986705303192139
1774470106416541200,7.641541259765625,-0.1676619207501411,1.124299067109078,-0.2633963771477342,-0.0062944055534899,0.1794060170650482,0.7852292656898499
1774470106426553900,7.651553955078125,0.1881897449940442,0.4192897168340161,-1.0080009845018387,0.0167240221053361,0.3813597559928894,0.7370418906211853
1774470106436567000,7.661567138671875,0.7454711610555649,0.1002714605064131,-1.2635824501149355,0.0669565647840499,0.5765545964241028,0.6572269201278687
1774470106446580000,7.671580078125,0.6909872911959886,-0.0262187293618917,-1.0424145646266638,0.1242399588227272,0.6329013705253601,0.5975097417831421
1774470106456593200,7.68159326171875,0.2118511910885572,-0.5742998439449817,-0.7442064018167555,0.1516170054674148,0.5595291256904602,0.5331589579582214
1774470106466607000,7.691607177734375,-0.3169067258000373,-1.1021927415020762,-0.2742716991662979,0.1632700115442276,0.5260359048843384,0.4869258999824524
1774470106476620000,7.7016201171875,-0.8104454452693461,-1.1118024274989962,0.2402482874028384,0.176049456000328,0.4899247884750366,0.4165830314159393
1774470106486633000,7.711633056640625,-0.9405658631324768,-0.8394155191659927,0.6527485998250544,0.1732733100652694,0.4424100518226623,0.2962423264980316
1774470106496646000,7.72164599609375,-0.8391191665679216,-0.6304679405644535,0.7963589061193168,0.1566650420427322,0.2886881232261657,0.224779337644577
1774470106506659000,7.7316591796875,-0.626297084620595,-0.5008055686671287,0.8643160055361687,0.1644424349069595,-0.0103308539837598,0.1557425558567047
1774470106516672300,7.74167236328125,-0.2709399243950843,-0.2047265268404036,1.1933916002966465,0.2848231792449951,-0.2390852123498916,0.1371917724609375
1774470106526685000,7.751684814453125,-0.2685755333513021,0.0378771280495449,1.906782008089125,0.5605092644691467,-0.3153739273548126,0.1243329271674156
1774470106536698000,7.761697998046875,-0.5119207638561726,0.1021642337167635,2.4651550187796354,0.8593246936798096,-0.3056078255176544,0.1871587634086609
1774470106546711800,7.7717119140625,-0.5193184728920459,-0.1415600227009505,2.0556509655639528,0.9958294034004213,-0.2485482543706894,0.2591183483600616
1774470106556725000,7.78172509765625,-0.4570633845090865,-0.5764016019972041,0.9815746037386356,0.9511010646820068,-0.2795040309429168,0.3591219186782837
1774470106566738000,7.791738037109375,-0.0073994626015424,-0.6902548852682113,-0.2654876503385603,0.7511880993843079,-0.4046303331851959,0.4011423587799072
1774470106576751000,7.801751220703125,0.4924819038927555,-0.5759370532253757,-1.3688316077023743,0.4602683782577514,-0.4803847670555115,0.3462042808532715
1774470106586763800,7.811763671875,0.4963718970686196,0.1686617819750681,-1.863867726122588,0.2375757098197937,-0.4575035274028778,0.2524673342704773
1774470106596777000,7.82177685546875,-0.1080646533995866,1.1376307693038137,-1.5517125787638126,0.1545665711164474,-0.4160476922988891,0.1742659956216812
1774470106606790000,7.831789794921875,-0.5429337417572736,1.810359861688316,-1.0548916227534413,0.1833456456661224,-0.3891645967960357,0.1537650674581527
1774470106616802800,7.841802734375,-0.4527385070472955,1.7729804174952208,-0.9433828202493488,0.1986268609762191,-0.3163013160228729,0.1908948719501495
1774470106626817000,7.851817138671875,0.0448497800737619,1.1632784938447176,-0.9965155677609144,0.1813792586326599,-0.2178271859884262,0.1802808791399002
1774470106636830000,7.861829833984375,0.5228934087693691,0.6928199134506284,-0.6744947138175368,0.1990871578454971,-0.1041256561875343,0.1277526915073394
1774470106646843000,7.8718427734375,0.5772241338938474,0.2331334138963371,-0.2396449146822094,0.2478753626346588,-0.0482051260769367,0.1022620648145675
1774470106656855800,7.881855712890625,0.3244721926182508,-0.2349079127555713,-0.2466039400398731,0.2831710278987884,0.0003685364499688,0.1101125329732894
1774470106666869000,7.891868896484375,-0.0591600449770689,-0.3086807857790962,-0.6755107589922845,0.2488789558410644,0.0210375525057315,0.1383415460586547
1774470106676881700,7.901881591796875,-0.20363982758224,-0.133493766753748,-1.1696522666603326,0.1741322875022888,0.0400538556277751,0.1584998071193695
