time,seconds_elapsed,accel_x,accel_y,accel_z,gyro_x,gyro_y,gyro_z
1774470098301689600,0.063689697265625,-0.1569499725997447,0.2737374461591244,0.2233722636647522,0.1212338805198669,0.0224781222641468,0.2300372868776321
1774470098311706600,0.07370654296875,-0.0963818143904209,0.2555921331375837,0.2428163477925583,0.1858015954494476,-0.0280882567167282,0.2521765232086181
1774470098321723600,0.0837236328125,0.1075543657898902,0.1712400714978575,0.2461863904812373,0.2376160621643066,-0.1253711432218551,0.2736783325672149
1774470098331740700,0.09374072265625,0.1794073036015033,0.1611032928869128,0.170862141563557,0.2632285356521606,-0.2158771902322769,0.285844624042511
1774470098341757400,0.10375732421875,0.1178793604493141,0.1738037845060229,0.0899193769106641,0.2621723115444183,-0.2731391489505768,0.2829582989215851
1774470098351774700,0.113774658203125,-0.160235570141673,0.2776347458586096,0.0312490882119163,0.2543581426143646,-0.2103100717067718,0.2807899117469787
1774470098361791500,0.12379150390625,-0.9952718513101338,0.6478185960769653,0.1075338709911331,0.2689906060695648,0.0503675900399684,0.3039162755012512
1774470098371808500,0.13380859375,-1.489606689593196,1.0911492233097553,0.4740317627057432,0.3624687492847442,0.3791351616382599,0.3416445851325989
1774470098381826600,0.14382666015625,-1.515962781599164,1.587770711225271,1.3058869296200573,0.5680443048477173,0.7634868025779724,0.3506769835948944
1774470098391843600,0.153843505859375,-1.4532529351860284,1.468858208335936,1.7830794944442807,0.8160187005996704,0.9294612407684326,0.3826119601726532
1774470098401860600,0.163860595703125,-0.9100117349147796,0.958169324362278,1.9661691398203367,1.0801923274993896,0.8536367416381836,0.4749986231327057
1774470098411877600,0.173877685546875,-0.1872667849302291,0.4424243260428309,2.007041832956672,1.3294892311096191,0.5596922039985657,0.5905747413635254
1774470098421894700,0.183894775390625,0.491557774785161,0.015272387933731,1.7938515022188424,1.54340922832489,0.0894595012068748,0.7040514945983887
1774470098431911700,0.19391162109375,0.8240729886054993,-0.1206535013377666,1.4026264714069665,1.7055169343948364,-0.4352360963821411,0.8036364316940308
1774470098441928700,0.2039287109375,0.7578630251169204,0.0182291919127106,1.0048280535541474,1.8122657537460327,-0.9472576379776,0.9049845933914183
1774470098451945500,0.213945556640625,0.7156921088635921,0.2206017760381102,0.6792215231437235,1.859829664230347,-1.42284893989563,1.0224812030792236
1774470098461963800,0.2239638671875,0.7631424268245697,0.4502940365046262,0.3927491716392338,1.8683489561080933,-1.8658716678619385,1.1492948532104492
1774470098471980500,0.23398046875,1.019576271483302,0.973715853062272,0.5146086147006601,1.8954612016677856,-2.333245754241944,1.248408317565918
1774470098481997800,0.243997802734375,1.0537737246394157,1.1262225825175642,0.6320316827498376,1.9192816019058228,-2.8230960369110107,1.3398959636688232
1774470098492014600,0.2540146484375,0.9613684126645328,1.058495492464304,0.7509379020288586,1.9449243545532229,-3.354461193084717,1.408581256866455
1774470098502031600,0.264031494140625,0.7969768918871879,0.8534235862523317,0.9417239471264184,1.963701248168945,-3.7371935844421382,1.4192416667938232
1774470098512048600,0.274048583984375,0.4346539843022823,0.5322235471725464,0.9507020572215318,1.957938313484192,-3.518555164337158,1.283400297164917
1774470098522065700,0.284065673828125,-0.1478413679927587,0.1917851391375064,0.8102917160123586,1.9510002136230469,-2.781545639038086,1.2107237577438354
1774470098532082400,0.29408251953125,-0.1407639769524336,0.4617451125845312,0.9132347886145116,1.9856963157653809,-1.9919756650924685,1.1176509857177734
1774470098542100700,0.304100830078125,1.5334575217574833,0.5354392943486571,1.2737687669560311,1.9990500211715696,-1.6172733306884766,0.8617188334465027
1774470098552117500,0.314117431640625,2.894524340677261,0.4649959310740232,0.7492234993264079,1.966291904449463,-1.311620593070984,0.6062959432601929
1774470098562134800,0.324134765625,0.3365817326068878,-0.3131991034537553,-1.682970037832856,1.641947627067566,-0.112188771367073,0.6248104572296143
1774470098572151600,0.334151611328125,-2.506575408926606,-2.0841806022167204,-7.0172682877957815,1.002612590789795,0.5803412795066833,0.8149734735488892
1774470098582168600,0.34416845703125,1.9158932430446147,-2.4081430917471645,-7.50592157331109,0.2558196187019348,-0.5587760806083679,0.7424857020378113
1774470098592185900,0.354185791015625,2.8686779517591,-2.9625138810589906,-8.27571936637163,-0.7307630181312561,-1.4397342205047607,0.5720153450965881
1774470098602202600,0.36420263671875,1.4611433961749076,-2.031050485053658,-6.438370667731761,-1.4138141870498655,-1.397502064704895,0.233663409948349
1774470098612219600,0.3742197265625,1.671289536911249,0.8283721471041441,-0.8821437770411371,-1.6320723295211792,-0.9606794118881226,-0.1571807414293289
1774470098622237700,0.38423779296875,0.5341752657622099,1.1175994233399629,1.078307569654286,-1.622018337249756,-0.4409316182136535,-0.4062342345714569
1774470098632254500,0.39425439453125,-1.2002093174874782,0.9686015787884592,1.4283666234716772,-1.5492571592330933,-0.0258531756699085,-0.5391557216644287
1774470098642271200,0.404271240234375,-1.1168863066345454,0.8764405969634652,0.7499886384800076,-1.4987783432006836,0.1209466606378555,-0.5539663434028625
1774470098652288500,0.41428857421875,-1.4951356821477413,-0.2866702852293848,-0.2534323247551918,-1.4359662532806396,-0.4570627510547638,-0.2882367074489593
1774470098662305300,0.42430517578125,-1.967089177274704,-0.4960866503864526,-0.7290852589219808,-1.3047528266906738,-0.7524077892303467,0.18443363904953
1774470098672322600,0.434322509765625,-2.035397574347257,-0.0414046080559492,0.6610153467804193,-1.0086028575897217,-0.928620457649231,0.6423583030700684
1774470098682339300,0.44433935546875,-1.3605623765289785,0.7468570624560117,2.1250819369256497,-0.6529502272605896,-0.8995382189750671,0.862654983997345
1774470098692356400,0.4543564453125,-0.2688315539389848,1.017090299886465,1.8823978006780149,-0.3805079162120819,-0.7590528130531311,0.849859893321991
1774470098702374400,0.46437451171875,0.4913163672447204,0.4801435235843062,1.0377309368550778,-0.2386088222265243,-0.9326517581939696,0.7409358024597168
1774470098712391400,0.474391357421875,1.005879754564166,0.4763140284240245,-0.2625625566720962,-0.2879472970962524,-1.173841953277588,0.5276104211807251
1774470098722408200,0.484408203125,2.260810257798433,0.3291182648584246,-0.8068757700890302,-0.433860033750534,-1.210525393486023,0.0808827504515647
1774470098732425500,0.494425537109375,2.1065777274638413,-0.1509486863583326,0.4525669498726725,-0.4766945540904999,-1.152335524559021,-0.2966475486755371
1774470098742442500,0.5044423828125,1.2299310865342616,-0.1497957169309258,1.2386001306802037,-0.4249517321586609,-1.1201677322387695,-0.4681205153465271
1774470098752459300,0.514459228515625,0.7732628388226032,-0.1574912398695945,1.6198828825399278,-0.2583078742027282,-1.0585525035858154,-0.4614415466785431
1774470098762476500,0.5244765625,0.1448983002781868,-0.1147512915566563,2.186866485187412,-0.0331799313426017,-0.941211998462677,-0.3287604749202728
1774470098772494300,0.534494384765625,0.3644020519465208,0.0468520598068833,2.320663253475725,0.1840721070766449,-0.7665694355964661,-0.1946848630905151
1774470098782511400,0.544511474609375,1.0578741456955671,0.3042264001861214,1.7117592022046446,0.3205300867557525,-0.6653751730918884,-0.1924736499786377
1774470098792528400,0.5545283203125,2.0757284156918523,0.4069146212443709,0.7212561727315187,0.3578393459320068,-0.6423408389091492,-0.3654491305351257
1774470098802545400,0.56454541015625,2.650706816485524,0.4231804041296243,0.3769678112700581,0.3417876660823822,-0.5701598525047302,-0.6204438805580139
1774470098812562400,0.5745625,2.9570003783345222,0.3107511257797479,-0.0883662657171487,0.2869923114776611,-0.7106972932815552,-0.9010328650474548
1774470098822579500,0.584579345703125,2.9523037449508904,0.427856579247117,-0.1712663749828934,0.3139322996139526,-0.6915009617805481,-1.1728119850158691
1774470098832596200,0.59459619140625,1.981781134971976,0.6845555045828223,0.5394570055574178,0.4278503656387329,-0.4061893224716186,-1.300299048423767
1774470098842613500,0.604613525390625,0.7157891394972801,0.9869055895030496,0.7999366184756159,0.561729371547699,0.0119213815778493,-1.2448089122772217
1774470098852630300,0.61463037109375,-0.1783481499373912,1.3439540638163685,0.4447396172478794,0.6497253775596619,0.2624165415763855,-1.0825186967849731
1774470098862648600,0.624648681640625,-0.6908008287131786,1.591420758165419,-0.3861649709433317,0.6641216278076172,0.3888133466243744,-0.9128870368003844
1774470098872665300,0.634665283203125,-0.8447042732238769,1.7066788302004336,-0.9658870591327549,0.5909502506256104,0.5843974351882935,-0.7856010794639587
1774470098882682400,0.644682373046875,-0.5733768108159303,1.9284525726273656,-1.2050164255082607,0.4465771019458771,0.7449818253517151,-0.7077062726020813
1774470098892699400,0.654699462890625,-0.2191507004469633,2.0481115099698304,-1.2622761898219583,0.2472529411315918,0.8676570057868958,-0.6529510021209717
1774470098902716400,0.66471630859375,0.1427712251216173,1.7883850535064936,-1.244848377420008,0.0739445313811302,0.8805304765701294,-0.5726202130317688
1774470098912733400,0.6747333984375,0.3290706263244152,1.4544199331387877,-0.9778405317768454,-0.0167844705283641,0.8502272367477417,-0.4804213941097259
1774470098922750500,0.68475048828125,0.3804349028587341,0.9077662940755484,-0.5096013809978962,-0.0162766054272651,0.950327694416046,-0.4401221573352813
1774470098932768300,0.694768310546875,0.2083539966225624,0.4028349507153034,-0.4671072241395712,-0.002375241369009,1.2234392166137695,-0.3918978571891784
1774470098942785500,0.70478564453125,-0.2634428466379642,0.2987470919921994,-0.7497679814666509,-0.0324420630931854,1.4237295389175415,-0.2944469153881073
1774470098952802300,0.71480224609375,-0.3974187708854675,0.0858969529941678,-0.6446195077747107,-0.1119314655661583,1.5289838314056396,-0.2162837982177734
1774470098962819300,0.7248193359375,-0.1931383073121309,-0.6974141093730926,0.0979237831354141,-0.067455343902111,1.4586819410324097,-0.2791274487972259
1774470098972836600,0.734836669921875,0.0829798965036869,-1.7079323373928663,1.3742606470137837,0.1556585729122162,1.282688021659851,-0.4939506649971008
1774470098982853400,0.744853271484375,0.1756768849015235,-2.795698055744171,2.3720851054161787,0.4692892134189605,1.136987566947937,-0.8357722163200378
1774470098992870400,0.754870361328125,0.1327408294945955,-3.1611864416226743,2.585795368374884,0.7232537269592285,0.8030251264572144,-1.289177656173706
1774470099002887400,0.764887451171875,-0.2868646387577057,-2.905686955204606,2.423400282111764,0.8721688985824585,0.4194013178348541,-1.6133754253387451
1774470099012905500,0.774905517578125,-1.214835224211216,-2.5317484286278487,1.836486236591637,0.92589008808136,0.0205170325934886,-1.6070023775100708
1774470099022922500,0.784922607421875,-1.9179612814903255,-2.3105314433008437,1.085894079260528,0.8923859000205994,-0.2420027405023574,-1.294085144996643
1774470099032939500,0.794939453125,-3.36435835943222,-2.11147572863847,-0.3441609356895089,0.7672936320304871,-0.1956178396940231,-0.7021831274032593
1774470099042956300,0.804956298828125,-4.035190166828036,-1.5509215745165943,-1.2529966125622392,0.5742560029029846,-0.0535661689937114,0.0248163975775241
1774470099052973600,0.8149736328125,-3.3474259293317794,-0.9629609425529836,-0.9542305236086248,0.3564530909061432,0.1215470135211944,0.6804938912391663
1774470099062990300,0.824990234375,-1.7783043889969583,-0.3403466380983591,-0.1936559014454484,0.0912637710571289,0.3284514546394348,1.1566613912582395
1774470099073007400,0.83500732421875,-0.5362064793288708,-0.5722483913078904,-0.0799441820695996,-0.2126347720623016,0.3570705056190491,1.4716789722442627
1774470099083024400,0.8450244140625,0.9724375036895274,-0.5260241080105305,0.1353045425027609,-0.4788302481174469,0.4459380805492401,1.545988917350769
1774470099093042400,0.85504248046875,2.1593080316543576,-0.2754533101662993,0.3702320732742548,-0.7066980600357056,0.6022390127182007,1.4427273273468018
1774470099103059200,0.86505908203125,2.6965987990885973,-0.6870934986278414,0.1947179777190089,-0.8646709322929382,0.903554379940033,1.2266405820846558
1774470099113076500,0.875076416015625,2.8964035785526034,-0.6422235525488853,0.2182107892483472,-0.867377758026123,1.3121519088745115,0.9396572113037108
1774470099123093200,0.88509326171875,2.8079326834172007,-0.1718947360143065,0.1789274111300706,-0.7683550119400024,1.788580298423767,0.6134154200553894
1774470099133110300,0.8951103515625,1.9434902750223877,-0.1280450728937983,-0.3655930152967572,-0.7407531142234802,2.399148941040039,0.4006752967834472
1774470099143127600,0.90512744140625,0.1675976233422756,-0.0634416678190231,-0.8600450502187013,-0.8625019192695618,2.838908433914185,0.4376221299171448
1774470099153144300,0.915144287109375,-1.1691431480944157,0.2914446600243449,-1.3994655231580138,-1.0888139009475708,2.98439359664917,0.6749606728553772
1774470099163162400,0.925162353515625,-2.149995428907871,0.6597352438420057,-1.291135789081454,-1.2805806398391724,2.708376884460449,0.9671531319618224
1774470099173179400,0.935179443359375,-1.9627946949511763,0.8809127739414572,-0.994785967489332,-1.4578808546066284,2.1210217475891118,1.1309077739715576
1774470099183196400,0.945196533203125,-1.6362456960588692,0.6415002067103982,-1.3567726288571953,-1.622866988182068,1.5837223529815674,1.0884815454483032
1774470099193213400,0.95521337890625,-0.8764987568914889,0.138732178863883,-0.665341831677407,-1.7061749696731567,1.114654541015625,0.8570386171340942
1774470099203230500,0.96523046875,-0.8778542631536722,-0.0620864538177847,0.3061307725027203,-1.7059496641159058,0.7295311689376831,0.6289058327674866
1774470099213247200,0.975247314453125,-0.8808896853268146,-0.217715114685893,0.6965602690227329,-1.641024470329285,0.1750914901494979,0.4271667003631592
1774470099223264500,0.985264404296875,-0.5093886150300503,-0.2753337754398584,0.8104128581739961,-1.5160475969314575,-0.4647758305072784,0.2077387273311615
1774470099233282300,0.9952822265625,-0.4745914424151182,-0.0706043990552425,0.7666790765181183,-1.367308497428894,-0.9246108531951904,0.047443363815546
1774470099243299600,1.005299560546875,-0.9853449160575866,0.0840028098106384,0.3174586605943739,-1.2621591091156006,-1.0831046104431152,-0.0379745997488498
1774470099253316400,1.01531640625,-0.7011696625143289,0.2307546290010213,-0.105311263038218,-1.217319130897522,-1.0604547262191772,-0.1483140140771865
1774470099263333400,1.02533349609375,-0.8994044161826371,0.4144330340504646,-0.0094883977048099,-1.2052603960037231,-0.8073285222053528,-0.1872941702604293
1774470099273350400,1.035350341796875,-2.014189951145649,0.1317217155799269,-0.2847473543427884,-1.234622597694397,-0.436455100774765,-0.0629949271678924
1774470099283367400,1.045367431640625,-1.8738900845736264,-0.119628834465146,-1.0001470561310648,-1.2829874753952026,-0.1794518232345581,0.0580164417624473
1774470099293384200,1.05538427734375,-1.2219663912653922,0.2845917253896594,-1.5859036021791395,-1.3396027088165283,-0.1172910183668136,0.1146219670772552
1774470099303401500,1.0654013671875,-0.8708014220327138,0.7609794035717844,-1.637994731683284,-1.455822229385376,-0.1108405813574791,0.0718366801738739
1774470099313419300,1.075419189453125,-0.3014244945079088,0.8470566815689206,-1.7020860955826935,-1.564838409423828,-0.19748055934906,-0.0381031185388565
1774470099323436500,1.0854365234375,-0.4325304162770509,0.7240650926724076,-1.3914735014908015,-1.6103262901306152,-0.253785103559494,-0.1574023514986038
1774470099333453300,1.095453369140625,-0.2865197708427905,0.5245759550288319,-1.2811075854115188,-1.6119612455368042,-0.2620177865028381,-0.300383448600769
1774470099343470300,1.10547021484375,-0.0414700745075941,0.5165361486971378,-1.2162942639131098,-1.5732321739196775,-0.1686114072799682,-0.3987326323986053
1774470099353487600,1.115487548828125,-0.1770125174194574,0.4641334690257906,-0.9626476388201116,-1.5293755531311035,0.0456688217818737,-0.404762327671051
1774470099363504400,1.12550439453125,-0.1798942103356123,0.4178235532715916,-1.1119183089636266,-1.472717523574829,0.2985934913158417,-0.3809368908405304
1774470099373521400,1.135521484375,-0.272602304649353,0.3889578165322542,-1.0959804428584874,-1.419950008392334,0.515879213809967,-0.3179201185703277
1774470099383538400,1.145538330078125,-0.3082563863545656,0.3226023070931434,-0.9881876652028412,-1.3812901973724363,0.722322940826416,-0.2500097751617431
1774470099393556500,1.155556396484375,-0.1739829404652118,0.3414756421282887,-0.5809345692517236,-1.3413286209106443,0.7510125041007996,-0.1918988078832626
1774470099403573500,1.165573486328125,-0.1413718797177076,0.3575301203504205,0.0713217900769785,-1.2681065797805786,0.5670596957206726,-0.1230406463146209
1774470099413590500,1.175590576171875,-0.1591442677736282,0.3170765294089913,0.7648132826462387,-1.1432896852493286,0.2390026003122329,-0.0514849536120891
1774470099423607300,1.185607177734375,-0.0646434448242187,0.1457768366783857,1.3958295047432183,-0.9916859269142152,-0.1259846836328506,-0.0031144926324486
1774470099433624600,1.19562451171875,-0.0871183114826679,-0.5192842783614993,1.4984816315747798,-0.8385075330734253,-0.3622714877128601,-0.0039001570548862
1774470099443641300,1.205641357421875,0.3891998085945844,-0.9150698950871824,1.6617966091617942,-0.6186518669128418,-0.5696643590927124,-0.1118615120649337
1774470099453658400,1.215658447265625,0.7560363942116498,-1.0217276042982937,1.880385291811824,-0.3299528956413269,-0.7646453380584717,-0.2734140455722809
1774470099463676400,1.225676513671875,0.778979462903738,-1.181492342057824,1.9232287004992368,0.0095183867961168,-0.9565199613571168,-0.4069545269012451
1774470099473693400,1.235693359375,0.5357762712180614,-1.164231702916324,1.901288086847961,0.3165357410907745,-1.0383458137512207,-0.4699426889419555
1774470099483710200,1.245710205078125,0.143146488174796,-0.8282683944687247,1.2720868052184582,0.5197442173957825,-0.949366569519043,-0.4366712868213653
1774470099493727500,1.2557275390625,-0.3719102356195449,-0.4053796667620539,0.5190357834931463,0.6622911691665649,-0.7137273550033569,-0.2890329658985138
1774470099503744300,1.265744140625,-0.5891337673962116,-0.0374576239958405,-0.0059171881545335,0.7440696358680725,-0.4538848400115967,-0.1265518963336944
1774470099513761300,1.27576123046875,-0.6100801093131304,0.3908028598770499,-0.5879521563962101,0.7576412558555603,-0.2127301543951034,0.0031079202890396
1774470099523778600,1.285778564453125,-0.5489969873189926,0.8369678337529302,-1.1225861257113516,0.7048933506011963,0.0046096257865428,0.1061687916517257
1774470099533795300,1.29579541015625,-0.4215209464848041,1.1438909256771206,-1.3814710167840123,0.618834376335144,0.1741513013839721,0.149513840675354
1774470099543813400,1.3058134765625,-0.3103384533256292,1.341905022332072,-1.4911762769974768,0.5174078941345215,0.2038729786872863,0.123879574239254
1774470099553830400,1.315830322265625,-0.2268523608654737,1.4086328722149133,-1.4480413380175827,0.4046166837215423,0.0492336004972457,0.0460047535598278
1774470099563847400,1.325847412109375,-0.0894569835633039,1.32014444142282,-1.0303954063352196,0.3286401629447937,-0.2029800117015838,-0.0844661667943
1774470099573864400,1.335864501953125,0.4274234485268592,1.0489423589602112,-0.6619735973533243,0.3374383747577667,-0.5161798596382141,-0.2693720161914825
1774470099583881500,1.345881591796875,0.644747518068552,0.6690577834606171,-0.1969647337324917,0.4546209275722503,-0.7499465346336365,-0.4432314336299896
1774470099593898200,1.355898193359375,0.3757563896536827,0.309227277213335,0.2687815042521804,0.6513007879257202,-0.8711641430854797,-0.5300289988517761
1774470099603915500,1.36591552734375,0.1896948888599872,0.0268316005632281,0.5152835182875395,0.8521723747253418,-0.8740941882133484,-0.4957120716571808
1774470099613933300,1.375933349609375,-0.2907604771524668,0.003082768446207,0.4692307921648025,0.9782034158706664,-0.7453100681304932,-0.325107991695404
1774470099623950600,1.38595068359375,-0.3972136037021875,0.0911143953815102,0.2903486814811825,1.0113953351974487,-0.6025848984718323,-0.1377828419208526
1774470099633967000,1.395967041015625,0.0583574964225292,0.1453869605779647,0.4200644640661776,1.0237269401550293,-0.5019868016242981,-0.0184203218668699
1774470099643984100,1.405984130859375,0.2332242339849471,0.1779898380190133,0.6473886802271008,1.048237442970276,-0.3378673493862152,0.0429317206144332
1774470099654001200,1.416001220703125,0.3516968841522931,0.0811009508892893,0.7728310232765973,1.026071548461914,-0.2068327665328979,0.0345139056444168
1774470099664018200,1.42601806640625,0.6065244626581668,-0.1837985242977738,0.8408724399760364,0.99261212348938,-0.1723360419273376,-0.0647509023547172
1774470099674035200,1.43603515625,0.8347475273549556,-0.2723752178952098,1.3046208552069962,1.0133438110351562,-0.0941038355231285,-0.2020939141511917
1774470099684052200,1.44605224609375,0.8959855476498604,-0.5563426739066839,1.944629946576804,1.1295485496520996,-0.0940495058894157,-0.3611086010932922
1774470099694070000,1.456070068359375,0.5831430025488138,-0.8820689582392572,2.4781638456955557,1.3261148929595947,-0.0368220321834087,-0.4817637503147125
1774470099704087300,1.46608740234375,0.2345569438934326,-1.1026724878430365,2.8199136285901067,1.605573654174805,-0.0414277017116546,-0.5138516426086426
1774470099714104000,1.47610400390625,-0.1220639526575803,-1.295351653210819,3.281032133708894,1.96748149394989,-0.130913570523262,-0.4481649100780487
1774470099724121000,1.48612109375,-0.610576952919364,-1.1236050934955475,3.282406636932492,2.3183107376098637,-0.191510871052742,-0.2853813171386719
1774470099734138400,1.496138427734375,-1.0806301673829557,-0.6670932053893804,2.555485862568021,2.571704864501953,-0.1929155737161636,-0.031800702214241
1774470099744155100,1.506155029296875,-1.3709803101688622,-0.2467994626119732,1.5692378601908683,2.6566622257232666,-0.1861079931259155,0.189656063914299
1774470099754172200,1.516172119140625,-0.8397352526396512,0.2988663344576954,0.8361703997649252,2.600510358810425,-0.2148581594228744,0.2979564070701599
1774470099764189200,1.526189208984375,-0.2242816335946321,1.051536759367585,-0.0993316041067242,2.431739568710327,-0.2013407498598098,0.3246383666992187
1774470099774207200,1.536207275390625,-0.0833884773045778,1.3595955773234367,-0.8551207455590367,2.1669797897338867,-0.2081228941679,0.2876943051815033
1774470099784224000,1.54622412109375,0.0699094025284051,1.471198926243186,-1.4288769110813735,1.8306729793548584,-0.2265104204416275,0.1834701597690582
1774470099794241300,1.5562412109375,0.0776081403374671,1.352080671648681,-1.3961927850976583,1.554692625999451,-0.2571851313114166,0.0661393702030181
1774470099804258000,1.566258056640625,-0.1510614990830421,1.0718491872951388,-1.0622574753463268,1.4119266271591189,-0.3004612326622009,-0.0317696183919906
1774470099814275300,1.576275390625,-0.078358081921935,0.6781345316246151,-1.1203373238712548,1.4101608991622925,-0.3142289519309997,-0.1128971502184867
1774470099824292000,1.5862919921875,-0.1269803662717342,0.3823042038619518,-1.22704296387732,1.5044499635696411,-0.1655997931957245,-0.1322679221630096
1774470099834309000,1.59630908203125,-0.6499596997588872,0.3087511841341853,-1.673982429257035,1.5457358360290527,0.0395654961466789,-0.0356793440878391
1774470099844326100,1.606326171875,-0.9396750517725944,0.4432330120772123,-2.0679659649968145,1.4739971160888672,0.1863991469144821,0.1030870601534843
1774470099854344200,1.61634423828125,-0.769274061447382,0.780344613777101,-2.0975848581910133,1.3235316276550293,0.2795155644416809,0.2037910670042038
1774470099864361000,1.62636083984375,-0.389411405518651,0.9878367328733204,-2.051569249208272,1.1143726110458374,0.3134524822235107,0.2345785498619079
1774470099874378200,1.636378173828125,0.0241682265728712,0.9273916165217756,-2.1529750292405483,0.8570888638496399,0.3376383781433105,0.1840618699789047
1774470099884395000,1.64639501953125,0.3327484380543232,0.7988418089762329,-2.132982334786653,0.6164240837097168,0.3195568323135376,0.0816484093666076
1774470099894412000,1.656412109375,0.5097784911304712,0.6941238356560469,-1.6711989360183477,0.4498610496520996,0.2889989614486694,-0.0331312790513038
1774470099904429300,1.66642919921875,0.6475958932369947,0.4434548381343484,-1.1061430865630506,0.3633874058723449,0.280327171087265,-0.1439912170171737
1774470099914446000,1.676446044921875,0.6490513527423143,0.0930295813530683,-0.762196378146112,0.3687632083892822,0.3367025852203369,-0.2128950953483581
1774470099924463000,1.686463134765625,0.5508154349178076,-0.1788976005136966,-0.4400324624702334,0.4264960289001465,0.4162527918815613,-0.2424290180206298
1774470099934481200,1.696481201171875,0.7496171748191118,-0.279167069992423,-0.2611860076218843,0.5057230591773987,0.4453346729278564,-0.2666588425636291
1774470099944498200,1.706498291015625,0.948016179138422,-0.2375590483188629,-0.0570344311252236,0.5759245157241821,0.4835209548473358,-0.2904584407806396
1774470099954515200,1.71651513671875,0.820701466345787,-0.1268140697941183,0.0253325941771268,0.6013535261154175,0.5497825145721436,-0.311469554901123
1774470099964532200,1.7265322265625,0.7136106264144182,-0.0919511384665966,0.0472957119211554,0.5920715928077698,0.5462391972541809,-0.3167029321193695
1774470099974549000,1.736549072265625,0.5424830753803253,-0.0335951033487915,0.3287809957280755,0.5732616782188416,0.5196025967597961,-0.2806602120399475
1774470099984566300,1.746566162109375,0.2755857043743133,0.0733279788002371,0.4191109627336263,0.5469642877578735,0.5329098701477051,-0.220496192574501
1774470099994583000,1.7565830078125,0.1179910041302442,-0.0326072613552212,0.2546127667114138,0.5072056651115417,0.5643820762634277,-0.149810329079628
1774470100004600000,1.76660009765625,-0.0743921009004116,0.0119835755214095,0.2588844526812434,0.4856657683849334,0.5463002920150757,-0.0748556703329086
1774470100014617000,1.7766171875,-0.5413467648267746,-0.0320543036475777,2.59762667594403,0.7265163660049438,0.3401914536952972,0.0346224531531333
1774470100024635100,1.78663525390625,-0.5359527968287467,-1.2180918879196048,3.793139360047877,0.945649802684784,0.2911690473556518,0.0345460213720798
1774470100034652200,1.796652099609375,0.10373159263134,-1.3089821191564202,0.6639052230030298,0.8520523905754089,0.3040887117385864,-0.0236617978662252
1774470100044669200,1.806669189453125,0.1928209119260311,-0.242946878837049,-0.823968943709135,0.7536799907684326,0.4479782283306122,-0.0719422474503517
1774470100054686000,1.81668603515625,0.3029191169798374,0.1650967464372515,0.5004050981074571,0.7617104649543762,0.4811956584453583,-0.0996422693133354
1774470100064703200,1.826703125,0.2388297989070415,-0.1178591944441199,0.3690460783600807,0.7528927326202393,0.5427183508872986,-0.1329126209020614
1774470100074720300,1.83672021484375,0.0776455497384071,-0.1803288023605942,-0.0694891312897205,0.7244958281517029,0.6938109993934631,-0.1491885930299759
1774470100084737000,1.846737060546875,-0.3441284947246313,0.1533423034965992,-0.3864505098864436,0.6605557203292847,0.7841461896896362,-0.1021137610077858
1774470100094754300,1.85675439453125,-0.5618021083563566,0.4107056840904057,-0.5218722490280866,0.5605194568634033,0.7781117558479309,-0.0153909604996442
1774470100104772000,1.866772216796875,-0.5602040255099535,0.5264096001967787,-0.5033578104332089,0.4434383809566498,0.7518218159675598,0.058281660079956
1774470100114789000,1.8767890625,-0.3058919953107833,0.6038334700085223,-0.7088052719593048,0.3121666610240936,0.655605137348175,0.0868571326136589
1774470100124806100,1.88680615234375,-0.2358943299770355,0.5010664846256375,-0.8924337003871798,0.2243489027023315,0.5124780535697937,0.0676354989409446
1774470100134823200,1.8968232421875,-0.2754699690401554,0.4403950121723115,-0.4505570713549852,0.1917796730995178,0.3612875640392303,0.0071001085452735
1774470100144840200,1.906840087890625,-0.276212896361947,0.3139806092202663,-0.1777965074039995,0.1809960007667541,0.1863794028759002,-0.0821208506822586
1774470100154857200,1.916857177734375,-0.331629663157463,0.1879923227258026,0.1769862139344215,0.1922135800123214,-0.0078729856759309,-0.1472597569227218
1774470100164874000,1.9268740234375,-0.2775169646978378,-0.0199865569740533,0.6207837280265986,0.2242253124713897,-0.1723820269107818,-0.1910453140735626
1774470100174891300,1.936891357421875,-0.1254670390993356,-0.1865562985733151,0.4663246954597532,0.2460510730743408,-0.2659875452518463,-0.2093572467565536
1774470100184909000,1.946908935546875,0.0396177246391773,-0.15396087378636,0.1517614640459418,0.2695420384407043,-0.2126694768667221,-0.2166183590888977
1774470100194926300,1.95692626953125,0.3435428037911653,-0.1567483125478029,-0.0113951081089675,0.2817556262016296,0.0766441076993942,-0.221904307603836
1774470100204943000,1.966943115234375,0.7554068641364574,-0.1435847334615886,-0.4366657625161111,0.234463483095169,0.5790672898292542,-0.1605501472949981
1774470100214960000,1.976960205078125,0.8603302969008684,-0.1448673206180334,-0.4861225979939103,0.2342637479305267,0.858020544052124,-0.0965029969811439
1774470100224977200,1.98697705078125,0.4595306514054536,-0.2525691320545971,-0.4156152295723557,0.3273628056049347,0.9534264206886292,-0.0416975393891334
1774470100234994200,1.996994140625,-0.0491729039698839,-0.3087121672980487,-0.2025251443386077,0.3612531125545501,0.9707356691360474,0.0238199494779109
1774470100245011200,2.00701123046875,-0.3790630299836397,-0.013504501478374,0.0518517677903175,0.3288067579269409,0.9403383135795592,0.0977016314864158
1774470100255028200,2.0170283203125,-0.5579582924097776,0.3202788325816392,-0.0538834197483956,0.274095743894577,0.7711625695228577,0.1524320989847183
1774470100265046000,2.0270458984375,-0.5187275212615728,0.2875802396811545,0.0963977426119148,0.2300364077091217,0.536160409450531,0.1561274975538253
1774470100275063000,2.03706298828125,-0.3752612996131181,0.1516879604183137,0.1978296799987554,0.1870771944522857,0.3100622594356537,0.0967054814100265
1774470100285080300,2.047080322265625,-0.1981131731152534,0.1508902341693639,-0.0092573654279112,0.1239807903766632,0.1393896043300628,0.0149512328207492
1774470100295097000,2.05709716796875,-0.087172087496519,0.1815187427975237,-0.2147964507602155,0.0465695858001709,0.0708897411823272,-0.060764018446207
1774470100305114000,2.067114013671875,0.1592991660743951,0.1261196577891707,-0.3713846043102443,-0.0234100297093391,0.0718873590230941,-0.1114277243614196
1774470100315131100,2.077131103515625,0.3708756318747997,-0.0403951387524604,-0.3158636464878916,-0.0675276890397071,0.1112081333994865,-0.1313891857862472
1774470100325148200,2.087148193359375,0.3050163815200328,-0.1233219898946583,-0.2487256083689629,-0.0983971878886222,0.1829212009906768,-0.1119955107569694
1774470100335165200,2.097165283203125,0.052902738147974,-0.0644048137627542,-0.2484982293538749,-0.1195530071854591,0.2694431245326996,-0.0538451895117759
1774470100345182200,2.10718212890625,-0.1348784260451793,-0.0045778293095529,-0.2168830477759241,-0.1385125815868377,0.3276731371879577,0.0176409780979156
1774470100355200000,2.117199951171875,-0.2680845349639654,-0.0086189213939011,-0.1856504357747733,-0.1282702535390854,0.2955628633499145,0.0701741501688957
1774470100365217300,2.12721728515625,-0.4180570697665214,-0.0187801037937402,-0.0105782387681305,-0.0960073843598365,0.203542411327362,0.0927553549408912
1774470100375234000,2.137234130859375,-0.5835737951815128,0.0042928748883306,0.0498920120246708,-0.0575958229601383,0.0529591292142868,0.0968017801642417
1774470100385251000,2.1472509765625,-0.696359631884098,0.0543948764018714,0.0578600682944059,-0.0289623159915208,-0.1008903533220291,0.0856559202075004
1774470100395268000,2.15726806640625,-0.6812544172108173,0.0740688602954149,-0.023783465038985,-0.0101064518094062,-0.2461465448141098,0.0590766295790672
1774470100405285000,2.16728515625,-0.3971025445431471,0.0638455724447965,-0.0975559727363288,-0.0085485028102993,-0.3072178661823272,0.013437507674098
1774470100415302100,2.17730224609375,-0.0007546177595853,-0.0065745560847222,-0.3128548200607299,-0.0229126345366239,-0.2120181024074554,-0.0367715209722518
1774470100425319200,2.187319091796875,0.2099339592903852,0.0325534853413701,-0.3405269631013274,-0.0454863868653774,-0.0908024758100509,-0.0428190268576145
1774470100435337000,2.1973369140625,0.1866302405923605,0.0704286040969193,-0.1813949702873825,-0.0598887838423252,-0.0156782455742359,-0.0148102324455976
1774470100445354200,2.207354248046875,0.165547120553255,0.0525099394381046,-0.0968605378180742,-0.067547507584095,0.0584324672818183,0.0210958365350961
1774470100455371300,2.217371337890625,0.1053986490607261,0.136073627179116,-0.1310492231458425,-0.0793522521853447,0.1036180481314659,0.0601300559937953
1774470100465388000,2.227387939453125,0.058794134274125,0.1057278810150921,-0.0664132309757173,-0.0886890292167663,0.0803084671497345,0.0825280398130416
1774470100475405300,2.2374052734375,0.1310983229845762,0.1152012272812426,0.0273065245985984,-0.0911243185400962,0.0255326572805643,0.0790881589055061
1774470100485422000,2.247422119140625,0.102618078431487,0.1968539668343961,0.0180257782950997,-0.0896137729287147,-0.069948062300682,0.0489749982953071
1774470100495439000,2.257439208984375,0.0439519544512033,0.2279012853965163,0.0339265272602438,-0.0738132521510124,-0.1560931801795959,0.0185659416019916
1774470100505456000,2.2674560546875,-0.1203325988203287,0.2073250919662415,-0.0720294634222984,-0.0603981092572212,-0.2283553928136825,-0.0007933755405247
1774470100515473200,2.27747314453125,-0.2905687539726496,0.1338831313975155,-0.2069714562229812,-0.0419624559581279,-0.2825981080532074,-0.0011733302380889
1774470100525491200,2.2874912109375,-0.4632534713208675,0.1071525069907307,-0.1471316122882068,-0.026924917474389,-0.2963658571243286,0.0340120866894722
1774470100535508200,2.29750830078125,-0.606861731788516,0.1096047224484384,-0.0923193872570991,-0.0385937318205833,-0.2698360979557037,0.1070624962449073
1774470100545525000,2.30752490234375,-0.5028291103839874,0.1046400857783853,-0.1905119043312966,-0.0284755825996398,-0.231518805027008,0.186353862285614
1774470100555542300,2.317542236328125,-0.096258480271697,0.1594904508627951,-0.0910500979736447,-0.0220247115939855,-0.1589951068162918,0.2335206717252731
1774470100565559000,2.32755908203125,0.2980336830258369,0.1118703292928636,-0.2856001717798411,-0.0239970497786998,-0.0801844522356987,0.2427426725625991
1774470100575576000,2.337576171875,0.3795651342868805,-0.0228388776652514,-0.3164646811209619,-0.0366012118756771,0.0200258307158947,0.2330644577741623
1774470100585593300,2.34759326171875,0.2465986793428659,0.0250131529644131,-0.4608566393122076,-0.0968616232275962,0.1485198885202407,0.2343534231185913
1774470100595610000,2.357610107421875,0.0359428355187177,0.0432177949577569,-0.8452586922362446,-0.259621798992157,0.2286224365234375,0.2717737853527069
1774470100605627100,2.367627197265625,-0.1347398943573236,-0.1428051273912191,-0.918456761046499,-0.3242998421192169,0.3892445862293243,0.3070665001869201
1774470100615645200,2.377645263671875,-0.1508335355460643,-0.7093880402833223,-0.3252151199400425,-0.4570017457008362,0.4524392485618591,0.3617545664310455
1774470100625662200,2.387662109375,-0.1151736086219549,-0.5944231059759855,-1.1298222144447267,-0.5451784729957581,0.4513308405876159,0.4046530127525329
1774470100635678700,2.3976787109375,0.0154454064130783,-0.4622840417668223,-0.4761373566828668,-0.5781250596046448,0.3721633553504944,0.4075902700424194
1774470100645695700,2.40769580078125,0.0009644611179828,-0.3460688151374459,-0.2378159456893801,-0.5880916714668274,0.2460077852010727,0.3942739367485046
1774470100655712800,2.417712646484375,-0.0350245516300201,-0.4038599098488688,-0.2189697909221053,-0.5658054947853088,0.1084912195801734,0.3548336029052734
1774470100665729800,2.427729736328125,0.1306599315673113,-0.5288002947255969,-0.189924605962634,-0.5185317397117615,0.0606163702905178,0.2864929139614105
1774470100675746600,2.43774658203125,0.6818079594403504,-0.6367138492166996,-0.2892725766822696,-0.45063316822052,0.1007193699479103,0.1842371523380279
1774470100685763800,2.447763916015625,1.0269166973739865,-0.661191287869215,-0.3595174947753548,-0.3850648105144501,0.1244340240955352,0.0999763309955596
1774470100695780900,2.45778076171875,0.820984959462285,-0.5645189660996198,-0.3884681333191692,-0.3542406857013702,0.1411749422550201,0.0552046783268451
1774470100705799000,2.467798828125,0.7341209150016308,-0.4042155914187431,-0.5994098083473741,-0.3522358536720276,0.1148839443922042,0.0164010897278785
1774470100715815700,2.477815673828125,0.7448924843847751,-0.2689046191751957,-0.5810987833701073,-0.3711597919464111,-0.1089629381895065,-0.0119490129873156
1774470100725832700,2.487832763671875,0.7376940973132848,-0.1845762306720018,-0.7605180696703493,-0.4540325701236725,-0.368097573518753,-0.0351121239364147
1774470100735850000,2.49785009765625,0.7155775425732135,-0.2699436068341135,-0.9398445631206036,-0.5820939540863037,-0.566290557384491,-0.0970004424452781
1774470100745866800,2.50786669921875,1.047053476473689,-0.12290391061306,-0.9093521019622685,-0.7619912624359131,-0.6556957960128784,-0.1820221245288849
1774470100755883800,2.5178837890625,1.0363923817276954,0.0282242239654064,-1.043301138202846,-0.97908353805542,-0.6831338405609131,-0.2376817911863327
1774470100765900800,2.52790087890625,1.0405489168852566,0.1305199385747313,-0.7700181578129529,-1.213969588279724,-0.8850560784339905,-0.2190013080835342
1774470100775917800,2.537917724609375,0.7353051563501357,0.1070323877424001,0.1437647662036121,-1.3741989135742188,-1.015383005142212,-0.1280015707015991
1774470100785934600,2.5479345703125,0.0892991626530885,0.4455635008513927,-0.3684202015466988,-1.694784164428711,-1.3573094606399536,0.0133707402274012
1774470100795953000,2.557952880859375,0.1064887823849916,0.7512725408107042,-0.2943384817697108,-1.92146098613739,-1.760892391204834,0.1545005142688751
1774470100805969700,2.5679697265625,-0.3058060705929994,0.3607452830046415,0.9367876597680151,-1.9868721961975095,-2.1004574298858643,0.2989647388458252
1774470100815987000,2.577987060546875,-0.6092915892839431,0.3674737144768238,1.3615677541792393,-2.0318171977996826,-1.994185328483581,0.3756135702133178
1774470100826003700,2.588003662109375,-0.5612403828203678,-0.0775917737245559,1.0176669307306407,-1.9653035402297971,-2.0651984214782715,0.5064296126365662
1774470100836020700,2.598020751953125,-0.5772703111231327,-1.4467103816747664,-0.3703383101277053,-1.819347858428955,-2.33182144165039,0.6521792411804199
1774470100846037800,2.608037841796875,1.0930565182358023,-2.159573989114165,-1.1073495397433637,-1.7588046789169312,-2.6058621406555176,0.4362985789775848
1774470100856054800,2.6180546875,2.854086531826854,-0.6976023254215717,-0.1126613335400819,-1.7454159259796145,-2.472890615463257,-0.1378566175699234
1774470100866071800,2.62807177734375,2.8691145896106955,0.0396922511801123,-0.151229549126327,-2.1222283840179443,-1.994274377822876,-0.7611210346221924
1774470100876088800,2.6380888671875,-0.4271884707272052,-1.728877510266006,-1.2191890355065464,-2.653674364089966,-1.0362979173660278,-0.8991945385932922
1774470100886105900,2.64810595703125,-1.5002151773691177,-1.968599289576709,-1.8889070364415643,-3.013949155807495,-0.3102190494537353,-0.6367219090461731
1774470100896124000,2.6581240234375,-1.0127730212092398,-1.8893676396906371,-2.8921126033604145,-3.2752628326416016,0.3226291239261627,-0.2091477811336517
1774470100906141000,2.668140869140625,-1.7140893987178802,-1.237015199576318,-3.299764598968625,-3.643622875213623,1.0412341356277466,0.1668586134910583
1774470100916157700,2.67815771484375,-1.3747352787882088,-0.5994686989277601,-2.741893108059465,-4.051261901855469,1.7636535167694092,0.4584862291812897
1774470100926175000,2.688175048828125,-0.8502285896033048,-0.3535176698386669,-1.3926131730452178,-4.288398742675781,2.246052026748657,0.7884460091590881
1774470100936191700,2.698191650390625,-1.1207657784163951,-0.6273971548169851,-0.8033078484743833,-4.360884189605713,2.4169459342956543,1.1876845359802246
1774470100946208800,2.708208740234375,-0.3049742959439754,-1.2711504011511805,-1.284770637963712,-4.436319828033447,2.535027503967285,1.3546141386032104
1774470100956225800,2.718225830078125,1.264970251211524,-1.4714008785560726,-0.7450524241868406,-4.4407734870910645,2.483458995819092,1.261496663093567
1774470100966242800,2.728242919921875,2.484357731899619,-1.3480530235677957,0.1486724119894206,-4.336410999298096,2.368654727935791,0.956919491291046
1774470100976259600,2.738259521484375,3.235912012261152,-1.297768358963728,1.030999290512502,-4.157486438751221,2.3010170459747314,0.5522873997688293
1774470100986278000,2.74827783203125,3.110672936698794,-1.5050412823513148,1.750759817858785,-3.930873155593872,2.303136348724365,0.234173908829689
1774470100996294700,2.758294677734375,2.3366280075877905,-1.815810820570588,1.9800459817424416,-3.668984889984131,2.4585530757904053,0.0582941807806491
1774470101006311700,2.768311767578125,1.5006763651400803,-1.9821698420286176,2.0236567215405405,-3.378819942474365,2.7097725868225098,-0.0051841270178556
1774470101016328700,2.77832861328125,1.057549736046791,-2.497152623803913,1.8929253321722148,-3.086943387985229,2.890746831893921,-0.0530015602707862
1774470101026345700,2.788345703125,0.7213397593617439,-2.8115938362732527,1.7897068036295471,-2.7732694149017334,3.121206283569336,-0.117379754781723
1774470101036363000,2.798363037109375,0.1095803186595439,-2.6829721325352787,2.326476762060076,-2.424219846725464,3.3899197578430176,-0.1615465134382248
1774470101046379800,2.8083798828125,-0.4123854538708925,-2.339336389763653,2.437140638172626,-2.093791007995605,3.55916166305542,-0.2016901969909668
1774470101056396800,2.818396728515625,-0.5205962377429009,-1.6367738115862012,2.0406991878867147,-1.8707200288772583,3.654576301574707,-0.3028644323348999
1774470101066413800,2.828413818359375,-0.4780962356656789,-0.7667179472237825,0.7109688797339797,-1.8707958459854128,3.500307083129883,-0.4557376205921173
1774470101076432000,2.838431884765625,-0.4790764788746833,0.0922793475076556,-0.1511795725047588,-1.9813495874404907,3.191032886505127,-0.6539592742919922
1774470101086448600,2.84844873046875,-0.8618757727771997,0.8504533382698893,-0.2682701206639409,-2.115865468978882,2.742307424545288,-0.800642192363739
1774470101096466000,2.8584658203125,-1.420294083914161,0.8338692832157015,-0.0145145553037524,-2.151995182037353,2.240542411804199,-0.8101133704185486
1774470101106482700,2.868482666015625,-1.4030600405186413,0.2461310618311166,-0.2171981050744652,-2.089018583297729,1.6907705068588257,-0.8192024827003479
1774470101116499700,2.878499755859375,-1.3715490499675274,-0.0479910007089376,0.1743541118651628,-1.9080381393432615,1.3088908195495603,-0.7625545263290405
1774470101126516700,2.888516845703125,-1.443655085757375,-0.0336529710158705,0.8474357440143823,-1.634792685508728,1.1126863956451416,-0.6493145227432251
1774470101136533800,2.89853369140625,-1.2975970940500496,0.3051680649504065,1.060990816411376,-1.333622932434082,1.0602614879608154,-0.5573636889457703
1774470101146550500,2.908550537109375,-1.134113920289278,0.4477247705385088,0.7766396217793226,-1.0539788007736206,1.0886632204055786,-0.498336523771286
1774470101156567800,2.91856787109375,-1.0357657742619517,0.8033145704761147,0.3421551488250494,-0.834449827671051,1.2037265300750732,-0.4916898906230926
1774470101166584800,2.928584716796875,-0.914080591788888,1.6855191377937793,-0.4121376165896654,-0.7674002647399902,1.3102790117263794,-0.5701060891151428
1774470101176603000,2.938602783203125,-1.749012243539095,2.7836212489813565,-2.137516471084952,-0.8920199871063232,1.186084866523743,-0.628900408744812
1774470101186619600,2.94861962890625,-1.39632985548079,3.310221111053228,-3.118957949963212,-1.0973854064941406,0.9775885939598083,-0.8628756403923035
1774470101196636700,2.95863671875,-1.1037918472617865,3.587346153824031,-3.194768100968003,-1.3428447246551514,0.8999050855636597,-1.0097947120666504
1774470101206654000,2.968654052734375,-1.8441040181189772,2.859697357445955,-2.8221505938619376,-1.5216739177703855,0.7369020581245422,-0.9199129939079284
1774470101216670700,2.978670654296875,-2.191021851301193,1.9833261724568905,-1.9991051947385072,-1.5054352283477783,0.5904667973518372,-0.6907386779785156
1774470101226687700,2.988687744140625,-1.8761317260205743,1.480504368596524,-1.6170798078179358,-1.4047930240631104,0.4424456357955932,-0.5290981531143188
1774470101236704800,2.998704833984375,-0.5220271473288536,1.50515321829319,-1.166345041808486,-1.3171470165252686,0.2655114531517029,-0.5989624857902527
1774470101246721800,3.0087216796875,0.5006769007861613,1.6720463466279207,-1.1818231814473867,-1.2740248441696167,0.1010039746761322,-0.7865661978721619
1774470101256738600,3.018738525390625,0.717792296013236,1.661875227355957,-1.183379763239622,-1.2560216188430786,-0.0793661624193191,-0.909325122833252
1774470101266755800,3.028755859375,0.2644371183723211,0.9869579042121768,-1.1442238108932972,-1.187994122505188,-0.2079568952322006,-0.8461146950721741
1774470101276773600,3.038773681640625,-0.5177770886689425,0.1726211505927145,-0.0746276632219553,-0.9477404356002808,-0.1224790960550308,-0.6596503853797913
1774470101286791000,3.048791015625,-0.933446386516094,0.3445003967769444,1.5088637632489204,-0.5986207723617554,0.1765787154436111,-0.4779455959796905
1774470101296807700,3.0588076171875,-0.9735194537073372,0.5484210871271789,1.9198194765776395,-0.2665695250034332,0.4049496948719024,-0.3839467167854309
1774470101306824700,3.06882470703125,-0.4578127415716648,0.8684119696129113,1.1500959177970886,-0.0411840714514255,0.3360646367073059,-0.4405117332935333
1774470101316841700,3.078841796875,-0.4823696752011776,0.8917819584801793,0.5325590627372264,0.1340399235486984,0.144131913781166,-0.5061794519424438
1774470101326858800,3.088858642578125,-0.5862228483855724,1.5169982621267435,-0.0636906741440296,0.2146980166435241,-0.1293145418167114,-0.5986459851264954
1774470101336875800,3.098875732421875,-0.1972732151597738,1.5498320257142186,-0.9506412669450044,0.1773979812860489,-0.3375477492809295,-0.679774820804596
1774470101346892800,3.108892822265625,0.1709849276930093,1.3470274799123405,-1.4456658410578966,0.0039087450131773,-0.4232754409313202,-0.7374181747436523
1774470101356909800,3.118909912109375,0.1701204198181629,1.1957036766313016,-1.955921302050352,-0.1913623958826065,-0.4490248560905456,-0.6197373867034912
1774470101366928000,3.128927978515625,-0.0511754759639501,1.0159630494222045,-2.0839830338180065,-0.3428304493427276,-0.4917947053909302,-0.4512080550193786
1774470101376945000,3.13894482421875,0.5805155766546726,0.8975202829364687,-1.9442343713879584,-0.4724330902099609,-0.4792540073394775,-0.4011745452880859
1774470101386961700,3.148961669921875,1.2341028192609549,0.5495134854737669,-1.4171347431004049,-0.5761795043945312,-0.342068463563919,-0.4272330403327942
1774470101396979000,3.15897900390625,1.4262176287442443,0.4434135562758892,-0.6049778177380561,-0.5805028080940247,-0.1859476268291473,-0.4473969340324402
1774470101406995700,3.16899560546875,1.458123171570897,0.0306916369922459,-0.0268137726455926,-0.5145381689071655,-0.0434602573513984,-0.4520103335380554
1774470101417012700,3.1790126953125,1.617200803849101,-0.4419683989688754,-0.3903665142863988,-0.4584523737430572,-0.1808085590600967,-0.5105134844779968
1774470101427029800,3.18902978515625,1.536861777243018,-0.329697854844667,0.330189985743165,-0.3541121184825897,0.0480003878474235,-0.623393177986145
1774470101437046800,3.199046875,1.0180372253477572,0.0926438699711114,0.9737877492547036,-0.2532396614551544,0.2202146202325821,-0.6040939092636108
1774470101447063800,3.209063720703125,0.4874585227727889,-0.4101461505115032,0.1176467207372188,-0.2367213815450668,0.3966445028781891,-0.5505470633506775
1774470101457080800,3.219080810546875,0.4624667048573493,-0.421886199600622,-0.0660936436325311,-0.2676792740821838,0.4143998622894287,-0.5044046640396118
1774470101467098600,3.2290986328125,0.5472410835623741,-0.4017349170515313,-0.5314934793323278,-0.3471309542655945,0.3546318709850311,-0.5156269669532776
1774470101477116000,3.239115966796875,0.7967161951243877,-0.5619263557905331,-0.6416793626695871,-0.4775524139404297,0.1954352259635925,-0.5959587693214417
1774470101487132700,3.249132568359375,1.122853106084466,-1.093247145437077,-1.2353215474009511,-0.6369423270225525,-0.1666028797626495,-0.7050000429153442
1774470101497149700,3.259149658203125,0.8983908552259207,-0.7085878298163414,-0.7324275550872087,-0.7109748721122742,-0.1124058961868286,-0.8136811256408691
1774470101507167000,3.2691669921875,0.4046867160618305,-0.245735048250854,0.0092062197625637,-0.7208650708198547,0.1433848738670349,-0.7873845100402832
1774470101517183700,3.279183837890625,-0.2137766061931848,-0.2929645448016933,-0.080674542170763,-0.6842865943908691,0.4421434104442596,-0.6659474968910217
1774470101527200800,3.28920068359375,-0.4750041148692369,-0.4041822371384129,-0.1991805100858211,-0.5989887118339539,0.6544601917266846,-0.5393903851509094
1774470101537217800,3.2992177734375,-0.4533165991961956,-0.5597082048170268,-0.5135854821979999,-0.5712021589279175,0.6811527013778687,-0.5114940404891968
1774470101547234800,3.30923486328125,-0.535040358158946,-0.370206171648018,-0.532476060628891,-0.4733498990535736,0.6967492699623108,-0.5381003022193909
1774470101557251600,3.31925146484375,-0.7437924141883849,0.5952580224301666,0.4380512255251407,-0.2784005999565124,0.8028789758682251,-0.5731912851333618
1774470101567270000,3.329269775390625,-0.8482897304952144,0.4760911794535815,0.0988292075425386,-0.1915913969278335,0.8821255564689636,-0.575652539730072
1774470101577286700,3.33928662109375,-1.252843760088086,0.6081507486857474,0.1220487550884485,-0.1405560225248336,0.9518927931785583,-0.5001667141914368
1774470101587304000,3.349303955078125,-1.2738970695108174,1.0728348373316228,0.05760989292562,-0.1417158395051956,0.9856488704681396,-0.4161522388458252
1774470101597320700,3.35932080078125,-0.9724825118750332,1.430586345347762,-0.1908709469020366,-0.2011397927999496,0.963711678981781,-0.3367297947406769
1774470101607337700,3.369337646484375,-1.039754551637173,1.649908456838876,-0.5260515805393458,-0.3064835369586944,0.9725629687309264,-0.2003288269042968
1774470101617354800,3.379354736328125,-0.97030692140162,1.6910564597852529,-0.3351432242363691,-0.3595999479293823,0.8254857063293457,-0.1022150665521621
1774470101627371800,3.389371826171875,0.068770169365406,1.3697593900717795,0.2213607777118682,-0.3583301603794098,0.6556439399719238,-0.1318113058805465
1774470101637388800,3.399388916015625,0.6816805336683989,0.8842790355041623,0.10749883621037,-0.326767235994339,0.4581102430820465,-0.2146406173706054
1774470101647405600,3.409405517578125,0.0435831211388111,0.2840701126683503,-0.2383575052201747,-0.3317334949970245,0.3648301064968109,-0.1282146573066711
1774470101657422800,3.4194228515625,-0.1089677397191524,0.2861908311493694,-0.6185901635050773,-0.279954046010971,0.0210054367780685,-0.202510580420494
1774470101667440600,3.429440673828125,1.7710902198344467,-0.5700614026576281,-1.3929139095574616,-0.3883388340473175,-0.1966563016176223,-0.3822412192821502
1774470101677457700,3.439457763671875,1.448186883968115,-1.0440089211460202,-2.0290157643556594,-0.4788855612277984,-0.2273693084716797,-0.4617477059364319
1774470101687474700,3.449474609375,1.1828712291955947,-1.0739080195210873,-1.3667501252532004,-0.5258051753044128,0.0481757074594497,-0.4463050961494446
1774470101697491700,3.45949169921875,1.216679390773177,-1.6443509688422082,-1.6733160743027924,-0.5346584916114807,0.2527112066745758,-0.4117154479026794
1774470101707508700,3.4695087890625,1.439046130657196,-1.571293623676896,-1.6787094577789303,-0.5419926047325134,0.5592120289802551,-0.4481629431247711
1774470101717525800,3.47952587890625,1.1365770955324173,-1.0315899498820305,-1.4308423659354448,-0.5492091178894043,0.9093104600906372,-0.4307146072387695
1774470101727542500,3.48954248046875,0.5490338121980428,-0.910069456451386,-1.978021490177512,-0.646367609500885,1.145349383354187,-0.342738389968872
1774470101737559800,3.499559814453125,0.1565899071156978,-0.5205005222834647,-1.93662214281857,-0.7269538640975952,1.3266395330429075,-0.2386558651924133
1774470101747576800,3.509576904296875,0.0512485412001609,-0.0742656980417668,-1.39239485411942,-0.7756234407424927,1.415774703025818,-0.1717125177383422
1774470101757593600,3.519593505859375,0.3147486709833145,0.0488680758044123,-0.5781055929034948,-0.7642481327056885,1.3351367712020874,-0.2398219257593155
1774470101767611600,3.529611572265625,-0.1528758550286293,0.0452250431269407,-0.4821288521826267,-0.7625120282173157,1.306945562362671,-0.2369702160358429
1774470101777628700,3.539628662109375,-2.1483236963033674,-0.1119369647882878,-1.647428768852353,-0.8428952097892761,1.0952796936035156,-0.0586505755782127
1774470101787645700,3.549645751953125,-2.4969103394806385,0.2410467443041503,-2.467541037133336,-0.9008232355117798,0.7978144288063049,0.0566456541419029
1774470101797662700,3.559662841796875,-1.85366738075614,-0.3449588080689311,-2.766910352677107,-1.0186238288879397,0.5915771126747131,0.0367410778999328
1774470101807679700,3.5696796875,-1.5469851118505,-0.7218060616992413,0.2415180150777101,-0.8795396685600281,0.3601076900959015,-0.023353949189186
1774470101817696500,3.579696533203125,-1.5910919646024704,0.1273021455720067,2.554728322198987,-0.507814347743988,0.3142726421356201,-0.0406183712184429
1774470101827713800,3.5897138671875,-1.6419336785674097,0.520840275631845,3.998278778538108,-0.0684124752879142,0.3279716968536377,-0.0134823564440011
1774470101837730600,3.59973046875,-1.4786463196396826,0.7769010491944849,4.658584515744447,0.3396791815757751,0.2299281358718872,-0.0197253879159688
1774470101847747800,3.609747802734375,-0.9327946446090936,1.444996709624678,4.795547931370139,0.7445537447929382,0.1277234703302383,-0.0945676788687706
1774470101857764600,3.6197646484375,-0.6250947230935097,1.9005527583107351,4.271923870238662,1.006996989250183,-0.01505265571177,-0.1362972408533096
1774470101867782700,3.62978271484375,-0.58751405723989,2.5077254557445645,2.744098801410198,1.1251983642578125,-0.2770682871341705,-0.1435727328062057
1774470101877799700,3.639799560546875,-0.0164741649389266,2.713350611925125,-0.2981523409694433,0.9273801445961,-0.4959092438220978,-0.1321352124214172
1774470101887816700,3.649816650390625,0.3058019789397716,2.208984647362679,-0.6713906103223561,0.6985751986503601,-0.6728315353393555,-0.0703900903463363
1774470101897833500,3.65983349609375,0.5713198782861233,1.9891206840798257,-0.4714741871774196,0.4914465546607971,-0.6733433604240417,0.0749348476529121
1774470101907850800,3.669850830078125,0.257294260880351,1.4756719800040126,-0.4709580543488263,0.2920854985713959,-0.6076277494430542,0.3314151167869568
1774470101917867800,3.67986767578125,0.5881400801837444,0.9223216197811066,-0.0928425343483686,0.1974062919616699,-0.4889620840549469,0.458274096250534
1774470101927884500,3.689884521484375,1.3373001588851212,0.3196785286009311,0.5542039083123207,0.2125905603170395,-0.3877614438533783,0.4632158577442169
1774470101937901800,3.69990185546875,1.6719857024818658,-0.1429761000439524,0.9501917696118354,0.2695061564445495,-0.276649534702301,0.4057905375957489
1774470101947918600,3.709918701171875,1.6681892328083514,-0.5483803167253732,1.1203887617975472,0.3379166424274444,-0.1996005475521087,0.3515246510505676
1774470101957936600,3.7199365234375,1.61873166667819,-0.5739253846094012,1.2534043165802955,0.4035111367702484,-0.1711956262588501,0.2683420777320862
1774470101967953700,3.72995361328125,1.4115882148891687,-0.2390272211752832,1.0484475611805917,0.428945928812027,-0.130049780011177,0.1762768775224685
1774470101977970700,3.739970703125,0.7809417028874158,-0.0483235205989331,0.5744967547565698,0.3942979276180267,-0.1113796830177307,0.14559006690979
1774470101987987700,3.74998779296875,0.0371855290561914,0.0455019603721797,0.0107458504199981,0.3087803721427917,-0.1346013844013214,0.1647712141275406
1774470101998004700,3.760004638671875,-0.4788257189840078,0.2093971489999443,-0.6674597006142139,0.1767718493938446,-0.2119044065475464,0.1881656348705291
1774470102008021500,3.770021484375,-0.7811392712861299,0.2869259404908865,-1.1284569174408912,0.0448617488145828,-0.2833905518054962,0.2063105553388595
1774470102018038800,3.780038818359375,-0.9744365685522556,0.055184930801019,-1.3595423858314752,-0.071525365114212,-0.3191182911396026,0.213690772652626
1774470102028055600,3.7900556640625,-0.7844435735285281,-0.2232332935854792,-1.4659773922026156,-0.161129280924797,-0.3578299880027771,0.1724341511726379
1774470102038072600,3.800072509765625,-0.5060013106793165,-0.3109098965380341,-1.3670827182084322,-0.1941034197807312,-0.3406449258327484,0.1150248721241951
1774470102048090600,3.810090576171875,-0.155567578330636,-0.4840335898254066,-0.2449281157821416,-0.194269597530365,-0.3666762709617615,0.0145616503432393
1774470102058107600,3.820107666015625,0.0683557433456182,-0.6174569216914475,0.3204693867176771,-0.16472989320755,-0.3463912308216095,-0.0660558864474296
1774470102068124700,3.830124755859375,0.0713911655187606,-0.7289218850538134,0.7654062801033258,-0.1151152104139328,-0.2918587327003479,-0.1014913767576217
1774470102078141700,3.8401416015625,-0.2211082642555236,-1.028516752981767,1.3297066350162028,-0.0224687680602073,-0.2329524755477905,-0.0222550202161073
1774470102088158700,3.85015869140625,-0.4864180738091468,-1.2745172472357749,1.92198162304759,0.1346252411603927,-0.2406340986490249,0.0886970609426498
1774470102098175700,3.86017578125,-0.1620890890538692,-1.189015284908563,2.034606131708622,0.2866716086864471,-0.3307530283927917,0.1241465508937835
1774470102108192800,3.87019287109375,0.0986935984641313,-0.5703260449431836,1.068113215637207,0.3462235927581787,-0.5934073328971863,0.0825431868433952
1774470102118209500,3.88020947265625,0.1321726742178201,0.2196207291115075,-0.6871101575016975,0.1602381616830825,-0.642890214920044,0.0431131012737751
1774470102128226800,3.890226806640625,-0.4872089319258928,0.8205502943720668,-2.210155590838194,-0.0466228649020195,-0.671129047870636,0.1704699844121933
1774470102138243600,3.90024365234375,-0.4865133508771657,0.9023095630396156,-2.6608342427462337,-0.189982384443283,-0.6608988642692566,0.2430384159088134
1774470102148262000,3.910261962890625,0.2820534390836954,0.507331974761188,-2.5779952160179613,-0.293953001499176,-0.5951012372970581,0.2003330290317535
1774470102158278700,3.920278564453125,0.6161299108713865,0.0523742572944611,-1.9023837731301785,-0.314610868692398,-0.4979244768619537,0.1472578644752502
1774470102168295700,3.930295654296875,0.7033493446409702,-0.5197225236482917,-1.145824816349149,-0.2542175650596618,-0.3669536709785461,0.1166858226060867
1774470102178312700,3.940312744140625,0.6626864948630332,-0.7970371707070618,-0.4537608358323574,-0.152579516172409,-0.2377126961946487,0.131024420261383
1774470102188329700,3.950329833984375,0.8955003944814205,-0.7683947213295846,-0.4291109632223844,-0.0983463674783706,-0.2539329528808594,0.0789537653326988
1774470102198346500,3.960346435546875,1.1690011092752215,-0.6827374223101884,0.2079015766799449,-0.0670560151338577,-0.0452708266675472,-0.0218197982758283
1774470102208363800,3.97036376953125,1.0240753364682198,-0.6407111021593213,0.5666939720511436,-0.0247769970446825,-0.0271983537822961,-0.0053955498151481
1774470102218380800,3.980380859375,0.5542226130127906,-0.7739059590317309,0.5080746098220348,-0.0289004985243082,-0.0180315561592578,0.0807746276259422
1774470102228397600,3.9903974609375,0.4837076458066701,-0.6355400561969727,0.610306319284439,-0.0417579747736454,-0.0301814284175634,0.1705702990293502
1774470102238415600,4.00041552734375,0.5500818599462509,-0.4413093505382537,0.5843880341738462,-0.0559862479567527,-0.0737601593136787,0.2326797991991043
1774470102248432600,4.0104326171875,0.6347334890544414,-0.5516670833110809,0.5850058738112449,-0.0533513166010379,-0.1608359366655349,0.2533113062381744
1774470102258450000,4.020449951171875,0.4086760779589414,-0.6538968200121075,0.5860153431147337,-0.0119789037853479,-0.2192579358816146,0.2638140916824341
1774470102268466700,4.030466796875,-0.0382359148919582,-0.8707117709878831,0.3827992939025163,0.0045963441953063,-0.2774363160133362,0.2622388303279876
1774470102278483700,4.040483642578125,-0.466671170809865,-1.0078754584260283,-0.2371580663025379,-0.0193126443773508,-0.4081006944179535,0.2347589135169983
1774470102288500700,4.050500732421875,-0.8904559705734253,-0.9794048584841192,-1.1059382116407157,-0.0815480574965477,-0.4935173392295837,0.2297111600637436
1774470102298517800,4.060517822265625,-1.539333135792613,-1.1439611413691193,-1.7794664185136555,-0.2013252973556518,-0.5678244233131409,0.2880045473575592
1774470102308534500,4.070534423828125,-2.106002557924389,-1.265039955446869,-1.9346072958648204,-0.3135743141174316,-0.6381428241729736,0.3743277192115783
1774470102318551800,4.0805517578125,-2.3107529770970343,-1.3295695646330714,-1.469874984163046,-0.384866863489151,-0.7666081190109253,0.4186038374900818
1774470102328568600,4.090568603515625,-2.092962459087372,-1.4867412171594798,-0.6293529650598764,-0.3530351817607879,-0.930271327495575,0.3716200888156891
1774470102338587000,4.1005869140625,-1.9047171845138071,-1.4647390825793147,-0.0824766231566667,-0.3115672767162323,-0.9641872644424438,0.363778293132782
1774470102348603600,4.110603759765625,-3.956642115291953,-1.638290061368048,-2.608600197640061,-0.4908267855644226,-0.8383539915084839,0.6056665778160095
1774470102358620700,4.12062060546875,-3.904419176101684,-1.0405864724166691,-2.1225866129785773,-0.5861203074455261,-0.8706182241439819,0.6751975417137146
1774470102368637700,4.1306376953125,-3.3247453109681606,-0.9686682142838836,-1.902366821995377,-0.6541968584060669,-0.8099042773246765,0.6982719302177429
1774470102378654700,4.14065478515625,-3.3740006325244902,-0.9550161940935998,-1.4901777674794197,-0.6819376349449158,-0.8181818723678589,0.7061577439308167
1774470102388671700,4.150671630859375,-2.753077642157673,-0.9487960044045,-0.7393921334028244,-0.6383459568023682,-0.8588965535163879,0.6614336967468262
1774470102398688800,4.160688720703125,-1.7533605018764733,-0.7325840608231723,0.2449438978731632,-0.5739264488220215,-0.9219796657562256,0.5761166214942932
1774470102408705800,4.170705810546875,-1.1590244896620512,-0.561734669143334,0.3668570438832044,-0.540708065032959,-1.0379273891448977,0.4881159365177154
1774470102418722600,4.18072265625,-0.1924158382564783,-0.6348228478383272,0.6678086601823569,-0.4468830227851867,-1.140116810798645,0.3794304728507995
1774470102428740900,4.190740966796875,0.1094564000189304,-0.7054545002266764,0.3298234905183315,-0.4573452472686767,-1.3430888652801514,0.3673988580703735
1774470102438757600,4.200757568359375,-0.0271785143047571,-0.6137146664232015,0.661935384234786,-0.3302482366561889,-1.4991745948791504,0.457071989774704
1774470102448774700,4.210774658203125,-0.2251017178058624,-0.9937526789188385,0.8895750960856675,-0.2064466774463653,-1.6569747924804688,0.5860573649406433
1774470102458791700,4.220791748046875,-0.0277075066149234,-0.9460034510765224,1.1946177810907364,-0.0359836854040622,-1.8026632070541384,0.7220837473869324
1774470102468808700,4.23080859375,0.67412500372231,-0.6401389282945543,1.374502054554224,0.164220243692398,-2.1552035808563232,0.6430339813232422
1774470102478825700,4.24082568359375,2.755761766675114,-0.0886079655185341,1.7347978402256965,0.2545018196105957,-2.2627294063568115,0.4118229448795318
1774470102488842800,4.2508427734375,0.8809843778729438,0.0921331439699977,0.2174360054835677,0.1785354167222976,-2.081884860992432,0.6814091205596924
1774470102498859500,4.260859619140625,0.3916068697363138,0.7795121084757148,0.58059507163167,0.1489763259887695,-1.9945001602172847,0.8734612464904785
1774470102508876800,4.270876708984375,2.1305542308568954,1.0285237672444432,0.281334184898436,0.0992122441530227,-1.9925334453582764,0.7719607353210449
1774470102518893800,4.280893798828125,3.067088646516204,1.380426768428087,0.1410039231881499,0.0744033455848693,-1.906517505645752,0.5536136627197266
1774470102528911600,4.29091162109375,2.13623403005898,1.3004615435704587,0.2061421657919883,0.1004964634776115,-1.7179691791534424,0.585706889629364
1774470102538928600,4.3009287109375,0.6930132440656424,1.608635950729996,0.4804059739127755,0.144097700715065,-1.3347522020339966,0.7485515475273132
1774470102548945700,4.310945556640625,0.031197686818242,2.059630828980356,0.5838482282087206,0.2003135681152343,-1.020069599151611,0.8564782738685608
1774470102558962700,4.320962646484375,0.1165858135074377,2.6949536622300743,1.2937813351541756,0.2621277570724487,-0.7429971694946289,0.7833867073059082
1774470102568979700,4.330979736328125,0.223985280996561,2.9401071112006902,1.89933169208318,0.3192179203033447,-0.5556291341781616,0.647041380405426
1774470102578996700,4.340996826171875,-0.3491805174171924,2.903545267000794,2.37042214064002,0.3857057690620422,-0.5692833662033081,0.5601356029510498
1774470102589013500,4.351013427734375,-0.6117892513185739,2.6611072144687173,3.109198187971115,0.4895357489585876,-0.6344346404075623,0.5266771912574768
1774470102599030800,4.36103076171875,-1.1290975534319876,2.066177035753429,2.6139184700533744,0.6189264059066772,-0.8065048456192017,0.6073498129844666
1774470102609047600,4.371047607421875,-0.9854846167892216,2.0047318024486303,2.42834095338434,0.7070226669311523,-0.929454743862152,0.6746268272399902
1774470102619064600,4.381064697265625,-0.7605436425030231,2.311518554642052,1.4590151519745589,0.6567779183387756,-0.9589273929595948,0.7380553483963013
1774470102629082600,4.39108251953125,-0.6309218218117952,2.5132696458682418,0.6863201761677861,0.49737548828125,-0.8760823607444763,0.8105180859565735
1774470102639100200,4.40110009765625,-0.7115478486657142,2.507085988797247,0.3270116479679942,0.324460506439209,-0.7281069755554199,0.8929593563079834
1774470102649117200,4.4111171875,-0.9607160862356424,2.150162748298794,0.2670239199951291,0.1726792454719543,-0.5264513492584229,0.970010221004486
1774470102659134200,4.42113427734375,-1.4224199900269507,1.66527816766724,0.5643687439739704,0.1036179885268211,-0.3569043576717376,1.051728129386902
1774470102669151200,4.431151123046875,-1.8560300182342528,0.9370156233049928,0.8562573483735323,0.1223440021276474,-0.2002593427896499,1.148250937461853
1774470102679168300,4.441168212890625,-1.7404951750844715,0.8725007002312689,0.8685147724002599,0.2025104612112045,-0.3190929591655731,1.1201165914535522
1774470102689185000,4.45118505859375,-0.66157356518507,0.5376513443749398,-0.1015466498076915,0.1111589893698692,-0.4819526970386505,0.9777385592460632
1774470102699202300,4.461202392578125,-0.5457879621446132,0.3709151601675897,-0.5948217499047518,0.0537363961338996,-0.7517362236976624,0.9205363392829896
1774470102709219300,4.47121923828125,1.3336515732496976,0.7110056315477937,-1.1662336903885009,-0.0011369723360985,-1.529910922050476,0.7133730053901672
1774470102719236000,4.481236083984375,6.732822985139489,0.9047345982294528,-3.4152757689818736,-0.2098768353462219,-2.2415075302124023,0.1215035766363143
1774470102729254100,4.491254150390625,7.839673050928115,-0.2813452177491038,-3.114381728088856,-0.5151762962341309,-1.7881872653961182,0.0215154588222503
1774470102739271200,4.501271240234375,3.131237001299858,-1.071623707976192,0.9183722976334392,-0.3667693734169006,-1.072437763214111,0.6205776333808899
1774470102749288200,4.5112880859375,1.6442764423012732,-0.6243135095879435,3.255948253595829,0.0510337464511394,-0.0216324161738157,1.020197510719299
1774470102759305200,4.52130517578125,2.740522696489096,0.3142243548482656,3.604840017199516,0.3511880040168762,0.3173740804195404,0.8400468230247498
1774470102769322200,4.531322265625,3.6186996157258746,1.019349623120576,1.114547196162492,0.2911747395992279,0.257516860961914,0.2305571585893631
1774470102779339000,4.541339111328125,2.534660516682267,2.235188179155439,-1.235194267759472,0.0479869432747364,0.2070073634386062,-0.2028782814741134
1774470102789356300,4.551356201171875,0.2325461885929107,2.2952041103094816,-1.839937399958819,-0.2648039758205414,0.347732812166214,-0.1520654410123825
1774470102799373000,4.561373046875,-0.6462818880289792,1.123471384113282,-1.3991181710250675,-0.5933926105499268,0.5213773846626282,0.0610266998410224
1774470102809390300,4.571390380859375,0.392063381332159,0.786401283467561,-0.5128787952333689,-0.7680038213729858,0.6947393417358398,0.0768157765269279
1774470102819407000,4.581406982421875,2.197895828723907,0.3780738728158175,-0.9131450645044444,-0.866204023361206,0.9280222058296204,-0.1368748098611831
1774470102829424000,4.591424072265625,3.3612574708074328,-0.0562736758857965,-1.0108999208137393,-0.945120632648468,1.255233645439148,-0.4485320448875427
1774470102839442200,4.601442138671875,3.401261564415693,-1.1884519519373773,-0.5048825357824563,-1.007970929145813,1.685878872871399,-0.6345859169960022
1774470102849459200,4.611459228515625,2.547500709033012,-1.5674534609921276,0.2792293215736746,-0.857204258441925,2.162205457687378,-0.6209329962730408
1774470102859476000,4.62147607421875,1.6096405977278947,-1.195572159206122,1.1595388689249753,-0.5061254501342773,2.5707576274871826,-0.6044260263442993
1774470102869493200,4.6314931640625,1.2034335402309897,-1.096162667557597,0.337754283517599,-0.3559463620185852,2.671276569366455,-0.7228562831878662
1774470102879510300,4.64151025390625,0.6637275283485651,-1.0076821278110146,-0.4450783476829528,-0.3077185451984405,2.5681254863739014,-0.8743633031845093
1774470102889527000,4.651527099609375,-0.5429752428114414,-0.5301044361267239,-0.2294160738736391,-0.2735059857368469,2.3790974617004395,-0.946696639060974
1774470102899544300,4.66154443359375,-1.7360639146387575,-0.4919212012700736,0.1394528943538665,-0.2094190269708633,2.115379095077514,-0.9057006239891052
1774470102909561000,4.67156103515625,-2.7287884195536374,-0.1103239035684615,0.5964429213657975,-0.117817997932434,1.7659674882888794,-0.7871822118759155
1774470102919578000,4.681578125,-3.239173644405603,0.4279282562438398,0.4563444225847721,-0.0591862052679061,1.395656943321228,-0.6762840747833252
1774470102929595100,4.69159521484375,-3.61624754639864,0.7477459741197526,-0.0585769843921065,-0.0881704539060592,1.0977730751037598,-0.5664201378822327
1774470102939613200,4.70161328125,-4.322048375844955,0.7928013597682118,-0.1448340028703212,-0.1387114077806472,0.7442277073860168,-0.3740360140800476
1774470102949630200,4.711630126953125,-4.580106022313237,0.935125864035636,0.5124821971312165,-0.1496234536170959,0.3744946718215942,-0.2035127431154251
1774470102959647200,4.721647216796875,-4.08050230371654,0.34684794628378,0.5221086881324648,-0.2228821516036987,-0.021552238613367,-0.1104210019111633
1774470102969664000,4.7316640625,-4.172553395426273,-0.4862165964202955,0.7875561525911092,-0.2427605092525482,-0.5196650624275208,0.0484376177191734
1774470102979681300,4.741681396484375,-4.166868920049071,-1.0643680377595126,1.6989844763055442,-0.1206031292676925,-1.1168376207351685,0.2361281216144561
1774470102989698000,4.751697998046875,-3.134546564239263,-1.817963030168414,2.1353487716570494,0.0133615992963314,-1.650225043296814,0.3236430585384369
1774470102999715000,4.761715087890625,-2.343064762637019,-2.507456867936253,2.219998939460516,0.2079225480556488,-2.19758677482605,0.3752769827842712
1774470103009732400,4.771732421875,-1.009246016126871,-2.573078802403808,2.8925191383346918,0.5061696767807007,-2.82676362991333,0.3280873596668243
1774470103019749000,4.7817490234375,1.050154949620366,-2.739618148864805,2.2767016544133423,0.7209559082984924,-3.153040647506714,0.1383876055479049
1774470103029766100,4.79176611328125,1.4236159218132496,-2.367870994852483,2.2818156364262103,0.8958060145378113,-3.122119426727295,0.1439203172922134
1774470103039783200,4.801783203125,-1.8320313030093909,-1.3280704121164977,2.548439451187849,0.937960684299469,-2.6040821075439453,0.7122250199317932
1774470103049801200,4.81180126953125,-5.366383241009712,0.012217018951103,1.378858496198058,0.8706548810005188,-2.029870748519897,1.5290937423706057
1774470103059818200,4.821818359375,-5.1067421247422695,2.7450235150396822,-2.7484280627861617,0.6486214995384216,-1.7583439350128174,1.9635496139526367
1774470103069835300,4.831835205078125,-2.795862306395173,5.278274749445915,-11.587863554441928,-0.0504644252359867,-1.2815874814987185,1.700388789176941
1774470103079852000,4.84185205078125,0.6586591390430927,2.3743911904014645,-10.177462503510712,-1.1840450763702393,-1.119237780570984,1.005646824836731
1774470103089869300,4.851869384765625,-0.1110731875658035,2.544853993916512,-6.404519836056232,-1.9138792753219604,-0.7814669609069824,0.4791891872882843
1774470103099886000,4.861885986328125,1.2277940745055675,3.0734386000648137,-6.246003344792127,-2.2559380531311035,-0.4307577013969421,0.0356218591332435
1774470103109903000,4.871903076171875,1.6546248178362846,0.3494453058332205,-4.20962523497492,-2.4993669986724854,-0.012810805812478,-0.1266887485980987
1774470103119920000,4.881920166015625,-0.1534849268376827,-0.238782160373032,-2.3388103200629358,-2.4958720207214355,0.3344042003154754,0.227647453546524
1774470103129937200,4.891937255859375,-0.0988467431992292,-0.8432310588661581,-0.8492366559565067,-2.3588905334472656,0.5842750072479248,0.5602701306343079
1774470103139954200,4.9019541015625,1.3343570911705491,-1.2151155024573206,0.3338242505922913,-2.113974094390869,0.7079224586486816,0.6336862444877625
1774470103149971200,4.91197119140625,2.8410855959564447,-0.9774781282052396,2.1662895611047746,-1.7537161111831665,0.6975712776184082,0.5121172070503235
1774470103159989000,4.921989013671875,3.911145854008197,-0.5190650095876306,2.911369384755194,-1.3587218523025513,0.6400544047355652,0.2656291723251343
1774470103170006300,4.93200634765625,4.861294953522086,-0.0597878945518285,3.338381329871714,-0.9807265400886536,0.6599932312965393,-0.012077547609806
1774470103180023300,4.942023193359375,4.943327340042591,0.2080726223979145,3.6062156894668935,-0.621277391910553,0.748253583908081,-0.1950403451919555
1774470103190040000,4.9520400390625,4.315118284320831,0.6494879905939102,3.570527120970189,-0.2966154217720032,0.7069748640060425,-0.2631016671657562
1774470103200057300,4.962057373046875,3.62863064263165,0.8412982641726732,3.491861872795224,-0.0587151758372783,0.4917345345020294,-0.2814184129238128
1774470103210074000,4.97207421875,3.159001206538081,1.135586915451288,3.084176851700246,0.0882891863584518,0.276644617319107,-0.2811108231544494
1774470103220091100,4.982091064453125,2.634627203822136,1.6604000402368604,2.8006527555420995,0.1656722426414489,0.065431885421276,-0.2249030768871307
1774470103230108200,4.992108154296875,2.11473063878119,2.0312869241580365,2.3086714946478604,0.1293863952159881,-0.0629998594522476,-0.1024599820375442
1774470103240125200,5.002125244140625,1.623439405977726,2.145659445530176,2.0733061569809914,0.047420211136341,-0.0949404239654541,0.0312098991125822
1774470103250142200,5.01214208984375,1.5143220286548136,2.2446868059933185,2.387888823747635,0.0386541485786438,-0.1019589155912399,0.0827567130327224
1774470103260159200,5.0221591796875,1.550772813695669,2.1463629176244137,2.519148474773764,0.1023564636707305,-0.0599995516240596,0.0194429382681846
1774470103270177000,5.032177001953125,1.260158467015624,1.6930248372487722,2.481494743683934,0.2117415517568588,-0.0182555690407753,-0.1054984629154205
1774470103280194300,5.0421943359375,0.7474474295645952,1.3515668769076463,2.3090552332684395,0.3412778675556183,0.0180397145450115,-0.2440173625946045
1774470103290211300,5.05221142578125,0.2419324410974979,1.1077627967193722,2.1002192983478305,0.4742175638675689,0.0273551847785711,-0.3732517957687378
1774470103300228000,5.06222802734375,-0.2309638878375291,1.1311676377043127,1.9402716052368283,0.6045225262641907,0.0414585843682289,-0.4684081077575683
1774470103310245400,5.072245361328125,-0.6515028375476598,1.2112754859030246,1.5866943141654133,0.6764694452285767,0.0439276024699211,-0.5293694734573364
1774470103320262100,5.08226220703125,-0.9409510630577802,1.2404971964731812,1.276546122714877,0.6973613500595093,0.0560438334941864,-0.5360931158065796
1774470103330279200,5.092279052734375,-1.179884906861186,1.1969657324563712,0.8845596060112119,0.6694945693016052,0.0581930056214332,-0.4942420423030853
1774470103340296200,5.102296142578125,-1.101272557917237,1.1866366461437194,0.6696145405605435,0.606106698513031,0.0349515713751316,-0.4512260258197784
1774470103350313200,5.112313232421875,-1.011743093639612,1.1344191137809303,0.3862941502809524,0.5073870420455933,0.0058570690453052,-0.3999913334846496
1774470103360330000,5.122330078125,-0.9776444246828556,0.9706738550178706,0.1950499861523509,0.4089538753032684,-0.0149329816922545,-0.3440257310867309
1774470103370347300,5.13234716796875,-0.7768909661918878,0.8881284774739294,0.2090440247133374,0.3457935452461242,-0.0572607330977916,-0.3038937747478485
1774470103380365000,5.142364990234375,-0.4625163892179727,0.7271952804569155,0.2529921797722578,0.3097524046897888,-0.0822551026940345,-0.2767244279384613
1774470103390382300,5.15238232421875,-0.1444780290395021,0.5653359815709292,0.3086196667090058,0.3035357892513275,-0.0943639576435089,-0.2720660269260406
1774470103400399000,5.162399169921875,0.1485632525265216,0.3613995821949094,0.3620592882126569,0.3252340257167816,-0.0839697122573852,-0.2612912654876709
1774470103410416000,5.172416015625,0.405868034800887,0.3497070255093276,0.5538698540523648,0.3766636550426483,-0.0418819151818752,-0.2476345896720886
1774470103420433400,5.182433349609375,0.591257335421443,0.0942497707977891,0.3927136619344353,0.409510850906372,0.018351612612605,-0.2562280595302582
1774470103430450200,5.1924501953125,0.846634364503622,0.0920451734255999,0.4726891159251332,0.424607515335083,0.134849727153778,-0.2995875179767608
1774470103440467200,5.20246728515625,0.9871540113061666,0.0973975673042237,0.4743506193965673,0.4342943429946899,0.266420304775238,-0.3701755404472351
1774470103450484200,5.212484130859375,0.6759691702842712,0.0010613456211984,0.4468552942276,0.4355880916118622,0.3666523694992065,-0.4160234332084656
1774470103460501200,5.222501220703125,0.3042997576832771,-0.1035075746171176,0.3848822376564145,0.4213770925998688,0.4232535660266876,-0.4623050689697265
1774470103470518000,5.23251806640625,0.0898334156602621,-0.478305932893604,0.4586120752558112,0.4186433553695678,0.3998065590858459,-0.5269982814788818
1774470103480535300,5.242535400390625,-0.175338446727395,-0.8411653585080057,0.7840031362846493,0.4773254692554474,0.3658568263053894,-0.5697227716445923
1774470103490553000,5.252552978515625,-0.5910925002485513,-1.2695334674738348,0.9557701542660594,0.5668675899505615,0.3357524573802948,-0.5726929903030396
1774470103500570400,5.2625703125,-0.7973883952975273,-1.595958401595056,1.1102189576998351,0.674826443195343,0.2926338016986847,-0.5692557692527771
1774470103510587100,5.272587158203125,-0.9048626815885304,-1.6948918001644313,0.9829264567390084,0.7611344456672668,0.2435187250375747,-0.5581996440887451
1774470103520604200,5.282604248046875,-0.9884323606789112,-1.7542293936654925,0.6201458685144782,0.8007512092590332,0.1834405660629272,-0.5778898596763611
1774470103530621200,5.29262109375,-1.0794798283040523,-1.685494734004885,0.2752200859323144,0.809205949306488,0.1956112086772918,-0.5458778738975525
1774470103540638200,5.30263818359375,-1.3282394850730894,-1.6640668921813369,0.0260424960121512,0.8200910687446594,0.2857248485088348,-0.4706758260726928
1774470103550655200,5.3126552734375,-1.4736609324425458,-1.506349588470906,0.1642722783118486,0.8812487125396729,0.3952763676643371,-0.3757634162902832
1774470103560672300,5.32267236328125,-1.3664929356217383,-1.414654762852937,0.2525865215808153,0.966199278831482,0.5051677823066711,-0.3312260508537292
1774470103570689300,5.332689208984375,-0.9589590134352444,-1.263889324107021,0.1435983235955238,1.0453743934631348,0.5630470514297485,-0.3560874760150909
1774470103580706000,5.3427060546875,-0.5898042140036821,-0.9238375773020088,-0.0869064222976565,1.0898137092590332,0.6742483377456665,-0.4066516160964966
1774470103590723300,5.352723388671875,-0.7682078935205936,-0.7426479203283787,-0.429456707920134,1.0802667140960691,0.7904713153839111,-0.3694139719009399
1774470103600740000,5.362739990234375,-0.9642261401832104,-0.7905227473117411,-0.6702914169088006,1.033167004585266,0.8904533386230469,-0.2622886300086975
1774470103610758400,5.37275830078125,-1.0731477026730776,-0.6628314562916755,-0.9095864952400328,1.013612985610962,1.0133368968963623,-0.1386758536100387
1774470103620775200,5.382775146484375,-1.010956327176094,-0.4168540506523102,-0.9089885293468832,1.0084675550460815,1.087169885635376,-0.0347538441419601
1774470103630792200,5.392792236328125,-0.8455255264788866,-0.5450827730173244,-1.2447162754729388,0.9451690316200256,1.0475859642028809,0.0296224802732467
1774470103640809000,5.40280908203125,-0.7066226672232151,-0.4853893518159166,-1.5851742649912832,0.8727037310600281,0.9019946455955504,0.0428577922284603
1774470103650826200,5.412826171875,-0.4914975690305233,-0.1478638355528935,-1.6573697326302528,0.8363118767738342,0.7754886746406555,0.0213074963539838
1774470103660843000,5.422843017578125,-0.0553822800040245,-0.0384164956232532,-1.6797040217742325,0.7810107469558716,0.6138352751731873,-0.0467604734003543
1774470103670860000,5.432860107421875,0.2401590016841888,0.012447466706112,-1.9111583234772085,0.6698946356773376,0.4701833426952362,-0.1058613434433937
1774470103680877300,5.442877197265625,0.5417155981391668,0.1107113685160875,-2.066860341842472,0.573771595954895,0.3697348237037658,-0.1736026406288147
1774470103690894000,5.45289404296875,0.4476303702533244,0.0447470503516495,-1.922922118768096,0.488992840051651,0.3359550237655639,-0.1396249681711197
1774470103700911000,5.4629111328125,0.1516927827239036,-0.2497084088612347,-1.932568191252649,0.4065974354743957,0.2837016582489013,-0.0435656979680061
1774470103710928100,5.47292822265625,0.1538005686581134,-0.4471349879518151,-1.8468182455137367,0.3475964367389679,0.2246316820383072,0.0239765960723161
1774470103720946200,5.4829462890625,0.5321814615964889,-0.509570474402979,-1.5194649445012212,0.3329998850822449,0.1337988227605819,0.0192910432815551
1774470103730963200,5.492963134765625,0.8636679168909788,-0.458342391468957,-1.3857780663281678,0.3349061906337738,0.0912436321377754,-0.0282865948975086
1774470103740980200,5.502980224609375,1.0502104791998863,-0.3313238120786845,-1.2886828429713844,0.3318850100040436,0.0881111025810241,-0.0719740539789199
1774470103750997000,5.5129970703125,1.1163736809372902,-0.2626245890576392,-1.1124486164480447,0.3053530156612396,0.1326388865709304,-0.0861524567008018
1774470103761014300,5.52301416015625,1.021219362515211,-0.3370347370713949,-0.9022790948361158,0.2729070484638214,0.2082837969064712,-0.07682516425848
1774470103771031000,5.533031005859375,1.1320184093147516,-0.333502179031074,-0.3202688957095146,0.2891224920749664,0.2542009651660919,-0.1276957988739013
1774470103781048000,5.543048095703125,1.5659762280464171,-0.2818909419983625,-0.0099058924645185,0.3260758221149444,0.3242146670818329,-0.2817775905132293
1774470103791065300,5.5530654296875,1.6213701984882354,-0.2074330093201249,-0.1104579782769084,0.3380281031131744,0.4045473039150238,-0.4461135566234588
1774470103801082000,5.56308203125,1.0825544134438037,-0.2877136568024754,-0.156636084344983,0.3307597041130066,0.5501389503479004,-0.5076907873153687
1774470103811099100,5.57309912109375,0.1196750116944313,-0.5460862875040621,0.0372016034081578,0.3484838306903839,0.7595973610877991,-0.4181739389896393
1774470103821116200,5.5831162109375,-0.5079097746491432,-0.7833654959682375,0.3117041887208819,0.4117600917816162,0.9392614960670472,-0.2773690223693847
1774470103831133200,5.59313330078125,-0.6418979738563299,-0.8661951703462749,0.3436018405020237,0.4704591035842895,1.0631277561187744,-0.1718556433916092
1774470103841151200,5.603151123046875,-0.6448737747967243,-0.5381194002781063,0.1471399417251348,0.4964827597141266,1.0973411798477173,-0.1382287293672561
1774470103851168300,5.613168212890625,-0.4705985733866691,0.240594032100588,-0.1380284145087003,0.4351882338523865,1.0277410745620728,-0.1772450953722
1774470103861185000,5.62318505859375,-0.609030892521143,0.8420407531030476,-0.9005915801405906,0.2417183667421341,0.8719164133071899,-0.218403935432434
1774470103871202300,5.633202392578125,-0.9069961864858864,1.051421316294372,-1.206972235751152,0.0449102260172367,0.6793506741523743,-0.2250871509313583
1774470103881219000,5.643218994140625,-1.025706737062335,0.9967751685451716,-1.0086796144157648,-0.0761417672038078,0.4450919032096863,-0.2108894437551498
1774470103891236000,5.653236083984375,-0.8208499349057674,0.6004766338612884,-0.6482230852246285,-0.1289431899785995,0.1800085753202438,-0.2480903416872024
1774470103901253000,5.663253173828125,-0.4118073617219924,0.2280067185323685,-0.1222632746219635,-0.0745921060442924,-0.0859688371419906,-0.3150773346424103
1774470103911270100,5.673270263671875,-0.3400941246420145,-0.0450252827711403,-0.1060521445333957,-0.0230133403092622,-0.3312827348709106,-0.3109267950057983
1774470103921287200,5.683287109375,-0.6719944214344025,-0.1592105379428714,-0.3166080351144075,0.0290553234517574,-0.4769782125949859,-0.2157125174999237
1774470103931304200,5.69330419921875,-0.6948515654087066,0.2851545103715732,0.2463099255293607,0.0839659795165062,-0.390264093875885,-0.0801570862531662
1774470103941321200,5.7033212890625,-0.721578244292736,0.5891532027490437,0.5774035821139812,0.1853860318660736,-0.2406272441148758,0.0777050033211708
1774470103951338000,5.713337890625,-0.248295546388626,0.6981351901892572,0.2208469829708337,0.2100831270217895,-0.2337786555290222,0.0927635878324508
1774470103961355300,5.723355224609375,0.3920189576685428,0.5386753171278164,-0.6181389126062393,0.1295318752527237,-0.2513146996498108,0.0429485663771629
1774470103971373000,5.733373046875,-0.0774719467371702,1.1890419537197798,-0.3381546810120344,0.1728218346834182,-0.0679858699440956,0.0444790832698345
1774470103981390300,5.743390380859375,-0.5158417366921901,1.819181904438883,0.1932166332453489,0.2063755691051483,0.1676093786954879,0.0978227034211158
1774470103991407000,5.753406982421875,-1.12937286324203,1.197065101177618,-0.4169225127786398,0.2520261406898498,0.2073978036642074,0.2150172293186187
1774470104001424100,5.763424072265625,-1.415668177679181,1.5082514765694737,-0.3529880930066108,0.2892928719520569,0.1709875464439392,0.3083886802196502
1774470104011441200,5.773441162109375,-1.296363752862811,1.7957452070109543,-0.3720838386207818,0.3031040132045746,0.0140804927796125,0.366159588098526
1774470104021458200,5.783458251953125,-1.051605732950568,2.213297395995259,-0.1920645406007766,0.2686172425746918,-0.1689012795686721,0.3894386887550354
1774470104031475000,5.793474853515625,-1.0183861849159002,2.294955980767309,-0.1069686748564243,0.1845729649066925,-0.35938361287117,0.4996581375598907
1774470104041492200,5.8034921875,-1.4121540320783852,2.312066105522215,-0.1070879173219203,0.0953274220228195,-0.4944415688514709,0.7031383514404297
1774470104051509200,5.81350927734375,-1.0992524502664804,2.422946693125367,0.4429176625177264,0.0862657502293586,-0.6527145504951477,0.8118760585784912
1774470104061526000,5.823526123046875,-0.1299514910370111,2.5421687003552917,0.8542465930730104,0.1121863573789596,-0.7259055972099304,0.745864987373352
1774470104071543300,5.833543212890625,0.4220131139159202,2.5090356615602967,0.7100044186159968,0.1302902549505233,-0.8579459190368652,0.6137053966522217
1774470104081560000,5.84356005859375,0.5514911422222852,2.602300220713019,0.3394216322079301,0.1227161511778831,-0.9922032952308656,0.4500994384288788
1774470104091578400,5.853578369140625,0.7679857752025127,2.3053467341393232,0.0340723654717206,0.1053025424480438,-1.0772722959518433,0.3235457837581634
1774470104101595100,5.86359521484375,0.3987123178273439,1.9139818564653397,0.2852630487799644,0.1445446163415908,-1.0727559328079224,0.3203016519546509
1774470104111612200,5.873612060546875,0.0407645565867424,1.7354934212744235,0.2582695356532931,0.2125071585178375,-1.0618101358413696,0.3889238536357879
1774470104121629200,5.883629150390625,0.1823047786086797,1.487923120420426,0.2054500918745994,0.2543650865554809,-1.1064327955245972,0.4162196815013885
1774470104131646200,5.893646240234375,0.5637029735416174,1.3854052874930205,-0.025039456449449,0.2399624437093734,-1.1510801315307615,0.3630259931087494
1774470104141663000,5.9036630859375,0.5464753598868847,1.2879155118606984,-0.3686959497481584,0.1965960413217544,-1.143029808998108,0.3129143714904785
1774470104151680300,5.91368017578125,0.0071931263744831,0.8976949819162487,-0.5703732450857758,0.1376810669898986,-1.1178462505340576,0.3360870778560638
1774470104161697000,5.923697021484375,-0.5690069251686334,0.5316252890184522,-0.6839885183498263,0.1078642904758453,-1.0822080373764038,0.4088382720947265
1774470104171714000,5.933714111328125,-0.7453460733711719,0.325143223747611,-0.6604857699483633,0.1057460084557533,-1.0275485515594482,0.4500466883182525
1774470104181731300,5.9437314453125,-0.6888187149852514,0.1636130837507546,-0.6819631500020623,0.1113311946392059,-0.993399143218994,0.4362659156322479
1774470104191748000,5.953748046875,-0.5835872391849756,0.008616144914925,-0.7836731736779212,0.1057779714465141,-0.963886260986328,0.37760791182518
1774470104201765000,5.96376513671875,-0.5682873787224293,-0.1026212933018803,-0.7285323012143373,0.1276811063289642,-0.9076226353645324,0.3001152873039245
1774470104211783200,5.973783203125,-0.6489589982837438,-0.0879882261849939,-0.5664727305158972,0.1708442866802215,-0.8453954458236694,0.2662747800350189
1774470104221800200,5.98380029296875,-0.8341431317210197,-0.1248189504541456,-0.6475751427099108,0.1974062472581863,-0.7472984790802002,0.2747400403022766
1774470104231817200,5.993817138671875,-0.8299813358664512,-0.1225602117419242,-0.7211191023483872,0.2177011370658874,-0.6773308515548706,0.2916164994239807
1774470104241834200,6.003834228515625,-0.7679746692866086,-0.0291214650660753,-0.6298807883262634,0.2446007579565048,-0.6440117955207825,0.2940385043621063
1774470104251851000,6.01385107421875,-0.523184500670433,-0.0841145996220409,-0.7013482339516282,0.2366906255483627,-0.656305193901062,0.2799440026283264
1774470104261868300,6.023868408203125,-0.2721346871376037,-0.209500682439655,-0.7798378332987427,0.2051283866167068,-0.6783286929130554,0.2594009637832641
1774470104271885000,6.033885009765625,-0.2122948432028293,-0.3186193749368191,-0.7690104420751332,0.1691959500312805,-0.7087193727493286,0.2700773179531097
1774470104281902000,6.043902099609375,-0.1596943028718233,-0.4469884190879762,-0.7450172798082232,0.131613478064537,-0.7515169382095337,0.2981299161911011
1774470104291919000,6.053919189453125,-0.0252326409339904,-0.4412536748282611,-0.6417401529461145,0.1124256700277328,-0.7460873126983643,0.3246355652809143
1774470104301936000,6.06393603515625,0.1968576200962066,-0.4397467773966491,-0.5769266122519969,0.0979857444763183,-0.7314550876617432,0.3233759105205536
1774470104311953200,6.073953125,0.4278928196042776,-0.4877331019304692,-0.4997857971653342,0.0801380351185798,-0.7031275629997253,0.304031491279602
1774470104321970200,6.08397021484375,0.6105109019458294,-0.4000507268242538,-0.4045110672339796,0.0816592797636985,-0.6445960402488708,0.2579726278781891
1774470104331988200,6.09398828125,0.6815723971188068,-0.3488046698421239,-0.4092109154880046,0.0801588520407676,-0.5881974697113037,0.2151348888874054
1774470104342005200,6.104005126953125,0.7091571541368961,-0.3933008141726255,-0.398965708066523,0.074300467967987,-0.534728467464447,0.1877247840166092
1774470104352022300,6.114022216796875,0.7618722607582807,-0.3782156193740665,-0.1950967479035258,0.0841797292232513,-0.4730363190174103,0.1840570867061615
1774470104362039000,6.1240390625,0.5174655385017395,-0.2934251663170755,-0.1362438691794872,0.0758087411522865,-0.4352830350399017,0.229569599032402
1774470104372056300,6.134056396484375,0.3056991030871868,-0.2873758031502366,-0.2017006762132048,0.0769171491265297,-0.510013222694397,0.2626588642597198
1774470104382073000,6.144072998046875,0.6254881063252687,-0.2920810582317412,0.1157932018250226,0.1000330224633216,-0.5829330086708069,0.2405613362789154
1774470104392090000,6.154090087890625,0.832098474150896,-0.2511829383932054,0.3413714511014521,0.1145808100700378,-0.6784361004829407,0.1902979016304016
1774470104402107100,6.164107177734375,0.791189540657401,-0.2328168222278356,0.2570573833845556,0.1088948473334312,-0.7634606957435608,0.1576666086912155
1774470104412124200,6.174124267578125,0.6644312927037477,-0.2297077502965927,0.3081638857655227,0.1128291338682174,-0.8281832337379456,0.1698233932256698
1774470104422141200,6.18414111328125,0.6380430519938468,-0.2123388284750282,0.4461452462621033,0.1243381723761558,-0.8469206690788269,0.1830329895019531
1774470104432158200,6.194158203125,0.7665262240439653,-0.3743722418189048,0.5119825770460069,0.133165493607521,-0.8603984117507935,0.1760616302490234
1774470104442175200,6.20417529296875,0.8464823888123035,-0.4842608957752585,0.6161502230070531,0.1520543843507766,-0.8630026578903198,0.1613381952047348
1774470104452192000,6.21419189453125,0.8532716105610132,-0.575917435209453,0.7172479600034654,0.1919802278280258,-0.8330649733543396,0.1373694837093353
1774470104462210300,6.224210205078125,0.9272054462999104,-0.5743829191185533,0.8574431971572339,0.2514015734195709,-0.7827026844024658,0.0866787731647491
1774470104472227000,6.23422705078125,1.0306120447605849,-0.4950291041575372,0.8711720089107752,0.2995637655258178,-0.6975289583206177,0.0236673150211572
1774470104482244400,6.244244384765625,0.7901619511753321,-0.3480029980704188,0.6813871036797762,0.3152567446231842,-0.6071439981460571,-0.0042940243147313
1774470104492261000,6.25426123046875,0.404018023020029,-0.2172726316154003,0.5050730899184942,0.3003076314926147,-0.6047583818435669,-0.0086176665499806
1774470104502278100,6.264278076171875,0.1090191776454448,-0.2028803875170648,0.4229306671522557,0.2645061910152435,-0.642828643321991,-0.0056996243074536
1774470104512295200,6.274295166015625,-0.3716168056309223,-0.1562394862428307,0.4711569379217922,0.2462816685438156,-0.7434889674186707,0.0293784700334072
1774470104522312200,6.284312255859375,-0.7152303365707398,-0.1459261820212006,0.562205282329768,0.2510546147823334,-0.8103490471839905,0.1086708754301071
1774470104532329000,6.294328857421875,-0.8347434357017278,-0.3858046131983399,0.546999822152406,0.2626878321170807,-0.9258727431297302,0.1806704998016357
1774470104542346200,6.30434619140625,-0.7323124042749405,-0.3142893829084933,0.755164141421765,0.3192390501499176,-1.0355392694473269,0.2308792769908905
1774470104552363300,6.31436328125,-0.4870177932679653,-0.371090589799732,0.7767557224396616,0.3642722964286804,-1.136255979537964,0.238272488117218
1774470104562380000,6.324380126953125,-0.1913221978008747,-0.4939527070976793,0.6615129941042512,0.3958351910114288,-1.2607442140579224,0.2005715072154998
1774470104572397300,6.334397216796875,0.0546001897156238,-0.624933687312901,0.6295030410550534,0.428508996963501,-1.3452519178390503,0.1346079260110855
1774470104582414000,6.3444140625,0.109434772709012,-0.7803375995144247,0.6999439931768924,0.4710194766521454,-1.3422621488571167,0.0951100289821624
1774470104592432400,6.354432373046875,-0.0227823251724243,-0.8987073738291859,0.7725150891952216,0.5419865846633911,-1.2604131698608398,0.0934807062149047
1774470104602449200,6.36444921875,-0.1556739613145589,-0.915402780303359,0.7838914926037192,0.622360348701477,-1.160544753074646,0.1162674129009246
1774470104612466200,6.374466064453125,-0.3048451166063547,-0.7935159377783536,0.7092237896323204,0.6677179336547852,-1.0841482877731323,0.1622325032949447
1774470104622483200,6.384483154296875,-0.4357137224882841,-0.6420750839889049,0.6173976657848805,0.6761903166770935,-1.0346485376358032,0.2169851660728454
1774470104632500200,6.394500244140625,-0.4547814110517502,-0.5052671511858702,0.5081150514302775,0.6650740504264832,-1.0134042501449585,0.2474906146526336
1774470104642516700,6.404516845703125,-0.3564963933885097,-0.4226423517301678,0.3896957023527473,0.6411005258560181,-1.0127826929092407,0.2459859699010849
1774470104652533800,6.41453369140625,-0.2321832004994153,-0.3465922544896602,0.249417390025407,0.5988209843635559,-1.0244017839431765,0.2157236784696579
1774470104662550800,6.42455078125,-0.2241676518261432,-0.3938423737034201,0.10369071263168,0.5518537163734436,-1.0487183332443235,0.188850536942482
1774470104672567600,6.434567626953125,-0.352474882787466,-0.4223787323579192,-0.0099568919993937,0.5072521567344666,-1.0702308416366575,0.1708552986383438
1774470104682584800,6.444584716796875,-0.3555710952371358,-0.4624453698083758,-0.0631885333081707,0.4785467088222503,-1.107913374900818,0.15692700445652
1774470104692601600,6.4546015625,-0.3436316511183977,-0.479317594154179,-0.053579614496231,0.4498719274997711,-1.1019257307052612,0.159416526556015
1774470104702618600,6.46461865234375,-0.3669476447761058,-0.5115674203738569,-0.0888913855697959,0.4302909076213836,-1.064720630645752,0.1823661625385284
1774470104712635600,6.4746357421875,-0.4140326365560293,-0.4971121940419077,-0.0908688231226056,0.4128264188766479,-1.060739278793335,0.223586305975914
1774470104722652700,6.484652587890625,-0.3005558949798345,-0.5364905569672584,-0.0391395857334136,0.3862512707710266,-1.052029013633728,0.2604090273380279
1774470104732670700,6.494670654296875,-0.1350000065982341,-0.6189850080415606,0.0184901078712195,0.3804003000259399,-1.0270909070968628,0.2834051549434662
1774470104742687700,6.504687744140625,-0.0871650732338428,-0.7436056594446301,0.1885536829356104,0.4151593446731567,-1.0252124071121216,0.2886180579662323
1774470104752704500,6.51470458984375,-0.0136520932555198,-0.8424041795879602,0.3499887650601566,0.4608440101146698,-1.0105410814285278,0.2654381692409515
1774470104762721800,6.5247216796875,0.0615776275128126,-0.8867045090854168,0.3275273424051702,0.5164213180541992,-1.0330702066421509,0.233286052942276
1774470104772738800,6.53473876953125,0.085019877898693,-0.933289734649658,0.2644137374967336,0.5949432849884033,-1.025043249130249,0.203417107462883
1774470104782755600,6.544755615234375,-0.0073860185980796,-0.877886411857605,0.1847881198570132,0.6717866063117981,-1.005743384361267,0.1928236037492752
1774470104792772900,6.55477294921875,-0.1353653327792882,-0.8407602117732167,0.0576581159815192,0.7193506956100464,-0.990079700946808,0.2131989151239395
1774470104802789600,6.56478955078125,-0.1878770257830619,-0.7039943645462393,0.1232585692696273,0.7464845180511475,-0.9164595007896424,0.221888318657875
1774470104812806700,6.574806640625,-0.0699888975054025,-0.3326622210755944,0.1544273222543299,0.7738405466079712,-0.8067106008529663,0.2296469062566757
1774470104822823700,6.58482373046875,0.0378074603468179,-0.474864121876657,-0.1419860660932958,0.804487407207489,-0.7698445916175842,0.2443667203187942
1774470104832840700,6.5948408203125,0.0463484941989183,-0.5803893199265003,-0.2169463222704827,0.8297586441040039,-0.730640709400177,0.2399879544973373
1774470104842857500,6.604857421875,0.1621592316806316,-0.5451230684950947,-0.1150096502318978,0.8603614568710327,-0.7175754308700562,0.2341080605983734
1774470104852874800,6.614874755859375,0.1656505809277296,-0.7044932539790868,-0.2321742865405976,0.8925691843032837,-0.832651674747467,0.2579492032527923
1774470104862892500,6.624892578125,0.0711696317225694,-0.7655731611028314,-0.5613083334900438,0.9196555018424988,-0.98435777425766,0.3166398406028747
1774470104872909800,6.634909912109375,-0.1128507186323404,-0.4115314673900604,-1.2319868500202893,0.8741106390953064,-0.9952711462974548,0.3880351781845093
1774470104882926600,6.644926513671875,-0.2862321860730648,0.3484469424456358,-1.5544199380263686,0.7608872056007385,-0.8491812944412231,0.4348031878471374
1774470104892943600,6.654943603515625,-0.2841425203174352,0.5871045996561646,-1.5587673195809124,0.6262588500976562,-0.8284085988998413,0.4624577462673187
1774470104902961000,6.6649609375,-0.2904027497559786,0.4358534232199191,-1.585536960823834,0.4843886494636535,-0.8248050808906555,0.4799313843250274
1774470104912977700,6.674977783203125,-0.4029389956116676,0.2666962954759597,-1.636108333414793,0.3664430975914001,-0.8091390132904053,0.4984510242938995
1774470104922994700,6.68499462890625,-0.3170774061918258,0.009226093506813,-1.4214429616883395,0.2866387069225311,-0.8072071671485901,0.4998380839824676
1774470104933011700,6.69501171875,-0.0289794262468814,-0.2674824774175882,-1.067208960273862,0.2688186764717102,-0.7858720421791077,0.4793253540992737
1774470104943028700,6.70502880859375,0.264845699173212,-0.5109840675279498,-1.049901559381187,0.268885463476181,-0.7201968431472778,0.4555943012237549
1774470104953045500,6.71504541015625,0.4183171820074319,-0.6285600611165165,-1.1185647612407803,0.3050083220005035,-0.5855735540390015,0.4577261507511139
1774470104963062800,6.725062744140625,0.3861871827751398,-0.6744581811994314,-0.7201788988888264,0.370284765958786,-0.4726188480854034,0.4967598617076874
1774470104973079800,6.735079833984375,0.4799240356147289,-0.8129080359905958,-0.7371405550837516,0.4272654950618744,-0.3747828304767608,0.5407371520996094
1774470104983096600,6.7450966796875,0.4752694878071546,-0.8948208877846598,-0.7345373868480324,0.4908417463302612,-0.2447802871465683,0.5900304913520813
1774470104993113900,6.75511376953125,0.4879197105437516,-0.8418982758924365,-0.8329743802025914,0.5505312085151672,-0.1611572951078415,0.6488661170005798
1774470105003131600,6.765131591796875,0.5209574722707271,-0.9659513565406204,-0.9988517556235194,0.6168122887611389,-0.0717579126358032,0.6833813786506653
1774470105013148700,6.775148681640625,0.698286216032505,-1.1892615147545933,-0.9847595173850656,0.7177886962890625,0.0635216161608696,0.6760643124580383
1774470105023165700,6.785165771484375,0.921558964845538,-1.2774056621536611,-0.9844590731337666,0.8621760606765747,0.2496511340141296,0.6217107176780701
1774470105033182700,6.7951826171875,1.1472954734236,-1.358188633134961,-1.0066840566843749,1.022341012954712,0.3866127133369446,0.5315943956375122
1774470105043199700,6.80519970703125,1.4198100997895002,-1.425931505279243,-1.122620174111426,1.1619528532028198,0.4581076800823211,0.4247142374515533
1774470105053216800,6.815216796875,1.560696826338768,-1.4548194538503885,-1.4098872561901807,1.3001588582992554,0.5467925071716309,0.3292787969112396
1774470105063233500,6.825233642578125,1.563064139991999,-1.5457736902341246,-1.3785393472462892,1.4882733821868896,0.7059566974639893,0.2590436041355133
1774470105073250800,6.835250732421875,1.6891928578704594,-1.4593722948491572,-1.4449407416537403,1.693105697631836,0.9105218052864076,0.2204578667879104
1774470105083267600,6.845267578125,1.5791577811807394,-1.3005331475019457,-1.9829267978757616,1.816647171974182,1.1128816604614258,0.2742657661437988
1774470105093284600,6.85528466796875,0.9637427405804396,-1.03885526470989,-2.4000924717605114,1.875633955001831,1.2087488174438477,0.4311895966529846
1774470105103302000,6.865302001953125,0.5048796131730079,-0.2340346735849976,-2.8260680595666168,1.850934624671936,1.3155896663665771,0.5971331596374512
1774470105113318700,6.875318603515625,0.6024889235317706,0.456437653826177,-3.241075094112753,1.7470420598983765,1.4654557704925537,0.6862838268280029
1774470105123335700,6.885335693359375,0.8211895421236753,0.7120370934873819,-3.423011039409041,1.5926631689071655,1.5039294958114624,0.7041606307029724
1774470105133352700,6.895352783203125,1.2480839983403682,0.8912389376446604,-3.342150034755468,1.410580277442932,1.5081124305725098,0.6409720778465271
1774470105143370800,6.905370849609375,1.760268966090679,0.9212617354646324,-3.174542182280123,1.2026711702346802,1.5451105833053589,0.5227067470550537
1774470105153387800,6.9153876953125,2.0431746380895377,0.7110460366234183,-2.804964189000428,1.007671594619751,1.6099361181259155,0.4300620257854461
1774470105163404800,6.92540478515625,2.036819131582975,0.3705696346655487,-2.272573760828376,0.8682103157043457,1.7485288381576538,0.4037385880947113
1774470105173421600,6.935421630859375,2.0300994679391384,0.1849336658075451,-1.865111150312424,0.8323599100112915,2.0106725692749023,0.4340720176696777
1774470105183438800,6.94543896484375,1.9379636205554007,-0.1051525653451681,-1.225745617543161,0.884909451007843,2.3107001781463623,0.5207957029342651
1774470105193455600,6.95545556640625,1.7287965539842842,-0.1526589974075555,-0.8717445481017232,0.9658442735671996,2.6377456188201904,0.6464470624923706
1774470105203472600,6.96547265625,1.5876573139786718,0.034004560932517,-1.1162712434761226,0.9945473074913024,2.9823293685913086,0.757452130317688
1774470105213489700,6.97548974609375,0.8359773614108562,0.8367866319671273,-0.1878792177401483,0.9282742738723756,2.882533550262451,0.973674178123474
1774470105223506700,6.985506591796875,-2.978846883961558,2.1482868714243173,-1.3578024102963506,0.4510509073734283,1.98494553565979,1.3088887929916382
1774470105233523700,6.995523681640625,-3.1073101822674274,0.5855532785609364,-3.050022945424914,-0.0916299745440483,1.4099235534667969,1.238425374031067
1774470105243540700,7.005540771484375,-1.1207143404901028,-0.5007546421974897,-2.167561042345315,-0.3860301673412323,1.5374306440353394,0.9933473467826844
1774470105253557800,7.015557861328125,1.0887053372889757,-0.3587520633608103,-0.1126106262661516,-0.3250696063041687,1.6180371046066284,0.6926609873771667
1774470105263574500,7.025574462890625,2.879209867167473,-0.7436974293813109,0.2149963572464883,-0.0268987920135259,1.8132703304290767,0.4428388476371765
1774470105273591800,7.035591796875,3.091965313619375,-0.6500315959513187,-1.2950985552325844,0.2101853936910629,2.303042411804199,0.2265440821647644
1774470105283609600,7.045609619140625,3.3609114338487385,0.3959019365817308,-1.4333927810706195,0.3639626801013946,3.042414426803589,0.1492988467216491
1774470105293627000,7.055626953125,2.45919698715806,0.6287085296764969,-2.592175424800813,0.3099915981292724,3.831477165222168,0.3652353882789612
1774470105303643600,7.0656435546875,0.5625421130686998,0.7369517545133829,-4.387541715496778,0.0921340808272361,4.520567417144775,0.8998854756355286
1774470105313660700,7.07566064453125,-1.615938236567378,0.8970467471405863,-4.907828156638145,-0.1886371225118637,4.569291591644287,1.661959171295166
1774470105323677700,7.085677734375,-3.5627819136708974,0.6172250126317143,-4.36782462311387,-0.4546676576137543,4.043959140777588,2.386998176574707
1774470105333694700,7.09569482421875,-4.085450281512737,0.6974860055655241,-3.02035845952332,-0.5263232588768005,3.0783231258392334,2.9431381225585938
1774470105343711500,7.10571142578125,-2.821296022859216,1.2690671651363372,-2.1111350985072552,-0.6318458914756775,2.208130121231079,3.144968032836914
1774470105353728800,7.115728759765625,-0.8854781821608543,1.235145021790266,-2.292600065290928,-0.8253147006034851,2.0829756259918213,2.8464388847351074
1774470105363745800,7.125745849609375,0.2500374216198921,0.5496493137478828,-1.5597636371418833,-0.8093366026878357,1.7430063486099243,2.371223211288452
1774470105373762600,7.135762451171875,1.2057096684694288,0.648906391313672,-0.3221047328345477,-0.9384016394615172,0.514285683631897,1.6026530265808103
1774470105383779800,7.14577978515625,2.6167086852937937,1.0057552514016628,0.3862774914070964,-0.8607876300811768,-0.3569242656230926,0.7257879972457886
1774470105393796600,7.155796630859375,2.8171219520449635,0.3096019557446241,-1.1647757466651498,-0.5239688158035278,-0.382637083530426,0.1699591726064682
1774470105403813600,7.165813720703125,2.2666151446849105,-0.9461667518794536,-0.7751347701743244,-0.4482380747795105,-0.5087347626686096,-0.0798954367637634
1774470105413830700,7.17583056640625,0.8653390649735927,-0.3349544236660003,0.8505109136760234,-0.4571122527122497,-0.4964426755905151,-0.0922908559441566
1774470105423847700,7.18584765625,0.6432756919503212,0.1267015493303537,0.0831894476011395,-0.6261207461357117,-0.5901864171028137,-0.002186520025134
1774470105433865700,7.19586572265625,0.5918582239240407,-0.5326958408594131,-1.2105518478035926,-0.8847357630729675,-0.5301926136016846,0.0357757732272148
1774470105443882800,7.2058828125,-0.1076397059857845,0.3399100002467632,-0.9645108023434876,-1.0490107536315918,-0.4942404329776764,0.1009943857789039
1774470105453899500,7.2158994140625,-0.9714005618572236,0.9065864366412162,-0.6350558528766036,-1.069591045379639,-0.6520590782165527,0.2448530048131942
1774470105463916800,7.225916748046875,-1.6992635855078695,0.7053630225509405,-0.3250502847671508,-0.9395958185195924,-0.8189346194267273,0.3462904691696167
1774470105473933800,7.235933837890625,-1.8573399317890404,-0.2215349652349948,0.1253203241050243,-0.8471412658691406,-1.1781463623046875,0.3275074362754822
1774470105483950600,7.24595068359375,-1.1324264055937527,0.6738871033132076,-0.0247479261569678,-0.8623244166374207,-1.5606180429458618,0.1575122475624084
1774470105493968000,7.2559677734375,-0.2070049201011657,1.754157789734006,0.0039199499227106,-0.8988727927207947,-1.9692904949188232,-0.215214192867279
1774470105503984600,7.265984619140625,-0.1724772120773792,-0.1657645626962184,2.4789865602552887,-0.8008977770805359,-2.335285186767578,-0.5432903170585632
1774470105514001700,7.276001708984375,0.5344499910503625,0.1307546241134405,4.361329123614728,-0.6692537069320679,-2.060019254684448,-0.7674222588539124
1774470105524018700,7.286018798828125,-0.0276291806817054,0.3944149128943681,3.154493958246708,-0.5228913426399231,-1.573171854019165,-0.8984495997428894
1774470105534035700,7.29603564453125,-1.282360946473479,0.9224912772595882,1.2718218706719575,-0.3626249730587005,-1.0160174369812012,-0.8451374173164368
1774470105544052500,7.306052490234375,-1.9322844058752056,1.512766031384468,-0.4716930906251073,-0.1425382196903228,-0.4429130852222442,-0.587442934513092
1774470105554069800,7.31606982421875,-2.671971138310432,1.8167016319304703,-1.6291105834819375,0.1997722536325454,0.1910449415445327,-0.1420228779315948
1774470105564086800,7.326086669921875,-3.4112405221164224,0.7913771721839904,-1.6410912363938983,0.6787922382354736,0.9400659203529358,0.2773966491222381
1774470105574104800,7.336104736328125,-1.75429924403131,-0.8921130901306867,-1.4288757420375942,1.120193600654602,1.2330543994903564,0.4828163683414459
1774470105584121600,7.34612158203125,-0.6237210966527461,-1.0686439615130423,-0.4415110105901956,1.3903448581695557,0.8157399892807007,0.4764515459537506
1774470105594138600,7.356138671875,0.1852916854649782,-1.4233452881783246,0.5360564033336938,1.450337052345276,0.8055022358894348,0.2362013906240463
1774470105604156000,7.366156005859375,-0.3304623729437589,-1.1723720470130443,0.052407501976937,1.274954319000244,0.9339910745620728,-0.130572035908699
1774470105614172700,7.376172607421875,-1.142578966295719,-1.0813520519167183,-0.5297575954504311,0.9876763820648192,1.4687689542770386,-0.5031037926673889
1774470105624189700,7.386189697265625,-0.964825275120139,-1.5404945807874202,-1.6852641401194035,0.8107205629348755,1.9586453437805176,-0.7748604416847229
1774470105634206700,7.396206787109375,-0.706641371923685,-1.9469675957441328,-2.440255116931349,0.6661476492881775,2.0774567127227783,-1.001641869544983
1774470105644224300,7.406224365234375,0.0328442849814891,-2.3149942679286,-1.821796178590506,0.4293552339076996,1.6059435606002808,-1.079572319984436
1774470105654241000,7.416240966796875,-0.2098474500507116,-2.6755183093979955,-0.6678159667059779,-0.0185934975743293,1.377140760421753,-0.9646415114402772
1774470105664258000,7.426258056640625,-0.5686287395060062,-2.4238509484887123,-0.6827334037221968,-0.551238477230072,1.0315544605255127,-0.7215960621833801
1774470105674275000,7.436275146484375,-0.7616109794735908,-2.4133403681293126,-0.6096126379318535,-1.0323151350021362,0.7219638824462891,-0.3345186710357666
1774470105684292000,7.4462919921875,-0.7094990994423628,-2.6037843217909336,-0.3973933441832661,-1.4917596578598022,0.5255352258682251,0.1108667105436325
1774470105694309000,7.45630908203125,-1.045704984474182,-2.031283124765753,-0.6893347016833722,-1.94765043258667,0.4545476138591766,0.5891419649124146
1774470105704326100,7.466326171875,-1.2851409325808285,-1.2428276852473616,-0.1519017492994666,-2.2895140647888184,0.2566587626934051,1.0455090999603271
1774470105714343200,7.47634326171875,-1.3345733642697333,-0.5519906161770224,1.429972597363591,-2.3984627723693848,-0.0579902715981006,1.4774529933929443
1774470105724360000,7.48635986328125,-1.4809224478781222,0.2673813551306724,2.8453289326146245,-2.3248953819274902,-0.3549968600273132,1.8831801414489744
1774470105734378000,7.4963779296875,-1.729649371421337,1.1659659793630242,3.2548952374115583,-2.1327128410339355,-0.4716030955314636,2.26267147064209
1774470105744395000,7.50639501953125,-1.6724392914682626,1.3692232373684643,2.942075488664209,-1.852209210395813,-0.3742383122444153,2.5347683429718018
1774470105754412300,7.516412353515625,-0.6050403615802527,1.0761170738726853,1.7899010110273956,-1.5345585346221924,-0.1383035629987716,2.595568895339966
1774470105764429000,7.526428955078125,1.053323642784357,0.5907236669361591,1.3760010609403253,-1.3596158027648926,0.0180178396403789,2.4361228942871094
1774470105774446000,7.536446044921875,2.705451383107901,0.5062976632773876,1.376311149802804,-1.4304015636444092,-0.1473364979028701,2.134772539138794
1774470105784463000,7.546463134765625,4.174698590761423,0.2884849334359168,1.697908956028521,-1.6493680477142334,-0.8203209638595581,1.7387497425079346
1774470105794480000,7.556480224609375,4.80041407610178,-0.498396680894494,2.9960882338806987,-1.953623652458191,-1.5456043481826782,1.431535243988037
1774470105804497000,7.566496826171875,4.157967236191034,-0.9125462218284608,3.4447628524899483,-2.3075640201568604,-2.2156217098236084,1.3008826971054075
1774470105814514200,7.57651416015625,3.3015953215271234,-0.4087076421409845,2.7036519324705,-2.6289687156677246,-2.8119096755981445,1.2599509954452517
1774470105824531200,7.58653125,3.06994988116622,-0.0771416918694972,2.217428504450619,-2.900245189666748,-3.319600343704224,1.1584432125091553
1774470105834548000,7.5965478515625,3.013481559491157,0.0044569794088602,1.8943007121786477,-3.115858793258667,-3.7221927642822266,0.938553273677826
1774470105844565200,7.606565185546875,2.901293104159832,0.2764519658148288,1.8056094522908328,-3.292302370071411,-4.03513240814209,0.6430128812789917
1774470105854582000,7.61658203125,1.993609519931674,0.9525830486625432,2.2640061312302944,-3.43217396736145,-4.4041948318481445,0.4156257808208465
1774470105864599000,7.62659912109375,0.1230968028366565,1.5666110188186169,2.922802340656519,-3.5207784175872803,-4.932714939117432,0.3634923100471496
1774470105874616000,7.636615966796875,-2.3293863658964638,2.0048913769245145,3.449740640902519,-3.5521457195281982,-5.060062885284424,0.5102641582489014
1774470105884633000,7.646633056640625,-4.704229245588183,2.24673555521667,3.6605376467630255,-3.500598669052124,-4.393556118011475,0.812907874584198
1774470105894651100,7.656651123046875,-6.1487465011328455,2.622168704265356,3.014674568668008,-3.2474498748779297,-3.2055397033691406,1.1812714338302612
1774470105904668200,7.666668212890625,-6.245977625828981,2.485640757447481,2.141292920883745,-2.7970073223114014,-1.8602155447006223,1.524929761886597
1774470105914685000,7.676684814453125,-5.405857757785916,2.239569901371002,2.081323020828515,-2.295027732849121,-0.6614129543304443,1.8067201375961304
1774470105924702200,7.6867021484375,-3.682990593850613,1.9651964953958987,2.265364560101926,-1.8580732345581052,0.1361662000417709,2.044848918914795
1774470105934719000,7.696718994140625,-1.7915134146600962,2.149232043319941,2.1874118441104886,-1.6025018692016602,0.250449389219284,2.234510898590088
1774470105944736000,7.706736083984375,-0.1903653354674577,2.593641697961092,2.596000828307867,-1.4841333627700806,-0.0951889157295227,2.3555283546447754
1774470105954753300,7.716753173828125,1.1647533887028694,2.624453600332141,3.063007514682412,-1.3927634954452517,-0.6574938297271729,2.3817834854125977
1774470105964770000,7.72677001953125,2.2319898215055463,2.4900240870982406,2.8956320096582173,-1.2578675746917725,-1.190401554107666,2.300703763961792
1774470105974787000,7.736787109375,2.937865469753742,2.4222668941676617,2.10451451132372,-1.0756537914276123,-1.602455735206604,2.1817915439605717
1774470105984804000,7.74680419921875,3.144557086122036,2.264102869603038,1.1880481934420764,-0.897767961025238,-1.8901233673095703,2.097180128097534
1774470105994821000,7.756821044921875,2.9278736525714395,2.226401207718253,0.4939483231835067,-0.8042100667953491,-2.262709379196167,2.155054807662964
1774470106004838000,7.766837890625,2.132813407960534,2.269638291898369,0.4455238994933664,-0.8257988691329956,-2.7029948234558105,2.309962749481201
1774470106014855200,7.776855224609375,1.3978157101243731,2.191413480967283,0.9284659677550196,-0.8523687124252319,-2.2940635681152344,2.09134840965271
1774470106024872200,7.7868720703125,0.4568371745377779,1.864737056303024,0.7701920530751347,-0.6855183839797974,-1.306825876235962,1.4329670667648315
1774470106034889000,7.796888916015625,-0.0081324530512094,0.2387123100072145,1.4206659859664736,-0.2546255886554718,0.1039368510246276,0.6961849331855774
1774470106044906200,7.80690625,0.5838286467254161,0.6165291393220425,0.8208025886327028,-0.3410132527351379,1.5296002626419067,-0.203154906630516
1774470106054924000,7.816924072265625,1.3749766863286494,2.72772049806118,0.2522279174014926,-0.5803464651107788,1.7644882202148438,-0.7609065771102905
1774470106064941000,7.826941162109375,1.8501070579260583,2.5138579671502117,2.435834231749177,-0.4883067011833191,1.360655665397644,-0.9047642946243286
1774470106074958000,7.8369580078125,0.9153162710636854,2.6568454653710125,3.1673271363347766,-0.0804622173309326,1.083159565925598,-0.8628994226455688
1774470106084975000,7.84697509765625,-0.7934095547944306,3.404676925817132,2.202440340285748,0.4799422919750213,0.908217191696167,-0.5371458530426025
1774470106094992100,7.8569921875,-2.4834523074924943,2.924386979499459,1.5259602978698907,1.144872546195984,0.8964827656745911,-0.0418990813195705
1774470106105009200,7.867009033203125,-4.203304507520794,1.9625912813335653,0.9654365388862788,1.551743984222412,0.8856750726699829,0.6291083693504333
1774470106115026000,7.87702587890625,-5.395882891738414,1.76203889837265,0.5057898598857223,1.6170108318328855,0.8290014266967773,1.4780527353286743
1774470106125043200,7.887043212890625,-6.322357101154327,1.3031009521633383,0.2525311381317675,1.5413531064987185,1.1417393684387207,2.257711410522461
1774470106135060000,7.89706005859375,-6.112286363741755,1.0937222886681557,0.3911867446281015,1.4053298234939575,1.6236628293991089,2.892152070999145
1774470106145077000,7.907076904296875,-4.442406109106541,1.416854172593355,0.227506440860033,1.4338445663452148,2.221449851989746,3.225335121154785
1774470106155094300,7.91709423828125,-3.0791829889357087,0.7475006210565567,-0.1057573993705213,1.6127197742462158,2.706575632095337,3.414156913757324
