time,seconds_elapsed,accel_x,accel_y,accel_z,gyro_x,gyro_y,gyro_z
1774470633113159200,0.0861591796875,0.3471972346454858,-0.1689867396131157,-0.5065311797723174,-0.6134569048881531,0.4836052656173706,1.4004218578338623
1774470633123186200,0.096186279296875,0.1880377693027257,-0.2534668115466833,-0.0627029782809317,-0.7694968581199646,0.3934607207775116,1.1660399436950684
1774470633133213000,0.106212890625,-0.0341524449706077,0.1178755610570311,0.2957021713383496,-0.7398247122764587,0.1058082357048988,0.6249706745147705
1774470633143240200,0.116240234375,-0.983695395284891,1.507718977127969,0.5205509372964501,-0.3767575323581695,0.2882265150547027,0.0730803236365318
1774470633153267200,0.12626708984375,-0.6682628336906433,-1.3907847885742783,0.0261525322578847,-0.0685827657580375,0.2339731305837631,-0.4126966595649719
1774470633163294000,0.1362939453125,-1.0215408495545386,-2.1079215432882306,-0.6579239566363394,0.0672144740819931,0.312084436416626,-0.6967145204544067
1774470633173321000,0.146321044921875,-1.203593114706874,-0.3186521081626415,-1.970726364733279,-0.0668511837720871,0.9391499161720276,-0.6275018453598022
1774470633183348200,0.15634814453125,0.3608925825208425,0.6009855332314967,-1.3074402965418994,0.0064976015128195,1.5050506591796875,-0.114018328487873
1774470633193375200,0.166375244140625,1.507514102205634,1.390372992902994,-1.7473786509878932,-0.2646220624446869,1.7844043970108032,0.4830130040645599
1774470633203402000,0.176402099609375,0.4490069193035363,1.8210054666042328,-0.5122589097693562,-1.0309113264083862,1.5289922952651978,1.0376578569412231
1774470633213430300,0.18643017578125,-0.8543588212758302,2.0076608416378496,3.021714258046448,-1.5047775506973269,0.5624557137489319,1.5158449411392212
1774470633223457000,0.19645703125,-1.0373176798790693,2.9132056602716445,0.9726371179148554,-1.4869210720062256,-0.976060688495636,1.666189670562744
1774470633233484000,0.206484130859375,-2.283175234341621,1.0915867379441857,-0.7037479885697364,-1.2233761548995972,-2.587052345275879,1.695820689201355
1774470633243511300,0.21651123046875,-1.865614423659444,-0.6796849759370088,-1.1726754138737916,-1.0352163314819336,-3.693390130996704,1.7190189361572266
1774470633253538000,0.2265380859375,-0.5042161808282136,-0.7127157234013081,0.2527683078885078,-0.7756401300430298,-4.500275611877441,1.7919447422027588
1774470633263565000,0.23656494140625,0.0925824221074581,-0.2956193153604864,1.1808398694984614,-0.756284236907959,-5.0991973876953125,1.8256609439849851
1774470633273592000,0.246592041015625,-0.0483212555766105,0.1018091001361608,2.919854596766829,-0.9592396020889282,-5.599118232727051,1.73046612739563
1774470633283619000,0.256619140625,-0.6259580619245767,1.0339677849292754,4.192116174030304,-1.2970229387283323,-5.339144706726074,1.3780691623687744
1774470633293646000,0.26664599609375,-0.589116231739521,2.436140228958428,4.038448291841149,-1.402474284172058,-4.904037952423096,1.0488609075546265
1774470633303673000,0.276673095703125,0.3822428290635347,3.400235728499293,1.9356196877777576,-1.3512403964996338,-4.300885200500488,0.7815040349960327
1774470633313700000,0.2867001953125,1.7735282606363296,3.504750872723758,-0.3161523272361606,-1.2686468362808228,-3.2243800163269043,0.569175660610199
1774470633323727000,0.29672705078125,3.251181477585434,2.2123086772188545,-0.0447581928001716,-1.1443839073181152,-1.7293012142181396,0.4644013047218323
1774470633333754000,0.306754150390625,4.14568526224494,0.5737611339583992,0.5804766694163903,-0.9417387247085572,0.1408779025077819,0.4999617040157318
1774470633343782100,0.3167822265625,4.748973227199912,-0.577640898001194,0.7227684039253741,-0.5980665683746338,2.091691732406616,0.6331176161766052
1774470633353809200,0.32680908203125,4.791289689403772,-1.7706839771211147,0.2759966780616901,-0.1958831995725631,3.03982925415039,0.4341269135475158
1774470633363836200,0.336836181640625,1.5672218441933392,-2.3032290113329887,-0.0385288790897,0.1058124676346778,2.312742233276367,-0.0768000110983848
1774470633373863000,0.34686279296875,-3.5384570352315903,-1.514852774530649,0.1617379923275672,0.3364306092262268,1.2840999364852903,-0.519354522228241
1774470633383890200,0.35689013671875,-3.749188282379508,-1.176814997896552,0.368745707174018,0.5208100080490112,1.0387519598007202,-0.7647573351860046
1774470633393917200,0.366917236328125,-0.7604197238624095,-1.152241405393183,0.075830864999257,0.5806165337562561,1.2941269874572754,-0.8095573782920837
1774470633403944000,0.37694384765625,1.6167536446034907,-0.3716355103313922,-0.2070139801904559,0.5444031357765198,1.2877894639968872,-0.7059686183929443
1774470633413971200,0.38697119140625,1.127440433874726,0.2063561008036136,-0.1757766189489513,0.5283272862434387,0.873087465763092,-0.5479145646095276
1774470633423998200,0.396998291015625,-0.0567331100910902,-0.8526321436136961,-0.5010712703986093,0.4224725067615509,0.3408160805702209,-0.3921427428722381
1774470633434025000,0.40702490234375,-0.5034913736850023,-0.725772773373127,-0.8841904804378747,0.2518678307533264,0.019927067682147,-0.3038633167743683
1774470633444052000,0.417052001953125,-0.1478343537300825,-0.0803609461769461,-1.079905652500689,0.1437767744064331,-0.0356515049934387,-0.2593997120857239
1774470633454079200,0.427079345703125,0.2315121693700552,-0.1099330776199698,-1.1351662058211862,0.0937875881791114,0.024697158485651,-0.2700550258159637
1774470633464106000,0.43710595703125,0.3712590782344341,-0.5534519209012388,-1.330780401727557,0.0811261236667633,0.100807636976242,-0.3128610849380493
1774470633474134300,0.44713427734375,0.5727630628317594,-0.7691121488839388,-1.6068042052581906,0.1553731262683868,0.2739365994930267,-0.3853783905506134
1774470633484161000,0.4571611328125,0.735565853112936,-0.7105211359664797,-1.985546624985337,0.2979281544685364,0.5549951791763306,-0.4589905738830566
1774470633494188000,0.46718798828125,1.12631464471519,-0.6573886807158589,-2.0989292585372925,0.3749403655529022,0.7802791595458984,-0.5242234468460083
1774470633504215000,0.477215087890625,1.559503232640028,0.0444976056352257,-1.355724873369932,0.3727605938911438,0.7691109776496887,-0.611297607421875
1774470633514242000,0.487241943359375,1.2324392699629068,1.083419213579595,-0.950176352846995,0.4077256321907043,0.5336053967475891,-0.6400543451309204
1774470633524269000,0.49726904296875,0.4915536831319332,1.1540367643773557,-1.5304431423723697,0.3423024117946625,0.3120218515396118,-0.4980361759662628
1774470633534296000,0.507296142578125,0.0984574516206979,0.8176496775597334,-1.580866630925238,0.2798842191696167,0.370547741651535,-0.227545291185379
1774470633544323300,0.5173232421875,0.0932967078566551,0.8882064380809664,-1.8401444668382403,0.2716273665428161,0.5572465658187866,0.0836059376597404
1774470633554350000,0.52735009765625,0.1783978342980146,0.8413377194002271,-1.7733455975458026,0.301839143037796,0.5100095272064209,0.3349977135658264
1774470633564377000,0.537377197265625,-0.5245218867540359,0.9211334329098464,-1.3166735504418612,0.2998521625995636,0.2088779211044311,0.5190426707267761
1774470633574404000,0.547404052734375,-0.974430138811469,0.9354375603333116,-0.8563342130020261,0.2798620462417602,-0.155148297548294,0.6400521993637085
1774470633584431000,0.55743115234375,-0.8653723827213048,0.9334718132182956,-0.2215914446625858,0.3380227982997894,-0.3364776372909546,0.6436246037483215
1774470633594458000,0.5674580078125,-0.150657009935379,0.7658525625661015,-0.1569263725284486,0.4311963319778442,-0.4674380123615265,0.4081686735153198
1774470633604486000,0.57748583984375,0.0868155291438102,0.7527423211023211,-0.2922362487934529,0.5115801095962524,-0.4601257741451263,-0.015683801844716
1774470633614513200,0.58751318359375,0.2338373974472284,0.835975900106132,-0.7524212724544107,0.5978083610534668,-0.3563220500946045,-0.5168536901473999
1774470633624540200,0.5975400390625,0.6221060626715421,0.6721016812011599,-1.205892331559956,0.6422693133354187,-0.3267692029476166,-0.9269711375236512
1774470633634567000,0.60756689453125,0.9782342072695492,0.6349056307509541,-1.5439898755572736,0.6261594891548157,-0.3372374773025512,-1.156286597251892
1774470633644594200,0.61759423828125,1.2750620216369628,0.8182765772864222,-1.7949565408512949,0.6136910915374756,-0.3639625608921051,-1.1460638046264648
1774470633654621200,0.62762109375,1.2100871529012918,0.7885849111169576,-2.0265670560292897,0.5259138345718384,-0.3758295774459839,-0.9200973510742188
1774470633664648000,0.63764794921875,0.4020125284165143,0.9185814103394746,-2.306071979673952,0.3431054353713989,-0.5428609251976013,-0.453694999217987
1774470633674675000,0.647675048828125,0.0419897144675254,0.8667851721286773,-1.959084734517336,0.3269007205963135,-0.7472732067108154,0.0257496014237403
1774470633684702200,0.6577021484375,-0.4120324026495218,0.854890736195445,-2.130012232934684,0.494447112083435,-0.9593995809555054,0.4173341691493988
1774470633694729200,0.667729248046875,-0.4554349065244197,1.3003037226602434,-2.102592749480903,0.7690547108650208,-1.2803975343704224,0.7463651895523071
1774470633704756000,0.677755859375,-0.7551601958990096,1.343664140959084,-2.096298617772758,1.005085825920105,-1.3741860389709473,1.0312211513519287
1774470633714783200,0.687783203125,-0.0520423219263553,0.9300184578940272,-2.0209848719827828,1.161365270614624,-1.5176576375961304,1.022516846656799
1774470633724811000,0.69781103515625,-0.5191109676212072,0.423576417709887,-1.6534586966663598,1.2005853652954102,-1.5609148740768433,0.7527886629104614
1774470633734838000,0.707838134765625,-0.9289993439793586,0.4329179542899131,-1.9063392327576876,1.082311511039734,-1.450875759124756,0.3061301708221435
1774470633744865300,0.717865234375,-0.4080652525842189,0.42021366327852,-2.341371694983542,0.8995597958564758,-1.2892099618911743,-0.2793087959289551
1774470633754892000,0.72789208984375,-0.182431035336852,0.2403212065085768,-2.737355172368884,0.712258517742157,-1.1343616247177124,-0.9022133350372314
1774470633764919000,0.7379189453125,0.2260457206577062,0.3639367725223302,-3.0816578546166418,0.5738388895988464,-1.0508095026016235,-1.5148553848266602
1774470633774946300,0.7479462890625,-0.1194523088544607,1.0118819175884126,-3.271052591486275,0.467640608549118,-0.9714356660842896,-1.8697258234024048
1774470633784973000,0.75797314453125,-0.2722334713369608,1.5857280994817613,-3.4343554402440786,0.3560107350349426,-1.261936068534851,-1.818197965621948
1774470633795000000,0.768,-0.9261427855044604,2.011373432420194,-3.171300716140866,0.4154091477394104,-1.554072618484497,-1.4766396284103394
1774470633805027000,0.778027099609375,-1.1401233898371457,2.8848908354133367,-3.412222518891096,0.7367832064628601,-1.864377737045288,-1.0072771310806274
1774470633815054000,0.78805419921875,-1.0687579432815313,3.5864892447337504,-3.3757436767995355,1.1807219982147217,-2.457731008529663,-0.5187531113624573
1774470633825081000,0.7980810546875,-1.166247426652908,3.949310457229614,-2.6925907324910163,1.828770637512207,-3.0858194828033447,-0.1313153803348541
1774470633835108000,0.808108154296875,-1.3201993864804509,4.382844497591257,-2.110027575656772,2.518096923828125,-3.384026288986206,0.1166290491819381
1774470633845136100,0.81813623046875,-1.5094003543436527,4.579236838263273,-1.8790648568630215,3.103102445602417,-3.383444309234619,0.1842816025018692
1774470633855163100,0.8281630859375,-1.450719032794237,4.884522392113507,-2.0881793164640663,3.599069118499756,-3.202310800552368,0.0676415041089057
1774470633865190100,0.838190185546875,-1.2519874355196952,5.372849222153425,-1.6813284081056714,4.108741283416748,-3.1318776607513428,-0.0364614576101303
1774470633875217200,0.848217041015625,-0.6241285084098577,5.214882181465626,-1.1873796465307471,4.471373081207275,-3.232436180114746,-0.0885570719838142
1774470633885244200,0.858244140625,0.37303836286664,5.442863254100084,-0.4265624477833509,4.761934280395508,-3.458197116851806,-0.1835344582796096
1774470633895271200,0.868271240234375,1.1068763692736625,5.86915506824851,0.2611392458707094,4.8191399574279785,-2.995161771774292,-0.5057348012924194
1774470633905298000,0.8782978515625,3.221564337956905,8.411682665044069,0.506505753070116,4.998613357543945,-2.7332241535186768,-1.1056935787200928
1774470633915325200,0.8883251953125,3.3917589920550584,8.243135193631053,0.6832780319929123,5.394352912902832,-2.8744027614593506,-1.7939417362213137
1774470633925352200,0.898352294921875,1.2425292868226765,5.714208836686611,0.4827174657255411,5.867304801940918,-3.3628406524658203,-2.5225789546966557
1774470633935379000,0.90837890625,-0.9693184948861598,4.129680176122486,0.6988602165281772,6.398850917816162,-3.9714651107788086,-3.1674046516418457
1774470633945406200,0.91840625,-3.559484625691175,3.643794601754844,2.360832474517822,7.330932140350342,-5.02561616897583,-3.822575569152832
1774470633955433200,0.92843310546875,-7.897781541025638,2.179414123354852,2.780988562390208,8.436415672302246,-5.972143650054932,-4.537174224853516
1774470633965460000,0.9384599609375,-12.023383800184726,-0.3177022600919008,3.18595292634964,9.321712493896484,-4.77412748336792,-4.3509674072265625
1774470633975488300,0.94848828125,-8.290234213936328,0.6568173105686903,5.283372949367761,9.567105293273926,-3.1198570728302,-3.850827217102051
1774470633985515000,0.958514892578125,-7.287492172876,1.598038130478561,1.825089521047473,9.05392837524414,-2.552574157714844,-3.155545711517334
1774470633995542000,0.9685419921875,-15.143765060949324,2.818770011512935,0.7154951249867677,8.268571853637695,-1.7089685201644895,-2.1671934127807617
1774470634005569000,0.978569091796875,-16.729714401966334,2.9820600007891653,-0.3179021665781736,7.585238933563232,-0.6775897741317749,-0.98195481300354
1774470634015596000,0.988595947265625,-17.28162698447108,-0.2677519420087337,-1.7121920406639577,7.124965667724609,0.6278141736984253,0.1214615777134895
1774470634025623000,0.998623046875,-18.695299019896986,-4.385699302500486,-3.476628647828102,6.639238357543945,2.387143850326538,0.7999194860458374
1774470634035650000,1.008650146484375,-19.59448073323965,-6.9218275536477565,-5.404117636120319,6.002885341644287,4.399839401245117,1.0313509702682495
1774470634045677300,1.01867724609375,-20.354165128564837,-8.110341172644496,-7.027523724350333,5.190295219421387,6.159643650054932,1.1430362462997437
1774470634055704000,1.0287041015625,-18.17134061224461,-9.425044884318114,-7.09944446670115,4.303404331207275,7.117736339569092,1.3498443365097046
1774470634065731000,1.03873095703125,-15.929683967727422,-10.58316161148548,-6.382542397525906,3.46770977973938,7.406311511993408,1.7434017658233645
1774470634075758000,1.048758056640625,-13.203635202270746,-10.346392836761474,-5.852923479893804,2.814028024673462,7.28225564956665,2.0965769290924072
1774470634085785000,1.05878515625,-11.456596304631232,-9.684268067434427,-6.521087529385089,2.283622980117798,6.984029293060303,2.2170727252960205
1774470634095813000,1.068813232421875,-9.773889886170624,-9.17644597106874,-6.529194847995043,1.877349019050598,6.744706630706787,2.1327223777771
1774470634105839900,1.07883984375,-7.569469039592146,-8.790896501675247,-6.718233903294801,1.6434956789016724,6.813287258148193,1.9052541255950928
1774470634115867100,1.0888671875,-5.013236742570996,-9.028132893911003,-7.049082060685754,1.4295719861984253,6.85967493057251,1.540913701057434
1774470634125894100,1.09889404296875,-3.3411195226639507,-8.640933319222926,-7.3687769558995955,1.064143180847168,6.740566730499268,1.1826492547988892
1774470634135921000,1.1089208984375,-2.0196441248983144,-7.011867305535078,-7.723238044068217,0.6567114591598511,6.625945091247559,0.9538842439651488
1774470634145948200,1.1189482421875,0.033797640183568,-6.331106224799155,-8.510568571209907,0.2347958981990814,6.426824569702148,0.7934064269065857
1774470634155975200,1.12897509765625,1.92656953535974,-6.147893099173903,-9.218221166002747,-0.2430792301893234,6.0696282386779785,0.5712293982505798
1774470634166002000,1.139001953125,3.0443291176974774,-5.277244821876288,-10.135809473651648,-1.3142998218536377,5.882606029510498,-0.0980368107557296
1774470634176029000,1.14902880859375,4.190753068983555,-3.3209909268707034,-10.766638356482982,-2.1768078804016118,5.1383867263793945,-1.3595565557479858
1774470634186056200,1.15905615234375,3.2921243133485314,-2.8966701205343006,-11.983769582676889,-2.763211965560913,4.614047527313232,-2.6695377826690674
1774470634196083000,1.1690830078125,1.8688059131771324,-3.171518742805719,-13.45318513263464,-3.801152229309082,4.34046745300293,-4.155993938446045
1774470634206110000,1.17910986328125,0.2866723310559987,2.7413936341047287,-13.96680451710224,-4.121819019317627,3.957197904586792,-5.510412693023682
1774470634216138200,1.18913818359375,-3.2912159663319587,2.828067124429345,-14.404722471636532,-3.399684190750122,4.234551429748535,-6.052363872528076
1774470634226165000,1.1991650390625,-2.655904385128617,3.446071597000957,-15.832999370998143,-2.1245603561401367,4.904129981994629,-5.589071273803711
1774470634236192000,1.20919189453125,0.5333259554564953,0.2891027730733156,-17.499159143805503,-1.374228835105896,5.26718282699585,-4.197185516357422
1774470634246219300,1.21921923828125,3.0236960795134302,-0.2040209358543157,-14.129364730799198,-1.4265940189361572,4.932984352111816,-2.3124008178710938
1774470634256246000,1.22924609375,5.0095606844067575,2.596813898256421,-11.470376992702484,-1.7632545232772827,4.177593231201172,-0.55952388048172
1774470634266273000,1.23927294921875,4.8433711742967365,1.6240911478847264,-9.113366122299432,-2.163073301315308,3.4748764038085938,0.4594665467739105
1774470634276300000,1.249300048828125,4.376192930747568,1.900916623187065,-6.490702327993512,-2.406911611557007,2.6922543048858643,0.4449594020843506
1774470634286327000,1.2593271484375,2.797317181378603,3.232309019333124,-3.611607027116418,-2.108290910720825,1.694739580154419,-1.0281943082809448
1774470634296354000,1.26935400390625,0.8680290347099303,7.038183650052547,-1.259024202288687,-1.1100728511810305,0.4406420886516571,-3.0905866622924805
1774470634306381000,1.279381103515625,0.3340180195987224,11.67491990660429,1.1075795491069556,-0.3356109261512756,-0.4921348690986633,-3.1783223152160645
1774470634316408000,1.289407958984375,2.4471239797875284,9.422488185572623,3.395730233773589,-0.1862832903861999,-1.2263931035995483,-1.7216814756393433
1774470634326435000,1.29943505859375,5.283372949367761,3.5186849977910515,3.573191371743381,-0.3358024954795837,-1.9016034603118896,-0.4153964221477508
1774470634336462000,1.309462158203125,6.745792356827855,1.282400693961978,1.845988808952272,-0.3999875783920288,-2.3860983848571777,-0.0353317745029926
1774470634346490000,1.319489990234375,4.90694260597527,0.5169786317676306,-1.0320604900032282,-0.1026022583246231,-2.1773030757904053,-0.159531220793724
1774470634356517000,1.32951708984375,4.01323143299818,-0.869728824365139,-3.3209555632963776,0.5003048777580261,-1.5752029418945312,-0.2366726845502853
1774470634366544100,1.339544189453125,3.753410868510604,-2.4890391677141186,-4.280569241248071,1.036064386367798,-1.013789415359497,-0.3330950736999511
1774470634376571000,1.34957080078125,3.106144937880337,-3.2376568101018663,-4.789331248812378,1.2965556383132937,-0.6420788764953613,-0.6539109945297241
1774470634386598100,1.35959814453125,1.888956428541243,-3.728395085197687,-5.806769046962261,1.220741629600525,-0.5114787817001343,-1.158793807029724
1774470634396625200,1.369625244140625,0.2250453114435076,-5.2270618640810245,-6.271691328278184,0.9288092851638794,-0.3695396184921264,-1.7649768590927124
1774470634406652000,1.37965185546875,-1.02372053168118,-5.001453950318694,-5.269793336826562,0.812952995300293,-0.5612121820449829,-2.3326284885406494
1774470634416679200,1.38967919921875,-1.0002242130205037,-1.7204834836691616,-2.767737743411958,0.5125575065612793,0.5685992240905762,0.3621273040771484
1774470634426706200,1.3997060546875,-1.1510524878695607,3.105792763441801,-0.8310358133554459,0.7716428637504578,-1.356135010719299,0.523847758769989
1774470634436733000,1.40973291015625,-7.191005729067325,5.741469768577813,0.9488169741272926,1.008536458015442,-1.6418898105621338,0.6296981573104858
1774470634446760200,1.41976025390625,-0.5894540853917598,8.10455148332715,1.0040075309515,1.3868321180343628,-1.8706694841384888,0.3160438537597656
1774470634456787200,1.429787109375,-2.3594889509543777,3.0249668301016093,0.7782242606222629,1.463541030883789,-1.6850786209106443,-0.1646708995103836
1774470634466814000,1.43981396484375,-2.5423840966716407,3.156817432758212,0.4647413717910647,1.167749524116516,-1.2662153244018557,-0.4569605588912964
1774470634476841000,1.449841064453125,-1.2052297759979962,1.1036141526073218,0.5948325635597109,0.9371962547302246,-0.841135561466217,-0.471491277217865
1774470634486869000,1.459868896484375,-0.1592363299712538,-0.606322802606225,-0.2183931600779294,1.0234235525131226,-0.3846924304962158,-0.342377245426178
1774470634496896000,1.46989599609375,0.7350482589796185,-1.453395558527112,-1.2969804234564304,1.081795573234558,-0.1708578467369079,-0.2050869762897491
1774470634506923000,1.479923095703125,1.2196306417942049,-0.1120668747782707,0.0813461578220128,1.021953582763672,-0.2040163278579712,-0.1532080620527267
1774470634516950000,1.489949951171875,0.0590364185974001,0.9090501964062452,0.7843763535112143,0.9728103280067444,-0.2094248086214065,-0.2102375328540802
1774470634526977000,1.49997705078125,-0.4305313514143228,0.340197585016489,1.1573989342868327,0.8239872455596924,-0.231392964720726,-0.2609544992446899
1774470634537004000,1.510004150390625,-0.2992939122200012,0.7507774507701397,1.8188418588295576,0.6904499530792236,-0.2966988384723663,-0.2454700917005539
1774470634547031000,1.520031005859375,-0.0772226481512188,1.4229197562426328,2.2892159758105874,0.591332733631134,-0.3229424357414245,-0.1189536899328231
1774470634557058000,1.53005810546875,0.7287272392645477,1.9677964487612247,2.2408614024862645,0.6374367475509644,-0.2496585696935653,-0.0255850460380315
1774470634567085000,1.5400849609375,1.6311299604803322,1.5296522842556235,1.1860919448077678,0.7185614705085754,-0.1280716657638549,-0.1315564811229705
1774470634577112000,1.550112060546875,1.4014257173150777,0.1731809764325618,0.0912272081062197,0.8522752523422241,-0.0293337851762771,-0.4581520557403564
1774470634587139000,1.56013916015625,0.0452560227870941,-1.2217442729473114,-1.0021507971689103,1.074635624885559,0.0539129003882408,-0.8762512803077698
1774470634597166000,1.570166015625,-1.0785510230213402,-2.4013562080860136,-1.905003015717864,1.177478551864624,0.071017600595951,-1.2722375392913818
1774470634607193900,1.58019384765625,-1.381247729422152,-3.245526228302717,-1.9190847325623035,0.8997225761413574,-0.019028402864933,-1.5107343196868896
1774470634617221000,1.59022119140625,-1.470932822652906,-3.731452134680748,-1.0117141598060726,0.3946682512760162,-0.167809784412384,-1.573266625404358
1774470634627248000,1.600248046875,-1.5639144732110202,-3.5676679321467875,0.0858569132447242,-0.1680944412946701,-0.5633906126022339,-1.3512834310531616
1774470634637275000,1.61027490234375,-2.189880718442053,-4.25133759380579,-0.253521464343369,-0.7954103946685791,-0.882699728012085,-1.0297967195510864
1774470634647302100,1.62030224609375,-2.472007953414321,-4.841691842907667,-0.5391892945319414,-1.5506176948547363,-0.7812207937240601,-0.8855242133140564
1774470634657329200,1.6303291015625,-2.946114827182889,-5.530474902057647,-1.0019424151152372,-2.534156084060669,0.3747908473014831,-1.1354000568389893
1774470634667356000,1.64035595703125,-1.7355732085123656,-5.019624397781491,0.4366697080388665,-3.0209875106811523,1.6178947687149048,-1.7533202171325684
1774470634677383000,1.6503828125,-0.9554225098721684,-3.340143955630064,1.0019733947753906,-3.267670154571533,2.4570024013519287,-2.3116228580474854
1774470634687410200,1.66041015625,-0.83361574684605,-1.213790683594346,1.0166367109000682,-3.2692320346832275,2.6225216388702397,-2.5900180339813232
1774470634697437000,1.67043701171875,-0.8844482545912266,-1.0300532418340445,0.4531576092422008,-3.2211391925811768,2.581254005432129,-2.5374927520751958
1774470634707464000,1.6804638671875,0.334904739305377,-0.513147090780735,0.4957914668321609,-3.058253526687622,1.9380066394805908,-2.2614431381225586
1774470634717491200,1.6904912109375,0.8681365136723965,0.4827607203453778,0.2415156769901514,-2.836728572845459,0.7366148233413696,-1.7547932863235474
1774470634727518200,1.700518310546875,0.1848503714382648,1.7661165230751037,-0.8346265313237905,-2.855897188186645,-0.4622300565242767,-1.1271328926086426
1774470634737545000,1.710544921875,0.6592956833809613,1.5290876361101864,-1.1145882588252425,-3.167182922363281,-1.32426655292511,-0.5870927572250366
1774470634747573200,1.7205732421875,0.831464267900586,0.9011872079461812,-1.708450954439491,-3.847673177719116,-1.3939143419265747,-0.1097445860505104
1774470634757600000,1.73060009765625,1.8937264194220305,-0.3443085274666547,-2.8007591385260224,-4.941600799560547,-0.8478891253471375,0.3297910094261169
1774470634767627000,1.740626953125,3.2820407262295483,-2.422954291909933,-3.674470310525596,-5.423550128936768,-0.0457604564726352,0.6814725995063782
1774470634777654300,1.750654296875,3.687499595707655,-3.5676503964900967,-5.380893412399292,-4.75527811050415,0.5270241498947144,0.7730080485343933
1774470634787681000,1.760680908203125,3.905755977663397,-0.898815218117833,-6.153063195288181,-3.444866180419922,0.1034992486238479,0.38954558968544
1774470634797708000,1.7707080078125,3.653520169216394,3.320712694451213,-5.753648866671323,-2.2050704956054688,-1.0190157890319824,-0.1489130854606628
1774470634807735000,1.780735107421875,1.5678274088710549,5.246250548675656,-5.134967517751455,-1.8351396322250368,-1.7532987594604492,-0.318053126335144
1774470634817762000,1.790761962890625,0.5354605928650126,3.476306576266885,-4.362007169006764,-2.4586102962493896,-2.114027738571167,-0.1875402480363845
1774470634827789000,1.8007890625,-1.1399795974522828,2.042804635733366,-2.341002569410205,-3.203040361404419,-2.0201985836029053,0.1992127895355224
1774470634837816000,1.810816162109375,-2.1086592099130157,1.50073306376338,-0.6175071905739605,-3.4316246509552,-1.1814979314804075,0.4128456115722656
1774470634847843000,1.820843017578125,-2.5995523833096024,1.0513292540967465,0.0062412324771285,-3.327293634414673,-0.0782408192753791,0.0773120820522308
1774470634857870000,1.8308701171875,-2.8156793520212173,0.6880284413903951,0.5414329818055034,-3.265674114227295,0.6519678235054016,-0.6016356945037842
1774470634867897000,1.84089697265625,-3.5151807890623807,-0.0476151531338691,0.4354861973427236,-3.3650527000427246,0.8902056813240051,-1.3938515186309814
1774470634877925000,1.850925048828125,-1.870278908339143,-1.2842477831333874,0.4163420825421809,-3.4190173149108887,0.1458628177642822,-1.98779821395874
1774470634887952100,1.8609521484375,-1.429040284949541,-1.6892203303992748,0.9137599815323948,-3.331232070922852,-0.6682143807411194,-2.0149641036987305
1774470634897979100,1.870979248046875,-0.3702010936141013,-0.2917588405400514,1.82462833327651,-3.2218902111053467,-1.0202311277389526,-1.535770297050476
1774470634908006000,1.881005859375,-0.3210883953988552,-0.1754506749302148,3.508247774928808,-3.005825996398926,-0.8279923796653748,-0.7820154428482056
1774470634918033200,1.891033203125,-0.993462756061554,0.658569122672081,4.781240296815335,-2.5870261192321777,-0.4503101110458374,-0.1168662831187248
1774470634928060200,1.90106005859375,-2.5595336766541004,0.8531430157452822,5.044992063271999,-2.0027072429656982,-0.3667083978652954,0.3714072704315185
1774470634938087000,1.9110869140625,-3.117900549864769,1.26708505140841,4.174693330064415,-1.4440151453018188,-0.5059636831283569,0.6297468543052673
1774470634948114200,1.9211142578125,-3.285588189578056,1.2604331923037766,2.765221961198747,-1.2260061502456665,-0.3551773726940155,0.6489256024360657
1774470634958141200,1.93114111328125,-3.119589818125963,1.1531880385935307,3.2558401170462368,-1.2052860260009766,-0.1739607006311416,0.7452995777130127
1774470634968168000,1.94116796875,-1.951311762428284,1.6608277641296385,3.778711313983798,-1.27566397190094,0.0030058184638619,0.9502577781677246
1774470634978195000,1.95119482421875,0.1332511171042919,0.4560609294682741,3.9445539103522895,-1.3609869480133057,-0.0384703949093818,1.180064678192139
1774470634988222200,1.96122216796875,2.029355956095457,-0.2387532265394926,3.0076664434716105,-1.4104626178741455,-0.233987957239151,1.119625210762024
1774470634998250000,1.97125,1.824633009451628,0.5775432828456163,1.4459399818241596,-1.505181908607483,-0.3459846377372741,1.0022284984588623
1774470635008277000,1.981277099609375,0.4183335486203431,0.0085708444684743,0.0349406727388501,-0.9738520979881288,-0.6610475182533264,0.5271301865577698
1774470635018304000,1.991303955078125,-1.5122376235961914,1.0030880780190228,-3.0734464911103245,-1.0370078086853027,-1.3573215007781982,0.0180373489856719
1774470635028331000,2.0013310546875,-3.2291420797348023,1.7101596580535172,-2.2256074269920587,-0.9006024599075317,-0.8560605049133301,0.664677619934082
1774470635038358000,2.01135791015625,-1.357152275824547,1.2313877150833603,1.493120250672102,-0.6132058501243591,-0.8844597339630127,0.973154604434967
1774470635048385000,2.021385009765625,-1.025885600760579,3.410795116436481,-1.4649708455085753,-0.3572065532207489,-1.3815090656280518,0.7517228722572327
1774470635058412000,2.031412109375,-1.9092355387210844,2.283402613356709,-2.602826874935627,-0.0760901346802711,-1.428435206413269,0.4862660765647888
1774470635068435000,2.04143505859375,-1.203541676780581,2.0075275706470013,-3.263571003559232,0.2205825448036193,-1.3664754629135132,0.3812733590602875
1774470635078462000,2.0514619140625,0.0639209757685661,1.3385919522613283,-2.7296973510921,0.4575394093990326,-1.5463377237319946,0.5674000978469849
1774470635088489000,2.061489013671875,0.8575637547969818,0.5617910024404525,-2.1731220374733207,0.6605191826820374,-1.5642938613891602,0.8810336589813232
1774470635098516000,2.071515869140625,1.473196237540245,-0.1249316170483827,-2.671986335879564,0.9094217419624328,-1.3694969415664673,1.0057307481765747
1774470635108543000,2.08154296875,1.343759125766158,-0.7399269709318875,-4.626513260962069,1.1921592950820925,-1.3660385608673096,0.9070932865142822
1774470635118570000,2.091570068359375,0.1453612416148185,-0.4805389526426792,-5.540944273623824,1.4021978378295898,-1.387601017951965,0.7803394794464111
1774470635128598000,2.101597900390625,-0.5520768331557512,0.6510819817870855,-3.8926004357531663,1.5788182020187378,-1.383777737617493,0.7134667038917542
1774470635138625000,2.111625,-0.9975625925958156,1.7014041046679018,-2.318719133670628,1.7756342887878418,-1.3000353574752808,0.6930122971534729
1774470635148652000,2.121652099609375,-1.666613946315646,2.655931273135543,-1.0191785043373702,1.995001554489136,-1.1137927770614624,0.7303772568702698
1774470635158679000,2.131678955078125,-2.9574662422806024,1.2082494160801172,-0.2298024428427219,1.938604474067688,-0.6917985677719116,0.7554319500923157
1774470635168706000,2.1417060546875,-2.925291819384694,-0.1871995649129152,2.083957607115805,1.5966033935546875,-0.3574932515621185,0.7609795928001404
1774470635178732800,2.15173291015625,-1.6790625090003013,1.4991846652776002,4.918647656816244,1.0154112577438354,-0.5923001766204834,0.7077118754386902
1774470635188760000,2.161760009765625,-0.7355921565979718,2.0131740521013737,6.480006161934137,0.3121154606342315,-1.270412564277649,0.5179997086524963
1774470635198787000,2.171787109375,0.3716448626816273,0.4330997405976057,6.768164932155608,-0.4200750589370727,-1.2657207250595093,0.513927698135376
1774470635208813800,2.181813720703125,3.670327511632442,0.4782417816162109,5.527511376076936,-0.8659170269966125,-0.867060124874115,0.8972471356391907
1774470635218841000,2.191841064453125,4.742479773527384,0.3389437855631113,2.308041672311723,-0.910313069820404,-0.6743956208229065,1.4402227401733398
1774470635228868000,2.2018681640625,3.200669433966279,-0.2089741743475198,-1.5696154613316058,-0.5428035259246826,-0.9023084044456482,1.8881800174713133
1774470635238895900,2.211895751953125,0.7281552845954895,-2.6105653602331875,-5.713172479376197,0.2171330451965332,-1.4604322910308838,1.984889388084412
1774470635248923100,2.221923095703125,-2.7212726370960474,-5.20381309044063,-7.771601385220885,0.9716126918792723,-1.7174789905548096,1.5017712116241455
1774470635258950000,2.231949951171875,-5.149908481773734,-5.44945432292819,-6.535049419242143,1.3550668954849243,-2.317218065261841,-0.0250146985054016
1774470635268977000,2.241976806640625,-8.939393118706345,-1.7959768238097429,-3.197489634886384,1.2748302221298218,-1.886749267578125,-1.60713791847229
1774470635279004000,2.25200390625,-9.64226841609478,2.132201413542032,1.6523068962827323,0.7332555055618286,-1.6189351081848145,-2.4495842456817627
1774470635289031000,2.262031005859375,-5.17339632486701,3.1329648480057712,5.361898789072036,0.0309876706451177,-1.306973934173584,-2.638704776763916
1774470635299058000,2.272057861328125,-1.03073304079175,1.573721727606654,6.144995624166727,-0.8017244338989258,-1.2505757808685305,-2.3376588821411133
1774470635309085000,2.2820849609375,2.6296704581975936,1.861224079746008,4.924090140131115,-1.42067289352417,-1.2609800100326538,-1.7598525285720823
1774470635319112000,2.29211181640625,4.3257238494873045,1.7613287042766808,3.626390170228481,-1.72870934009552,-1.0193006992340088,-1.1247985363006592
1774470635329139000,2.302138916015625,5.72676202878952,0.8386690847128629,2.3828213112249967,-1.8887466192245483,-0.8801274299621582,-0.5407545566558838
1774470635339166000,2.312166015625,5.381581979185342,1.0557628526300191,1.0349699477091432,-1.8809462785720823,-0.9436397552490234,-0.0613581463694572
1774470635349194000,2.322194091796875,3.4623300733625886,0.9045628218591212,-0.3400242742761969,-1.8123424053192136,-1.1696118116378784,0.297403484582901
1774470635359221000,2.332220947265625,1.0812883390307426,0.3875982186168432,-0.5975505903467535,-1.7719684839248655,-1.225824236869812,0.5505623817443848
1774470635369248000,2.342248046875,-0.4435447814401239,0.4982838681697845,-0.9315811771661042,-1.6594529151916504,-0.8940463066101074,0.5831363201141357
1774470635379275000,2.35227490234375,-1.6918717216908932,-0.3176584209501743,-0.5194263171806931,-1.5717509984970093,-0.261713296175003,0.3093198835849762
1774470635389302000,2.362302001953125,-2.442288960846513,0.352525151669979,1.0848562606453895,-1.6183528900146484,0.0111637720838189,-0.0168374422937631
1774470635399329000,2.3723291015625,-2.20502918773517,0.9643447981268168,1.8635446316480635,-1.668427586555481,0.0067728264257311,-0.1860044300556183
1774470635409355800,2.382355712890625,-0.7380231831371784,0.7258148589491844,1.350790339577198,-1.641751050949097,-0.1179994717240333,-0.1547277271747589
1774470635419383000,2.392383056640625,0.9050058894515036,0.5385860679417849,1.2214081728607415,-1.5288009643554688,-0.3185219764709472,0.0011955182999372
1774470635429410000,2.40241015625,1.1063291837196796,-0.3056114248037338,0.6244307062268257,-1.3984037637710571,-0.3010039627552032,0.2788577377796173
1774470635439436800,2.412436767578125,1.079831856612116,-1.0296142658948897,0.8175602457106113,-1.351698398590088,-0.2338102459907531,0.6460398435592651
1774470635449464000,2.422464111328125,1.22492188007012,-1.1139122592598198,1.9871096365183591,-1.4182134866714478,-0.1663119047880172,1.0181940793991089
1774470635459491000,2.432490966796875,1.0960113494534045,-1.547218336084485,2.645698632934689,-1.4916905164718628,0.0064458730630576,1.375885248184204
1774470635469518800,2.442518798828125,0.9907715442162006,-1.2278601254791022,2.689582782846689,-1.377355933189392,0.1664789468050003,1.7377854585647583
1774470635479546000,2.452546142578125,1.1143127298194917,-0.4478448897868394,2.430405776959657,-1.0808687210083008,0.2660853266716003,2.2372069358825684
1774470635489573000,2.462572998046875,1.7045009016394614,-0.0041331542819738,2.2968881178736686,-0.7151394486427307,0.3792739510536194,2.896667242050171
1774470635499600000,2.472599853515625,3.86317414252162,0.6874959419488906,2.421380174461007,-0.3150181770324707,0.1226719617843627,3.5329599380493164
1774470635509627000,2.482626953125,6.331309053894877,1.2126555420845746,2.6023440598547456,0.0628026276826858,-0.0586323142051696,3.8027150630950928
1774470635519654100,2.492654052734375,6.31696137959063,2.1392279511779546,2.092584857946634,0.2826821804046631,0.4484725892543793,3.7202537059783936
1774470635529681000,2.502680908203125,4.980654907917976,2.7948312097817656,1.729042053177953,0.4365087449550628,1.155551195144653,3.45491623878479
1774470635539708000,2.5127080078125,4.462769682699442,2.022369750469923,0.3266279093474149,0.6807706356048584,1.5771710872650146,3.0872998237609863
1774470635549735200,2.522735107421875,4.523858649912476,0.5069622646659613,-2.8653099366307258,1.2531790733337402,1.6788979768753052,2.6312880516052246
1774470635559762000,2.532761962890625,2.360376693574339,0.7683908488720655,-7.027130925640464,2.3600990772247314,1.403618335723877,2.5383167266845703
1774470635569789000,2.542788818359375,-2.234825629453361,-2.0253864679425955,-9.190165284341573,3.4468140602111816,0.0925906673073768,2.784453868865967
1774470635579816000,2.55281591796875,-2.2190851856164637,-6.989101931497454,-5.889101877734065,3.583207368850708,-1.368772029876709,3.0268876552581787
1774470635589844000,2.562843994140625,-3.144290544140339,-6.611183979895711,-0.9851210441738366,3.1125683784484863,-2.513114213943481,3.192523956298828
1774470635599871000,2.57287109375,-4.343429017525911,-3.896659063494205,1.641479212798178,2.6673367023468018,-3.170175313949585,3.062320709228516
1774470635609898000,2.58289794921875,-5.725590062400698,-1.7739754198819395,2.7989398141443727,2.399159669876098,-3.219078779220581,2.400258779525757
1774470635619925000,2.592925048828125,-6.291912863051891,-1.1700965032964945,2.710407836471498,2.3264598846435547,-2.7526021003723145,1.3806474208831787
1774470635629952000,2.602951904296875,-5.629494079214334,-1.032456211322546,1.872798197683692,2.2900469303131104,-2.130647897720337,0.6041024923324585
1774470635639979000,2.61297900390625,-3.6262680051535368,-0.5293073674649,1.9503937708005308,2.09083104133606,-1.869443416595459,0.5274689793586731
1774470635650006000,2.623006103515625,-0.7076052485197782,1.3203279812961817,2.261167400673032,1.70015549659729,-1.7138460874557495,1.0393623113632202
1774470635660033000,2.633032958984375,2.674243174895644,2.8929192435681816,2.93647080052495,1.2723063230514526,-1.2699517011642456,1.610077977180481
1774470635670060000,2.64306005859375,6.068221012043953,3.5348955433577296,2.682551276774704,1.2089684009552002,-0.9465634226799012,1.925766944885254
1774470635680087000,2.653087158203125,5.995688859796524,2.528274615037441,0.2939490440607071,1.3694398403167725,-0.4776904582977295,2.211547613143921
1774470635690114000,2.663114013671875,5.1952311400562525,1.3628800058215855,-0.9273036459773778,1.6124184131622314,-0.0629193484783172,2.3869643211364746
1774470635700141000,2.67314111328125,3.878796951328218,0.6225999836683273,-1.77487032289505,1.830687880516052,-0.0474815517663955,2.497095823287964
1774470635710169000,2.683169189453125,1.6348136174291372,-0.6898743615180254,-2.5403596051067114,1.9078441858291624,-0.7126310467720032,2.5661935806274414
1774470635720196000,2.693196044921875,-0.9646534256845712,-0.9537854101896286,-2.053743670637905,2.019613027572632,-1.419546604156494,2.405308961868286
1774470635730222800,2.703222900390625,-4.218211861534416,0.2218511915773153,-1.6341913938775658,2.2232255935668945,-1.3084264993667605,1.7050963640213013
1774470635740249900,2.713249755859375,-6.07768091430664,2.446851300325989,-2.143574163688719,2.5590574741363525,-0.9138088822364808,0.7349839806556702
1774470635750277000,2.723277099609375,-6.983388230025768,2.9780799912422893,-2.340075517693162,2.9418301582336426,-0.6863113045692444,-0.0731088072061538
1774470635760303900,2.733303955078125,-6.863745951557159,1.5926356869131326,-2.162230933363736,3.1108531951904297,-0.6772133708000183,-0.453687459230423
1774470635770331000,2.743330810546875,-4.86731143733263,1.0952630883693697,-1.36926883007586,2.9778969287872314,-0.7614963054656982,-0.2575944066047668
1774470635780358100,2.753358154296875,-1.9101342411264777,1.896670071658492,0.143976509258151,2.8393750190734863,-0.9309234619140624,0.3846060931682586
1774470635790385000,2.763385009765625,0.27961101436764,2.8265672412604093,0.824887373728305,2.9518961906433105,-0.6633660793304443,0.9262160658836364
1774470635800412000,2.773411865234375,2.142591582392156,3.2661393927425144,0.5186062329694628,3.3115074634552,0.0321896784007549,1.1857951879501345
1774470635810439000,2.78343896484375,3.3401147295355798,3.92026088835597,0.1190938508056104,4.009764194488525,1.0109509229660034,1.5017939805984497
1774470635820466000,2.7934658203125,4.38997361881882,5.080962371319532,0.1505048150483518,4.828859329223633,1.690518498420715,1.9374531507492063
1774470635830494000,2.803493896484375,4.831334699544311,5.885886422818899,0.8663758606754243,5.723187446594238,1.6673351526260376,2.1182949542999268
1774470635840521000,2.81352099609375,3.603644669935107,5.082524798330664,2.0090093336373567,6.078619480133057,0.7630140781402588,2.426063299179077
1774470635850548000,2.8235478515625,2.878741080611944,3.5842537407666444,3.308348887440562,5.710740566253662,-0.3230571448802948,3.103101253509521
1774470635860575000,2.833574951171875,4.957935126587748,1.9491671516150235,4.724178977683186,4.854689121246338,-1.3973960876464844,4.175673961639404
1774470635870602000,2.84360205078125,6.368185370871425,-0.2078238352686166,4.066659948585928,3.5169477462768555,-1.6264681816101074,5.114596843719482
1774470635880629000,2.85362890625,8.269498884421587,-2.94432268306911,2.7439298745840786,2.2953941822052,-1.5954203605651855,6.080966472625732
1774470635890656000,2.863656005859375,9.425377477273344,-6.920003260830044,1.9049086154326795,1.4517744779586792,-2.107600212097168,7.30104923248291
1774470635900683000,2.87368310546875,8.975762655204534,-11.445097590017316,-0.9336620750933884,0.386633813381195,-3.4080469608306885,8.321803092956543
1774470635910709800,2.883709716796875,7.58710640309155,-14.291836097168922,-3.213585029640793,-0.985921323299408,-5.067354202270508,8.75471019744873
1774470635920737000,2.893737060546875,6.192857445538044,-15.448223808586595,-4.582429496824741,-2.4586336612701416,-6.282022953033447,8.067804336547852
1774470635930764000,2.903763916015625,4.790681786638498,-14.740568875706195,-4.78889811809212,-3.817785501480103,-6.424377918243408,6.361198902130127
1774470635940792000,2.9137919921875,3.0720442230969667,-8.802244994163512,-3.865484757551551,-4.309419631958008,-5.762299537658691,4.358588218688965
1774470635950819000,2.923819091796875,1.00605861826241,-2.6858631778016684,-3.2916531887054443,-3.61783766746521,-4.766730308532715,3.468219757080078
1774470635960845800,2.933845703125,1.1191834776610134,2.162625485639274,-4.416014361265302,-2.255185604095459,-3.360384225845337,3.9441146850585938
1774470635970872800,2.943872802734375,4.083892530676723,4.137974541737139,-5.087966697123647,-1.2692676782608032,-2.080934762954712,5.217382431030273
1774470635980900000,2.953900146484375,7.214808044937253,5.172728800868987,-2.7404277116820213,-0.9041646718978882,-1.5916378498077393,6.133801460266113
1774470635990927000,2.963927001953125,6.026497255036235,3.92257325695157,0.0666749506518244,-1.080504298210144,-1.727931261062622,6.214144706726074
1774470636000953900,2.973953857421875,2.532887661790848,2.4375633936293424,2.064651725882292,-1.394249677658081,-1.6346535682678225,5.730942726135254
1774470636010981000,2.983981201171875,-0.8728764747411012,2.519938456107676,1.3907318893432616,-1.45000958442688,-1.1059010028839111,5.231207370758057
1774470636021008100,2.994008056640625,-2.2530407928407192,1.7351856704995037,-0.2031029442265629,-1.3153165578842163,-0.6382052898406982,4.792956352233887
1774470636031035000,3.004034912109375,-3.356700538155436,1.7644290083795784,-0.1869546502411365,-0.9548179507255554,-0.8358384370803833,3.628673553466797
1774470636041062000,3.014061767578125,-8.383670038002728,2.6024317381381987,-0.5013894329696893,-0.3704542517662048,-0.9901615977287292,2.5062217712402344
1774470636051090000,3.02408984375,-8.835322503378986,4.168683275994658,-0.7193973931223153,0.4552255272865295,-0.2111537307500839,0.8520258665084839
1774470636061117000,3.034116943359375,-10.685188738286495,5.8311593918532125,0.5885179735854268,1.9722766876220703,1.0552668571472168,-0.7386285066604614
1774470636071144200,3.044144287109375,-11.180984881293773,5.229693381628394,-0.3188032070711254,3.858757257461548,1.2841804027557373,-1.416412115097046
1774470636081171200,3.054171142578125,-11.224977167755364,5.597772660782933,-2.3144158835187554,5.59491491317749,1.0135891437530518,-0.9621936678886414
1774470636091198200,3.0641982421875,-9.057714962226152,7.162997778201103,-1.4362810498580336,6.971297740936279,1.48629629611969,0.0538627877831459
1774470636101225200,3.07422509765625,-5.892013965788483,8.621935773286223,-0.498284744952619,7.963343620300293,2.67172908782959,0.7067356705665588
1774470636111252000,3.084251953125,-4.464424464169144,9.454290852546691,-1.021073085912317,9.461732864379885,2.7211647033691406,2.6874313354492188
1774470636121279200,3.094279296875,-5.27832209571898,4.690867659711837,-1.3720401944853364,9.910773277282717,3.1938748359680176,4.964478969573975
1774470636131306200,3.10430615234375,-1.0127554855525494,3.944549234177172,-2.3780457673862574,9.506847381591797,2.9797465801239014,6.676640033721924
1774470636141333000,3.1143330078125,-1.230470015716553,0.9618634296398608,-1.1468453915685417,8.390256881713867,2.961977005004883,7.477847099304199
1774470636151360300,3.1243603515625,-1.33829092348814,-3.438391563892364,-0.5427532706238329,6.308356285095215,2.733085870742798,7.610743045806885
1774470636161388000,3.134387939453125,-0.248392577022314,-4.500802183973789,-3.1792288787916303,3.5204365253448486,2.3658676147460938,7.341573715209961
1774470636171415000,3.1444150390625,2.430446693491936,-5.993798516005278,-4.170146042023599,0.6728733777999878,1.965226411819458,6.810705661773682
1774470636181442300,3.1544423828125,6.083763449090719,-8.639833833548426,-4.549547510181367,-1.9338679313659668,1.2868800163269043,5.986898422241211
1774470636191469300,3.16446923828125,7.325880647981166,-8.636333716472983,-7.75102036948502,-3.91499662399292,-0.0690838322043418,4.943510055541992
1774470636201496000,3.17449609375,6.675588939788937,-7.647156090384721,-10.338257461100817,-5.167971611022949,-1.5405813455581665,3.8749170303344727
1774470636211523300,3.1845234375,6.73300710953474,-6.044280164486169,-11.913898174071312,-5.699504375457764,-2.8769779205322266,3.020951271057129
1774470636221550300,3.19455029296875,7.163014144814014,-4.720389814533293,-12.892959479814769,-5.720077037811279,-3.6599626541137695,2.519613265991211
1774470636231577000,3.2045771484375,7.866404405987263,-3.62810749554038,-12.923325391983983,-5.50217866897583,-3.945122480392456,2.276633977890014
1774470636241604000,3.21460400390625,7.773115296915173,-2.5500907255262133,-11.310935787808894,-5.211944103240967,-3.761765718460083,2.0881435871124268
1774470636251631400,3.22463134765625,6.48611850733459,-1.341879303368926,-9.662712653708455,-4.9374284744262695,-3.4331374168396,1.938063144683838
1774470636261658000,3.234658203125,5.362541763150691,-0.3249099995136261,-8.490218441620469,-4.639547348022461,-3.4688990116119385,1.8757288455963133
1774470636271686100,3.24468603515625,5.007394446283579,0.6950532254606485,-6.609509324681759,-4.337307929992676,-4.043832778930664,1.906825304031372
1774470636281713200,3.254713134765625,3.990218806201219,1.4529063137054443,-6.111342360889911,-4.029211521148682,-4.767940998077393,1.98287832736969
1774470636291740200,3.264740234375,3.663336629831791,1.9414917946815489,-5.564986243468523,-3.6729798316955566,-5.544010162353516,2.062314510345459
1774470636301767200,3.27476708984375,2.5376596984982487,3.2645448170274496,-5.253861608201265,-3.3145532608032227,-6.297593116760254,2.2113466262817383
1774470636311794200,3.284794189453125,0.7518132235586643,3.9403520747482776,-4.713239065995812,-3.051814556121826,-6.795293807983398,2.3371613025665283
1774470636321821200,3.2948212890625,-1.4518909991830586,4.025864704599976,-4.685271447139979,-2.7865195274353027,-7.051518440246582,2.739474058151245
1774470636331848200,3.30484814453125,-4.145082035654783,4.819358430546522,-2.7094126879543063,-1.1169627904891968,-8.476881980895996,7.426501274108887
1774470636341875200,3.314875244140625,-7.55484079478085,15.374260746753215,2.7069173640072344,0.5404354929924011,-4.765913963317871,11.978466987609863
1774470636351902200,3.324902099609375,-2.1999974771782758,22.733393675994872,3.7682825666889546,0.9073958992958068,0.0025755455717444,11.597412109375
1774470636361929200,3.33492919921875,-4.09188908238858,1.3038099772155285,-3.0360142938166854,0.1373952031135559,0.6571430563926697,8.932393074035645
1774470636371957200,3.344957275390625,-13.220658817785978,-6.955961878439783,-4.617727896960079,-0.6830314993858337,-1.2386776208877563,5.415714263916016
1774470636381984300,3.354984375,-15.129198775458336,-1.8769313519656656,-1.0583581298202276,-0.7198672294616699,-2.963125705718994,2.8850531578063965
1774470636392011300,3.36501123046875,-12.652024233061075,-0.1050952821999788,-1.0278466717004775,-0.3499826192855835,-3.290303468704224,2.88184118270874
1774470636402038000,3.3750380859375,-6.253847628551721,2.3449200351148844,-1.8126704767182469,1.1196495294570925,2.9096100330352783,1.514141082763672
1774470636412065300,3.385065185546875,-6.388283571526408,2.5936370217859746,-7.249540920144319,0.9005592465400696,3.254154682159424,2.846435308456421
1774470636422092300,3.39509228515625,-10.572076738369464,2.871984007567167,4.4109313589125865,0.8602748513221741,3.1737725734710693,1.9482924938201904
1774470636432119000,3.405119140625,-9.556266541421412,-0.6906839243352413,2.814664037498832,0.6375235319137573,1.3930261135101318,0.9853863716125488
1774470636442146300,3.415146240234375,-6.301480317342281,0.1519020415604114,-1.808961100806296,0.3074334859848022,-0.0305381901562213,0.3086133003234863
1774470636452173300,3.42517333984375,-3.6630753485471006,2.286715098905564,-3.5004043679520485,-0.0345832370221614,-0.6536752581596375,0.1938299685716629
1774470636462200000,3.435199951171875,-2.7683424313068388,3.3265012147247788,-2.74384424212724,-0.2494592070579528,-0.7596390843391418,0.3111491501331329
1774470636472227000,3.44522705078125,-3.5423066963970657,2.4708231275439263,-1.721551405161619,-0.3042792975902557,-0.6592413783073425,0.5003345608711243
1774470636482255000,3.455255126953125,-3.064337301981449,0.4652916991502046,-2.403367547908425,-0.2249512374401092,-0.7472731471061707,0.9303353428840636
1774470636492282000,3.4652822265625,-0.3427665587216615,-1.2839461698383092,-4.2168484642267225,0.1729564517736435,-1.348954439163208,1.6304268836975098
1774470636502309000,3.47530908203125,2.632136556050181,-2.034857476121187,-6.346618266707658,0.9488545656204224,-3.423637628555298,3.021148920059204
1774470636512336100,3.485336181640625,6.951714742389321,-0.4503846373975276,-8.127324456149339,1.5378317832946775,-3.8171701431274414,3.286648750305176
1774470636522363100,3.495363037109375,9.942651877117155,2.425008886352181,-8.240272789937258,1.4396002292633057,-2.9355146884918213,2.168494462966919
1774470636532390100,3.50539013671875,-2.186654303741455,2.265363683319092,-4.088061340793967,0.8354476690292358,-2.787647485733032,1.368497014045715
1774470636542417400,3.51541748046875,-17.344322802358864,2.317204345193505,6.782551184904575,0.1358550190925598,0.2816632091999054,0.0131300427019596
1774470636552444200,3.525444091796875,-21.682872231149677,0.7775479687958955,5.054208804428577,-0.1992553323507309,2.0305545330047607,-0.574987530708313
1774470636562471200,3.53547119140625,-13.914559950602056,0.7555693612217903,0.2539645319357514,0.1407442986965179,1.3016753196716309,-0.8681931495666504
1774470636572498200,3.545498291015625,-3.514122219920158,1.8416092786937952,0.1862602382361888,0.729636549949646,0.5526549816131592,-1.4092044830322266
1774470636582525200,3.555525146484375,2.7507734568685294,2.804557069504261,-2.442766369099915,1.1846230030059814,0.3569537699222564,-1.903853416442871
1774470636592553200,3.56555322265625,4.389654177606106,3.135699241405725,-2.6562799404427406,1.4571149349212646,0.1774290204048156,-2.389573812484741
1774470636602580000,3.575580078125,2.4230302797555923,3.780613932734728,-0.9532686928391456,1.70892596244812,-0.105735033750534,-2.1382486820220947
1774470636612607200,3.585607177734375,-0.5597381615638732,3.1322014624178407,0.92057609128803,2.2004711627960205,0.607112467288971,-1.320018649101257
1774470636622634200,3.59563427734375,-2.018397339707613,2.600855867123604,1.8242028013408185,3.211864233016968,1.7642399072647097,-1.5072355270385742
1774470636632661000,3.605660888671875,-4.839663551950454,0.3900409355938434,-1.1860229712247847,3.2354748249053955,2.012370586395264,-1.721329689025879
1774470636642688300,3.615688232421875,-4.159277149745821,-2.837987045419216,-1.8677505589053036,2.411296129226685,1.6009353399276731,-1.569045901298523
1774470636652715300,3.62571533203125,-0.4169353722602129,-3.8152982926249503,-1.5713669811740516,1.6883211135864258,0.977286458015442,-1.406680703163147
1774470636662742000,3.635741943359375,2.368429505518079,-3.903936945542693,-3.011412352001667,1.2741000652313232,0.3607043921947479,-1.1676841974258425
1774470636672769000,3.64576904296875,3.659828913971781,-3.643207449516654,-3.266780028733611,0.9150199294090272,-0.1303516328334808,-0.7900392413139343
1774470636682796300,3.65579638671875,4.637912606854736,-4.498348361080884,-3.570491172873973,0.5122336149215698,-0.0324188098311424,-0.4284180402755737
1774470636692824000,3.665823974609375,4.482237184235453,-5.1485716802120205,-3.4205689069539305,0.4642541110515594,0.3563880622386932,-0.0129236318171024
1774470636702851300,3.675851318359375,2.279509113049507,-5.219049822539091,-2.2013772410988808,0.7514713406562805,0.5060705542564392,0.4787450134754181
1774470636712878300,3.68587841796875,-0.7886930476665497,-2.952636922428012,0.2136918505191803,1.1580535173416138,1.013463258743286,0.4012520611286163
1774470636722905000,3.695905029296875,-3.632246495041251,-0.1500391702979803,0.7058826625108718,1.424201250076294,1.3521709442138672,-0.0008291434496641
1774470636732932000,3.70593212890625,-4.1915208384856575,-1.2375649424135684,-1.0532932476460932,1.3458383083343506,1.125575065612793,-0.1000132486224174
1774470636742959400,3.71595947265625,-1.1549050716444849,-2.730769948759675,-3.2360517129927877,1.0372319221496582,0.6564552187919617,0.0418791621923446
1774470636752986000,3.725986083984375,0.833999047075212,-1.808835720860958,-3.3685487968593835,0.8884855508804321,0.3304579257965088,0.2562055587768554
1774470636763013000,3.73601318359375,0.8411879356659948,-0.2263753910034894,-2.9310446838229893,0.9351376295089722,0.3231352567672729,0.4801022708415985
1774470636773040400,3.746040283203125,0.802211869931221,0.8411351825654506,-3.2073616250813006,1.0984176397323608,0.287495493888855,0.6110597252845764
1774470636783067100,3.756067138671875,0.8069716316789388,1.7665853096306323,-2.8205554336249827,1.375031590461731,0.3261233866214752,0.6197333335876465
1774470636793095200,3.76609521484375,0.6923501039817929,2.0586919406950472,-2.253035532143712,1.6913213729858398,0.43328657746315,0.7070456147193909
1774470636803122200,3.7761220703125,1.390973589144647,1.9937018743902444,-2.0264964750111103,1.951075315475464,0.5350387096405029,0.8928192853927612
1774470636813149200,3.786149169921875,1.9806740505129097,1.8136282158344983,-1.0385194568842648,2.1295900344848637,0.6954057216644287,1.0518012046813965
1774470636823176200,3.79617626953125,2.589883806732297,1.2315367681652307,-0.4877396778017282,2.2170705795288086,0.8578762412071228,1.1430187225341797
1774470636833203200,3.806203125,3.081750209075212,0.1964917093932628,-0.3148293350040912,2.1220927238464355,0.7351247668266296,1.0848698616027832
1774470636843230200,3.816230224609375,3.056336366355419,0.1732125406146049,0.2995072627097368,2.050057172775269,0.6098842024803162,0.8624271750450134
1774470636853257200,3.82625732421875,2.56300339859128,0.7134148115813732,1.177661970114708,2.116715908050537,0.6178563833236694,0.7113944888114929
1774470636863284200,3.8362841796875,2.211647290700674,0.438951389235258,1.842778322473168,2.1546332836151123,0.8832660913467407,0.498330682516098
1774470636873311200,3.846311279296875,1.4130185399532318,0.6996165878534316,2.581474874827266,2.160207509994507,1.323920965194702,0.1254625767469406
1774470636883338200,3.856338134765625,0.1441308230370283,0.998464509871602,3.5237335133522745,2.0571951866149902,1.596076250076294,-0.1432452648878097
1774470636893366000,3.866365966796875,-0.0583794159933924,0.806544346177578,3.9863878497362135,1.83245861530304,1.6267542839050293,-0.2690407335758209
1774470636903393300,3.876393310546875,0.0516356408216059,0.2494417938143014,3.604950491836667,1.5551484823226929,1.3704973459243774,-0.4817661345005035
1774470636913420300,3.886420166015625,-0.0089227266460657,-0.9652350249648094,3.039803164705634,1.334453582763672,0.9028379917144777,-0.68648761510849
1774470636923447000,3.896447021484375,-0.4559419792637229,-1.9636036732465028,2.884755810856819,1.368256449699402,0.710584819316864,-0.692954421043396
1774470636933474300,3.906474365234375,-0.0192217100813984,-2.6565438520759344,1.6526380279332398,1.5112870931625366,0.694753110408783,-0.515507161617279
1774470636943501300,3.916501220703125,0.3891702902391553,-3.7018870175004,0.6952922949135303,1.6038352251052856,0.627269983291626,-0.2898234724998474
1774470636953528000,3.926528076171875,0.995991397756338,-5.217424851685762,-0.0671130498081445,1.520807147026062,0.517744779586792,-0.020603459328413
1774470636963555000,3.93655517578125,1.407805481480062,-6.290567293661833,-0.4815507600337266,1.4247052669525146,0.4516290724277496,0.2740734815597534
1774470636973582300,3.946582275390625,1.4385732524484396,-6.234370774665474,-0.9280746303498744,1.4274576902389526,0.5730170607566833,0.5482040643692017
1774470636983609000,3.956609130859375,1.1394167028725146,-4.7826656534433365,-1.0807231063634155,1.500227928161621,0.752116322517395,0.6603429913520813
1774470636993637000,3.96663720703125,0.428581970912218,-3.563987197807431,-1.3829893123924732,1.5103412866592407,0.91932475566864,0.6752032041549683
1774470637003664100,3.9766640625,-0.2442825113549828,-2.946341621676088,-1.173243569150567,1.5010994672775269,0.9488836526870728,0.6541799902915955
1774470637013691100,3.986691162109375,-0.6540434619411826,-2.3650743498712776,-0.7546049001038074,1.412486553192139,0.8342609405517578,0.831142008304596
1774470637023718100,3.99671826171875,-0.548011483412981,-2.0554387841179964,-0.1012730935633182,1.2631428241729736,0.6323491334915161,1.0906590223312378
1774470637033745400,4.006745361328125,-0.2522127198323607,-1.2990741808652877,0.4910328741282224,1.1014676094055176,0.5564628839492798,1.3020426034927368
1774470637043772200,4.016772216796875,0.0642041766241192,-0.9782532042309642,0.6738368344306945,0.8064478635787964,0.6203100681304932,1.5308650732040403
1774470637053799200,4.026799072265625,1.4173855029910802,-0.6075710491016507,0.7578092491030692,0.7105037569999695,0.4499231278896332,1.6312252283096311
1774470637063826200,4.036826171875,1.605264282339811,0.6959408219501376,0.4478635944873094,1.0008656978607178,0.463609516620636,1.6846916675567627
1774470637073853000,4.04685302734375,0.8333157409861683,0.365563496941328,0.7058885077297687,1.2145367860794067,0.6446636915206909,1.7613561153411863
1774470637083880000,4.0568798828125,0.7864204265594482,-0.2466404726579785,0.9058265581846237,1.2664707899093628,0.7468560934066772,1.843062162399292
1774470637093907200,4.0669072265625,0.8091746946811675,-1.0450891906633972,0.8593038764625788,1.1911909580230713,0.6365346312522888,1.9421287775039675
1774470637103935000,4.07693505859375,0.815403067676723,-2.275907289165258,1.0470002849817277,1.1103806495666504,0.3493183255195617,2.127103805541992
1774470637113962200,4.086962158203125,1.2246779883116483,-1.875356942255795,1.0369225430816411,1.0033007860183716,0.3155379891395569,2.2330434322357178
1774470637123989000,4.096989013671875,0.1449865630835294,-1.4363450550049544,1.2925035703033207,0.7213309407234192,0.4000688195228576,2.0844688415527344
1774470637134016000,4.10701611328125,-1.5091674223706126,-1.4252724568486212,2.4120406837075947,0.3252917528152466,0.3112960755825043,1.927873969078064
1774470637144043000,4.11704296875,-1.955651252937317,-0.8914362137824297,2.965170240786672,0.2997627556324005,-0.0341481976211071,1.6784636974334717
1774470637154070000,4.127070068359375,-2.5252251643389463,-0.3183288675576448,2.627037771606445,0.5589900612831116,-0.0022150315344333,1.5154614448547363
1774470637164097000,4.137096923828125,-1.5172262256637217,-0.9263096665039658,2.1272394072204825,0.7062504291534424,0.2533084750175476,1.5930919647216797
1774470637174124000,4.1471240234375,0.0993736896827817,-2.1423498825907705,1.8602718935877085,0.8367876410484314,0.4429673552513122,1.6407287120819092
1774470637184151300,4.1571513671875,0.85946929615736,-2.428597850754857,2.001733205154538,1.1684339046478271,0.5594097375869751,1.5897387266159058
1774470637194179000,4.167178955078125,0.5224994410157203,-1.3402020178064704,2.3657290143877265,1.304346203804016,0.6670584678649902,1.51292085647583
1774470637204206000,4.1772060546875,0.1388967217758298,-1.3961439775198696,3.529170735970139,1.2739171981811523,0.9776094555854796,1.5425623655319214
1774470637214233000,4.187233154296875,-0.4092506629765033,-1.3549369378626346,3.9426685349971056,1.247120380401611,1.0256129503250122,1.5692259073257446
1774470637224260000,4.197260009765625,-0.7002692065432667,-0.9571838204562664,3.907043094864487,1.2649892568588257,1.0344666242599487,1.37055766582489
1774470637234287000,4.207287109375,-1.660948467899859,-2.726081206421554,4.387121444258094,1.2945599555969238,1.127554178237915,1.37653911113739
1774470637244313900,4.21731396484375,-1.236002515402436,-2.32388104647845,2.7653327280968427,1.1202664375305176,0.9633534550666808,1.5960116386413574
1774470637254341000,4.227341064453125,-1.1290203965425492,-2.2808535133957863,3.2553812673628326,0.5988197326660156,0.9750303626060486,1.5477782487869265
1774470637264368000,4.2373681640625,-1.5555255611807106,-2.31314776327908,3.566455633747577,0.1240488588809967,1.2586679458618164,1.3919780254364014
1774470637274395000,4.247394775390625,-0.9133177907228468,-1.5399275945544242,2.967088057106733,0.0291803982108831,1.4298244714736938,1.59695303440094
1774470637284422100,4.257422119140625,0.0591334492310881,-1.330476742605865,2.608283386775851,-0.1261493861675262,1.5638574361801147,1.877249836921692
1774470637294450000,4.267449951171875,0.7158417464673519,-0.8171721231758594,1.690810814461112,-0.1096330061554908,1.6022330522537231,2.0612339973449707
1774470637304477000,4.277476806640625,-0.3906532222732901,-1.65336517316401,0.8196165937185287,0.2061939388513565,1.4012330770492554,1.9640840291976929
1774470637314504200,4.287504150390625,-1.9854501788735388,-1.900033410611749,1.186160333868861,0.329535573720932,1.3581953048706057,1.9469904899597168
1774470637324531200,4.29753125,-1.7548235601663589,-0.3422767293781042,2.1420102753728627,0.1673268973827362,1.2639868259429932,1.9822183847427368
1774470637334558000,4.307557861328125,-1.1028335236236453,1.143791556955874,2.326636774927377,0.5536775588989258,1.3063443899154663,2.010030746459961
1774470637344585000,4.3175849609375,-1.4764955713465808,1.8735154060423371,1.822023119214177,0.1096695810556411,1.5050173997879028,1.901149034500122
1774470637354612200,4.3276123046875,-1.5806676012217995,3.365668857508897,-0.1639554674476385,-0.4294317066669464,1.5940940380096436,1.646895408630371
1774470637364639000,4.337638916015625,-0.3846925603032112,-0.1964031543269753,-0.7024182012706994,-0.7058281898498535,1.8534502983093264,2.036118745803833
1774470637374666000,4.347666015625,0.4526081586658954,-2.3647835502311585,-2.0123481226712463,-0.5690176486968994,1.7456644773483276,2.3858110904693604
1774470637384694000,4.357694091796875,0.0228878313735127,-3.055770549166202,-3.173435974603892,-0.4159306287765503,1.5712512731552124,2.513453722000122
1774470637394721000,4.367720947265625,-0.783903183041513,-3.217182469610869,-3.9717140122175216,-0.5798599123954773,1.41496479511261,2.53890323638916
1774470637404748000,4.377748046875,-2.428643151201308,-1.3986293645948171,-3.2673177888721225,-0.5697179436683655,1.4361950159072876,2.174837827682495
1774470637414775000,4.387775146484375,-3.9676913325726986,0.1073322474718093,-1.881516926190257,-0.6690046191215515,1.3375388383865356,1.72161602973938
1774470637424802000,4.397802001953125,-3.3031784990653392,1.2101233932584523,-0.5888783313304186,-0.7032920122146606,1.0191158056259155,1.16977059841156
1774470637434829000,4.4078291015625,-2.8466861924424767,2.0812059703201053,0.7197422610372305,-0.6426515579223633,0.9249607920646667,0.5961190462112427
1774470637444856000,4.41785595703125,-2.120861396621168,1.6423200475364923,1.1108452729046343,-0.6851699352264404,0.8390697240829468,0.4015497863292694
1774470637454883000,4.427883056640625,0.1193725216165184,0.6685141781032085,1.584945132410526,-0.6959336400032043,0.5405141711235046,0.5432736277580261
1774470637464910000,4.43791015625,2.576323191152513,0.0320154329419136,2.0355413667321205,-0.6670269966125488,0.3275732696056366,0.9362984895706176
1774470637474938000,4.447938232421875,4.280385993635655,-0.5388344897449017,2.017082165455818,-0.6641888618469238,0.2021855115890503,1.3301690816879272
1774470637484965000,4.457965087890625,4.849099781076609,-0.7426087573617697,2.1332073757141825,-0.6750282645225525,0.1129388660192489,1.6325289011001587
1774470637494992100,4.4679921875,4.469051539447904,-0.7541402052015066,2.115073753130436,-0.7246291041374207,0.1811709105968475,1.9571024179458616
1774470637505019000,4.478018798828125,3.6613483786240217,-0.0379261182904243,1.9479589448690413,-0.6911489963531494,0.3537856340408325,2.212613821029663
1774470637515046100,4.488046142578125,1.560172802464664,1.0697241579651833,1.3231670041143893,-0.5941745042800903,0.4313206374645233,2.0464439392089844
1774470637525073200,4.4980732421875,-1.4976339287042617,1.7669640798151491,0.0419996513396501,-0.3928212225437164,0.960205614566803,2.0980441570281982
1774470637535100000,4.508099853515625,-3.911555311591923,2.411239888718724,-1.754913576537371,-0.1526762545108795,1.336116075515747,2.0761468410491943
1774470637545127200,4.518127197265625,-7.118388236624002,2.268656295123696,-2.9398955142766234,0.1342029273509979,1.824135661125183,1.982490420341492
1774470637555154200,4.528154296875,-8.936855124661326,0.3342453986138105,-4.059996691304445,0.468586802482605,1.4826438426971436,1.551043152809143
1774470637565181000,4.538180908203125,-9.193843680593371,-1.9280752637475729,-4.781586626034975,1.4105302095413208,-0.5939126014709473,-0.4476148784160614
1774470637575209200,4.548209228515625,-7.458295898783207,-1.4860375989347696,-4.9769186439991,1.2646065950393677,-0.8587948679924011,-0.0878045111894607
1774470637585236000,4.558236083984375,-2.743145446208119,0.3214478763610124,-6.191565652161836,1.341858983039856,-0.4083879292011261,0.1657846868038177
1774470637595263000,4.568262939453125,-1.7003167478226124,-0.3163835787087679,-4.9338276902914044,1.0951448678970337,-0.1479374021291732,0.5685702562332153
1774470637605290200,4.578290283203125,-0.4120322565190494,-0.4012836296200752,-2.838928710183501,0.9145520329475404,-0.4908683001995086,1.1701085567474363
1774470637615317000,4.58831689453125,-0.0870678964696824,0.1873971333116292,-1.6051128911703825,0.9389759302139282,-0.4677757620811462,1.4563087224960327
1774470637625344000,4.598343994140625,-0.8810121426627039,-1.0008663103163242,-3.98480847159028,1.0366427898406982,-0.6624828577041626,1.7073832750320437
1774470637635371000,4.60837109375,-1.4964109627805648,-0.97765494607687,-3.610662439742684,1.266483187675476,-0.8562666773796082,1.9103881120681765
1774470637645398000,4.61839794921875,-1.5610539692133665,-1.023045408898592,-3.2016157749056813,1.5430296659469604,-0.7557151317596436,1.9528898000717163
1774470637655425000,4.628425048828125,-1.0066957471221685,-1.063625841090083,-2.5280033968806266,1.8018486499786377,-0.5605099201202393,1.853282570838928
1774470637665452000,4.6384521484375,-1.1396949352920054,-1.085627829539776,-1.816706308105588,2.035449504852295,-0.3862211108207702,1.6638762950897217
1774470637675479300,4.648479248046875,-1.6467933935582637,-1.3343693661302327,-1.979571057707071,2.150477409362793,0.1018177792429924,1.317981481552124
1774470637685507000,4.658507080078125,-0.951067383402586,-1.3258517131537195,-1.0512018283247948,2.0696637630462646,1.1361209154129028,0.8247413635253906
1774470637695534000,4.6685341796875,0.5785730642847716,-0.0500879729881882,1.1093605873048304,1.8597609996795652,3.5874030590057373,0.1604654043912887
1774470637705561000,4.67856103515625,7.29976362542808,0.5755021324068308,6.256373932158946,1.432979941368103,2.0962178707122803,0.3312017917633056
1774470637715588000,4.688588134765625,-1.422764273419976,2.410181027315557,4.385605778998136,1.0791902542114258,0.6067981719970703,0.4935008883476257
1774470637725615000,4.698614990234375,-10.923389591640234,2.26805306853354,1.69810623216629,0.2831073701381683,1.8781585693359373,0.1236301511526107
1774470637735641900,4.708641845703125,1.4761534799106415,4.169268966928124,9.62731108545959,-0.3457832038402557,2.31339168548584,0.3990529477596283
1774470637745669000,4.718669189453125,5.370886397647857,4.366709939870238,10.49977956392169,-0.5824755430221558,1.1552143096923828,1.0143147706985474
1774470637755696000,4.728696044921875,-1.9488857043251395,2.96660874915719,4.6470051371097565,-0.501462459564209,0.39143967628479,1.0877740383148191
1774470637765723000,4.738722900390625,-5.207957935160398,1.1710592108488085,0.00117488899827,-0.2423754781484604,0.5345047116279602,0.7115471959114075
1774470637775751200,4.748751220703125,-3.686766312997043,0.1554819458737969,-2.869807832571864,0.0162877794355154,0.6766648292541504,0.5625198483467102
1774470637785778000,4.75877783203125,-1.2856146875724197,0.2793728216975927,-2.688038476014137,0.0662435963749885,0.6486724615097046,0.5983554124832153
1774470637795805000,4.768804931640625,-0.1289237554244697,0.3944286491587758,-0.75275371927917,0.12382273375988,0.5266480445861816,0.6372854709625244
1774470637805832200,4.778832275390625,-0.8824041815429925,0.3366843161985278,0.2871609913557768,0.1064870357513427,0.6144662499427795,0.7097179293632507
1774470637815859200,4.788859130859375,0.1775356645107269,0.0061371875807642,0.9066945731908084,0.1992340087890625,0.5720242261886597,0.710436999797821
1774470637825886000,4.798885986328125,-0.1461636440388858,-1.2625690352886914,1.068519458350539,0.3190596103668213,0.5347091555595398,0.7115907669067383
1774470637835913000,4.808912841796875,-1.0743395428061484,-1.223829262527823,0.6073679277449846,0.3207853436470032,0.5916233062744141,0.7220921516418457
1774470637845940200,4.818940185546875,-0.4282563922196626,-0.2352177458897233,0.7132324407517909,0.3843339383602142,0.557786762714386,0.789362370967865
1774470637855967000,4.828967041015625,-0.2541419343292713,-0.1083542839959263,0.8878513410329818,0.388759583234787,0.6210381388664246,0.9747039675712584
1774470637865994000,4.838993896484375,-0.1515866920009255,0.0803711753100156,0.7320762574315071,0.3615839183330536,0.669248640537262,1.1022610664367676
1774470637876021200,4.849021240234375,-0.1677104360669851,0.1288920451119542,0.4870955346792936,0.4282824993133545,0.8246744275093079,1.177994966506958
1774470637886049000,4.859049072265625,-0.1964915632627904,0.0235831201612949,0.3975444430917501,0.528017520904541,0.9538018703460692,1.3033342361450195
1774470637896076000,4.869075927734375,-0.2916337528556585,0.4874278353735804,0.5575982269257307,0.6735893487930298,0.9300179481506348,1.4992952346801758
1774470637906103000,4.87910302734375,-0.6990577849268913,1.4388231355562806,0.6891244199335574,0.6923690438270569,0.4861319959163666,1.5742928981781006
1774470637916130000,4.889130126953125,-1.7294991492956877,2.3214760311633347,1.2152180860489603,0.5924190282821655,-0.0332222320139408,1.4531819820404053
1774470637926157000,4.899156982421875,-2.5363252350240946,2.41962134809494,1.353259360039234,0.4587048590183258,-0.0948266834020614,1.156572341918945
1774470637936184000,4.90918408203125,-2.3168571391910318,2.0577514449745413,0.8737643634915352,0.3690871000289917,0.1490011662244796,0.8293486833572388
1774470637946211000,4.919211181640625,-1.48812551112473,0.9198764185860752,-0.1203746843963861,0.3768164813518524,0.4655463993549347,0.5684572458267212
1774470637956238000,4.929238037109375,-0.6765167211644351,-0.4308958008125424,-1.1226286496788265,0.4357437193393707,0.7004132270812988,0.377090722322464
1774470637966265000,4.93926513671875,-0.4410243961170315,-1.2671776981279252,-1.5528928745895625,0.5076121687889099,0.7972671389579773,0.2528589963912964
1774470637976292000,4.9492919921875,-0.8492077221229672,-1.627021940639615,-1.4425795654803513,0.5792991518974304,0.7228258848190308,0.2012344002723693
1774470637986320100,4.959320068359375,-1.4195067329287527,-1.825769612266123,-1.0071884990751745,0.6484997868537903,0.5321464538574219,0.2246752083301544
1774470637996347000,4.969346923828125,-1.7251020833805202,-1.88594146463424,-0.5737304465591907,0.7023939490318298,0.3108404278755188,0.2967198491096496
1774470638006374100,4.9793740234375,-1.645290441649407,-1.8096122581914067,-0.2510878074556589,0.7397670149803162,0.1401647478342056,0.3750807642936706
1774470638016401200,4.989401123046875,-1.2287221491359173,-1.6479986776947977,0.0145294606119394,0.7503842711448669,0.0479637160897254,0.4499350190162658
1774470638026428000,4.999427978515625,-0.6069307053714991,-1.4143001041963696,0.3067331223100423,0.7262319922447205,0.0247938577085733,0.5253539681434631
1774470638036455200,5.009455078125,-0.092982673471421,-1.1004179869145154,0.5766945570617914,0.6769225001335144,0.0611739680171012,0.5606602430343628
1774470638046482200,5.019482177734375,0.0962931131936609,-0.6575678366750478,0.7327642396956682,0.6285398602485657,0.1387587487697601,0.5435542464256287
1774470638056509000,5.029509033203125,0.0595924450449645,-0.1785062631085515,0.8480787180930376,0.570767343044281,0.2493044286966323,0.5046638250350952
1774470638066536700,5.03953662109375,0.0605379092015326,0.1529588571369647,0.8741723597705364,0.4992160499095917,0.3631547093391418,0.4712091982364654
1774470638076563700,5.049563720703125,0.238765501499176,0.4663517295971512,0.9037140960752964,0.4137759804725647,0.4537615776062011,0.473599910736084
1774470638086591700,5.059591796875,0.5645758108533918,0.7905906979814171,0.9042349050790072,0.3057035803794861,0.5107324123382568,0.498240202665329
1774470638096618800,5.06961865234375,0.7097416760265827,1.3291305886939166,1.0310586194843052,0.1733100861310959,0.5163159966468811,0.5409549474716187
1774470638106645800,5.079645751953125,0.5682786108940839,1.7892983689591289,1.3948358175307511,0.0348874256014823,0.4761228263378143,0.6047085523605347
1774470638116672800,5.0896728515625,0.2470996146023273,1.7370768910735843,1.9135797054052357,-0.0307203475385904,0.3975766003131866,0.696510374546051
1774470638126699800,5.09969970703125,-0.2158215560242533,0.9950207991585136,2.2675614856243134,-0.0175016894936561,0.2756282091140747,0.8041494488716125
1774470638136726500,5.1097265625,-0.5731234205767513,-0.0251589911758899,2.2319091574847696,0.0455923229455947,0.144580453634262,0.8890582323074341
1774470638146753800,5.11975390625,-0.6580629267156124,-0.9408774132996796,1.883893007671833,0.1300388872623443,0.0848564803600311,0.909028947353363
1774470638156780800,5.12978076171875,-0.4645698146164417,-1.6060381893217563,1.3292781804710625,0.2130165994167328,0.135111927986145,0.8661257028579712
1774470638166807600,5.1398076171875,-0.1434279354646802,-2.0572724292859434,0.6966390333473682,0.2912736535072326,0.2557187080383301,0.7882381677627563
1774470638176834800,5.149834716796875,0.0974623031035065,-2.30588478653878,0.1697773054689169,0.3337116539478302,0.3908078372478485,0.7056431770324707
1774470638186862600,5.159862548828125,0.3096399496674537,-2.2575983100146053,-0.1153401973605155,0.3115947246551513,0.4743378460407257,0.6689341068267822
1774470638196889600,5.1698896484375,0.4903656423911452,-1.866598758521676,-0.0774532420367002,0.2342927306890487,0.4600832760334015,0.6926583647727966
1774470638206916900,5.179916748046875,0.5379910246580839,-1.2295482246965168,0.1134784951418638,0.1465774178504943,0.3691453337669372,0.7545989155769348
1774470638216943600,5.189943603515625,0.4942717099189758,-0.6376946769475936,0.3093675624668598,0.0802367404103279,0.2725484669208526,0.8214570879936218
1774470638226970600,5.199970703125,0.4848576926246285,-0.2843567475900054,0.4470487709730863,0.0550365410745143,0.1976405531167984,0.867328405380249
1774470638236998000,5.209997802734375,0.5518488696187734,-0.2363058333873748,0.4921756144225597,0.0701185539364814,0.1671588122844696,0.8784305453300476
1774470638247025000,5.22002490234375,0.7031517762422561,-0.4476932063564658,0.4703963288128375,0.0972790420055389,0.1906739622354507,0.8685269355773926
1774470638257051600,5.2300517578125,0.8314338727623224,-0.776090463463962,0.4781213701069354,0.1190655678510665,0.2316421568393707,0.8315428495407104
1774470638267078700,5.24007861328125,0.7475432911545038,-1.090750579380989,0.5581733964651823,0.137711226940155,0.2811065316200256,0.7859255075454712
1774470638277106000,5.25010595703125,0.4939005385190248,-1.3286828449264168,0.6423486402332782,0.1511737704277038,0.296463668346405,0.744100034236908
1774470638287133700,5.2601337890625,0.0536399663813412,-1.5163044346436858,0.6501525919824839,0.1683582812547683,0.2742093205451965,0.7153401374816895
1774470638297160700,5.27016064453125,-0.2205404012396931,-1.6669567684039472,0.5667465790212154,0.1795741915702819,0.2539354562759399,0.7011492252349854
1774470638307187700,5.280187744140625,-0.0938560953050851,-1.7350687661215662,0.471917254769802,0.1835496425628662,0.2568390071392059,0.6892606616020203
1774470638317214700,5.290214599609375,0.2123341522999107,-1.742335249993205,0.3454571129798889,0.1727265566587448,0.2653006911277771,0.6656365394592285
1774470638327241700,5.30024169921875,0.4317560709036886,-1.67532536829859,0.2185708547323942,0.1392375230789184,0.2742801606655121,0.6415863037109375
1774470638337268700,5.310268798828125,0.5383155804373324,-1.521506971722841,0.1264315002173185,0.0897882208228111,0.281044065952301,0.6095601916313171
1774470638347295700,5.320295654296875,0.5884776415750383,-1.3465990253672002,0.1152051728039979,0.0350942909717559,0.2817015051841736,0.5617163777351379
1774470638357322800,5.33032275390625,0.5076745045885444,-1.2912211292773483,0.2012894650638103,-0.0047426028177142,0.2763970196247101,0.4994972348213196
1774470638367349500,5.340349609375,0.2597968913510441,-1.380395204246044,0.323860198199749,-0.0182984210550785,0.2732009887695312,0.4486350119113922
1774470638377376800,5.350376708984375,0.0411611546888947,-1.57902626375556,0.4229191228449344,-0.0144605413079261,0.2565676867961883,0.4104679226875305
1774470638387404800,5.36040478515625,-0.0625675153329968,-1.7651979469254613,0.5253793803662061,0.0042628734372556,0.2457077652215957,0.3875625431537628
1774470638397431600,5.370431640625,-0.0090348087184131,-1.8338687475696205,0.6299661285221576,0.0270968154072761,0.2504149079322815,0.3747807145118713
1774470638407458800,5.380458740234375,0.1370845577873289,-1.7442714787527918,0.7293886257827281,0.0437872298061847,0.2705415487289428,0.3592850267887115
1774470638417485800,5.39048583984375,0.2771937240928411,-1.533271936057508,0.792118345940113,0.0519791133701801,0.2816511988639831,0.3382900059223175
1774470638427512600,5.4005126953125,0.2843196304500103,-1.246342123109102,0.8267185346782207,0.0549918636679649,0.2725136876106262,0.3224819600582123
1774470638437539800,5.410539794921875,0.1881570117682218,-1.0002665908575057,0.8586907130002975,0.0535593479871749,0.2368795126676559,0.3100149035453796
1774470638447566800,5.42056689453125,0.1063164945580065,-0.8544766024366021,0.8799386682122945,0.0428632907569408,0.1906541585922241,0.3056418895721435
1774470638457593600,5.430593505859375,0.0806355253346264,-0.8376508475810289,0.888218420779705,0.0305552221834659,0.1574117839336395,0.3046107292175293
1774470638467620600,5.44062060546875,0.0877807209141552,-0.9160223735064268,0.8816431340426206,0.020413763821125,0.1437011808156967,0.2907780110836029
1774470638477648000,5.45064794921875,-0.009002221623063,-1.0152876343786716,0.8417623745530843,0.0169186312705278,0.1334163099527359,0.2704945802688598
1774470638487675600,5.460675537109375,-0.3185373957417905,-1.0825199266523122,0.834054868915677,0.01666110008955,0.1030985862016677,0.2417032122611999
1774470638497703000,5.470702880859375,-0.5120937823355197,-1.1619628812015057,0.8823264401316642,0.0159020982682704,0.0631767362356185,0.2239910662174224
1774470638507729700,5.480729736328125,-0.4235995063245296,-1.1967010171055794,0.9869991130053996,0.0103846276178956,0.0424533262848854,0.2020761966705322
1774470638517756700,5.490756591796875,-0.1405161396712064,-1.1763234149873256,1.0699959606438874,-0.0048135002143681,0.0431300327181816,0.1633141636848449
1774470638527783700,5.50078369140625,0.1207961246788501,-1.1487027098730205,1.0682558389782906,-0.0189071055501699,0.0621442198753356,0.109889917075634
1774470638537810700,5.510810791015625,0.2191099300451576,-1.1254144810050726,0.975774539157748,-0.0414217337965965,0.0882730260491371,0.0531400889158248
1774470638547837700,5.520837646484375,0.2342145601965486,-1.133779866029322,0.8181406759470701,-0.0550890751183033,0.1072094589471817,0.0070034023374319
1774470638557864700,5.53086474609375,0.1681421054825186,-1.1644932764619589,0.6260913329154253,-0.068366527557373,0.1110199093818664,-0.0339807830750942
1774470638567891700,5.5408916015625,0.0855260738551616,-1.2317863590121267,0.4536100291848182,-0.0747238770127296,0.1003147289156913,-0.0643876194953918
1774470638577918700,5.550918701171875,-0.0239870247870683,-1.3559995986580848,0.3104606184005737,-0.0741739347577095,0.0807892307639122,-0.0901755392551422
1774470638587946800,5.56094677734375,-0.0924286928504705,-1.490219853055477,0.2382300794482231,-0.0673794448375701,0.0604865364730358,-0.1083076298236846
1774470638597973800,5.570973876953125,-0.0836629103317856,-1.5519155539900062,0.255983178281784,-0.0601580142974853,0.0369407311081886,-0.1326127052307129
1774470638608000800,5.581000732421875,-0.0725273299418389,-1.5140896812036633,0.3107347591668367,-0.0568650178611278,0.0185918156057596,-0.1429202109575271
1774470638618027800,5.59102783203125,-0.0422451505333185,-1.3932012020662423,0.3848480431258678,-0.0642803236842155,0.0010415841825306,-0.1564514636993408
1774470638628054500,5.601054443359375,-0.0179518362760543,-1.2368413043141364,0.4380050482958555,-0.0731735974550247,-0.003067959100008,-0.1693417280912399
1774470638638081800,5.611081787109375,0.0118820148430764,-1.0761965688496828,0.4745855971962213,-0.0856121554970741,-0.0034328121691942,-0.1810702979564666
1774470638648108800,5.62110888671875,0.0286434722907841,-0.9648343352094292,0.5056991128623485,-0.1042640209197998,-0.0040314188227057,-0.1936782896518707
1774470638658135600,5.631135498046875,0.0533797080099582,-0.8895575604289769,0.519036733341217,-0.1200616210699081,-0.0068756751716136,-0.1995247304439544
1774470638668162800,5.641162841796875,0.0857429314762353,-0.8144841992661357,0.560326190584898,-0.1411454975605011,-0.0206489451229572,-0.208662062883377
1774470638678189800,5.65118994140625,0.1304839904785156,-0.7442401579558849,0.6365349855184554,-0.1583652347326278,-0.0363040715456008,-0.2200878262519836
1774470638688217600,5.661217529296875,0.1192448035836219,-0.7098731934517621,0.7017810724109411,-0.1657735258340835,-0.0595801472663879,-0.2351700365543365
1774470638698244900,5.671244873046875,-0.0194391522243618,-0.7251017422437668,0.7472732420414686,-0.1691962331533432,-0.0958518683910369,-0.2468986064195633
1774470638708271600,5.681271728515625,-0.2135069954715669,-0.7796952099576592,0.7881815910130738,-0.1697746068239212,-0.1423466950654983,-0.2450983226299286
1774470638718298600,5.691298583984375,-0.3212354026541114,-0.8254352168694138,0.8621224410146474,-0.1727690547704696,-0.1957667768001556,-0.2409592270851135
1774470638728326000,5.701325927734375,-0.3445340067856013,-0.8477525548785925,0.951833691599965,-0.1769184917211532,-0.232971042394638,-0.2372676283121109
1774470638738353000,5.711352783203125,-0.2755254986196756,-0.861267285490036,1.0117448472052812,-0.1763072907924652,-0.2332061976194381,-0.2408051043748855
1774470638748379600,5.721379638671875,-0.1607692386269569,-0.8906739972382783,0.977625135460496,-0.1705534905195236,-0.2241142988204956,-0.2622010707855224
1774470638758406700,5.73140673828125,-0.1829945144385099,-0.907318258047104,0.8403981004625558,-0.1563705652952194,-0.2152374535799026,-0.2834075689315796
1774470638768434000,5.741433837890625,-0.330859555567801,-0.8633779940336942,0.7210936756461859,-0.1312336921691894,-0.2160885632038116,-0.2935940623283386
1774470638778460700,5.751460693359375,-0.4359180128887295,-0.7868287150993942,0.6213368318647146,-0.115680307149887,-0.2240029424428939,-0.2978141009807586
1774470638788488700,5.76148876953125,-0.4705179093658924,-0.7036109181866049,0.5496446375727653,-0.097719594836235,-0.2170902341604232,-0.2994662821292877
1774470638798515700,5.771515625,-0.423484940034151,-0.6305564956307411,0.4900122989088296,-0.072731152176857,-0.1962866783142089,-0.2989253997802734
1774470638808542700,5.781542724609375,-0.3354743558868766,-0.6052332538038492,0.4312251788973808,-0.0499356426298618,-0.1630239933729171,-0.2987226247787475
1774470638818569700,5.79156982421875,-0.2830067942857742,-0.59557110696733,0.3821685947835445,-0.0262484215199947,-0.1351739913225174,-0.2939502298831939
1774470638828596700,5.8015966796875,-0.2956418194532394,-0.5996417174071074,0.3723024498075246,-0.0119529422372579,-0.1284243166446685,-0.2814270555973053
1774470638838623700,5.811623779296875,-0.3675865272015333,-0.5830576623529196,0.4360106596082448,-0.0023983195424079,-0.1391656398773193,-0.2654523551464081
1774470638848650800,5.821650634765625,-0.4610147524833679,-0.5343871549472212,0.5241928009301424,0.0051837041974067,-0.1505373269319534,-0.2467421144247055
1774470638858677500,5.831677490234375,-0.4714852930933236,-0.4594166696369647,0.5623176566630601,0.0018081475282087,-0.1514680981636047,-0.2314001768827438
1774470638868704800,5.841704833984375,-0.4312082277625799,-0.3845011293843388,0.563938535863161,-0.0046940501779317,-0.1417134702205658,-0.2190816104412078
1774470638878731800,5.851731689453125,-0.3627610067412257,-0.3502230122074484,0.5185889895737171,-0.015547496266663,-0.1246668398380279,-0.2095123380422592
1774470638888758800,5.8617587890625,-0.3309270678460598,-0.3582680792361498,0.4980962366431951,-0.0204329155385494,-0.1010255068540573,-0.2018162757158279
1774470638898786800,5.871786865234375,-0.3117366296857595,-0.4215311756178736,0.4882318452328443,-0.0243421699851751,-0.0896751135587692,-0.1922730952501297
1774470638908813800,5.881813720703125,-0.3049759033791721,-0.5013853413164615,0.4817927520960569,-0.0210209414362907,-0.0895382314920425,-0.1794726252555847
1774470638918840600,5.891840576171875,-0.3114002373382449,-0.5672887230738997,0.4522860871046781,-0.013713227584958,-0.0879528522491455,-0.1616627275943756
1774470638928867800,5.901867919921875,-0.2952104422986507,-0.6066188629433512,0.443567358598113,-0.0027953241951763,-0.0909975618124008,-0.1472414582967758
1774470638938894800,5.911894775390625,-0.2842442271262407,-0.6399892176255584,0.424199225783348,0.0093028843402862,-0.0949108079075813,-0.1391063034534454
1774470638948921600,5.921921630859375,-0.2989242021247744,-0.6498658839955925,0.4108972611397504,0.0214104298502206,-0.0915557742118835,-0.131516233086586
1774470638958948600,5.931948486328125,-0.2757210211917758,-0.6282400353819132,0.4167693680435418,0.0251244753599166,-0.0788226723670959,-0.1262421011924743
1774470638968976000,5.941975830078125,-0.2567047705546021,-0.598827186153829,0.4375000213831663,0.0282633136957883,-0.0693608447909355,-0.1276495307683944
1774470638979002600,5.952002685546875,-0.2496796942234039,-0.5800964744597673,0.4753974981009959,0.023791866376996,-0.0529038347303867,-0.1267728209495544
1774470638989029600,5.962029541015625,-0.2254715740315616,-0.5461173402294516,0.5112754516899586,0.0139120444655418,-0.0392578653991222,-0.1215634644031524
1774470638999057700,5.9720576171875,-0.2094948372207581,-0.5322124412566424,0.5315297196894884,0.0003509619273245,-0.0365784578025341,-0.1126176416873931
1774470639009084700,5.982084716796875,-0.2093848009750246,-0.5430056379497051,0.5469786332339048,-0.0065308529883623,-0.0295432694256305,-0.0990103036165237
1774470639019111700,5.992111572265625,-0.2001797502562403,-0.5509285399034619,0.5043167185932398,-0.0112260058522224,-0.0281909145414829,-0.0877754986286163
1774470639029138700,6.002138671875,-0.1955319244503975,-0.5632818255200982,0.4466010272055864,-0.0067011164501309,-0.0198434889316558,-0.0805748179554939
1774470639039165700,6.012165771484375,-0.1775470626875758,-0.5881807044550776,0.3651034782141447,-6.027985364198685e-07,-0.0064949253574013,-0.0737121179699897
1774470639049192700,6.022192626953125,-0.1509691446244716,-0.6381035500094294,0.2791659009486437,0.0081923436373472,0.0089420620352029,-0.0641161128878593
1774470639059219700,6.0322197265625,-0.1002799908727407,-0.6966343571722508,0.2289168921798467,0.0158595833927392,0.0304377675056457,-0.0546200796961784
1774470639069246500,6.04224658203125,-0.0571590804181992,-0.7488380071401596,0.2035065565913915,0.0239139571785926,0.0488713309168815,-0.0508110150694847
1774470639079273500,6.0522734375,-0.0614563392207026,-0.7794885814696549,0.2064052006423473,0.0276463776826858,0.0650606900453567,-0.0429080836474895
1774470639089300700,6.06230078125,-0.0895016994878649,-0.7702361844778061,0.2260065576910972,0.0269840806722641,0.0710643753409385,-0.0358918532729148
1774470639099328500,6.07232861328125,-0.1184263268075883,-0.7238838908866048,0.2360819615036249,0.0247829779982566,0.0759512707591056,-0.0319282710552215
1774470639109355500,6.08235546875,-0.1831368455186486,-0.6578279489159584,0.2940975126206874,0.0167015232145786,0.07389447838068,-0.0277279876172542
1774470639119382500,6.092382568359375,-0.2330465393304824,-0.6074065061897039,0.3852899416744709,0.006216924637556,0.071289375424385,-0.0312958247959613
1774470639129409500,6.102409423828125,-0.21923136446774,-0.617889614020288,0.4852934536933899,0.004859481472522,0.0773359835147857,-0.0297391656786203
1774470639139436500,6.1124365234375,-0.1647904569670558,-0.6560936724692583,0.5916337675184011,0.005774543620646,0.0793709009885788,-0.0393020436167717
1774470639149463600,6.122463623046875,-0.1144882567062973,-0.6995119584351778,0.6679191348195076,0.0084873288869857,0.0796931609511375,-0.0499841049313545
1774470639159490600,6.132490478515625,-0.0793219585180282,-0.7277838209345936,0.6947972048729658,0.0111430333927273,0.0766036286950111,-0.0551082901656627
1774470639169517600,6.142517578125,-0.07947714907974,-0.7268520930424333,0.6496013878405094,0.0018744639819487,0.0734012648463249,-0.0609302669763565
1774470639179544600,6.152544677734375,-0.1026888055801391,-0.7094014842867851,0.568642183509469,-0.0106953904032707,0.0676791965961456,-0.0667708441615104
1774470639189571600,6.162571533203125,-0.1323766723573207,-0.7043424473315477,0.499562217542529,-0.0282688736915588,0.0592285022139549,-0.0720943063497543
1774470639199599600,6.172599609375,-0.1832835605129599,-0.7238035191267729,0.44213703353405,-0.0453591793775558,0.05024965852499,-0.0788590013980865
1774470639209626600,6.182626708984375,-0.2281654892906546,-0.7593406964540481,0.4083393933504819,-0.0520056299865245,0.0452684536576271,-0.086043581366539
1774470639219653600,6.192653564453125,-0.2657879484593868,-0.7767886748611926,0.3872597804427146,-0.0568371377885341,0.047212827950716,-0.0913344845175743
1774470639229680600,6.2026806640625,-0.2938736407369375,-0.7486240721285343,0.4013450044184923,-0.0566519573330879,0.0489904955029487,-0.0923785641789436
1774470639239707400,6.212707275390625,-0.3242971283122897,-0.7073311077535152,0.4609054468899965,-0.0515165850520134,0.0466442517936229,-0.1013012155890464
1774470639249734700,6.222734619140625,-0.3232642781332135,-0.6483224539458752,0.5156371540307998,-0.0453212447464466,0.045087456703186,-0.1006935313344001
1774470639259761700,6.23276171875,-0.323074893040955,-0.596908200789988,0.5687462284058332,-0.0424034856259822,0.0392684489488601,-0.0985254496335983
1774470639269788400,6.242788330078125,-0.312485402226448,-0.5491594844043255,0.5676607712566852,-0.0342096835374832,0.0355327278375625,-0.0999891012907028
1774470639279815700,6.252815673828125,-0.3073129680246114,-0.5079553673565388,0.5308884991765022,-0.035874955356121,0.0298428814858198,-0.0994090661406517
1774470639289842700,6.2628427734375,-0.2968646392464638,-0.4813920623406768,0.5068967982143163,-0.0329600349068641,0.0294351615011692,-0.1013809889554977
1774470639299869400,6.272869384765625,-0.263402222366631,-0.474213256752491,0.4607897115558385,-0.0342772342264652,0.0332320295274257,-0.1072503328323364
1774470639309897700,6.282897705078125,-0.2501981651395559,-0.4755757772773504,0.4422691354811191,-0.038099106401205,0.0325072109699249,-0.1085121780633926
1774470639319924500,6.292924560546875,-0.2486927290126681,-0.4750055761739611,0.4684925410181284,-0.0430581793189048,0.0308613758534193,-0.1126195713877677
1774470639329951500,6.302951416015625,-0.2568976627781987,-0.4557642846092581,0.507346880069375,-0.047555848956108,0.0270191319286823,-0.1070645898580551
1774470639339978500,6.312978515625,-0.2556660751566291,-0.4444450182154774,0.5435942514926195,-0.0504829287528991,0.0215769633650779,-0.1039598733186721
1774470639350005500,6.323005615234375,-0.2472211951553821,-0.4331994015797972,0.5702016879111528,-0.0483642295002937,0.0185685828328132,-0.1032356992363929
1774470639360032500,6.333032470703125,-0.2285653022632002,-0.4388981977432966,0.583530540561676,-0.0490449331700801,0.0154553465545177,-0.0950565934181213
1774470639370059500,6.3430595703125,-0.2270975677981972,-0.4364762312933802,0.5620540372908115,-0.0456525385379791,0.0153631679713726,-0.0889017805457115
1774470639380086800,6.353086669921875,-0.2325143321499228,-0.4269830112829804,0.5217448232561349,-0.0391666740179061,0.0115844085812568,-0.082023374736309
1774470639390113500,6.363113525390625,-0.2401552022919058,-0.4013970268666744,0.4694885663181543,-0.0334414802491664,0.0084943482652306,-0.075088657438755
1774470639400140500,6.373140625,-0.2175064403712749,-0.3885290697261691,0.4215460809260606,-0.0242810025811195,0.0152097754180431,-0.068056046962738
1774470639410168600,6.38316845703125,-0.194096630950272,-0.4078156617373228,0.3852028479129076,-0.0188281238079071,0.0222779586911201,-0.0599134229123592
1774470639420195600,6.393195556640625,-0.1642941978827118,-0.4268777973428368,0.3342828080147504,-0.0147609449923038,0.0342280939221382,-0.052033394575119
1774470639430222600,6.40322265625,-0.1458475638270378,-0.42620033647269,0.3172872495502233,-0.0061798179522156,0.041687324643135,-0.0384037196636199
1774470639440249300,6.413249267578125,-0.1226627953335642,-0.4091010253727435,0.3197767282783985,-0.0028833574615418,0.0477358996868133,-0.0276594646275043
1774470639450276600,6.423276611328125,-0.0926186624646186,-0.4025622712537646,0.3252618816912174,0.0023972452618181,0.0560963414609432,-0.0158827230334281
1774470639460303600,6.4333037109375,-0.0851610399350523,-0.4021995754212141,0.3412351113706827,0.0057602850720286,0.0588633678853511,-0.006104661617428
1774470639470330400,6.443330322265625,-0.095212186089158,-0.4302206780299544,0.3566606440395116,0.0100516956299543,0.0636980086565017,-0.0005326140671968
1774470639480357600,6.453357666015625,-0.0887228240698576,-0.4819470658749342,0.3690723818451166,0.0130173917859792,0.0629584491252899,0.0067529957741498
1774470639490384600,6.463384521484375,-0.1042459718942642,-0.5381254646927118,0.3963058412075042,0.0145399253815412,0.0613960064947605,0.0108800064772367
1774470639500411400,6.473411376953125,-0.0931333339884877,-0.5819897408604622,0.4041320047885179,0.0165788419544696,0.0682930648326873,0.0160952750593423
1774470639510438400,6.4834384765625,-0.0763163469612598,-0.6005486031189561,0.3783241943150758,0.0120388092473149,0.0730048790574073,0.0154264671728014
1774470639520466700,6.493466796875,-0.061336219972372,-0.6210182674348353,0.3560796292811632,0.0081705674529075,0.0796015262603759,0.0122202886268496
1774470639530493400,6.503493408203125,-0.0851160317495465,-0.6352142583087086,0.3022854952514171,0.0027884307783097,0.0817480608820915,0.0074541559442877
1774470639540520700,6.513520751953125,-0.1152659630805253,-0.64918988443017,0.2699731251895427,-0.004692655056715,0.0859068483114242,0.0025968169793486
1774470639550547700,6.523547607421875,-0.1194020399719476,-0.6670487817257642,0.2661766555160283,-0.012881014496088,0.0857850834727287,0.0013438928872346
1774470639560574500,6.533574462890625,-0.124518944594264,-0.678047145602107,0.2848877857267856,-0.0270184054970741,0.08249182254076,0.0026475097984075
1774470639570601500,6.5436015625,-0.1399210963875055,-0.6752119221761822,0.339554026415944,-0.0379060879349708,0.0705798417329788,0.0017073489725589
1774470639580628700,6.553628662109375,-0.1872813979774713,-0.6881324862867594,0.4027192153811454,-0.0466734804213047,0.0613293498754501,0.0005299653857946
1774470639590655500,6.563655517578125,-0.2115074922174215,-0.7129857725143433,0.4715162727534771,-0.0553746446967124,0.0455062240362167,0.0033837351948022
1774470639600682500,6.5736826171875,-0.2226920263156294,-0.7386699566081166,0.5283809002697467,-0.0564215332269668,0.0327062718570232,0.0067595588043332
1774470639610709800,6.583709716796875,-0.1594999493435025,-0.7513029359489679,0.5722200419962405,-0.0577629692852497,0.0237013008445501,0.0087130861356854
1774470639620737500,6.593737548828125,0.0401098920702934,-0.7389762460783124,0.578172228398919,-0.0641542971134185,0.032628484070301,0.000839184038341
1774470639630764500,6.6037646484375,0.2008195094645023,-0.6874275528877973,0.5902466970741749,-0.0663730055093765,0.0517205372452735,-0.0121094156056642
1774470639640791600,6.61379150390625,0.1450984990254044,-0.6029997956633567,0.6192354756712913,-0.0695208609104156,0.0609763525426387,-0.0130590982735157
1774470639650818600,6.623818603515625,-0.0880509161576628,-0.5384072042435407,0.6546300296574831,-0.0650975257158279,0.0595867559313774,-0.0062424130737781
1774470639660845600,6.633845458984375,-0.3404056748092174,-0.4936866035073995,0.6870026054739952,-0.058502472937107,0.0405342355370521,0.0126788141205906
1774470639670872600,6.64387255859375,-0.4822463410824537,-0.4846531099632382,0.6801280435293913,-0.0529792830348014,0.0207705646753311,0.0247369948774576
1774470639680899600,6.653899658203125,-0.4447556915998458,-0.5033808990478515,0.6342039122223854,-0.054779578000307,0.0224502217024564,0.030888894572854
1774470639690926600,6.663926513671875,-0.2570014154136181,-0.5805839657157659,0.5309855298101902,-0.0567101314663887,0.0448052622377872,0.0180353596806526
1774470639700953600,6.67395361328125,-0.0769695501729846,-0.6744514591977,0.4213923516690731,-0.0605357624590396,0.0687353610992431,-0.0021780333481729
1774470639710980600,6.683980712890625,0.0063742112070322,-0.7331079385668039,0.3058616001725197,-0.0680560916662216,0.0921394526958465,-0.0233864337205886
1774470639721007600,6.694007568359375,0.0305848156169056,-0.7778031126007438,0.2516150462001562,-0.0708508118987083,0.1030682697892189,-0.0339732989668846
1774470639731035400,6.704035400390625,-0.0275081846505403,-0.8196548799023031,0.2777729852855205,-0.0770922228693962,0.0943391844630241,-0.0314663499593734
1774470639741062700,6.714062744140625,-0.0885869227305054,-0.8305652732342481,0.3614192367434501,-0.0734373033046722,0.0728072598576545,-0.0216821618378162
1774470639751089700,6.724089599609375,-0.1516246859237551,-0.7969108409136533,0.4728209256112575,-0.0646473690867424,0.0520089454948902,-0.0070612775161862
1774470639761116400,6.734116455078125,-0.1699620143860578,-0.7181313187092542,0.5936813476979732,-0.0440145283937454,0.0394593328237533,0.00665426813066
1774470639771143700,6.744143798828125,-0.1601452615097165,-0.6645154638558626,0.7229881110906601,-0.020929442718625,0.0415204092860221,0.0158912651240825
1774470639781170700,6.754170654296875,-0.1682221849814057,-0.607867109438777,0.8245119645446538,-0.0012880964204668,0.0441862344741821,0.02601127512753
1774470639791197400,6.764197509765625,-0.2064201059505343,-0.5469304101780057,0.8694161051541567,0.0155675252899527,0.0388738736510276,0.0324585065245628
1774470639801224400,6.774224365234375,-0.2768044325143098,-0.5191401937156915,0.8598229319006204,0.0316511541604995,0.0337486192584037,0.0466148070991039
1774470639811251700,6.784251708984375,-0.3085767043501138,-0.5107867913901806,0.7711971384644508,0.0380257256329059,0.0249048583209514,0.0587903037667274
1774470639821278500,6.794278564453125,-0.3287321881502866,-0.495237340080738,0.6666255878776312,0.035897858440876,0.0239623636007308,0.0582001432776451
1774470639831306500,6.804306396484375,-0.3428188734307885,-0.4863444240510463,0.5531915163993835,0.0276908539235591,0.030346143990755,0.0506795644760131
1774470639841333500,6.81433349609375,-0.3178141960337758,-0.5546829240009188,0.4646814582973718,0.0124980527907609,0.0342676490545272,0.0411995090544223
1774470639851360500,6.824360595703125,-0.2977157031178474,-0.656911126331985,0.4473188200861215,0.0055409604683518,0.0310187861323356,0.0328995697200298
1774470639861387500,6.834387451171875,-0.2847480849951505,-0.7574591204911469,0.4863210431754589,-0.0029305550269782,0.0262802243232727,0.0276169218122959
1774470639871414800,6.844414794921875,-0.2921814498662948,-0.8679320040762424,0.5597738173991441,-0.004733398091048,0.0161480344831943,0.0215432494878768
1774470639881441500,6.854441650390625,-0.2950590511292218,-0.8878592320784926,0.6533557719379663,-0.0061102523468434,0.0025648484006524,0.0196966156363487
1774470639891468500,6.864468505859375,-0.3186006702363491,-0.8425345279693603,0.7379086168467998,-0.0141334356740117,-0.0158864706754684,0.0120000867173075
1774470639901495600,6.87449560546875,-0.3497130168586969,-0.7849372022643685,0.7955190942943096,-0.0234049670398235,-0.022971810773015,0.0043203281238675
1774470639911522600,6.8845224609375,-0.3565364331379532,-0.7333762341141701,0.8145593103289603,-0.0320290811359882,-0.0220511816442012,-0.0037654610350728
1774470639921549600,6.894549560546875,-0.3173524237409234,-0.681797730307281,0.8051818256527185,-0.0346219353377819,-0.0132190743461251,-0.0106332208961248
1774470639931576600,6.90457666015625,-0.2722062910690903,-0.6094657768070697,0.7290209615141153,-0.032279834151268,-0.0094506274908781,-0.0124205341562628
1774470639941604600,6.9146044921875,-0.2697866627067327,-0.530795560196042,0.6196849730044603,-0.0356596522033214,-0.0092452988028526,-0.0125193372368812
1774470639951631600,6.924631591796875,-0.3278670957535505,-0.507641479101777,0.5842980178028345,-0.03855637088418,-0.0221629347652196,-0.0062879035249352
1774470639961658400,6.934658447265625,-0.3608262392863631,-0.5343807252064346,0.545935846182704,-0.0347041077911853,-0.0314642898738384,0.0014594979584217
1774470639971685600,6.944685546875,-0.3442252330973744,-0.5570677733108401,0.4932289228677749,-0.0279494766145944,-0.0272060334682464,0.0024545649066567
1774470639981712600,6.954712646484375,-0.3453706037402153,-0.6096130763232708,0.4918734166055917,-0.0184076372534036,-0.0257037431001663,0.0006577298045158
1774470639991739400,6.964739501953125,-0.3381663714498281,-0.6686860275387764,0.4762134906589985,-0.0079439524561166,-0.0127640664577484,-0.0011603366583585
1774470640001766400,6.974766357421875,-0.3124792647466063,-0.7114122395873069,0.4613187038660049,0.0020721964538097,-0.0044736471027135,-0.0012231869623064
1774470640011793700,6.984793701171875,-0.2975850624755025,-0.7330521167263389,0.4494517404615878,0.0101109417155385,0.0022598155774176,0.0020900852978229
1774470640021820700,6.994820556640625,-0.254021230559051,-0.7371206813395023,0.4491910436987876,0.0054275067523121,0.0026933783665299,0.009285413660109
1774470640031847400,7.004847412109375,-0.2379889641687274,-0.7061088724821806,0.4740034133940934,0.0056490246206521,0.0063462792895734,0.0184461399912834
1774470640041874700,7.014874755859375,-0.2636979904428124,-0.6436795965760946,0.495336124280095,0.002335253637284,0.0006409892812371,0.0292495191097259
1774470640051902500,7.02490234375,-0.2692538710042834,-0.5654617999076843,0.5151584306031465,0.0016943203518167,-0.0010501090437173,0.0399569049477577
1774470640061929500,7.034929443359375,-0.2579404498293995,-0.5203317415878176,0.5486275694847107,-0.000392799032852,0.0043294765055179,0.0474603585898876
1774470640071956000,7.0449560546875,-0.2881307131707668,-0.4894643096372484,0.5688099412918091,0.0019503709627315,0.006682236213237,0.0543302521109581
1774470640081983000,7.05498291015625,-0.3252013836756348,-0.4933399820268154,0.6030529871553182,0.0069824140518903,0.0068313730880618,0.0604283586144447
1774470640092009700,7.065009765625,-0.359105114582181,-0.5216752651512623,0.6152431911647319,0.0123205119743943,0.0103327902033925,0.0657365918159484
1774470640102037000,7.075037109375,-0.3695300624847412,-0.5495578360721468,0.6147101072013378,0.0202814973890781,0.0180461034178733,0.0741753503680229
1774470640112064000,7.08506396484375,-0.3743324943304061,-0.5833230352908373,0.5880670149475336,0.0259426608681678,0.0245617218315601,0.07849782705307
1774470640122090800,7.0950908203125,-0.3546984040558338,-0.6199278418496251,0.5282242484033107,0.030933691188693,0.0428019762039184,0.0742764472961425
1774470640132117800,7.10511767578125,-0.31919571352005,-0.6639049307420849,0.4634989705145358,0.034899353981018,0.0584527403116226,0.0738504081964492
1774470640142145000,7.11514501953125,-0.2956768907666206,-0.7183569441586732,0.4004255514860153,0.0367300100624561,0.0683125630021095,0.0683091655373573
1774470640152172800,7.1251728515625,-0.2887523522004485,-0.7443041631028056,0.3620376609027385,0.0362005978822708,0.0686921030282974,0.0672224834561348
1774470640162199800,7.13519970703125,-0.2762649188101291,-0.756806209540367,0.352004927188158,0.0341081544756889,0.0664585083723068,0.0662038251757621
1774470640172226800,7.145226806640625,-0.2617562087252736,-0.7717369444295763,0.3906675430595874,0.0308891665190458,0.0567278340458869,0.0642594546079635
1774470640182253800,7.15525390625,-0.2409311551004648,-0.7887474082022905,0.4697551082998514,0.0251652356237173,0.0464546903967857,0.0581016950309276
1774470640192280800,7.16528076171875,-0.2357151740178465,-0.7989616359636187,0.573036034554243,0.0179188847541809,0.0430122837424278,0.0511689186096191
1774470640202307800,7.175307861328125,-0.2535349083468318,-0.8075327726930379,0.6700847884207963,0.0106018483638763,0.0388255305588245,0.0413788706064224
1774470640212334800,7.1853349609375,-0.2591065709993243,-0.7945555099591612,0.7406745744287967,-0.0025111348368227,0.0382305607199668,0.0309285037219524
1774470640222361900,7.19536181640625,-0.2474950436607003,-0.8030822230249642,0.7638339162200689,-0.0135850915685296,0.0362758003175258,0.017899252474308
1774470640232388600,7.205388671875,-0.238547182573378,-0.8203463692978024,0.7498205884367227,-0.0220606997609138,0.0387476533651351,0.0087793953716754
1774470640242415900,7.215415771484375,-0.2235351991415023,-0.8414449791669845,0.6952087082833052,-0.0266700983047485,0.0371660031378269,-0.0051135173998773
1774470640252443000,7.22544287109375,-0.2211775300994515,-0.8612675777509808,0.6115285545557737,-0.0293311774730682,0.0344611965119838,-0.0137567389756441
1774470640262471000,7.235470947265625,-0.2393102759003639,-0.8703092546015977,0.5579693983256816,-0.0319200381636619,0.0289146304130554,-0.0178556106984615
1774470640272498000,7.245497802734375,-0.2332835629567503,-0.8995806495323777,0.5069260243088006,-0.0296811498701572,0.0250292532145977,-0.0258937887847423
1774470640282525000,7.25552490234375,-0.2102975319057703,-0.8874196716174483,0.4671405418872833,-0.0259276889264583,0.0229471940547227,-0.0340052433311939
1774470640292551700,7.2655517578125,-0.1767757860541343,-0.8594055832713842,0.4548837023824453,-0.0227613728493452,0.0216017216444015,-0.0390984714031219
1774470640302579000,7.275578857421875,-0.1684337819054722,-0.8121127939596772,0.4491302534222602,-0.0193503964692354,0.0228097289800643,-0.0405221953988075
1774470640312606000,7.28560595703125,-0.1687540999010205,-0.7674491841077804,0.468981785839796,-0.0133355250582098,0.016973540186882,-0.0483731813728809
1774470640322632700,7.2956328125,-0.2010758223131299,-0.7379357971146703,0.5083639481574297,-0.0123403025791049,0.0140211600810289,-0.052173513919115
1774470640332660000,7.305659912109375,-0.2232426459357142,-0.7178989712581038,0.5596352857112884,-0.0090752122923731,0.0048815859481692,-0.0545974187552928
1774470640342687000,7.31568701171875,-0.2728945655941963,-0.7191176993981003,0.6180214237064123,-0.0082397786900401,-0.0096733877435326,-0.0513520911335945
1774470640352713700,7.325713623046875,-0.3017494886785745,-0.7497416779816151,0.6476508382946252,-0.0106354337185621,-0.0093091782182455,-0.0532837659120559
1774470640362740700,7.33574072265625,-0.2282309557422995,-0.7913084908619522,0.6344722077697516,-0.0125273438170552,0.0025011422112584,-0.0666227340698242
1774470640372768800,7.345768798828125,-0.1149310320377349,-0.8424956572636961,0.6127513743489981,-0.0172434784471988,0.0110172890126705,-0.0858768448233604
1774470640382795800,7.355795654296875,-0.0906613909170031,-0.8685209098801017,0.6095458563059568,-0.0207316875457763,-0.0033581871539354,-0.0887823551893234
1774470640392822800,7.36582275390625,-0.1439402689009905,-0.8855541700065136,0.629135522916913,-0.0204829797148704,-0.0301137566566467,-0.0842324718832969
1774470640402849800,7.375849853515625,-0.2211854211449622,-0.8885191572919487,0.6692103436738253,-0.0242899674922227,-0.0592223741114139,-0.0808414742350578
1774470640412876800,7.385876708984375,-0.3066501202017068,-0.8810928066834807,0.7198480594992637,-0.0291484557092189,-0.090268924832344,-0.0847215056419372
1774470640422903800,7.39590380859375,-0.36058950792104,-0.8354773029342293,0.7974334034830332,-0.0342103280127048,-0.1051962152123451,-0.0848562568426132
1774470640432931000,7.40593115234375,-0.3558066575586796,-0.7714283168718218,0.8733277256399392,-0.042180523276329,-0.1085797101259231,-0.0965549573302269
1774470640442957800,7.415957763671875,-0.3223196907594799,-0.7094014842867851,0.9500403784424066,-0.0474687591195106,-0.1028725579380989,-0.1166985780000686
1774470640452984800,7.42598486328125,-0.2483648122325539,-0.6856240105971694,0.9510539393991232,-0.0573442578315734,-0.0819559246301651,-0.1392455101013183
1774470640463011800,7.43601171875,-0.1596805666074156,-0.7195859014317393,0.8622229787796736,-0.0592422895133495,-0.0639758557081222,-0.160509780049324
1774470640473038800,7.446038818359375,-0.0890361278027296,-0.7705082794174551,0.721432698342204,-0.061839822679758,-0.0568257756531238,-0.1752358675003051
1774470640483067000,7.45606689453125,-0.1006067386090755,-0.8254267413020133,0.5845061075955629,-0.0659717246890068,-0.0707365274429321,-0.1812402307987213
1774470640493094000,7.466093994140625,-0.1630301692962646,-0.857380507184565,0.4766647415578365,-0.0718903318047523,-0.0937755107879638,-0.1837892234325409
1774470640503121000,7.476120849609375,-0.2185305227220058,-0.8931085309088229,0.4057897088676691,-0.0825973004102706,-0.1113616973161697,-0.1842523515224456
1774470640513148000,7.48614794921875,-0.2567313663005828,-0.9424483158782124,0.3827554547607898,-0.0884597525000572,-0.1266712248325348,-0.1919661462306976
1774470640523174700,7.496174560546875,-0.2597071672409772,-0.994307390192151,0.4258025693267583,-0.0969006419181823,-0.1378136277198791,-0.2052662372589111
1774470640533202000,7.506201904296875,-0.2358221415236592,-1.003953170415759,0.4898702600896358,-0.1035936623811721,-0.1438051164150238,-0.2174910008907318
1774470640543229000,7.51622900390625,-0.215436063838005,-0.9668100191965698,0.5598778622955084,-0.1119717061519622,-0.1459497660398483,-0.2351658642292022
1774470640553255700,7.526255615234375,-0.2002896403715014,-0.9129065795734524,0.6307604937702417,-0.1202039197087287,-0.1478026062250137,-0.2501554191112518
1774470640563283000,7.536282958984375,-0.1752539833143353,-0.8576917650908231,0.6575175677925348,-0.1280895322561264,-0.1419612318277359,-0.2691650688648224
1774470640573310000,7.54631005859375,-0.1267366206437349,-0.8045391438350081,0.6437766272097826,-0.1363855153322219,-0.1252375543117523,-0.2930802702903747
1774470640583336700,7.556336669921875,-0.0725987877428531,-0.7847977937936782,0.6119464877068996,-0.147574245929718,-0.1000901162624359,-0.3241516351699829
1774470640593365000,7.566364990234375,-0.0369087579414248,-0.8162555928528309,0.5438356590330601,-0.1528858989477157,-0.086942046880722,-0.3538590371608734
1774470640603392000,7.57639208984375,-0.0514253590717911,-0.8633060978412628,0.486081973722577,-0.1509998440742492,-0.0843886062502861,-0.3692893981933594
1774470640613418800,7.586418701171875,-0.1156570082247257,-0.9335559843704104,0.4391875360786914,-0.1485313922166824,-0.1069735661149025,-0.381387859582901
1774470640623445800,7.59644580078125,-0.1963584384024143,-1.0058905682191253,0.4249824851155281,-0.1485377848148346,-0.1301648914813995,-0.3878766596317291
1774470640633473000,7.60647314453125,-0.249545254188776,-1.044367890651524,0.4414689250141382,-0.1504622399806976,-0.1556699424982071,-0.3916501700878143
1774470640643499800,7.616499755859375,-0.2595177821487188,-1.0546075451150536,0.4791138882756233,-0.1564524918794632,-0.175272136926651,-0.4017091989517212
1774470640653526800,7.62652685546875,-0.2667252293094992,-1.0246423227012156,0.5140922626763582,-0.1603924036026001,-0.1907840967178344,-0.4026960134506225
1774470640663554000,7.636553955078125,-0.3024371786817908,-0.9509025482296944,0.5917220303237438,-0.1680934727191925,-0.2140457481145858,-0.39332115650177
1774470640673580800,7.646580810546875,-0.3259390503004193,-0.8318506368696689,0.6634189007908106,-0.1765861958265304,-0.2318801581859588,-0.3841513991355896
1774470640683607800,7.65660791015625,-0.337036490637064,-0.6729279028922319,0.7607055550664663,-0.1805314123630523,-0.236855462193489,-0.3707154989242553
1774470640693634800,7.666634765625,-0.3187447548821568,-0.5254173742890358,0.815634246084094,-0.1868722736835479,-0.2316355258226394,-0.3674156665802002
1774470640703662800,7.676662841796875,-0.2409542437151074,-0.4400122964650392,0.8328057456374168,-0.1914510428905487,-0.2207890003919601,-0.3691674768924713
1774470640713689900,7.68668994140625,-0.1705205250516533,-0.4425944219127297,0.7977350167781114,-0.1848500519990921,-0.2099446356296539,-0.3829088807106018
1774470640723716600,7.696716552734375,-0.1559746978268027,-0.5284142180174589,0.7558575305134058,-0.1765740066766739,-0.1998808085918426,-0.3851770758628845
1774470640733743900,7.706743896484375,-0.1891486531540751,-0.621390023356676,0.7175070493310689,-0.1710891723632812,-0.2018245160579681,-0.3903680145740509
1774470640743771000,7.71677099609375,-0.2725476518526673,-0.723094494074583,0.7314134096086025,-0.1639076918363571,-0.2232246100902557,-0.3837886750698089
1774470640753798000,7.7267978515625,-0.3713531862586736,-0.8115206732854247,0.7533405792564153,-0.1592833399772644,-0.2491644471883773,-0.3759459257125854
1774470640763825000,7.736824951171875,-0.4204825433477759,-0.8671002294272184,0.7758072626084089,-0.1557282954454422,-0.2687256634235382,-0.3708459734916687
1774470640773852000,7.746851806640625,-0.4457467484638094,-0.8700202085271477,0.7757710222512483,-0.1540657728910446,-0.2789532542228699,-0.3743103146553039
1774470640783879000,7.75687890625,-0.4645134082540869,-0.8323784601360559,0.7537596814513206,-0.1566655486822128,-0.276028037071228,-0.3826556205749511
1774470640793905700,7.76690576171875,-0.4483686213999986,-0.8021700766161084,0.7208195348799228,-0.1589078903198242,-0.258872389793396,-0.3945181965827942
1774470640803933000,7.776932861328125,-0.3866258664533495,-0.765154058907926,0.6623667613893747,-0.1648534089326858,-0.2402909994125366,-0.4109224677085876
1774470640813960700,7.786960693359375,-0.3114648270070552,-0.7355088622286915,0.6110054074645042,-0.1704810261726379,-0.2174501568078994,-0.4194566011428833
1774470640823988000,7.796988037109375,-0.2654030407950282,-0.7087681548193097,0.5573597419947386,-0.1757743209600448,-0.2190230190753936,-0.4261448681354522
1774470640834015000,7.807014892578125,-0.2754991951346397,-0.7014581240668892,0.4913385790765285,-0.1756763458251953,-0.2158187627792358,-0.4268112480640411
1774470640844041700,7.817041748046875,-0.2469049688130617,-0.6973460125729442,0.4339747698664665,-0.1715673506259918,-0.208912119269371,-0.4285739958286285
1774470640854068700,7.82706884765625,-0.1779837005391716,-0.7137988424628973,0.3794178347706795,-0.1697487384080886,-0.2023944854736328,-0.4303129315376282
1774470640864096000,7.837095947265625,-0.1681333376541733,-0.7310875386551022,0.3488900100380182,-0.1677004992961883,-0.1967376768589019,-0.4390081763267517
1774470640874122800,7.847122802734375,-0.1764122134387493,-0.7533373643860221,0.3532850301265716,-0.1608790159225464,-0.1956471800804138,-0.4422242939472198
1774470640884149800,7.857149658203125,-0.2152130687370896,-0.7301672089397907,0.3937193318456411,-0.1570885479450225,-0.203923761844635,-0.4453593492507934
1774470640894177000,7.867177001953125,-0.2758110375627875,-0.6998784536600112,0.4494599237680435,-0.144617959856987,-0.2182558923959732,-0.4370595216751098
1774470640904203800,7.877203857421875,-0.3234139157369732,-0.6584837824761867,0.49956046397686,-0.1339469403028488,-0.2299474328756332,-0.4311259984970093
1774470640914230800,7.887230712890625,-0.3016974662303924,-0.6237558757051825,0.5356248800486326,-0.1307819038629531,-0.235768437385559,-0.4220888316631317
1774470640924259000,7.897259033203125,-0.2410439678251743,-0.5835486607402562,0.577152237701416,-0.1292939931154251,-0.2329404056072235,-0.4245189726352691
1774470640934285800,7.907285888671875,-0.2125675226643681,-0.5566238289356231,0.59435880856812,-0.1261343657970428,-0.2240540981292724,-0.4296034574508667
1774470640944312800,7.917312744140625,-0.1671440343558788,-0.5454612144082784,0.5728220995426178,-0.1208139061927795,-0.2151687294244766,-0.4304998815059662
1774470640954339800,7.92733984375,-0.1042488945037126,-0.5456400781065225,0.5465571929514408,-0.11329185962677,-0.2076222449541092,-0.4270810186862945
1774470640964366800,7.937366943359375,-0.1132642678692936,-0.5639484727352857,0.5002174665808677,-0.1126332581043243,-0.2109983414411544,-0.4239150583744049
1774470640974393900,7.947393798828125,-0.1823287440061569,-0.567379616227746,0.4748281737804412,-0.1126054525375366,-0.2243207544088363,-0.4169671237468719
1774470640984420900,7.9574208984375,-0.2793006332442164,-0.5816203230261803,0.4861731591373682,-0.1169304251670837,-0.2413436770439148,-0.41274094581604
1774470640994448000,7.96744775390625,-0.3605351473852992,-0.6059928399994969,0.5375894581198692,-0.1140128076076507,-0.2489330321550369,-0.4081669747829437
