time,seconds_elapsed,accel_x,accel_y,accel_z,gyro_x,gyro_y,gyro_z
1774470626306950000,0.073949951171875,-0.4945955350458622,-0.0570014056384563,0.3333776758685708,0.3478288948535919,0.0571894384920597,-0.1173581406474113
1774470626316963000,0.083963134765625,-0.3718628893464804,-0.2114005247116088,0.504457149977237,0.4544461369514465,0.0616869814693927,-0.1660915911197662
1774470626326975700,0.093975830078125,-0.0514040240228176,-0.3420753615871071,0.6313059988237917,0.4730397164821625,0.0332766622304916,-0.2673275470733642
1774470626336989000,0.103989013671875,0.3312462167978287,-0.2844210449978709,0.2596342481352389,0.4540194272994995,0.0480252467095851,-0.3904255032539367
1774470626347001900,0.114001953125,0.6227829390197992,-0.2791068642377853,-0.2271124731063842,0.4218597114086151,0.0073310290463268,-0.5157839059829712
1774470626357014800,0.124014892578125,0.6100771867036819,-0.5017018599197268,-0.4054468867793679,0.4180700480937958,-0.1733729690313339,-0.6123980283737183
1774470626367028000,0.134028076171875,0.2944189996600151,-0.7575678415626287,-0.2991499737046659,0.4098755717277527,-0.3697534501552582,-0.646384060382843
1774470626377041000,0.144041015625,-0.2450619712948799,-0.817258632415533,-0.4037751541748642,0.3841451406478882,-0.4412004649639129,-0.5889421105384827
1774470626387054800,0.154054931640625,-0.7357482239425182,-0.6425707585513591,-0.6833180717423558,0.3661026656627655,-0.4587069153785705,-0.4897932410240173
1774470626397067800,0.16406787109375,-0.9620803603261708,-0.5081874225467443,-0.8499898124113678,0.4943729937076568,-0.9783221483230592,-0.5736162662506104
1774470626407081000,0.1740810546875,-0.2967325372993946,-0.8581462308600545,-0.5884932775355876,0.518620491027832,-1.0310783386230469,-0.6585695743560791
1774470626417094000,0.184093994140625,0.5187433033525943,-0.4932447049587964,-0.474524514658749,0.4861155748367309,-0.8355363607406616,-0.7241435647010803
1774470626427106800,0.19410693359375,0.4628682713955641,-0.1853326019972562,-0.7799410014122724,0.4999755918979645,-0.6660240888595581,-0.7475934624671936
1774470626437120000,0.2041201171875,0.2334334928214549,0.0146188924610614,-0.5510435445852577,0.5858582854270935,-0.3707402348518371,-0.7153409719467163
1774470626447133000,0.2141328125,-0.1223848551750183,0.1700393174059689,-0.0269235166303813,0.6979280710220337,0.0928829461336135,-0.6296159029006958
1774470626457145900,0.224145751953125,-0.44924248162508,0.2510281862229108,0.1767657030515372,0.8189147114753723,0.6290190815925598,-0.4914644360542297
1774470626467158800,0.23415869140625,-0.8180342929631471,0.3293947437122464,0.158740801539272,0.9585037231445312,1.1720495223999023,-0.328437328338623
1774470626477172000,0.244171875,-1.0902888070881367,0.2757679290734231,-0.0631451690904796,1.057152509689331,1.7030041217803955,-0.1633804589509964
1774470626487185000,0.254184814453125,-1.273105626872182,0.3677525314182043,-0.4884256142392754,1.0888925790786743,2.144128561019897,0.0669441893696785
1774470626497197800,0.26419775390625,-1.9042220944732424,0.5768960709832608,-1.2235095290541649,1.0622422695159912,2.5759520530700684,0.3713759779930115
1774470626507211000,0.2742109375,-2.4780828894138334,0.7168231587201357,-1.9836822924181816,1.0299938917160034,2.973966121673584,0.7805410623550415
1774470626517224000,0.284223876953125,-2.802262236565351,1.452795985198766,-2.210594274516404,0.995797038078308,3.275442600250244,1.2011466026306152
1774470626527236900,0.29423681640625,-2.663539410051704,1.9150529928281903,-2.0411822952285408,0.8912026286125183,3.042905330657959,1.5234644412994385
1774470626537249800,0.304249755859375,-1.7783382912665604,2.062306916321814,-1.20915834761858,0.6191314458847046,1.88511335849762,1.7865618467330933
1774470626547263000,0.314262939453125,-0.5123088863909244,1.6976555657893415,-0.4666270394071936,0.2603048086166382,0.929179072380066,2.1431500911712646
1774470626557276000,0.32427587890625,-0.34731998424232,1.6610986900255085,-1.3393945008158683,-0.0767789408564567,0.6156813502311707,2.667363166809082
1774470626567288800,0.334288818359375,-0.7193284195393324,1.6814266077831386,-2.7394632505640386,-0.5196753740310669,0.491698145866394,3.189666509628296
1774470626577302000,0.344302001953125,-0.9669611181050538,0.4275564272567629,-3.2635484994664785,-0.9885081052780152,-0.5374801754951477,3.353440999984741
1774470626587315000,0.35431494140625,1.1813093867063522,0.0593979453861713,-1.6557082291588183,-1.3712313175201416,-3.1332597732543945,2.628046751022339
1774470626597328000,0.364327880859375,6.305233532395959,-0.0736176093965768,0.1415714939430356,-1.619722843170166,-5.527297496795654,1.4356803894042969
1774470626607340800,0.3743408203125,7.883032884705067,-2.6323656886309386,0.5865151093304157,-1.7218198776245115,-6.919044494628906,0.4832499325275421
1774470626617354000,0.38435400390625,7.405256382513046,-2.3160738798588514,0.9430702471688388,-1.6838464736938477,-7.301279544830322,-0.3672082126140594
1774470626627366700,0.39436669921875,7.332323832771181,-0.2637681330695748,0.5270835539355874,-1.709932565689087,-5.97702693939209,-1.4998048543930054
1774470626637379800,0.4043798828125,6.114859429100156,0.8500757371291517,0.2915236435446888,-1.6964935064315796,-4.092545032501221,-2.3869848251342773
1774470626647394000,0.41439404296875,4.96664158013463,2.0109563760519027,0.3657325698979198,-1.685248613357544,-1.5249265432357788,-3.0675816535949707
1774470626657406700,0.42440673828125,2.7483663957268,1.829287264998257,0.3533021273918449,-1.6208901405334473,1.123072862625122,-3.3909780979156494
1774470626667420000,0.434419921875,-0.0172603468805551,1.035914535082877,0.6419057918366045,-1.4455816745758057,2.5647528171539307,-3.4251787662506104
1774470626677432800,0.444432861328125,-1.409699624663591,-0.1574187591552734,1.4068958192892371,-1.1739660501480105,2.223191022872925,-3.4352285861968994
1774470626687445800,0.45444580078125,-2.7134242616832256,-1.670698293019831,3.131123019531369,-0.495561808347702,0.7914680242538452,-3.0107452869415283
1774470626697459000,0.464458984375,-5.145069225049019,-2.9642917043864725,7.532733007869124,0.294752299785614,0.7508257627487183,-2.0937814712524414
1774470626707472000,0.474471923828125,-4.512334800857305,-2.8271429953217506,7.268368370211124,0.5821295976638794,0.4389306008815765,-1.1208728551864624
1774470626717485000,0.484485107421875,-3.399031613406539,-1.4514255736283956,2.7283126187354325,0.4152407646179199,-0.6503147482872009,-0.2635720074176788
1774470626727497700,0.494497802734375,-2.695180748984217,0.1337039754383266,-1.1211983246147632,0.1890403479337692,-1.6827962398529053,0.4858602881431579
1774470626737511000,0.504510986328125,-1.9615227753192184,0.1231847733810544,-1.6854843587413428,-0.0411899201571941,-1.883512258529663,1.09238862991333
1774470626747523800,0.51452392578125,-2.6124457671523094,0.1493010652817785,-1.8428864590227605,-0.2955740690231323,-1.755531668663025,1.3757352828979492
1774470626757536800,0.524536865234375,-2.866303039321304,0.1638395859830081,-2.131603593779355,-0.5732306838035583,-1.7348146438598633,1.040355920791626
1774470626767550000,0.534550048828125,-0.2070686329871416,-0.1606780532121658,-1.395610309034586,-0.7267098426818848,-1.077250599861145,0.5584237575531006
1774470626777563000,0.54456298828125,0.2880038719207048,-0.5019010357536375,-0.7840341159448028,-0.6572409868240356,-0.5169472694396973,0.1520943641662597
1774470626787576000,0.554576171875,-0.0239648129552602,-0.0191888307251036,-0.3912172858968377,-0.475430965423584,0.0150545220822095,-0.1401918232440948
1774470626797588700,0.564588623046875,-0.3271715147048235,0.2247071655303239,-0.1527159152265638,-0.3401338756084442,0.514736533164978,-0.3565281331539154
1774470626807602000,0.574601806640625,-0.3611941958159208,0.0842722744017839,-0.1106530624575913,-0.2707625031471252,0.9054621458053588,-0.502967894077301
1774470626817614800,0.58461474609375,-0.4307254126816988,-0.2548820851720869,-0.0894707198277115,-0.2562043070793152,1.044910550117493,-0.5501311421394348
1774470626827627800,0.594627685546875,-0.6485831507086753,-0.1768285391546785,-0.3731665192909538,-0.2618464827537536,1.00556480884552,-0.5280207991600037
1774470626837641000,0.604640869140625,-0.5540817432373761,0.1754050822228193,-0.5461082801401614,-0.2692181169986725,0.8460065722465515,-0.4383385777473449
1774470626847654000,0.61465380859375,-0.3978951562255621,0.2394854863367974,-0.5794315808102488,-0.3006168901920318,0.5650059580802917,-0.2878999710083008
1774470626857667000,0.6246669921875,-0.3870966988354921,0.179974874356389,-0.4442106249377131,-0.3429105579853058,0.255124568939209,-0.082261323928833
1774470626867679700,0.6346796875,-0.529355882781744,0.2074256297312676,-0.1791175268746912,-0.3712599277496338,0.0229118186980485,0.1328680217266082
1774470626877693000,0.64469287109375,-0.6636123775362968,0.2776473130792379,0.01047200191468,-0.3183434307575226,-0.0688852071762085,0.3073641955852508
1774470626887705900,0.654705810546875,-0.5241565605729818,0.3213970229566097,-0.0242909761697053,-0.2389131039381027,-0.0496324114501476,0.4063813388347626
1774470626897719800,0.6647197265625,-0.2636556126058101,0.5479406101338565,-0.1320366267479956,-0.2210033386945724,0.0261457078158855,0.3861753940582275
1774470626907733000,0.67473291015625,0.0499310288608074,0.3653609601065516,-0.3756011990919708,-0.2537925243377685,0.0997302159667015,0.256955087184906
1774470626917746000,0.684745849609375,0.6841577374368906,0.173078100579977,-0.5213156380586326,-0.3178399503231048,0.1711396723985672,0.0950042530894279
1774470626927758800,0.6947587890625,1.0720523086518048,0.1717792929410934,-0.5235363828480243,-0.3762737214565277,0.2394794672727584,-0.0490541569888591
1774470626937771800,0.704771728515625,1.075078962996602,0.1539139659047126,-0.3928462022729218,-0.4077147245407104,0.211210548877716,-0.1343647837638855
1774470626947785000,0.714784912109375,0.8736983125180006,0.0659517509438097,-0.1791223491802811,-0.4149320125579834,0.1126932203769683,-0.1458626389503479
1774470626957798000,0.7247978515625,0.5809218193680048,0.0065380234666168,0.2085638399809598,-0.3706468343734741,-0.0124423298984766,-0.1193804293870925
1774470626967810800,0.734810791015625,0.3663981941998004,0.0836352916724979,0.5916684004403651,-0.3172438442707062,-0.1250407397747039,-0.0805410966277122
1774470626977824000,0.744823974609375,0.3097369803011417,0.1149630346111953,0.6321411344736814,-0.3084064126014709,-0.1724982559680938,-0.0694277286529541
1774470626987837000,0.7548369140625,0.3643745794177055,0.2630126385271549,0.4213628333136439,-0.3203254044055938,-0.1635054051876068,-0.0873698741197586
1774470626997849900,0.764849853515625,0.2812970677584409,0.3675460490606725,0.314894070803374,-0.3188817203044891,-0.1235065832734108,-0.1031019687652587
1774470627007862800,0.77486279296875,0.1151461360931396,0.2518329267345369,0.2549450674057006,-0.324758768081665,-0.0483217164874076,-0.1170666143298149
1774470627017876000,0.7848759765625,0.001303483814001,0.1366845986843109,-0.0081755615405738,-0.353076159954071,0.0388909503817558,-0.1374991834163665
1774470627027889000,0.794888916015625,0.019849194329977,0.1579704016886651,-0.1873075553320348,-0.369653970003128,0.1108420342206955,-0.1484123319387436
1774470627037901800,0.80490185546875,-0.015710779350996,0.2338387126214802,-0.0767677439905703,-0.3397240340709686,0.1508475244045257,-0.1475830227136612
1774470627047915000,0.8149150390625,-0.0114648123443126,0.303018777962029,0.2553017718888819,-0.280030608177185,0.1265542805194854,-0.1580459028482437
1774470627057928000,0.824927978515625,0.1956108349055051,0.3390213808439671,0.520532524856925,-0.2420845627784729,0.0078113861382007,-0.1712349355220794
1774470627067940900,0.83494091796875,0.3982587288409471,0.2932796203665435,0.4942851539224386,-0.2303361743688583,-0.1642741411924362,-0.144448846578598
1774470627077953800,0.844953857421875,0.3112199123352765,0.251877350398153,0.350287309615314,-0.2526409327983856,-0.3152271509170532,-0.0925177410244941
1774470627087966700,0.854966796875,0.1631955889910459,0.1523076997518539,0.2067309254653751,-0.2552079260349273,-0.5564732551574707,-0.0323817916214466
1774470627097979600,0.864979736328125,0.004287468060851,0.1165026652686297,0.3090932755701244,-0.2434080094099044,-0.8335434794425964,0.0777271315455436
1774470627107992600,0.87499267578125,-0.3239414467424154,0.236118055730313,0.3481305699728429,-0.2388542145490646,-0.926969051361084,0.2291467636823654
1774470627118005500,0.885005615234375,-0.6375064608991146,0.2427569092229008,0.3710873749293387,-0.261670857667923,-0.7974669337272644,0.3350651860237121
1774470627128018700,0.895018798828125,-0.7477022811084986,0.2217601522929966,0.2083157835040241,-0.2657832503318786,-0.6443525552749634,0.3328916132450104
1774470627138031400,0.90503125,-0.5532312638878822,0.2981881429351866,-0.0827415577031672,-0.2314321845769882,-0.5025192499160767,0.316257506608963
1774470627148045600,0.915045654296875,-0.5100216522365808,0.4043560228027403,-0.0924994930643588,-0.1719720512628555,-0.3134824931621551,0.3150790333747864
1774470627158058800,0.925058837890625,-0.5909376019477844,0.3794073133766651,0.223722246146202,-0.1736873984336853,-0.255144864320755,0.2940342128276825
1774470627168071400,0.935071533203125,-0.2480184830129146,0.208972859173268,-0.1668880868334323,-0.2026457488536834,-0.3287594616413116,0.2659878134727478
1774470627178084600,0.945084716796875,-0.051425651332736,-0.0585486350804567,-0.3257494460124522,-0.2415446788072586,-0.4014491140842438,0.2326855063438415
1774470627188097800,0.955097900390625,-0.0162210669606924,-0.1772207533426582,-0.213213492417708,-0.2765457332134247,-0.4288798570632934,0.1985804438591003
1774470627198110500,0.9651103515625,-0.0362029477596283,-0.0884165345996618,-0.2125942645408213,-0.2987354695796966,-0.5019670724868774,0.195014476776123
1774470627208123600,0.97512353515625,-0.1284253043830394,0.0470889373026788,-0.331922143298015,-0.303125262260437,-0.5593245029449463,0.2701157033443451
1774470627218136600,0.985136474609375,-0.5536912826150655,0.1296013624250888,0.0494861346375197,-0.2917892336845398,-0.5916616916656494,0.4191683232784271
1774470627228149800,0.995149658203125,-1.0221084203094244,0.0143828917481005,0.4339296886157244,-0.2673622071743011,-0.7589684724807739,0.614014744758606
1774470627238162400,1.005162353515625,-0.9650853873610497,0.3786665780119597,0.5230225881069899,-0.2131684869527816,-1.0229816436767578,0.8185047507286072
1774470627248175600,1.015175537109375,-0.8701157778561115,0.5994276362650096,1.338565356515348,-0.2384576797485351,-1.4331852197647097,1.0072214603424072
1774470627258188500,1.0251884765625,-0.5856091004014015,0.1022460302487015,0.9889094036061316,-0.3362103402614593,-1.9886574745178225,1.1831823587417605
1774470627268201500,1.035201416015625,-0.2961883474200963,-0.2506811263509094,0.3716925377482548,-0.4171223640441894,-2.377044916152954,1.2945209741592407
1774470627278214700,1.045214599609375,-0.4135393000811338,-0.5336532877147198,0.4437173615280538,-0.4635545909404754,-2.445878267288208,1.3428192138671875
1774470627288227600,1.0552275390625,-0.7332166596382856,-0.2612637490332126,0.1169111182053573,-0.5102375745773315,-2.0296223163604736,1.2853243350982666
1774470627298240800,1.06524072265625,-0.7771621843487024,0.3310045169964432,-0.3650436743183061,-0.543972909450531,-1.571012258529663,1.1173335313796997
1774470627308253400,1.07525341796875,-0.1520610315144062,0.6045400108426809,-0.629553163807094,-0.5657445788383484,-1.6305755376815796,0.9285446405410768
1774470627318266600,1.0852666015625,0.5254384170770645,0.0190381702080368,-0.0168560769286006,-0.5460571646690369,-2.145244598388672,0.8975158929824829
1774470627328279600,1.095279541015625,-0.1236333939313888,-0.7331362878784536,0.4621118270050734,-0.2917734682559967,-2.5458977222442627,1.125855565071106
1774470627338292500,1.10529248046875,-1.814648791053891,-1.357019589355588,0.910007058739662,0.1717388182878494,-2.841027021408081,1.5142254829406738
1774470627348305700,1.1153056640625,-3.290118234223127,-1.5828686183974146,1.0281586602590975,0.4507990479469299,-3.322901487350464,1.792604684829712
1774470627358318600,1.125318603515625,-4.436151140365005,-1.361282799758017,0.8748283394612372,0.1226637586951255,-4.157235622406006,1.7126315832138062
1774470627368332500,1.13533251953125,-4.409911952736974,-0.5193979678690434,-0.0565174215137958,-0.3019712567329407,-4.97222375869751,1.3907455205917358
1774470627378345500,1.145345458984375,-2.718967867285013,1.034927277611196,-0.3492082822069525,-0.5905101299285889,-5.834460735321045,0.9435707330703736
1774470627388358700,1.155358642578125,-0.6259907951503991,2.8032614767357704,0.8883703964710236,-1.1915684938430786,-6.200869560241699,0.4539385735988617
1774470627398371600,1.16537158203125,1.037422893819213,4.1907980771690605,0.8510179864153266,-2.362002372741699,-5.518343925476074,0.0447015389800071
1774470627408384500,1.175384521484375,1.1274234827399252,4.5034483145684,-0.2405512158721685,-3.6804449558258057,-4.919527053833008,-0.2184572219848632
1774470627418397700,1.185397705078125,1.1515209821641446,3.5691599242702123,-0.5794269046351314,-4.553717136383057,-5.734285831451416,-0.3025225698947906
1774470627428410600,1.19541064453125,-0.0012672434568405,1.3403998784661293,0.2662549814492463,-5.127584457397461,-6.973881244659424,-0.3325217366218567
1774470627438423600,1.205423583984375,-1.612323553201556,0.3937108562782406,0.3319894363805651,-5.464779853820801,-7.430253982543945,-0.4160645604133606
1774470627448436500,1.2154365234375,-2.347068737581372,1.5519111700758337,-0.2385585807502269,-5.429782390594482,-7.24703311920166,-0.452048659324646
1774470627458449700,1.22544970703125,-2.2432079656124118,3.0967870346874,-0.2528495564311742,-5.0938239097595215,-6.470161437988281,-0.3658549189567566
1774470627468462600,1.235462646484375,-2.1919068174421787,3.107176326754689,0.0574836361974477,-4.490859508514404,-5.142720699310303,-0.2283296883106231
1774470627478475500,1.2454755859375,-1.6417735195696352,2.411646715953946,1.0282973380774258,-3.594912052154541,-4.178749561309815,-0.0465646870434284
1774470627488488700,1.25548876953125,0.1108113217592239,2.458838675239682,2.3868209022551774,-2.863355875015259,-3.39143443107605,0.1202809363603591
1774470627498501600,1.265501708984375,0.3352501917421817,1.690880372565985,3.1763936553657053,-2.6209912300109863,-2.7946879863739014,0.2312143743038177
1774470627508514600,1.2755146484375,-0.8291542373925447,0.4387099816948175,3.2927211101979017,-2.8137242794036865,-2.444817066192627,0.4778304100036621
1774470627518527500,1.285527587890625,-2.0309347497195005,-0.2777875983327627,2.184796108654141,-3.202152967453003,-2.343693733215332,0.9390819072723388
1774470627528540700,1.295540771484375,-2.5216993283003566,-0.1295166067510843,1.35115975741148,-3.56203842163086,-2.4389071464538574,1.5203856229782104
1774470627538553600,1.3055537109375,-2.1463298921376466,-0.0571709169864654,0.9438596439808606,-3.6841185092926025,-2.628591775894165,2.2326154708862305
1774470627548566500,1.31556640625,-1.9099875261321664,-1.6294050363838672,-0.0654179363280534,-3.496582508087158,-2.154325485229492,2.714877128601074
1774470627558579700,1.325579833984375,-1.0980059573367238,-3.0165181507080794,0.234267021036148,-3.3141257762908936,-1.9858092069625852,2.4092254638671875
1774470627568593400,1.335593505859375,2.0006798967093227,-2.9906869593590497,1.2150114575609563,-3.4435458183288574,-2.1948587894439697,1.6384954452514648
1774470627578606600,1.345606689453125,4.25676487955153,-1.228220190963149,-0.2591960028484463,-3.772369623184204,-2.477660655975342,0.8946806788444519
1774470627588619800,1.355619873046875,3.433999466413259,-0.223524677747488,-1.3311863521799443,-4.082437992095947,-2.514943122863769,0.4865567088127136
1774470627598632400,1.365632568359375,1.1815402728527784,0.1663005692690611,-0.9889189751520752,-4.517154216766357,-2.3944292068481445,0.5418274402618408
1774470627608645600,1.375645751953125,-0.0984048446506261,1.1568132433533669,-0.7856459350556134,-4.999502658843994,-2.243912935256958,0.7831615209579468
1774470627618658600,1.385658447265625,-1.2634680299550294,2.373985386079549,-0.567806609468162,-5.26866340637207,-2.556990146636963,1.3171387910842896
1774470627628671700,1.395671630859375,-2.453860886827111,3.248909441000223,-0.6843073750406503,-5.638503074645996,-2.511561393737793,1.8747848272323608
1774470627638684400,1.405684326171875,-2.9727722402229904,3.561814529943466,-0.6598375351727008,-5.329564094543457,-2.014614582061768,2.4799156188964844
1774470627648697600,1.415697509765625,-3.352752092790604,3.459788572186232,0.7489027429394424,-3.404881715774536,-0.6259388327598572,2.6375033855438232
1774470627658710800,1.425710693359375,-2.798872301866114,1.58876147582829,4.251136518275738,-0.6155630350112915,1.1503287553787231,1.8418298959732056
1774470627668723500,1.435723388671875,0.5628244371414184,0.7569505864471197,5.434259091883898,0.7870030999183655,2.173860788345337,0.8701294660568237
1774470627678736600,1.445736572265625,2.7586598262041804,0.0064443538337945,2.623357037267089,1.0653767585754397,1.9968299865722656,0.7368824481964111
1774470627688749600,1.45574951171875,0.9498365264333783,0.8296914130091667,1.015824956125766,1.028873085975647,1.401968002319336,0.9203205704689026
1774470627698762800,1.4657626953125,-0.4131812804237008,0.3886445127993821,1.7626457782246172,0.8464840650558472,0.9790148735046388,1.2151249647140503
1774470627708775400,1.475775390625,0.694705434936285,-0.9772785139799116,2.103325886061042,0.8380270600318909,0.868878960609436,1.354090929031372
1774470627718788600,1.48578857421875,1.0710422548264265,-0.38486265617311,2.4992338139921424,0.928141474723816,0.8717285394668579,1.3868789672851562
1774470627728801500,1.495801513671875,0.6162057525865733,0.7723200050145387,2.45210118367821,1.0235432386398315,0.8362501263618469,1.3403868675231934
1774470627738814700,1.505814697265625,-0.4623690897017717,2.5738977175712585,1.1231360146790743,1.0009554624557495,0.7674838304519653,1.3676728010177612
1774470627748827600,1.51582763671875,-1.7213368856281042,3.922244755649567,-0.4082698352456093,0.8026636838912964,0.9377378225326538,1.6320711374282837
1774470627758840600,1.525840576171875,-3.096574853241444,4.402707135924697,-2.1307050375044345,0.6321660280227661,1.1494394540786743,1.593660831451416
1774470627768854500,1.5358544921875,-2.7686078042447564,4.084751193332672,-2.1125810595318675,0.5426337122917175,1.0039937496185305,1.3591642379760742
1774470627778867500,1.545867431640625,1.210035276583582,1.765017621922493,-1.0445309722587466,0.2026346176862716,1.0533101558685305,0.9724609851837158
1774470627788880600,1.555880615234375,2.9477047267228365,1.2128688925743103,-0.8120739232540131,-0.4848036766052246,0.032813660800457,1.1086153984069824
1774470627798893600,1.5658935546875,2.1104513540267944,1.383832777479291,-1.4847715245217084,-1.48944091796875,-0.9063313603401184,1.130732774734497
1774470627808906500,1.575906494140625,0.983657547492534,1.287284958872199,-3.851274153630435,-2.487776279449463,-0.9906354546546936,1.0902702808380127
1774470627818919700,1.585919677734375,-0.636354952776432,0.7765384994924068,-5.137955009129644,-3.227694511413574,-0.6049210429191589,0.9118465185165404
1774470627828932600,1.5959326171875,-2.135278336769342,-0.8668114756137132,-5.000506440335512,-3.649693012237549,-0.3536464869976043,0.5936717391014099
1774470627838945500,1.605945556640625,-0.9015821986131368,0.0723264005422592,-4.804288871708512,-3.819520711898804,-0.0215428415685892,0.4461741745471954
1774470627848958500,1.61595849609375,-0.5567599494706839,1.6638684469997882,-3.3986610265284773,-3.892974376678467,0.3335989415645599,0.4465396404266357
1774470627858971600,1.6259716796875,-1.4770225178301333,3.7132577218204736,-1.7776625839620828,-3.556992769241333,0.5966606736183167,0.470653772354126
1774470627868984600,1.635984619140625,-1.007672556265071,4.476624605050683,2.5618027906298635,-1.669610619544983,1.268676519393921,0.3563597798347473
1774470627878997500,1.64599755859375,2.3128987569540738,-1.7048095291972158,17.657116832143068,0.0814989581704139,0.6387300491333008,0.0648925006389617
1774470627889010700,1.6560107421875,3.2293074994295834,-5.020261526641249,13.088432952076197,1.1591840982437134,0.0857559144496917,-0.0064830486662685
1774470627899023600,1.666023681640625,2.887728104665875,-1.8691198014318944,5.014520352640748,1.8627153635025024,0.2012516111135482,0.1579580903053283
1774470627909036500,1.67603662109375,1.282646777677536,-0.1895090108990669,4.473472863021493,2.0625340938568115,0.2871030271053314,0.511228621006012
1774470627919049500,1.686049560546875,0.3388333109259605,0.0983253496736288,2.4608210812285543,2.171280860900879,0.1637741923332214,0.8103135824203491
1774470627929062700,1.696062744140625,-0.1690086226513609,0.5992243687778711,0.7649348631992936,2.340350389480591,0.2460649609565735,1.1010208129882812
1774470627939075600,1.70607568359375,-0.6440870083332061,1.8568319822669028,-0.1180336742281913,2.4556450843811035,0.1742592304944992,1.4039825201034546
1774470627949088500,1.716088623046875,-0.2852145151968114,2.579224465551972,-0.9137848237127064,2.302064180374145,0.6083632111549377,1.8167630434036253
1774470627959101700,1.726101806640625,-2.2359762607932088,2.8322271667182446,-2.957289716669917,1.7282017469406128,0.940613865852356,2.186931610107422
1774470627969114600,1.736114501953125,-3.981323552083969,3.2686493297368284,-4.547521557311714,1.2561039924621582,1.159176468849182,2.4226346015930176
1774470627979128600,1.746128662109375,-3.078611326527595,-0.2161363210618495,-2.369189237844199,0.7453805804252625,1.5598375797271729,2.5479447841644287
1774470627989141800,1.756141845703125,-2.6514216867566107,-2.3866046291559933,-2.6465029350548983,0.0244423523545265,1.4948444366455078,2.6434905529022217
1774470627999154700,1.76615478515625,-1.7151836236953737,-2.432294367185235,-3.935801864098013,-0.8112940788269043,0.8247818946838379,2.651614189147949
1774470628009167600,1.776167724609375,-0.3887561564803123,-1.468349382030964,-4.070290706303715,-1.6288913488388062,-0.0045134397223591,2.626981019973755
1774470628019180500,1.7861806640625,0.2761361778639257,0.8678548471868037,-3.1767963909476995,-2.394343852996826,-0.5355280637741089,2.4663143157958984
1774470628029193700,1.79619384765625,0.9723298055313528,2.01457924272418,-1.9469024215534327,-2.883791446685791,0.2550643384456634,2.292054891586304
1774470628039206400,1.806206298828125,-1.1954326046049597,2.4683114369839427,-0.4060996515996753,-2.801623106002808,0.6344274282455444,2.138791084289551
1774470628049219600,1.816219482421875,-0.4819359599590301,2.0331202770650387,2.407910452035069,-2.0672929286956787,0.971682071685791,1.9914790391922
1774470628059232800,1.826232666015625,-0.3116346306160092,0.6305933205097913,5.295270307910442,-1.0149054527282717,0.6551230549812317,1.4993908405303955
1774470628069245700,1.83624560546875,1.716984243376553,0.3957932155102491,7.606643462732434,-0.009940424002707,0.3647142052650451,0.721189022064209
1774470628079258600,1.846258544921875,3.7665202331915495,0.1425467687159776,7.300885322934389,0.510961651802063,0.7197026610374451,-0.0303044542670249
1774470628089271600,1.856271484375,2.9093559991061686,0.2695557765603065,3.3501857494339347,0.5522394180297852,0.6914145946502686,-0.618161678314209
1774470628099284500,1.866284423828125,1.4585808522105217,-2.1767367208391426,-0.003544759934768,0.2043821066617965,0.2597622871398926,-1.2317136526107788
1774470628109297400,1.87629736328125,2.053096604906022,-4.174488747403025,-2.4303458634659645,-0.2550525963306427,-0.0443463288247585,-1.628562092781067
1774470628119310300,1.886310302734375,1.3584310635887085,-3.062701225212216,-2.802735114774108,-0.5396979451179504,-0.5096263885498047,-1.8747597932815552
1774470628129323500,1.896323486328125,0.3470248006880283,-3.7771453798413273,-1.607443087683618,-0.6254993677139282,-0.7802038192749023,-2.02601957321167
1774470628139336700,1.906336669921875,-0.1244156303502619,-3.539450722444057,-0.3572952886812389,-0.6535762548446655,-0.8962758183479309,-2.141507148742676
1774470628149349400,1.916349365234375,-0.2826432216703891,-3.586625730594992,0.0379329133573919,-0.68263840675354,-0.820806622505188,-2.309983491897583
1774470628159363600,1.926363525390625,0.3108195148408412,-3.686593586778641,0.0643568829677999,-0.7054968476295471,-0.6614978909492493,-2.489876747131348
1774470628169376300,1.936376220703125,0.6484240876894444,-3.7374037365615367,0.0597905979655683,-0.7556724548339844,-0.6084247827529907,-2.66312026977539
1774470628179389400,1.946389404296875,0.9472001135151832,-3.39330329888761,-0.0668752224642783,-0.8155102133750916,-0.6859808564186096,-2.804189920425415
1774470628189402600,1.956402587890625,1.1187655445098876,-2.506060445141792,-0.129953865657188,-0.8332648873329163,-0.7301495671272278,-2.834711790084839
1774470628199415600,1.96641552734375,0.6248620833814144,-1.7378922991096972,0.057376303365454,-0.7854070663452148,-0.7025077939033508,-2.754923820495605
1774470628209428500,1.976428466796875,0.0426829574286937,-1.2687082686960696,0.2712365692541003,-0.7124432921409607,-0.6245852112770081,-2.610959529876709
1774470628219441400,1.98644140625,-0.0748041888326406,-0.8201508467257023,0.2278558388195931,-0.6457348465919495,-0.594042181968689,-2.436838150024414
1774470628229454600,1.99645458984375,0.0996819519143551,-0.4406657919377088,-0.0763383761299774,-0.5977452397346497,-0.651189386844635,-2.2456531524658203
1774470628239467300,2.00646728515625,0.3138121207855641,-0.1772825665324926,-0.4642406557273119,-0.6155353784561157,-0.8268224596977234,-2.0792441368103027
1774470628249480400,2.01648046875,0.871845378127694,-0.0009983633875846,-0.9661305124998092,-0.7297168374061584,-1.183623194694519,-1.9374061822891235
1774470628259493600,2.02649365234375,1.3665584020733832,0.2705839505642652,-1.5615277242049574,-0.881129264831543,-1.48393452167511,-1.8153926134109497
1774470628269506600,2.036506591796875,1.4502156133167443,0.4247334787905216,-1.8597648208484048,-0.989900767803192,-1.768396019935608,-1.6618129014968872
1774470628279519500,2.04651953125,1.300588092559576,0.4492103329211473,-1.415713185864687,-0.9945746660232544,-1.898041129112244,-1.4191690683364868
1774470628289532400,2.056532470703125,0.6620148792117834,0.4692097493767738,-0.5913157876104116,-0.901770293712616,-1.8902994394302368,-1.0900460481643677
1774470628299545600,2.066545654296875,-0.0043412440747022,0.6998597489595413,-0.0009742701259441,-0.7753457427024841,-1.8898605108261108,-0.7424589991569519
1774470628309558300,2.076558349609375,-0.0945961000174284,0.8977800298511981,0.0257630580162629,-0.6217194199562073,-1.8483752012252808,-0.4040070474147796
1774470628319572500,2.086572509765625,-0.0064288640037178,0.9510685524463652,0.0553259467069059,-0.4168597161769867,-1.7251909971237185,-0.0560554526746273
1774470628329585700,2.096585693359375,-0.2340092468827962,0.9030559244275091,0.2327890391717664,-0.1548083573579788,-1.5898443460464478,0.3271121978759765
1774470628339598300,2.106598388671875,-0.5552028562217951,0.9593979893743992,0.588946062804386,0.0975740924477577,-1.4730088710784912,0.676074743270874
1774470628349611500,2.116611572265625,-0.4038691160686314,1.265382339143753,0.4566097589900716,0.2908115983009338,-1.437106728553772,0.9484378695487976
1774470628359624400,2.12662451171875,0.0634621260851621,1.4190169035851954,0.2320802333152853,0.4533203542232513,-1.5117199420928955,1.180503249168396
1774470628369637400,2.136637451171875,0.2389443651974201,1.6204092445015907,0.3346270914077758,0.5747149586677551,-1.5610789060592651,1.405717134475708
1774470628379650600,2.146650634765625,0.1322124217063188,2.1285124958962203,0.4385475576747208,0.5985257625579834,-1.5446969270706177,1.6066653728485107
1774470628389663500,2.15666357421875,0.0602316197313368,2.252156995743513,0.0413301180476322,0.5623070597648621,-1.4161823987960815,1.7486965656280518
1774470628399676700,2.1666767578125,0.1010920379079878,1.9750760843753812,-0.3045344249556772,0.4694660604000091,-1.2597941160202026,1.8475126028060915
1774470628409689300,2.176689453125,0.0097703564513474,1.4097843803375958,-0.8065208191715181,0.3506740629673004,-1.1569091081619265,1.93929922580719
1774470628419702500,2.18670263671875,-0.2147043154973536,0.4625415236592292,-0.8738898895673454,0.3141392171382904,-0.8746340274810791,2.0067946910858154
1774470628429715500,2.196715576171875,-0.5737684404820204,-0.7229518707334995,-0.0781046916827559,0.309075117111206,-0.595257580280304,1.9606999158859253
1774470628439728400,2.206728271484375,-0.1326075585037469,-2.073406694746017,0.0328231691282242,0.1910518258810043,-0.604825496673584,1.9433963298797607
1774470628449741300,2.2167412109375,-0.3738829969972372,-2.9642694925546644,-0.8209958461824804,0.0761487334966659,-0.90013188123703,2.094057559967041
1774470628459755500,2.226755615234375,-1.7464824328005313,-2.541177351230383,-0.6273604030031711,-0.0082636177539825,-1.2729600667953491,2.329129219055176
1774470628469768400,2.2367685546875,-2.575420981615782,-1.7207295673847198,-0.0421295247970148,-0.1974695920944214,-1.440867900848389,2.4400975704193115
1774470628479781400,2.246781494140625,-2.1545804186105726,-2.202500692170858,-0.4047308839971199,-0.2094844430685043,-1.534916877746582,2.3507895469665527
1774470628489794600,2.256794677734375,-1.097382564741373,-2.621462017300725,1.3635478220805526,0.3064877986907959,-0.3149879872798919,1.6731199026107788
1774470628499807200,2.26680712890625,1.1047099850200115,0.970017583066225,7.1075833494931455,-0.1576140969991684,0.3937771916389465,1.0520334243774414
1774470628509820400,2.2768203125,1.1725463806666434,0.2618862648457288,1.286300331749022,-1.0962437391281128,-0.7629192471504211,0.6889141798019409
1774470628519833600,2.28683349609375,0.6972843455135822,-0.2791360903322696,-2.336431315971911,-1.8203904628753664,-1.9208965301513672,0.3743554651737213
1774470628529846500,2.296846435546875,0.1903904699087142,-0.143555068975687,-0.2486127591116353,-2.22078275680542,-1.9130395650863647,0.1035566106438636
1774470628539859500,2.306859375,-1.1603776578366756,-0.3843056068122387,1.5678575117483735,-2.399116277694702,-1.5034819841384888,0.0295194070786237
1774470628549872400,2.316872314453125,-2.871100210469961,-0.7393436180859804,2.6554426128357647,-2.5469837188720703,-1.083179593086243,0.0112715158611536
1774470628559885600,2.326885498046875,-3.1596646388828757,-0.6445154628783464,2.2972893921509385,-2.748429536819458,-0.8768937587738037,-0.0870942026376724
1774470628569899500,2.3368994140625,-2.2095886046051976,-0.3151461458683013,1.4501327573388814,-3.042707681655884,-1.0738976001739502,-0.2795396745204925
1774470628579912400,2.346912353515625,-0.9823686036605388,-0.5622895996123553,0.2926255403719842,-3.303508281707764,-1.4917476177215576,-0.5721172094345093
1774470628589925600,2.356925537109375,0.0774514884710311,-0.6890081000775098,-0.3884675487972795,-3.5177371501922607,-1.9173884391784668,-0.8555777072906494
1774470628599938300,2.366938232421875,0.1002875896573066,-0.4028314435839653,-0.7242970017321407,-3.545257568359375,-2.1194512844085693,-1.062402367591858
1774470628609951500,2.376951416015625,-0.3457855412166565,0.1833919893234968,-0.4779743628516793,-3.5117170810699463,-2.351877212524414,-1.2137800455093384
1774470628619964400,2.38696435546875,-0.3614297216048464,0.5455605831295252,-1.274341890668869,-3.385737419128418,-2.6761550903320312,-1.3151705265045166
1774470628629977300,2.396977294921875,-0.159040222877264,0.5465197835505008,-1.7542276400998231,-3.0367438793182373,-2.8341469764709477,-1.3614542484283447
1774470628639990500,2.406990478515625,-0.3161854257881641,0.2135609176158905,-0.9599781273499132,-2.4399993419647217,-2.3901584148406982,-1.2782559394836426
1774470628650003500,2.41700341796875,-1.1420166562378409,0.1206277823746204,0.1586518080815672,-1.7843403816223145,-1.3671844005584717,-0.9755767583847046
1774470628660016600,2.4270166015625,-2.5184429568529128,0.6743477065622806,0.3300838950201868,-1.2693289518356323,-0.6039925813674927,-0.4668362736701965
1774470628670029300,2.437029296875,-3.2538691092342136,1.477981718251109,-0.6091606563806533,-1.0048725605010986,-0.5900586247444153,-0.0068655451759696
1774470628680043500,2.44704345703125,-2.300351410070061,1.3238824589073657,-1.9783482379138468,-0.7817034125328064,-0.6090003848075867,0.1451924294233322
1774470628690056400,2.457056396484375,-0.4999771915515884,0.5608867470771074,-1.611389194960892,-0.6075554490089417,-0.6545053124427795,0.1034201309084892
1774470628700069400,2.4670693359375,0.2636258019894361,-0.4929103584378957,-1.206103343962133,-0.477881908416748,-0.85030597448349,-0.1847898364067077
1774470628710082600,2.47708251953125,1.879457655572891,-1.2808178086847066,-1.076869353544712,-0.5051580667495728,-1.169327735900879,-0.5687986016273499
1774470628720095500,2.487095458984375,2.445779871702194,-1.2796405815988778,-1.5464023435264824,-0.4674138724803924,-1.2576690912246704,-0.894178569316864
1774470628730108400,2.4971083984375,1.74471308504045,-1.085742980352044,-0.6116816992908716,-0.3291613757610321,-0.9424097537994384,-1.1227569580078125
1774470628740121300,2.507121337890625,0.8265660475302488,-0.7655483189225196,0.4887538232803344,-0.2285202592611313,-0.5033053755760193,-1.1663169860839844
1774470628750134500,2.517134521484375,-0.2355745965033769,0.1091553712457418,0.6119646078854799,-0.3583404421806335,-0.3574581742286682,-1.040270447731018
1774470628760147500,2.5271474609375,-1.1173124230921267,1.0787310557633638,-0.0868526462838053,-0.6634792685508728,-0.5578464269638062,-1.0100752115249634
1774470628770161400,2.537161376953125,-0.3499779514051974,0.9177981510072946,-0.4708431957975029,-0.9838610291481018,-0.9513010382652284,-1.2337721586227417
1774470628780174600,2.547174560546875,1.2141630240380763,-0.4606137704670429,-0.3674637776046991,-1.1973663568496704,-1.291422724723816,-1.679745078086853
1774470628790187300,2.557187255859375,2.6461703420996665,-2.33610661406219,-0.3751818046361208,-1.250274658203125,-1.5809556245803833,-2.239447116851806
1774470628800200400,2.567200439453125,3.708741121178865,-3.07830386801362,-0.5852931663200259,-1.2424979209899902,-2.0034613609313965,-2.717799186706543
1774470628810213600,2.577213623046875,4.098137913650274,-2.784166607904434,-1.742456538285315,-1.1824158430099487,-2.49790620803833,-2.9992904663085938
1774470628820226300,2.587226318359375,3.748135850717127,-1.9927385823160408,-2.675265211419761,-1.0195438861846924,-2.7679765224456787,-3.0302515029907227
1774470628830239500,2.597239501953125,2.7851538653761145,-1.4299515545755623,-2.8371397809401158,-0.8172928690910339,-2.7930119037628174,-2.9282102584838867
1774470628840252400,2.60725244140625,2.420654198274016,-1.104331360965967,-2.816582146079838,-0.6522485613822937,-2.756080389022827,-2.879791498184204
1774470628850265600,2.617265625,3.396255718952417,-1.276854165750742,-3.01959390489161,-0.4406884908676147,-2.6989500522613525,-2.8618671894073486
1774470628860278300,2.6272783203125,4.163939588598907,-2.128356428551674,-2.6244687979012724,-0.119636982679367,-2.5255825519561768,-2.72603178024292
1774470628870292500,2.63729248046875,3.751750241822004,-2.7683465229600666,-1.4899445432454346,0.1574836671352386,-2.1370949745178223,-2.454345464706421
1774470628880305400,2.647305419921875,3.112218412575125,-2.436602293512225,-1.0106973839789628,0.2983169555664062,-1.823880195617676,-2.05304217338562
1774470628890318300,2.657318359375,2.8099960456877944,-1.518825185292959,-1.133166410306096,0.276634007692337,-1.7769321203231812,-1.5256205797195437
1774470628900331500,2.66733154296875,2.5751006636202334,-0.2777437591910362,-1.2642471976339815,0.056201234459877,-1.8123338222503664,-0.930404543876648
1774470628910344400,2.677344482421875,2.26516260778904,0.8657090673297643,-1.4060232742384076,-0.3160855174064636,-1.78002667427063,-0.4271403551101684
1774470628920357400,2.687357421875,2.526538585025072,1.288876027455926,-1.3251079090490936,-0.7155327796936035,-1.8902016878128047,-0.0182119868695735
1774470628930370600,2.69737060546875,2.95592251996994,0.8385404898971319,-1.159431316897273,-1.0425852537155151,-1.9609363079071045,0.3229426443576813
1774470628940383500,2.707383544921875,2.959159602195024,0.0823912829607725,-0.7834978171110153,-1.2152905464172363,-1.9132617712020876,0.6225442290306091
1774470628950396400,2.717396484375,2.740144510826468,-0.4985989254683255,-0.0405789708867669,-1.262742042541504,-1.748237133026123,0.9553341865539552
1774470628960410600,2.72741064453125,2.069178847917914,-1.0771522621393204,0.4072732254236936,-1.2400388717651367,-1.4916503429412842,1.262222170829773
1774470628970423600,2.737423583984375,1.9469354470402,-1.6389204682260752,0.4250520432204008,-1.1590412855148315,-1.118686556816101,1.538509488105774
1774470628980436500,2.7474365234375,1.7663082462549209,-1.8138035724014043,0.6746177556753158,-1.0836647748947144,-0.7944725155830383,1.862678289413452
1774470628990449400,2.757449462890625,1.2086071434766053,-1.3621283106714486,0.6901368118464947,-1.092399001121521,-0.739274263381958,2.199136018753052
1774470629000462600,2.767462646484375,0.9993716878443956,-0.7067518465608358,0.1780225712448358,-1.166605830192566,-0.781108558177948,2.5282676219940186
1774470629010475500,2.7774755859375,0.5570522834807634,0.4229010026663541,-0.0957096142172813,-1.3981108665466309,-2.18951153755188,0.7438092231750488
1774470629020488400,2.787488525390625,0.4818015199244022,3.0215438699156043,-2.325809091931581,-1.5038570165634155,-3.6999661922454834,-0.1573658734560012
1774470629030501400,2.79750146484375,-0.90738138641119,1.7388760494500397,-3.1270234752580524,-1.453018307685852,-3.974228382110596,-1.6282325983047483
1774470629040514600,2.8075146484375,-2.5005431430250407,3.788845169985294,-3.773710436956584,-1.053206443786621,-2.974021673202514,-2.439497470855713
1774470629050528500,2.817528564453125,-6.010889351537823,3.517119648170471,-2.092370338413119,-0.5832855701446533,-3.041299104690552,-2.711554288864136
1774470629060541400,2.82754150390625,-1.991927265933156,0.3890115925461053,0.1227019583001732,-0.3029154241085052,-3.16913104057312,-2.7002313137054443
1774470629070554400,2.837554443359375,-0.1412982299596071,-0.8759177421331406,0.1690975065112114,-0.3080597817897796,-2.60056734085083,-2.4514167308807373
1774470629080567300,2.8475673828125,-0.4578992508113384,-0.5799339773744344,-0.3186620450347662,-0.2528519332408905,-2.041934967041016,-1.9465231895446775
1774470629090580500,2.85758056640625,-1.6982792506456377,-0.0801145702004432,0.9245268747404216,-0.3087988793849945,-1.9830727577209477,-1.3590806722640991
1774470629100593700,2.86759375,-2.0605244168192147,0.0532885225951671,0.8429302492886781,-0.6315915584564209,-1.993320107460022,-0.907248079776764
1774470629110606300,2.8776064453125,-1.3643056547105312,0.6076940909594297,-0.2890241548791528,-0.8996893763542175,-1.9592161178588867,-0.4266881644725799
1774470629120619500,2.88761962890625,-1.618640481263399,0.821316967895627,-0.0029684944167733,-1.0403258800506592,-1.8184415102005005,0.1560256034135818
1774470629130632400,2.897632568359375,-2.263323117402196,0.8769108448237181,0.2612412449404597,-1.065546989440918,-1.502289652824402,0.8932886719703674
1774470629140645400,2.907645263671875,-2.922003883755207,0.9933148720234632,0.3060948244065046,-1.0165783166885376,-1.220945119857788,1.6684749126434326
1774470629150659600,2.91765966796875,-3.367487889629602,1.8838924231499432,0.1447667828530073,-1.0645363330841064,-1.3371083736419678,2.134268522262573
1774470629160672500,2.927672607421875,-2.072439895540476,2.400202946397662,-1.153871344682574,-1.1882998943328855,-1.828017354011536,2.177680730819702
1774470629170685400,2.937685546875,-0.5340805732160806,2.034821820285916,-2.7184526112392544,-1.286465764045715,-2.187819480895996,1.87375807762146
1774470629180698600,2.94769873046875,0.2893354127854108,0.8736188175410031,-3.257321880036592,-1.063246488571167,-2.302468776702881,1.402746558189392
1774470629190711600,2.957711669921875,0.1294634152591228,-0.4943400989800691,-1.8510759029582144,-0.6569756269454956,-1.6728676557540894,0.972162425518036
1774470629200724500,2.967724365234375,-0.6805658504247665,-1.1169523576080798,-0.894093158032,-0.3227553069591522,-0.9059075713157654,0.6500704288482666
1774470629210737400,2.9777373046875,-0.7658037549883127,-1.3256073830038309,-1.025113739605248,-0.1184466332197189,-0.5233184695243835,0.2044572681188583
1774470629220750600,2.98775048828125,0.5849433299690485,-1.1854209136784075,-1.0045081739500163,-0.0785665959119796,-0.233664259314537,-0.3107791841030121
1774470629230763500,2.997763427734375,1.741859449175,-1.2223989374637605,-1.5756054955266414,-0.1479791402816772,-0.1670182645320892,-0.7321075797080994
1774470629240777500,3.007777587890625,1.731169712856412,-0.8413292438328266,-1.7647886354722082,-0.4198862910270691,-0.5115559101104736,-1.1541194915771484
1774470629250790700,3.017790771484375,2.6459406249970194,-0.6645452744722365,-2.7480276652917266,-0.118281066417694,-1.2781246900558472,-0.7462940812110901
1774470629260803600,3.027803466796875,-1.4783534741729496,0.9518249237716198,1.8075147013902664,0.5062110424041748,-1.5745898485183716,0.0998888686299324
1774470629270816500,3.03781640625,-5.378822451344132,2.755831324779987,5.776601872235537,0.6886966228485107,-1.8259624242782595,0.6590529680252075
1774470629280829400,3.047829345703125,-3.5567911488235,1.65483816832602,3.404640977720916,0.5162779688835144,-1.7907803058624268,0.6043726801872253
1774470629290842600,3.057842529296875,0.6945370926320552,1.1290420238524674,0.8312038633987308,0.2996548116207123,-1.5921486616134644,0.470258504152298
1774470629300855600,3.06785546875,1.0130635285884142,0.9552361935198308,-0.3128327543593943,0.1914148926734924,-1.511768102645874,0.3512876331806183
1774470629310868500,3.077868408203125,0.1433393803983926,0.5115928470760583,0.2255376250050962,0.1803124397993087,-1.4243175983428955,0.1474030911922454
1774470629320881700,3.087881591796875,0.3566565523862838,0.0474982487559318,0.684996234087646,0.2527925074100494,-1.147000789642334,0.0017212475650012
1774470629330895400,3.097895263671875,-0.3946095586836338,0.2485954061180353,1.0940957981556654,0.1214039400219917,-0.8109444379806519,0.047569740563631
1774470629340908500,3.107908447265625,-1.374334296771884,-0.3043079409897327,-0.0392718338109552,0.1173303723335266,-0.9727133512496948,0.4062589108943939
1774470629350921700,3.117921630859375,-3.3084301359832287,-0.8546504976987839,0.8591280815042555,-0.1867347508668899,-1.460824728012085,0.3680477738380432
1774470629360934400,3.127934326171875,-0.1409025086402893,-1.966245712187886,-0.0513864153008908,-0.1472467333078384,-1.4978604316711426,0.295518696308136
1774470629370947600,3.137947509765625,0.0172696992307901,-0.8737070803463458,1.4397536944046616,-0.1510306149721145,-0.8182651996612549,0.3436107039451599
1774470629380960500,3.14796044921875,-1.673270481595397,-0.1639244877874851,2.007344615295529,-0.2982418835163116,-0.2824390530586242,0.3121435642242431
1774470629390973400,3.157973388671875,-0.8493892161697149,0.3645867608636617,0.4661949316002428,-0.4495252966880798,-0.0415505394339561,0.3133183717727661
1774470629400986400,3.167986328125,-0.6379892759799957,1.0385556972414254,-0.2764722048852592,-0.5526505708694458,0.1593015938997268,0.3718357682228088
1774470629410999600,3.17799951171875,-0.7151970188230276,1.0069032523930073,-0.2728195275966077,-0.6307754516601562,0.1189216971397399,0.5406801700592041
1774470629421013500,3.188013427734375,-1.0566448961615562,0.6214782861620187,-0.2704917422361672,-0.6267011165618896,-0.1164671257138252,0.510653555393219
1774470629431026400,3.1980263671875,0.3829822492539882,-0.3634440205693244,0.4949072313435375,-0.569115161895752,-0.0547516271471977,0.2632828056812286
1774470629441039600,3.20803955078125,1.394499717444181,-0.9111422002494336,1.1724933353051543,-0.5957204103469849,0.1411880552768707,0.2980378568172455
1774470629451052500,3.218052490234375,-1.3397241711616514,-0.5747106897681952,0.8341801027305423,-0.6960915923118591,-0.1223341673612594,0.3514331877231598
1774470629461065500,3.2280654296875,-1.5299252559781074,-0.3502548686504363,0.4596390802159905,-0.8467303514480591,-0.4851586818695068,0.2703314125537872
1774470629471078700,3.23807861328125,-0.3205401138663292,0.0572708702296018,0.3619523207068443,-0.97384375333786,-0.6948796510696411,0.0059864846989512
1774470629481091600,3.248091552734375,0.7230097384005785,0.3069961571604013,0.292967193416506,-1.030334234237671,-0.5375595688819885,-0.410829097032547
1774470629491104500,3.2581044921875,1.6898019296795128,0.0624666853070259,0.2298962586060166,-1.0406252145767212,-0.1729006320238113,-0.7174405455589294
1774470629501117400,3.268117431640625,1.1452677669882774,-0.1021013610810041,0.0732674807846546,-0.9886529445648192,-0.0250725541263818,-0.8235155940055847
1774470629511131600,3.278131591796875,0.2781552626013756,-0.1680816074669361,0.0417903925031423,-0.8171950578689575,-0.2917480766773224,-0.7915965914726257
1774470629521144600,3.28814453125,0.0277022459179162,-0.5050117151200771,0.0040400691710412,-0.4828642308712005,-0.7196397185325623,-0.712066650390625
1774470629531157500,3.298157470703125,0.0116091892510652,-1.3725795620590449,0.1035227721862494,-0.0905362069606781,-0.9570516347885132,-0.5657527446746826
1774470629541170700,3.308170654296875,-0.5549953509509563,-1.5781237619578838,-0.1252190556876361,0.1392892599105835,-0.9074167013168336,-0.4563588500022888
1774470629551183400,3.318183349609375,-0.4490326382666826,-1.1154776088804006,-0.7706481262795627,0.148439735174179,-0.7106386423110962,-0.4411905407905578
1774470629561196500,3.328196533203125,0.4085281939208507,-1.0842466043144463,-1.1087252120107411,-0.0191694963723421,-0.2124664485454559,-0.5458474159240723
1774470629571209500,3.33820947265625,1.0951298173785209,-0.9012439065694808,-1.291725571668148,-0.2127542495727539,0.2520391941070556,-0.5796462893486023
1774470629581222700,3.34822265625,0.2771539766043424,-0.4681716385006904,-0.8083323986381292,-0.4456969797611236,0.5610992908477783,-0.6448615193367004
1774470629591235300,3.3582353515625,0.3452975385040044,-1.0509814635723829,-0.9061525752685964,-0.7414862513542175,1.004753828048706,-0.7721933722496033
1774470629601249500,3.36824951171875,0.6506096881002187,-2.2233114250093697,-1.7007105694457887,-0.90673565864563,1.0665982961654663,-0.6594093441963196
1774470629611262500,3.378262451171875,-0.5337865587055682,-2.079758109599352,-1.119314702825248,-0.5411414504051208,0.5411434769630432,-0.3801862299442291
1774470629621275400,3.388275390625,-0.56781976121068,0.9384551545888185,1.9110713758461173,-0.1030224412679672,0.1208367422223091,-0.2053438276052475
1774470629631288600,3.39828857421875,0.6194657772958279,2.01027131639719,2.0873659542545675,-0.0662291720509529,-0.0760781392455101,-0.1384826004505157
1774470629641301500,3.408301513671875,0.4828711949825287,1.1865753444105387,-0.5688615253485739,-0.0477449782192707,-0.0199541468173265,-0.2063862830400467
1774470629651314400,3.418314453125,0.6326788946121931,0.9187813168257476,0.0506650422237813,0.0198850706219673,0.4746067523956299,-0.2531295120716095
1774470629661327600,3.42832763671875,-0.0416050990641117,0.1083434703409671,0.9908571036078035,0.19772669672966,1.0400097370147705,-0.328667938709259
1774470629671340500,3.438340576171875,0.2838338927596807,-1.1983996377170083,1.46654247873947,0.22743920981884,1.1078380346298218,-0.2912231385707855
1774470629681353500,3.448353515625,-0.30201895326972,-0.7655050643026828,0.3014809008702636,0.220433235168457,1.142001032829285,-0.235426977276802
1774470629691367700,3.45836767578125,-0.8141320248275995,-0.0212824420034885,0.1768020895391702,0.1895447671413421,1.3387466669082642,-0.3027568161487579
1774470629701380600,3.468380615234375,-0.3992103304773569,0.8125883025169373,0.2180425930745899,0.2530440986156463,1.4045190811157229,-0.5385860800743103
1774470629711393500,3.4783935546875,0.342584772413969,2.3691718483179804,0.8882105297341942,0.1336678862571716,1.0982142686843872,-0.6909251809120178
1774470629721406500,3.488406494140625,-0.3094827132791281,2.997523527380824,0.0226101834759116,0.0484949350357055,0.9179316163063048,-0.7974982261657715
1774470629731419600,3.498419677734375,-0.0551174915879964,1.3087345741361378,0.566709023489803,-0.062984861433506,0.7728567719459534,-0.90275776386261
1774470629741432300,3.508432373046875,0.7259563132464886,0.1119768584072589,0.9625357028782368,-0.1986058056354522,0.452546089887619,-0.9058917164802552
1774470629751445500,3.518445556640625,0.0015361235260963,-0.3612970716685056,0.9064943744435906,-0.3857348561286926,0.3344557285308838,-0.8464397192001343
1774470629761458700,3.528458740234375,-0.8386573942750691,-0.461370726314187,0.6433829517170786,-0.5957950949668884,0.2864066958427429,-0.7748805284500122
1774470629771471600,3.5384716796875,-0.6079653091162442,0.1118137768000364,0.0301449628949165,-0.8174574971199036,0.1943429112434387,-0.7330843806266785
1774470629781484500,3.548484619140625,0.4315513421118259,-0.4860030632674694,-0.3316062822818756,-0.9922407269477844,0.1299532651901245,-0.2943911552429199
1774470629791498500,3.55849853515625,-2.2032839515030385,-1.1491852326929568,-0.4501335852459073,-1.0994318723678589,-0.2019364535808563,0.1060171574354171
1774470629801511400,3.568511474609375,-1.821182576736808,-0.979898341089487,-0.7720920414775609,-1.186334490776062,-0.383361667394638,0.262955904006958
1774470629811524600,3.578524658203125,-0.0911690481781959,-0.2414747604578733,-1.1019675544440746,-1.2281707525253296,-0.4883075952529907,0.345694899559021
1774470629821537500,3.58853759765625,-0.699725893446803,0.2775193027853965,-1.0011682158723474,-1.1436843872070312,-0.5749889612197876,0.3488350510597229
1774470629831550700,3.59855078125,-0.7109621577322482,0.542345712736249,-0.4670116548106074,-0.9934231042861938,-0.511465847492218,0.2075224816799163
1774470629841563400,3.6085634765625,-0.1444359434634447,0.7299041740894318,-0.6063777476638555,-0.829485297203064,-0.2427454590797424,0.016639344394207
1774470629851576600,3.61857666015625,0.0987970588386058,0.0100689740717411,-0.8765408424675464,-0.6525716781616211,0.2089139521121978,-0.2496258467435836
1774470629861589500,3.628589599609375,0.6944920844465494,-0.5563701464354992,-0.5918246139153838,-0.548715353012085,0.546438992023468,-0.4230660796165466
1774470629871602400,3.6386025390625,0.1527449221253395,0.1096247423231601,-0.1742611728847026,-0.6021413207054138,0.8659899234771729,-0.5596402287483215
1774470629881615400,3.648615478515625,0.0110644148498773,0.426594011965394,0.3831578980818391,-0.6645767092704773,1.000112771987915,-0.7722680568695068
1774470629891629600,3.658629638671875,1.0445903012305495,-0.5051017314910888,1.2455465888172388,-0.7725555896759033,0.8960232138633728,-0.7736627459526062
1774470629901642500,3.668642578125,-0.2836345707952976,-0.30144086112082,1.193303775882721,-0.9068853855133056,0.8207271695137024,-0.686648964881897
1774470629911655400,3.678655517578125,-0.7442401579558849,-0.8468962303102016,0.0558002131551504,-1.0006335973739624,0.6466990113258362,-0.5400114059448242
1774470629921668600,3.688668701171875,-0.6455033048719168,-0.8025836258530616,-0.1317670160263776,-1.0246050357818604,0.4245911240577698,-0.3953855633735657
1774470629931681500,3.698681640625,-0.3456254552841186,-0.4287894761830568,0.2489022801101207,-1.1045808792114258,0.2574248015880584,-0.3128068447113037
1774470629941694500,3.708694580078125,0.2361971123158931,-0.5388140314787626,0.0759855075716972,-1.3491376638412476,0.1446907818317413,-0.2723598182201385
1774470629951707600,3.718707763671875,0.6469131716698407,-1.637760192275047,-0.9668000823244453,-1.4398736953735352,0.2020086646080017,-0.2069713771343231
1774470629961720600,3.728720458984375,0.3398983098089694,-0.6238955764368176,-0.1512424086079001,-1.5414341688156128,0.2833932936191559,-0.2578047215938568
1774470629971733500,3.7387333984375,0.9360884254574776,1.463513047915697,-0.1037663716837763,-1.3908065557479858,0.2878550589084625,-0.1956014931201934
1774470629981746400,3.748746337890625,0.1644283456563949,1.7055696999147534,1.196378653283417,-1.0443127155303955,0.1648473590612411,-0.3006466925144195
1774470629991760400,3.758760498046875,1.1537889270961283,1.0667398814573883,1.4575886263027786,-0.7301878333091736,0.2055411636829376,-0.3764066994190216
1774470630001773600,3.768773681640625,-0.2371644960433244,0.4223185266032814,0.0902986950844526,-0.4419986605644226,0.2568826377391815,-0.5304995775222778
1774470630011786500,3.778786376953125,-0.3275035231381654,-0.1694663398236036,-0.0306137494504451,-0.1839632987976074,0.1378016322851181,-0.8134600520133972
1774470630021799700,3.788799560546875,0.8731997153460979,-0.3075722034826874,0.3361214216187596,0.0374540425837039,-0.0261012837290763,-1.0534579753875732
1774470630031812400,3.798812255859375,0.4375976365387439,0.3097469171732664,0.1819867987006902,0.1579783111810684,-0.0200987346470356,-1.237364411354065
1774470630041825500,3.808825439453125,0.9188818545907737,0.1629927598953247,0.1202767769798636,0.1790742874145507,-0.1325528472661972,-1.245875358581543
1774470630051838700,3.818838623046875,0.8371300385773182,-0.1176712706565856,-0.0230459445446729,0.174940824508667,-0.2188260406255722,-1.087904691696167
1774470630061851400,3.828851318359375,0.4717097494989633,0.1924739981845021,-0.3496943121582269,0.1432742327451706,-0.17510786652565,-0.737356424331665
1774470630071864600,3.838864501953125,0.0209632930517196,0.2524953361660242,-0.3506581887543201,0.0293423570692539,-0.1159460544586181,-0.3535512685775757
1774470630081877500,3.84887744140625,0.4144026389122009,-0.4588762791499495,-0.4991115511655807,-0.1949093788862228,0.1239799931645393,-0.1072967648506164
1774470630091890200,3.85889013671875,0.8879898727208375,-1.4527254041805862,-1.2958686628222464,-0.6285910606384277,0.6854903697967529,-0.0197192467749118
1774470630101904000,3.86890380859375,0.5094079042524099,-1.7084578225716949,-3.007501023776829,-0.7466942071914673,0.7917267680168152,0.0635301023721695
1774470630111917000,3.8789169921875,-0.0678904639214277,-1.0218956543415785,-1.3931976949349043,-0.6376882195472717,0.5298353433609009,0.1077169179916381
1774470630121930200,3.88893017578125,-0.3508259465366601,-0.7669397732809186,0.1262809858307242,-0.3837960958480835,0.2402501106262207,0.0651180520653724
1774470630131943000,3.89894287109375,-0.1734545326769352,-1.3794500323504209,0.0254874924778938,-0.0729205608367919,0.2152863442897796,-0.0250577740371227
1774470630141956000,3.9089560546875,-0.5227677365630865,-1.2340806074291466,-0.015263035583496,0.1329540461301803,0.2152661085128784,-0.0843855440616607
1774470630151969000,3.918968994140625,-0.6452928769916295,-0.3740384798198938,-0.6106158236250281,0.2123541980981826,0.028341744095087,-0.116901583969593
1774470630161982000,3.92898193359375,-0.5043734172165394,0.6965455098450184,-0.5161868968680501,0.1811656504869461,-0.0897942185401916,-0.1963111907243728
1774470630171995000,3.938994873046875,-0.2079074218988418,0.5913046816945076,-0.2875844774648547,0.2203864902257919,-0.0581170879304409,-0.2902008295059204
1774470630182008000,3.949008056640625,-0.2503238373458385,0.8373474807202815,-0.3350391793400049,0.2623853385448456,0.0023678271099925,-0.3112659156322479
1774470630192021200,3.959021240234375,-0.2798912926137447,1.5256982859328387,-0.3219803758025169,0.2417096644639969,0.0106418803334236,-0.3425461947917938
1774470630202034000,3.969033935546875,0.445719568195939,1.165375027732551,-0.8027665812045335,-0.0679219663143158,0.6347307562828064,-0.5357271432876587
1774470630212048100,3.979048095703125,1.0905687930732966,0.903759688782692,-2.7557407238870857,-0.2002999186515808,0.5828661322593689,-0.5977409482002258
1774470630222060800,3.989060791015625,0.7988824332475661,0.9016063101410864,-0.8408601650163531,-0.2699069380760193,0.3246013224124908,-0.5693777203559875
1774470630232074000,3.999073974609375,0.684630615645647,0.2158177566319704,-0.4465092572689056,-0.239865630865097,0.3376511335372925,-0.5065193772315979
1774470630242087200,4.009087158203125,0.3615203590303659,-0.0508525276198983,-0.631015345314145,-0.1862612515687942,0.3691190481185913,-0.4114882349967956
1774470630252100000,4.01910009765625,6.07902765274e-05,0.2012748520165681,-1.0988172737196087,-0.1642407476902008,0.4644873142242431,-0.2746365368366241
1774470630262113000,4.029113037109375,-0.4483908332318067,-0.2635121124818921,-1.5945172628760338,-0.233619824051857,0.5531061887741089,-0.1752417683601379
1774470630272126000,4.0391259765625,-0.7863730802863835,-0.9469038339823485,-1.4592764332592487,-0.1280052810907364,0.1988879591226577,-0.1745942234992981
1774470630282139100,4.04913916015625,-0.4607376891076564,-0.1591118268087506,0.3146913878381252,0.0718215554952621,-0.0310043655335903,-0.2094454169273376
1774470630292151800,4.05915185546875,-0.5480582451641559,0.9907111192658544,0.9697904963120818,0.1482521742582321,-0.0719281435012817,-0.2547921240329742
1774470630302165000,4.0691650390625,-0.4275801003932952,0.7591790761515498,0.1376958215534686,0.2026190012693405,-0.1285677254199981,-0.2596401274204254
1774470630312178200,4.07917822265625,0.0177098442137241,0.9771993112638592,0.4667690782263874,0.2446721196174621,-0.1661389023065567,-0.1183038800954818
1774470630322192000,4.08919189453125,-0.1524707813590765,1.691528315080702,1.0816674014762044,0.1645751446485519,-0.2944888770580292,0.1024431437253952
1774470630332205000,4.099205078125,0.2105523834496736,1.448538766145706,1.2122373166725038,-0.0424735620617866,-0.4197188913822174,0.2363969087600708
1774470630342218000,4.109218017578125,0.8369137654781341,0.5356830399766564,0.9931108738839626,-0.2328368425369262,-0.3911343812942505,0.2859199643135071
1774470630352231000,4.11923095703125,0.50314124507308,0.7696955017298459,0.8103513372451067,-0.3715862035751343,-0.2877360880374908,0.2835692167282104
1774470630362244000,4.129244140625,0.450238506925106,0.947837023179233,0.4754807924702763,-0.4490954875946045,-0.2471574991941452,0.2735256850719452
1774470630372257000,4.139257080078125,0.5467284578651189,0.9060296795412898,0.3561208380743861,-0.4253678321838379,-0.2369354516267776,0.3344045281410217
1774470630382270200,4.149270263671875,0.4128571630358695,0.840285872259736,0.7143842411354183,-0.3069144189357757,-0.3556027114391327,0.4654477834701538
1774470630392283000,4.159282958984375,0.2089560541689396,0.7378077868208289,0.9844000364229084,-0.1515628695487976,-0.5193440318107605,0.6510856747627258
1774470630402296000,4.169296142578125,-0.1783563332438469,0.0894552299976348,0.8621224410146474,-0.0321525931358337,-0.5909050703048706,0.8556351065635681
1774470630412309000,4.17930908203125,-0.6318582258790731,-0.4381988173022866,0.0491734884917736,0.0382643565535545,-0.6009982824325562,1.0420043468475342
1774470630422322000,4.189322021484375,-0.8589864810764789,-0.823390851560235,-0.5978142097190022,0.1470156013965606,-0.762047290802002,1.0863478183746338
1774470630432334800,4.1993349609375,-0.3372796517431736,-1.284961484360695,-0.4386757871642708,0.2390933334827423,-0.9715526103973388,0.934692084789276
1774470630442349000,4.20934912109375,0.0725087713718414,-1.0498355084076525,-0.68396279938668,0.3621252477169037,-1.0830823183059692,0.6813192367553711
1774470630452362000,4.219362060546875,-0.1618722314327955,-0.3941770124852657,-0.1914882020175456,0.5348260402679443,-1.13387930393219,0.3881208002567291
1774470630462375000,4.229375,-0.0516454315632581,0.3288812412321567,0.2535582892224192,0.7414668202400208,-1.186309814453125,0.190798670053482
1774470630472388000,4.23938818359375,-0.0737274995118379,0.7382581609368324,0.586861438550055,0.9289972186088562,-1.3524470329284668,0.1878927052021026
1774470630482401000,4.249401123046875,-0.5316372717171907,0.7801072978898882,0.7761226121678948,1.022977590560913,-1.4951919317245483,0.3468887507915497
1774470630492414000,4.2594140625,-0.9605167642712592,0.5955208380848169,0.3152881846874952,1.0605441331863403,-1.4966732263565063,0.6232600808143616
1774470630502427100,4.26942724609375,-1.413484403899312,0.3014084201559424,0.0868891789019107,0.9149619936943054,-1.3672555685043335,0.8845305442810059
1774470630512440000,4.279440185546875,-1.3870429716974495,-0.3067316610053181,-0.7814549131065607,0.4919600486755371,-1.006582260131836,1.010789394378662
1774470630522453000,4.289452880859375,-1.268194473955035,-1.3775637802124023,-1.9367381704136728,-0.0492411814630031,-0.6285598874092102,0.9628849029541016
1774470630532466000,4.2994658203125,-1.07676121699512,-2.417747370916605,-2.245108830797672,-0.5608561635017395,-0.3010936379432678,0.7495648860931396
1774470630542479000,4.30947900390625,-1.120031618922949,-2.5094372280985118,-1.9094836682632563,-0.9365730285644532,-0.1366650164127349,0.5070785284042358
1774470630552491800,4.31949169921875,-1.5867010361671448,-2.4013190909460187,-1.4787845590665936,-1.1701874732971191,-0.2108581960201263,0.2776111960411072
1774470630562506000,4.329506103515625,-1.787322392711043,-2.004384011924267,-1.4536793439045548,-1.1093391180038452,-0.4688063859939575,-0.0833587273955345
1774470630572519200,4.339519287109375,-1.0493781200289725,-0.9534519404515625,-0.4009188879609108,-0.5925488471984863,-0.7354241013526917,-0.5063062906265259
1774470630582531800,4.34953173828125,-1.0616945807665583,0.0341401700109243,2.120251155768335,-0.1013828217983245,-0.8042111992835999,-0.7151015996932983
1774470630592545000,4.359544921875,-1.6163181757956742,-0.3751841427236795,1.251974576038122,0.4156176447868347,-0.9439685940742492,-0.7503791451454163
1774470630602558200,4.36955810546875,-0.4275046970695257,-0.3241615192338824,1.254475452943146,0.7429640293121338,-0.869275689125061,-0.5095942616462708
1774470630612571000,4.37957080078125,0.0020750527083873,0.4649336794927716,0.7674471382811665,0.8073793053627014,-0.7391795516014099,-0.1542407572269439
1774470630622584000,4.389583984375,0.1526379546195268,1.282448917017877,0.091549279667437,0.6045433878898621,-0.7533838152885437,0.0643397942185401
1774470630632597000,4.399596923828125,0.9914882411181926,0.939023309865594,-0.4240975189745426,0.2281004190444946,-0.8110888004302979,0.1923853754997253
1774470630642610200,4.409610107421875,0.5033657014787197,0.4958063721403479,-0.8967492254987358,-0.1730424761772155,-0.7576900124549866,0.1838102638721466
1774470630652622800,4.419622802734375,0.223047123363614,0.4175181405842304,-1.173714109271765,-0.4484458863735199,-0.5529369711875916,-0.0032000569626688
1774470630662636000,4.429635986328125,0.7837620210051536,0.7625809935495257,-0.650534577037394,-0.5726051330566406,-0.3225993514060974,-0.3326477408409118
1774470630672649000,4.43964892578125,1.7078280002355577,1.085455687843263,-0.2432379707381129,-0.5788196325302124,-0.0608481802046299,-0.6657924056053162
1774470630682662000,4.449661865234375,1.845667614173889,1.268274553453922,-0.3108674456357955,-0.5289180874824524,0.1929129809141159,-0.8432140350341797
1774470630692676000,4.459676025390625,1.1486094786316157,1.4608113877415656,-0.788932993902266,-0.3977217972278595,0.4356090724468231,-0.7986624240875244
1774470630702689000,4.46968896484375,0.7030471468240023,1.423840378218889,-0.9277318082615732,-0.1516491770744323,0.5557578206062317,-0.619365930557251
1774470630712702000,4.479701904296875,0.9264701177626848,1.283415131701529,-0.3912485578179359,0.0499275438487529,0.5156012177467346,-0.3472590744495392
1774470630722715000,4.48971484375,0.6273240895807742,1.0265557551071047,-0.1733022647246718,0.1999399363994598,0.2826684117317199,-0.0078176241368055
1774470630732728000,4.49972802734375,0.0306523278951644,0.9922776379302144,-0.0539314966738224,0.2675690352916717,-0.0814567059278488,0.3311026096343994
1774470630742741000,4.509740966796875,-0.3126502373993396,0.5887535359069704,-0.2942357520475983,0.2598280012607574,-0.4282836318016052,0.5972006320953369
1774470630752754000,4.51975390625,-0.4864069678932428,0.0195870362624526,-0.654178778758645,0.2808947563171386,-0.6435630917549133,0.7195876836776733
1774470630762767000,4.52976708984375,-0.3264128052920103,-0.1059673888593912,-0.6374994466364383,0.3235415518283844,-0.6758083701133728,0.6846967935562134
1774470630772780000,4.539780029296875,0.1776344487100839,-0.2333724102839827,-0.3648781450256705,0.3559241890907287,-0.5465126633644104,0.4902037680149078
1774470630782793000,4.54979296875,0.7242839961200952,-0.4861819269657135,-0.3826239373356103,0.3530269563198089,-0.3828365802764892,0.2398889809846878
1774470630792806000,4.559805908203125,1.016090767455101,-0.9009168665722012,-0.4640098426461219,0.3203688263893127,-0.1781573742628097,0.0432308688759803
1774470630802819000,4.569819091796875,0.7006395011603832,-1.2810375889152288,-0.2519447165459394,0.238739475607872,-0.0049331285990774,-0.0489350110292434
1774470630812832000,4.57983203125,0.3545926055938005,-1.4272320664837956,-0.0916065628126263,0.1619211137294769,0.0644297823309898,-0.0344453267753124
1774470630822845000,4.589844970703125,0.0899170022904872,-1.4193044883549213,-0.2685986219659447,0.1141424104571342,-0.1318704932928085,0.0964437127113342
1774470630832859100,4.599859130859375,0.1064051957547664,-1.6115034689903258,-0.7842138564258814,0.1272899061441421,-0.1671643108129501,0.2653140723705292
1774470630842871800,4.609871826171875,-0.1171066225111484,-1.2369547015607356,-0.3095569475591183,0.1175243705511093,-0.3227565884590149,0.2904979884624481
1774470630852885000,4.619885009765625,0.5915460892349481,-1.0216583384543656,0.0839928729385137,0.104480966925621,-0.3860481977462768,0.2776906490325928
1774470630862898200,4.629898193359375,0.5361480271399021,-1.2403025506839156,-0.8988950053557753,0.121206946671009,-0.3075991868972778,0.2329900115728378
1774470630872911000,4.6399111328125,0.1014344216048717,-1.057290500588715,-1.016448494851589,0.1071663871407508,-0.1657227575778961,0.1200039908289909
1774470630882924000,4.649924072265625,0.4991583129167556,-0.9706307465285062,-1.1007489724345505,0.1165742725133895,-0.0526694431900978,-0.0141657991334795
1774470630892937000,4.65993701171875,0.844122089421749,-0.840267167559266,-0.7832748220100998,0.1415799707174301,0.0443118289113044,-0.0756317302584648
1774470630902950100,4.6699501953125,0.6866629982560872,-0.7227408583313226,-0.5873980296447873,0.1114763915538787,0.1487146764993667,-0.054296351969242
1774470630912962800,4.679962890625,0.4367337131857872,-0.537306257264316,-1.0513358299680051,0.1681257635354995,0.0992966741323471,0.0385496579110622
1774470630922976000,4.68997607421875,0.7115490177094936,0.1250891456976532,-0.3867755040571093,0.0699525848031044,0.1185947358608245,0.2385317534208297
1774470630932989200,4.6999892578125,-0.2026408796727657,-0.1721238685950636,-1.067067944367975,0.0593876913189888,-0.0213325787335634,0.4076132774353027
1774470630943002000,4.710002197265625,-0.4008054907143116,0.4014078405216336,-0.7686996225602925,0.1028739139437675,-0.2022317796945572,0.4688324332237243
1774470630953015000,4.72001513671875,-0.1291588793545961,0.7141282205477356,-0.0424780825063586,0.2102060317993164,-0.0720888525247573,0.3521386086940765
1774470630963028000,4.730028076171875,-0.331254984626174,0.4715680029407143,-0.6169549635186791,0.2911432385444641,0.0534637495875358,0.1316688060760498
1774470630973042000,4.7400419921875,-0.4491355141192674,-0.2241615143463015,-1.4777008554831146,0.4099376499652862,-0.0772210136055946,0.0598367862403392
1774470630983055000,4.75005517578125,-1.03938688736856,-0.4277373367816209,-1.3032294008485972,0.518720805644989,-0.2313213795423507,0.0805375427007675
1774470630993068000,4.760068115234375,-1.7839309967070818,-0.1746504644632339,-0.5851895598150789,0.6174188256263733,-0.4607481956481933,0.0830189809203147
1774470631003081000,4.7700810546875,-1.592664913007617,-0.0927162776201963,0.0172366737440228,0.6841243505477905,-0.7554802298545837,0.0994275137782096
1774470631013094000,4.780093994140625,-1.2016203533291816,-0.0332002588123083,0.4116761365577578,0.6338744163513184,-0.9355676770210266,0.1694517433643341
1774470631023107000,4.790107177734375,-1.21934071893692,0.2969400425702333,0.6769815621972084,0.5468266010284424,-1.014081358909607,0.2384577095508575
1774470631033120000,4.8001201171875,-1.1943623450249432,0.9494295530676842,1.0005698115877806,0.5003540515899658,-0.9706214070320128,0.1416894942522049
1774470631043133000,4.8101328125,-0.4175409369379281,1.041384198665619,1.2301353769347072,0.4628591239452362,-0.9782137870788574,0.0067836055532097
1774470631053146000,4.82014599609375,0.2901701100438833,0.3104284696966409,1.4347024023644626,0.3753888607025146,-0.8324434757232666,-0.0304539166390895
1774470631063159000,4.830158935546875,0.0470358919411897,0.1861883420437574,1.5663533907957374,0.203597143292427,-0.5557389259338379,0.0006733783520758
1774470631073172000,4.840171875,-0.228476162675023,0.5436129561930895,0.8659723944410681,0.0309030469506979,-0.0971391052007675,-0.065325029194355
1774470631083185000,4.850184814453125,-0.4512777868449688,0.8078150967657566,0.1735223372161388,-0.072813756763935,0.4422588646411896,-0.3445987403392792
1774470631093198000,4.860197998046875,-0.1451233412057161,0.852095260258019,0.1717700867213308,-0.1379999369382858,0.5053691267967224,-0.6288377642631531
1774470631103211300,4.870211181640625,0.6661690762817859,0.8513479490220546,0.8394776246167719,-0.1725065261125564,0.6371577382087708,-0.7848724126815796
1774470631113224000,4.880223876953125,0.1560620838493108,0.8688038184747099,1.0444234202310445,-0.1667407155036926,0.9556519389152528,-0.9045708179473876
1774470631123238100,4.890238037109375,-0.5289975708633661,0.7741349454820156,0.7936483319863676,-0.2490542232990265,1.148547887802124,-1.0319061279296875
1774470631133251000,4.9002509765625,-0.212148128208518,0.2476777067512273,0.0281787773884832,-0.3750898540019989,0.9527745842933656,-1.057952880859375
1774470631143264000,4.910263916015625,-0.2673556361675262,-0.203110250750184,-0.1335841484509408,-0.3638457357883453,0.6056027412414551,-0.8470636606216431
1774470631153277200,4.920277099609375,-1.5649387016922234,-0.1857511196702718,0.591720715149492,-0.2948980331420898,0.3678987026214599,-0.5631269812583923
1774470631163290000,4.9302900390625,-2.295695108696818,-0.3237304343402385,0.9794966284208,-0.2496578395366668,0.2098861634731292,-0.4073506593704223
1774470631173303000,4.940302978515625,-1.3618985935688015,-0.1669806604877114,0.6394175552174448,-0.2029616385698318,0.3023984432220459,-0.4265068173408508
1774470631183316000,4.95031591796875,-0.5809007765799761,0.4952294490352272,0.487247802631557,-0.2410094141960144,0.6662535667419434,-0.5734592080116272
1774470631193329200,4.9603291015625,-0.8570943837195635,0.7972790897041558,0.3916455943115055,-0.3006884455680847,0.9594955444335938,-0.793554425239563
1774470631203342000,4.970342041015625,-0.8537947576522826,0.9919035439208148,0.5827423127934336,-0.3737757205963135,0.8080556988716125,-0.9943343997001648
1774470631213355000,4.98035498046875,-0.4532558089196681,1.5974328580617905,0.8240423012062906,-0.4132144153118133,0.5357710719108582,-1.0110270977020264
1774470631223368200,4.9903681640625,-1.0720441253453492,1.3303802964940663,0.7505101781360805,-0.4917108118534088,0.2374464571475982,-0.8299102783203125
1774470631233381000,5.000381103515625,-1.9219477207779885,1.0249854370504616,0.2368789571002125,-0.5188949108123779,0.0952574238181114,-0.5549538731575012
1774470631243394000,5.01039404296875,-1.6032628793895245,1.2653358696535228,0.4475304170101881,-0.5507245063781738,0.0893606469035148,-0.294116199016571
1774470631253407000,5.020406982421875,-0.8611971428632735,1.2309472778394817,0.2402040098696947,-0.6185281276702881,0.2085149139165878,-0.0824901238083839
1774470631263420200,5.030420166015625,-0.5688309840798378,0.9546659924164412,0.0523582560077309,-0.757737934589386,0.1355317831039428,0.0808620527386665
1774470631273434000,5.04043408203125,-0.0883919846802949,0.5020408826157451,-0.493890893907845,-0.9612454175949096,-0.0155468992888927,0.1858838498592376
1774470631283447000,5.050447021484375,0.0673497811734676,0.0513078701719641,-1.0689978895172476,-1.1980446577072144,0.0468120835721492,0.1628384590148925
1774470631293460200,5.060460205078125,0.061893853855133,-0.6686357586562633,-1.3520128671094775,-1.3731701374053955,-0.0168098080903291,0.0524947755038738
1774470631303473000,5.070472900390625,0.738764356893301,-0.3495139871552586,-0.6994266182392835,-1.519363284111023,0.1083928495645523,-0.1059915348887443
1774470631313486000,5.080486083984375,0.8707868089854717,0.1377723939210176,-0.1097860703647136,-1.695892333984375,0.2751685082912445,-0.1717583537101745
1774470631323499300,5.090499267578125,-0.6869681186825036,-0.0219756849646568,-0.8891010488331318,-1.927083730697632,-0.2605726718902588,-0.1664959490299224
1774470631333512200,5.10051220703125,-0.7707873886197805,-0.4382330118328332,-1.9078876312434672,-2.107529640197754,-1.0681111812591553,-0.1579614877700805
1774470631343525000,5.110525146484375,-0.0764700762182474,0.3820204184845089,-1.6721432311311364,-2.1504297256469727,-1.9037219285964968,-0.1637144535779953
1774470631353538000,5.1205380859375,0.387758962136507,1.5904726636603477,-0.750996938739717,-2.2211461067199707,-2.4572010040283203,-0.147807702422142
1774470631363551200,5.13055126953125,0.271632582834363,1.7056141235783695,-0.6118938807368278,-2.3696417808532715,-2.6184988021850586,-0.1032397001981735
1774470631373564000,5.14056396484375,0.1593985347956419,1.23390641990602,-1.100079987131804,-2.510329484939575,-2.648223876953125,-0.0174437407404184
1774470631383577000,5.1505771484375,0.5381394932180643,1.0482032310307026,-1.1922978137105702,-2.671799421310425,-2.6083850860595703,0.1292767375707626
1774470631393590300,5.16059033203125,0.9517653025388716,0.9700129068911076,-1.374847214730084,-2.901155948638916,-2.4023995399475098,0.3008604049682617
1774470631403603200,5.170603271484375,0.9790630593091249,0.3683864454075694,-1.710549095762521,-3.153379201889038,-2.345155954360962,0.4509391188621521
1774470631413616000,5.1806162109375,1.5432640455007551,0.0746823160186409,-1.835748862227797,-3.3897604942321777,-2.374042510986328,0.5920299887657166
1774470631423629000,5.190629150390625,1.855018795365095,-0.0557987518504261,-1.9019509346708652,-3.5302207469940186,-2.6017045974731445,0.6960248351097107
1774470631433642200,5.200642333984375,2.101645531758666,-0.1278401979714632,-1.47833900725618,-3.588538408279419,-2.82389497756958,0.7597545385360718
1774470631443656200,5.21065625,2.058841578298807,-0.0133612936154007,-1.0669020862817764,-3.5138280391693115,-3.0229930877685547,0.8090997338294983
1774470631453669000,5.220669189453125,1.7531027277231217,0.2815311687752604,-0.2511016898505389,-3.359623670578003,-3.2077460289001465,0.9653369784355164
1774470631463682000,5.23068212890625,1.3204647594183685,0.5148620780050754,0.5599623987738043,-3.2182745933532715,-3.1967554092407227,1.143049716949463
1774470631473695000,5.240695068359375,0.6617506753176451,0.1913523006781935,0.9269499371688812,-2.995189428329468,-3.0667011737823486,1.3208619356155396
1774470631483708200,5.250708251953125,0.3869909003734588,0.3885205941587686,1.3506252121433615,-2.7631521224975586,-3.00716495513916,1.56483256816864
1774470631493721000,5.26072119140625,-0.0707505295276641,0.719791653136909,1.7202406148239968,-2.615363597869873,-2.934291362762451,1.8860152959823608
1774470631503734000,5.270734130859375,-0.703899964261055,0.8290648055434227,2.2396188550792635,-2.513357162475586,-2.6996257305145264,2.3721845149993896
1774470631513747200,5.280747314453125,-1.384757491108775,1.194068038253486,2.840138378234208,-2.413885593414306,-2.711067676544189,2.872376680374145
1774470631523760000,5.290760009765625,-1.7627689662128685,1.3795198827162385,3.339334685073793,-2.221250295639038,-3.051054000854492,3.335798740386963
1774470631533773000,5.30077294921875,-1.3697288488030432,2.0870845069646835,3.807033737626672,-2.0089662075042725,-3.164212465286255,3.739568948745728
1774470631543786000,5.310785888671875,-1.7313994299590587,2.5836612789556384,3.938570159767568,-1.9172180891036987,-3.1227970123291016,4.124382019042969
1774470631553799200,5.320799072265625,-2.165333283293247,2.5161288346916435,3.787105925102532,-2.0216450691223145,-3.0941739082336426,4.514580726623535
1774470631563812000,5.33081201171875,-2.365262565919757,2.1401924122959373,3.832440273822844,-2.0817573070526123,-2.455510377883911,4.673203945159912
1774470631573825000,5.340824951171875,-2.57106044831872,2.082570244410634,4.057045148022473,-1.6565808057785034,-1.077891826629639,3.798183679580689
1774470631583838000,5.350837890625,0.5481745650202036,1.3749778553724288,3.434536057507992,-1.2283951044082642,-1.208848237991333,2.3322770595550537
1774470631593851100,5.36085107421875,6.303244988927244,-2.66356454449296,1.2826884248621762,-0.9607039093971252,-1.9854120016098025,0.6724671125411987
1774470631603864300,5.3708642578125,8.8438401563555,-5.330882304039597,0.8192142234627157,-0.5587841868400574,-2.4318394660949707,-0.944884181022644
1774470631613878000,5.3808779296875,8.613166191375255,-3.731430507370829,3.1318042797937986,-0.1357366740703582,-2.590064764022827,-2.204195737838745
1774470631623891200,5.39089111328125,6.880209595102071,-1.8158119896143676,4.905269704326987,0.2288932204246521,-2.729522943496704,-3.082150459289551
1774470631633904000,5.400904052734375,5.027116214841604,-1.1399907033681869,4.301953974582255,0.5710779428482056,-3.0550954341888428,-3.621584892272949
1774470631643917000,5.4109169921875,3.3925486811280248,-0.4152595480024814,2.615861713075638,0.7863844037055969,-3.610160350799561,-3.833022117614746
1774470631653930200,5.42093017578125,1.7979186055272816,0.8691349501252174,1.4548416656821963,0.7306169867515564,-4.534158229827881,-3.7766659259796143
1774470631663943200,5.430943115234375,1.1178571974933147,1.3206883390411734,0.3537330661550164,0.6355085968971252,-5.30698299407959,-3.6888427734375
1774470631673956000,5.4409560546875,0.9603729718863964,1.6965575414195655,-0.3222808200538158,0.5664001107215881,-5.510559558868408,-3.655981540679932
1774470631683969000,5.450968994140625,0.4640770626634359,1.838923985132575,-0.1742278551369905,0.5257861018180847,-5.170122623443604,-3.622077465057373
1774470631693982200,5.460982177734375,-0.5172293916583061,1.8630808135285968,0.2027247585639357,0.4256376624107361,-4.607860565185547,-3.472287654876709
1774470631703995000,5.470994873046875,-1.906258568736911,1.3949468766897917,-0.4663157815009355,0.2188615649938583,-4.25260066986084,-3.074225664138794
1774470631714008000,5.481008056640625,-3.2799066368103027,0.8001914700195193,-1.255971536719799,0.0648625940084457,-4.192553997039795,-2.434977769851685
1774470631724021200,5.491021240234375,-3.988782635918259,0.8167927684694528,-1.282456223541498,0.0008852072060108,-4.274843215942383,-1.7068440914154053
1774470631734034200,5.5010341796875,-3.996509430778026,0.5273880898401141,-1.087934352916479,0.0440186150372028,-4.285762310028076,-1.0733730792999268
1774470631744047000,5.511047119140625,-3.633780280479789,-0.0994824107542634,-0.4781102641910314,0.1611750721931457,-4.2962846755981445,-0.659497857093811
1774470631754060000,5.52106005859375,-2.6249931140363216,-0.6527256573408842,0.2624573427319526,0.3243015706539154,-4.210050582885742,-0.5003889799118042
1774470631764073200,5.5310732421875,-1.4293997659116982,-1.1670672186031936,0.7951976072549819,0.5329083204269409,-3.930161237716675,-0.4961143434047699
1774470631774086000,5.5410859375,-1.0118342790544033,-1.1173580157995224,1.0389245305538175,0.6613452434539795,-3.688103914260864,-0.4901358187198639
1774470631784099000,5.55109912109375,-0.8499088561296463,-1.451937176412344,0.4607967258185148,0.7449666857719421,-3.597585439682007,-0.426057755947113
1774470631794113300,5.56111328125,-0.6638076078474521,-1.7527300950184463,-0.0311018252283334,0.8163973689079285,-3.5547492504119877,-0.323496401309967
1774470631804126000,5.5711259765625,-0.3231564338445663,-1.596736400230229,0.0317301862597465,0.8704758286476135,-3.5787312984466557,-0.246991753578186
1774470631814139100,5.58113916015625,0.3209107007443905,-1.540528190796077,0.2596317639172077,0.9770417809486388,-3.5746312141418457,-0.2526074945926666
1774470631824152000,5.591152099609375,1.1944646363556384,-1.668226496078819,0.8999889380723237,1.1807692050933838,-3.4568185806274414,-0.3579549789428711
1774470631834165000,5.6011650390625,1.8994202471494677,-2.0980757104478776,1.0046294622421263,1.4214749336242676,-3.1171317100524902,-0.5325328707695007
1774470631844178200,5.61117822265625,2.236890453028679,-2.8595342758387328,-0.1059077676266431,1.577965497970581,-2.4434831142425537,-0.6540915369987488
1774470631854191000,5.621191162109375,1.6955121240198612,-3.28035905675292,-1.936950644120574,1.5548871755599976,-1.7317826747894287,-0.6482208371162415
1774470631864204300,5.631204345703125,1.2238514743596314,-3.19121245431304,-3.388134371817112,1.4697139263153076,-1.0372469425201416,-0.6103227138519287
1774470631874217000,5.641217041015625,1.4329630113512275,-2.082556215885281,-3.5094589042842386,1.35533344745636,-0.2834129333496094,-0.5776491761207581
1774470631884230100,5.651230224609375,1.5544102934151889,-1.3197311844468116,-3.096802232256532,1.2552711963653564,0.4718526005744934,-0.5022012591362
1774470631894243000,5.6612431640625,1.5464748242408035,-1.1614333043694496,-2.689156666389108,1.1415032148361206,1.2890609502792358,-0.4041553735733032
1774470631904256000,5.671256103515625,1.5384101757287978,-1.2395175377860663,-2.700888605237007,1.0582377910614014,2.077827453613281,-0.2740226686000824
1774470631914269200,5.681269287109375,1.7393816608846189,-1.3244165657840667,-2.1558178514510398,1.010659098625183,2.9793930053710938,-0.1558430343866348
1774470631924282000,5.6912822265625,1.9314052849531171,-1.0322293437641112,-1.540582259070873,0.9813622236251832,3.939754247665405,-0.0382189266383647
1774470631934295300,5.70129541015625,2.142192646202445,-0.8004908913575113,-1.3373486742019651,0.9572771787643432,4.92138671875,0.0601561106741428
1774470631944308000,5.711307861328125,2.345857023704052,-0.6536302780304104,-1.5073334849417208,0.889528751373291,5.89453649520874,0.1311136484146118
1774470631954321200,5.721321044921875,2.564959793356061,-0.4712156093064695,-1.733918134781718,0.8160749077796936,6.907638549804688,0.1599381417036056
1774470631964334000,5.731333984375,2.65358675583601,-0.2087894654303789,-1.91761758261919,0.7915080189704895,7.883733749389648,0.1219457611441612
1774470631974347000,5.741346923828125,2.685948810258508,0.3674906656116247,-2.108656287303567,0.6789559721946716,8.599087715148926,0.0573452338576316
1774470631984361200,5.751361328125,2.81658769903779,0.4088763497713953,-2.8887399120569226,0.4355928301811218,9.100372314453123,0.0188596285879611
1774470631994374100,5.7613740234375,2.6805168483376502,0.2300962381575256,-3.493835510955751,0.1280012726783752,9.587703704833984,0.0229731518775224
1774470632004387000,5.771386962890625,2.0954192045897244,0.4616908981792628,-3.482590771102905,-0.2049508541822433,9.91275691986084,0.1005923077464103
1774470632014400000,5.78139990234375,1.4532137722194194,0.653500879497081,-2.99878930953294,-0.5286521315574646,9.901449203491213,0.2516481876373291
1774470632024413200,5.7914130859375,1.005202878215909,0.799194275675714,-2.1508438624307518,-0.7891908288002014,9.56919765472412,0.4000291526317596
1774470632034426000,5.801426025390625,0.498767852294445,0.8664058174222707,-1.0684246196739375,-0.9793556332588196,8.746021270751953,0.4842079877853393
1774470632044439000,5.81143896484375,0.5171650942504405,0.8396840339090674,-0.2339340992873534,-1.089764952659607,7.456832408905029,0.5027790069580078
1774470632054452200,5.8214521484375,0.7592851668745279,0.6766385209131985,0.689200480844453,-1.0637054443359375,5.772453308105469,0.3993909358978271
1774470632064465200,5.831465087890625,0.9760615394055844,0.779954372350499,1.75934396020025,-0.9654321670532228,3.963159084320069,0.230312168598175
1774470632074478000,5.84147802734375,0.6774065096110106,0.5747634428687394,2.4080279409348964,-0.8932676315307617,2.28016996383667,0.0304583702236413
1774470632084491000,5.851490966796875,-0.3222206142991781,-0.0122624655280262,2.2349900262348354,-0.8461491465568542,1.0614657402038574,-0.1538712680339813
1774470632094504400,5.86150439453125,-1.7450830873966217,-0.331472645964846,1.930204238600284,-0.8296573758125305,-0.0036473041400313,-0.2774251699447632
1774470632104517400,5.871517333984375,-2.4274089332312343,-0.409059232057631,1.4234867424756288,-0.917700171470642,-1.125218391418457,-0.2974217534065246
1774470632114530300,5.8815302734375,-2.565388247901201,-0.5086426189683377,1.1404098055630922,-1.0455392599105835,-2.212981700897217,-0.2023115009069442
1774470632124543500,5.89154345703125,-2.5052275014489886,-0.3074519381038844,1.2297685894489288,-1.1373720169067385,-3.0175909996032715,-0.0466662496328353
1774470632134556400,5.901556396484375,-2.624522573915124,0.2964847000181674,1.7241181869097053,-1.2158842086791992,-3.422548055648804,0.1518927812576294
1774470632144569300,5.9115693359375,-2.8798148473232983,0.5630230284534394,2.357345216923952,-1.2768574953079224,-3.6727466583251953,0.3832548856735229
1774470632154582300,5.921582275390625,-2.910506338185072,0.390963384201005,2.4978929207772014,-1.3061691522598269,-3.777633190155029,0.6095779538154602
1774470632164595500,5.931595458984375,-2.634665782266855,0.2533438427541404,2.387163432082534,-1.2648736238479614,-3.783282518386841,0.8150381445884705
1774470632174609400,5.941609375,-2.5322552091062067,0.2565546214941889,2.458429802177846,-1.1367874145507812,-3.367142677307129,0.9671714305877686
1774470632184622300,5.951622314453125,-2.5609675088495014,0.2653459037803113,2.464458560948074,-1.025572419166565,-2.379295587539673,0.9855616092681884
1774470632194635300,5.96163525390625,-0.8755752123057842,-0.0911987126640975,1.656535327632725,-0.9538306593894958,-1.7999533414840698,0.9593337178230286
1774470632204648200,5.971648193359375,0.7900298492282628,-0.2349402441225946,0.611945245597884,-0.8243411183357239,-1.3457560539245603,0.9545873999595642
1774470632214661400,5.981661376953125,1.059485672545433,-0.2697786255307495,0.7971679574798792,-0.6744110584259033,-0.8880571722984314,1.020289182662964
1774470632224674600,5.991674560546875,0.7547136211752891,-0.1182873567283153,1.051510675078258,-0.7772181630134583,-0.5307134389877319,0.840515673160553
1774470632234687200,6.001687255859375,2.758067705529928,0.6353435837768018,-0.118473015493527,-0.9053705334663392,-0.5194159746170044,0.5604110360145569
1774470632244700400,6.011700439453125,3.34651056805253,1.2704289550088346,0.7292942254975437,-0.5551866888999939,-0.6400039196014404,0.2498693764209747
1774470632254713300,6.02171337890625,3.135986826175451,1.1183647086240351,5.410599983876943,-0.462239146232605,-0.798462986946106,0.0533379800617694
1774470632264726500,6.0317265625,2.8685663080781696,-0.2302658225707709,3.6810444282189008,-0.3258839547634125,-0.9033420085906982,0.011314095929265
1774470632274739200,6.0417392578125,1.587840269330144,0.9219871271297336,2.692149418464303,-0.1967832595109939,-0.9496569633483888,0.0778937861323356
1774470632284752400,6.05175244140625,0.5809317562401294,1.5646253979593514,3.0041213182106614,-0.1609011590480804,-0.9599540829658508,0.1578642576932907
1774470632294765300,6.061765380859375,0.5229769953995943,0.813976249743998,2.408929273688793,-0.1389636248350143,-0.820141613483429,0.1568668931722641
1774470632304778200,6.0717783203125,0.936311128297448,0.7547152286104858,2.28725256678313,-0.1162782981991767,-0.5520411729812622,0.0842347741127014
1774470632314791400,6.08179150390625,1.1325433099716902,0.7178748597301542,2.5989316210627558,-0.0926249399781227,-0.3082602024078369,0.0487284436821937
1774470632324804400,6.091804443359375,0.6509720916718245,0.3195205615602433,2.964546263669431,0.0024373992346227,0.1163342297077179,0.0182959698140621
1774470632334817500,6.101817626953125,-0.0613981792926788,0.0301218742802739,3.5212755988061426,0.1447269916534423,0.7037920951843262,0.052031435072422
1774470632344830200,6.111830322265625,-0.8675041340529919,-0.091357264226675,3.972721727955341,0.2917028665542602,1.328068494796753,0.1891251057386398
1774470632354843400,6.121843505859375,-1.3695026388317346,-0.1784424040921032,3.869077229085564,0.4776680767536163,2.0090506076812744,0.3875899016857147
1774470632364856300,6.131856201171875,-1.0342945326656103,-0.0537765983730554,3.1997412132054563,0.5566909909248352,3.021545648574829,0.605099081993103
1774470632374869200,6.141869140625,-0.3041173868536949,0.5282818238094449,1.873273706240952,0.5404674410820007,3.9312620162963863,0.9654927849769592
1774470632384883500,6.151883544921875,-0.6481114415436983,1.1447734076000748,0.4407619092559441,0.5030979514122009,4.477585315704346,1.397020697593689
1774470632394896400,6.161896484375,-1.385837687560916,1.4459220077760515,-0.2764362567890435,0.4028660356998443,4.829144477844238,1.7645151615142822
1774470632404909300,6.171909423828125,-1.7465139969825745,2.171662632445246,-0.904249737321958,0.3176009356975555,5.441381931304932,2.087131261825561
1774470632414922200,6.181922119140625,-2.394134440138936,2.6819302222669124,-1.1146608126048,0.2446824312210083,5.78955078125,2.441147565841675
1774470632424935400,6.191935302734375,-2.707686594814062,2.784854590168595,-1.4506525434292852,0.1484584212303161,5.850308418273926,2.8373465538024902
1774470632434948400,6.2019482421875,-2.635251473200321,2.642131880363822,-1.6404557149693368,0.0962522253394126,5.8418049812316895,3.2310826778411865
1774470632444961300,6.211961181640625,-2.611881119006872,3.05870368000865,-1.449898656322062,0.0047220475971698,5.842800617218018,3.682248830795288
1774470632454974500,6.221974365234375,-2.876481318986416,3.028754239685833,-1.2884975495323538,-0.0948683321475982,5.902185440063477,4.080694198608398
1774470632464987400,6.2319873046875,-3.2023779914498327,2.9267174682736394,-1.6322843912124634,-0.1625355184078216,5.876219749450684,4.419149875640869
1774470632475000300,6.242000244140625,-3.237033125245571,3.0020936117753383,-2.5635019957631826,-0.2155711650848388,5.639964580535889,4.776286602020264
1774470632485013200,6.25201318359375,-2.927897033447027,3.250765005739033,-3.174881204976141,-0.2481887638568878,5.686773300170898,5.111759185791016
1774470632495026400,6.2620263671875,-3.250701585114002,3.6407653170615433,-3.681873572519421,-0.2605365812778473,5.72756290435791,5.575799465179443
1774470632505039400,6.272039306640625,-3.3411090012699365,4.291219522339105,-4.370419900304079,-0.2548443377017975,5.879687786102295,6.059920310974121
1774470632515052300,6.28205224609375,-2.6710774043411014,4.932724112963676,-3.66822381735146,-0.2619671523571014,6.396627902984619,6.48514986038208
1774470632525065500,6.2920654296875,-2.3527970521003008,5.106665552374721,-3.805200092458725,-0.4168001413345337,6.548350811004639,6.462840557098389
1774470632535078400,6.302078369140625,0.887640328630805,4.253827072533965,-5.021869546359778,-0.7676566243171692,6.232144832611084,6.039130687713623
1774470632545091300,6.31209130859375,3.714702952192724,2.8398195215433835,-6.628389381718635,-1.2342027425765991,5.654026508331299,5.288585662841797
1774470632555104300,6.322104248046875,5.373704377678036,1.5959902580380438,-7.492982012239098,-1.690271019935608,5.157617092132568,4.2668232917785645
1774470632565117400,6.332117431640625,6.453167254847288,1.2870868059515952,-6.044551967164874,-2.170497417449951,5.245729923248291,3.1665945053100586
1774470632575130400,6.34213037109375,5.083359495589137,0.8645166426748037,-3.926572555720806,-2.555971622467041,5.743805885314941,2.084423542022705
1774470632585143300,6.352143310546875,3.223763309305906,0.938090412929654,-1.35563544152081,-2.727617025375366,6.106389045715332,1.166873812675476
1774470632595156500,6.362156494140625,1.4192501278191805,1.333580261579156,1.139669216328859,-2.6356167793273926,5.570253849029541,0.5033020377159119
1774470632605170200,6.372170166015625,0.2123965500116348,1.4798182860285043,2.550574125128984,-2.305416822433472,4.249241828918457,0.1081520467996597
1774470632615183400,6.382183349609375,-1.82393859744668,1.2358335885763168,3.516346910232305,-1.8928186893463133,2.267059326171875,0.0661631450057029
1774470632625196500,6.392196533203125,-3.670762395918369,0.7838087827563285,3.9546003803312777,-1.4132821559906006,-0.2256771028041839,0.2264856994152069
1774470632635209200,6.402209228515625,-4.624955802386999,0.7628133410006761,4.2110353940337895,-0.9723954796791076,-2.6608872413635254,0.4347963035106659
1774470632645222400,6.412222412109375,-5.055827930063009,0.9237380624502896,4.545215910717845,-0.617387056350708,-4.520206928253174,0.5793098211288452
1774470632655235300,6.4222353515625,-4.662724684289097,1.3655208757191897,4.734314587250352,-0.4125286340713501,-6.067812442779541,0.7026522755622864
1774470632665248500,6.43224853515625,-3.545195988097787,1.187473754554987,3.5842940727770327,-0.382464200258255,-7.303216934204102,0.7835173010826111
1774470632675261200,6.44226123046875,-2.617090378087759,0.61064008128345,1.6713444819688796,-0.5603256821632385,-7.917971134185791,0.832883358001709
1774470632685274400,6.4522744140625,-1.6020803916066884,0.1783382130652666,0.6849725609511137,-0.8424791097640991,-8.013511657714844,0.859490156173706
1774470632695287600,6.46228759765625,-0.8012880330845713,-0.0365501537621021,0.4818967969924211,-1.1502548456192017,-7.631750583648682,0.8347273468971252
1774470632705300200,6.47230029296875,-0.3586445113331079,-0.057716275909543,0.4438894301593303,-1.4527907371520996,-6.9498820304870605,0.8153560757637024
1774470632715313400,6.4823134765625,-0.281162627723813,-0.3236000859588384,0.4425999748706817,-1.718234896659851,-5.854942798614502,0.8199079632759094
1774470632725326300,6.492326416015625,-0.3749848207592964,-0.8542097681939601,0.4883382282167672,-1.8647342920303345,-4.563453674316406,0.8628706336021423
1774470632735339500,6.502339599609375,-0.2536865917772054,-1.4118565104365348,0.7240127779632807,-1.9582417011260984,-3.5642576217651367,0.9396281242370604
1774470632745352200,6.512352294921875,0.4255985711872577,-1.944412650564313,0.2295189497262239,-1.949700951576233,-2.9314260482788086,0.9713596701622008
1774470632755365400,6.522365478515625,1.0551529040381311,-2.262634550616145,0.0836386526733636,-1.888845682144165,-2.7116708755493164,0.9677101969718932
1774470632765378300,6.53237841796875,1.8762825326681136,-2.0271260050863025,0.1668231318384408,-1.804702877998352,-2.4252941608428955,0.9579502940177916
1774470632775391200,6.54239111328125,1.5317431190550326,-1.9954583626687523,-0.0467073906391859,-1.7994086742401123,-2.1531286239624023,1.0164411067962646
1774470632785404400,6.552404296875,0.2747735112085938,-1.5769301682591437,-0.3897498436927795,-1.692068099975586,-2.159144163131714,1.0080177783966064
1774470632795417300,6.562417236328125,0.4245136985599994,-1.3918731683328749,1.796194850474596,-1.851873517036438,-1.943547010421753,1.0137289762496948
1774470632805430500,6.572430419921875,0.3925450273692608,-0.61886488879323,1.010070191991329,-1.8061150312423704,-1.515408992767334,1.1395024061203003
1774470632815443200,6.582443115234375,1.3462287307500838,-0.4449444921702146,0.2707236512959003,-1.71567964553833,-0.9579079151153564,1.2354408502578735
1774470632825457400,6.59245751953125,2.0604186183571813,-0.9334849649608136,0.8339064003556966,-1.616629958152771,-0.186518520116806,1.2242470979690552
1774470632835470300,6.60247021484375,2.5881612207233906,-1.0355454095095395,0.8968383650869131,-1.3835766315460205,0.5382079482078552,1.0397231578826904
1774470632845483300,6.612483154296875,3.7977404241025448,-0.5954676465928554,2.6265911968827247,-1.0469152927398682,1.7690978050231934,0.6470745205879211
1774470632855496400,6.622496337890625,4.4921974372357125,-0.8318287172988057,4.05870022175312,-0.8564406633377075,2.5155975818634038,0.174146831035614
1774470632865509400,6.63250927734375,4.421512958681583,-2.4850334392040967,3.213698426887393,-0.6968286633491516,2.7015600204467773,-0.0389673039317131
1774470632875522300,6.642522216796875,3.596699380841851,-2.18643130864054,2.1169471457868814,-0.6899014115333557,2.7989118099212646,-0.0330242849886417
1774470632885535200,6.65253515625,1.8464558419421315,-2.4280557067021724,1.256974576282501,-0.5714466571807861,2.839292526245117,-0.0362637564539909
1774470632895548400,6.66254833984375,1.3687994589984416,-0.3239107593432068,2.490685765877366,-0.6041552424430847,3.135605812072754,0.1111112609505653
1774470632905561300,6.672561279296875,-1.1633996360063552,0.7069479536548257,2.591903329861164,-0.8356204628944397,3.3520190715789795,0.4276726841926574
1774470632915574300,6.68257421875,-3.30202056120187,0.5208592725932598,1.4567144738167523,-1.1221787929534912,2.8042359352111816,0.6897749304771423
1774470632925587500,6.69258740234375,-2.742069341409206,0.2310314001157879,-0.0276630829513072,-1.3524055480957031,1.8750226497650144,0.7082546353340149
1774470632935600400,6.702600341796875,-1.5487071133375168,0.1337403619259596,-1.080196452140808,-1.6527409553527832,0.9981377720832824,0.5585270524024963
1774470632945613300,6.71261328125,-0.8604486625835299,-0.5764610405668616,-2.0308640225708485,-1.966558575630188,0.4502326250076294,0.3630384802818298
1774470632955626200,6.722626220703125,-0.5553945794016123,-1.0697793952837586,-2.4798791251808403,-2.272683620452881,0.1547526270151138,0.1577217727899551
1774470632965639400,6.732639404296875,0.0119184013307094,-1.0122332152441142,-2.8069454259455204,-2.542927026748657,0.0695674419403076,-0.0398386940360069
1774470632975652400,6.74265234375,0.6181073484241962,-0.9456377595692872,-3.297645122596621,-2.866771936416626,0.0954866409301757,-0.2250347882509231
1774470632985665300,6.752665283203125,0.6402405620381235,-0.858744927405566,-3.603870295384526,-3.1640844345092773,0.1946712881326675,-0.424258679151535
1774470632995678500,6.762678466796875,1.060248765872419,-0.6847834681198001,-4.001504170325398,-3.43308424949646,0.0447078794240951,-0.6237884163856506
1774470633005691400,6.77269140625,1.7042863821059464,-0.4119637213274836,-4.639938267463445,-3.741952657699585,-0.4730745553970337,-0.8185800313949585
1774470633015704300,6.782704345703125,2.485954061180353,-0.5422780543275177,-5.07453263053298,-4.119358539581299,-0.4388761222362518,-1.208645224571228
1774470633025717200,6.79271728515625,2.3935861586064098,-0.9345794091340154,-5.527582687747478,-4.5721354484558105,0.1474198698997497,-1.7441595792770386
1774470633035730400,6.80273046875,2.1155510152533648,-0.7571857103772461,-5.718399858635664,-5.0464768409729,0.5207011103630066,-2.354297876358032
1774470633045743400,6.812743408203125,3.21717282499969,-0.3304313202183693,-5.559165574491024,-5.567671298980713,0.4486077427864074,-2.9770596027374268
1774470633055756300,6.82275634765625,4.473660202287137,-0.2560407536879182,-5.631689543431997,-5.891469955444336,0.3043635189533233,-3.724574089050293
1774470633065770500,6.8327705078125,5.244067943939566,0.7780294687025249,-4.480270852598547,-5.8885016441345215,0.0582605265080928,-4.528604030609131
1774470633075783200,6.842783203125,5.892186399745941,2.833161232697964,-1.9815344667345285,-5.799302101135254,0.1376258283853531,-5.28920316696167
1774470633085796400,6.85279638671875,5.1197909914076325,4.364928024889529,-0.6855027223050594,-5.6376824378967285,0.5693053007125854,-5.918739318847656
1774470633095809800,6.862809814453125,3.733042034220696,5.407887802308798,0.7991033825218677,-5.469524383544922,1.2993907928466797,-6.378115653991699
1774470633105822500,6.872822509765625,2.4067322020359336,5.822728248116373,1.6772230186134576,-5.266693115234375,2.000720500946045,-6.624511241912842
1774470633115835600,6.882835693359375,1.3323410751730205,6.271398482811451,2.844500957357883,-5.014088153839111,2.697277545928955,-6.663009166717529
1774470633125848600,6.8928486328125,-0.0606440729897469,6.453157902497053,3.62864817828834,-4.751519680023193,3.3879504203796387,-6.491393089294434
1774470633135861800,6.90286181640625,-1.6891951959580185,6.086047760635614,4.001317123320699,-4.439390182495117,4.112081527709961,-6.076239109039307
1774470633145874400,6.91287451171875,-3.4458816273868083,5.359599279958009,4.524982685506344,-4.058283805847168,4.9715094566345215,-5.348996162414551
1774470633155887600,6.9228876953125,-5.393133300769329,4.59212963758409,5.31038136780262,-3.6619699001312256,5.78557014465332,-4.318290710449219
1774470633165900800,6.93290087890625,-7.137421438395976,3.5603199074715373,5.562109226727485,-3.237012386322021,6.39946985244751,-3.030724287033081
1774470633175913500,6.94291357421875,-8.451581544712186,2.550207629904151,6.040830316293239,-2.8076772689819336,6.724552631378174,-1.6092087030410769
1774470633185926700,6.9529267578125,-9.292441417467591,1.825890900558233,6.946897112974524,-2.4242806434631348,6.837818145751953,-0.1864037215709686
1774470633195939600,6.962939697265625,-9.61727659817934,0.518792403191328,6.858980344590544,-2.1445791721343994,6.691962242126465,1.1800481081008911
1774470633205952800,6.972952880859375,-9.391844040983914,-1.1218103190332651,5.208659361428022,-1.798819661140442,6.456841468811035,2.3251681327819824
1774470633215965400,6.98296533203125,-8.807951681372522,-2.065604496562481,4.510988062423468,-1.367992281913757,6.14361047744751,3.2252912521362305
1774470633225978600,6.992978515625,-7.677606173706054,-2.4747125361979005,3.4014199698477983,-0.8637166023254395,5.729923248291016,3.862073183059693
1774470633235991800,7.00299169921875,-6.544676494765281,-2.708210910949111,3.117748281912505,-0.3134083449840545,5.107095718383789,4.299381256103516
1774470633246004500,7.01300439453125,-5.402575082853436,-2.664941093543172,3.389853742955625,0.166217640042305,4.253432750701904,4.585103988647461
1774470633256017700,7.023017578125,-4.210574498523772,-2.5231021808356044,3.85893080586344,0.646675705909729,3.281045198440552,4.740034103393555
1774470633266030600,7.033030517578125,-3.037358109641075,-1.6651000346213578,5.434433279407024,1.1672297716140747,2.4050040245056152,4.744656085968018
1774470633276043800,7.043043701171875,-2.137645650422573,-0.6579653115600347,7.186942132890224,1.5882341861724854,1.9325435161590576,4.602932929992676
1774470633286056400,7.053056396484375,-1.804369096840918,-0.7059674181848764,7.394557293844223,1.8797829151153564,1.6735889911651611,4.428443431854248
1774470633296069600,7.063069580078125,-1.6642393261387942,-1.2153034262448548,6.372711323863268,2.129563808441162,1.1433943510055542,4.344964504241943
1774470633306083600,7.07308349609375,-1.122196688002348,-1.105081302550435,5.872168863111734,2.4012041091918945,0.343681663274765,4.362020492553711
1774470633316096500,7.083096435546875,-0.4672705980077385,-0.4961930333703756,5.728646527361869,2.6167829036712646,-0.5901755690574646,4.462979793548584
1774470633326109700,7.093109619140625,0.0632150194562971,0.0024503157615661,5.30454257864654,2.677783727645874,-1.514240264892578,4.508470058441162
1774470633336122600,7.10312255859375,0.8863479507327079,0.0607154577255249,4.920711603608727,2.7589895725250244,-2.142138719558716,4.480247974395752
1774470633346135600,7.113135498046875,1.3679764521777629,0.3252718185633421,4.983876792573929,2.7631452083587646,-2.726797819137573,4.498986721038818
1774470633356148700,7.123148681640625,1.7890642679423092,0.5725082112878561,5.208914797493815,2.7899038791656494,-3.2820820808410645,4.502851963043213
1774470633366161700,7.13316162109375,2.4894980173975227,1.2011790393024682,5.922901271483302,2.9262888431549072,-3.56915283203125,4.394270420074463
1774470633376174600,7.143174560546875,3.057089230549335,2.1516227378487587,6.564032352620363,3.11878514289856,-3.535898447036743,4.176246643066406
1774470633386187500,7.1531875,3.4979596051484343,2.788032635682821,6.600470862701535,3.270569324493408,-3.37984037399292,3.9276490211486816
1774470633396200700,7.16320068359375,3.912974823001027,2.93124926648438,6.168798524558544,3.405954122543335,-3.2444491386413574,3.6682615280151367
1774470633406213600,7.173213623046875,4.497729352399706,3.1895471514493225,5.725702875125408,3.5947821140289307,-3.145340919494629,3.39253044128418
1774470633416226600,7.1832265625,5.051706466218829,3.5074084014952183,5.216636331656575,3.7762298583984375,-3.098489761352539,3.1014344692230225
1774470633426239500,7.193239501953125,5.497513712698221,3.629230362090468,4.380270263189077,3.908823013305664,-3.046304702758789,2.767583131790161
1774470633436252700,7.203252685546875,5.867284598201513,3.7007664890378713,3.2939743251293896,4.016741752624512,-2.901468515396118,2.389971971511841
1774470633446265600,7.213265625,6.063068451586365,3.667230714660883,2.201798096859455,4.155109405517578,-2.628423929214477,1.985602140426636
1774470633456278500,7.223278564453125,5.938473519146442,3.4123353316158056,0.9058657211512328,4.028312683105469,-2.237330913543701,1.6055281162261963
1774470633466291700,7.233291748046875,5.231140073305368,2.777281816826761,-1.4172235904276371,3.780233383178711,-2.154600143432617,1.215993881225586
1774470633476304600,7.2433046875,5.733565863585472,3.2868054564133287,-0.7580208460271358,3.666373014450073,-2.118773937225342,0.8045934438705444
1774470633486317600,7.253317626953125,6.13387451069355,4.324095663763583,-0.0547848986327648,3.646507024765015,-2.0737111568450928,0.3749765455722809
1774470633496330500,7.26333056640625,6.203902571165561,4.7535596782073375,-0.3404384080350399,3.527672529220581,-1.9482725858688357,-0.0170107744634151
1774470633506343700,7.27334375,5.974667114555835,4.360728527373075,-1.4856716882318255,3.285873413085937,-1.7956517934799194,-0.3541754782199859
1774470633516356600,7.283356689453125,5.847172369021177,3.7380516790762544,-2.684286430004239,2.989076852798462,-1.6445647478103638,-0.6193358898162842
1774470633526369500,7.29336962890625,5.793544239208102,3.532746840891242,-3.578585047480464,2.702120780944824,-1.6252470016479492,-0.8006289601325989
1774470633536382700,7.3033828125,5.924276651489734,3.658577744866908,-3.7394741130948064,2.458177089691162,-1.656033992767334,-0.9694705009460448
1774470633546395600,7.313395751953125,6.200021930339932,4.115163282731175,-3.510605151709914,2.152456760406494,-1.6336649656295776,-1.1453770399093628
1774470633556409600,7.32340966796875,6.369332202818989,4.621256947869062,-3.254432003813982,1.7185719013214111,-1.401155948638916,-1.3810617923736572
1774470633566422800,7.3334228515625,6.421670877343416,4.660276998876035,-3.046466714248061,1.1659421920776367,-0.7460867762565613,-1.7111291885375977
1774470633576435500,7.343435546875,6.059694591239095,4.119589282479882,-3.2019027751535174,0.5300613045692444,0.2526260018348694,-2.0928468704223637
1774470633586448600,7.35344873046875,5.519819652530551,3.393413773524761,-3.715905605980754,-0.0924283638596534,1.322990655899048,-2.4683754444122314
1774470633596461600,7.363461669921875,5.247438881677389,2.722160818107426,-4.31847753162086,-0.6658047437667847,2.251643657684326,-2.7623605728149414
1774470633606474800,7.373474853515625,4.984230428317189,1.8162948046952485,-4.9218268713742495,-1.17685067653656,2.918896198272705,-2.95227575302124
1774470633616487400,7.3834873046875,4.749232754918933,1.1440703738972544,-5.399385346901417,-1.6619911193847656,3.318852663040161,-3.0427699089050293
1774470633626500600,7.39350048828125,4.567029683119058,0.3625368425965309,-5.869886305132508,-2.0894644260406494,3.462327241897583,-3.1090548038482666
1774470633636513800,7.403513671875,4.409738934257626,-0.2853238390564918,-6.1375517379015685,-2.432534694671631,3.471198081970215,-3.123039722442627
1774470633646526500,7.4135263671875,4.05371161968559,-0.3966220675498247,-6.198324478772283,-2.777336359024048,3.427673816680908,-3.076331853866577
1774470633656539600,7.42353955078125,3.533445929071307,-0.8567425015419721,-6.458734825846553,-3.180692672729492,3.369762897491455,-2.94286847114563
1774470633666552600,7.433552490234375,2.890974246980249,-1.5396487776130436,-6.898532602778077,-3.5948643684387207,3.3105194568634038,-2.761354446411133
1774470633676565800,7.443565673828125,2.418933365830779,-1.9610633411139249,-7.067103455066681,-4.023026943206787,3.28983473777771,-2.5904693603515625
1774470633686578400,7.453578369140625,2.0772990260094404,-2.5193980656206607,-7.177509118634462,-4.439944267272949,3.3715670108795166,-2.445821046829224
1774470633696591600,7.463591552734375,1.7204133410423994,-3.27923969733417,-7.257813073927164,-4.812546253204346,3.527632474899292,-2.3367505073547363
1774470633706604800,7.473604736328125,1.444877905550599,-4.018268842643499,-7.20931061656475,-5.118989944458008,3.6922049522399902,-2.286082983016968
1774470633716617500,7.483617431640625,1.3058365146070718,-4.4869075141340495,-6.971826387047767,-5.392054080963135,3.8884685039520255,-2.2448277473449707
1774470633726630700,7.493630615234375,1.0781786825776098,-4.959169636818766,-6.726096307232975,-5.64552116394043,4.144179344177246,-2.160722494125366
1774470633736643600,7.5036435546875,0.7207686814755201,-5.293995465669036,-6.50547728779912,-5.877634525299072,4.305874824523926,-2.0134212970733643
1774470633746656800,7.51365673828125,0.1333072312057018,-5.645601164406537,-6.161231888696551,-6.0597758293151855,4.35034704208374,-1.8544574975967407
1774470633756669400,7.52366943359375,-0.1064029307324439,-6.162148419019579,-5.68017329609394,-6.197231769561768,4.401963710784912,-1.5549873113632202
1774470633766682600,7.5336826171875,-0.77846515670605,-6.661078768399357,-5.157069459444284,-6.327399730682373,3.598510503768921,-1.166613221168518
1774470633776695600,7.543695556640625,-2.209925289213657,-6.505619326618313,-4.442619751857221,-6.592015266418457,1.3030507564544678,-1.0892627239227295
1774470633786708500,7.55370849609375,-3.3349452179431918,-5.291698879164457,-3.712970137050748,-6.834421157836914,-0.5407376289367676,-1.3576213121414185
1774470633796721700,7.5637216796875,-2.2060943327486515,-5.580968825498223,-3.5314024405449627,-6.987855434417725,-1.46074640750885,-1.755391240119934
1774470633806734600,7.573734619140625,-1.5642026425026356,-6.040028352260589,-3.1355928584218025,-7.020392894744873,-1.6288288831710815,-2.00785493850708
1774470633816747800,7.583747802734375,-1.6364578775048255,-6.883783946457505,-2.325379176081717,-7.006331443786621,-1.4950462579727173,-2.116027355194092
1774470633826760400,7.593760498046875,-2.0010246184937657,-7.398433843016624,-1.5188713625222443,-6.986243724822998,-1.3516193628311155,-2.214369535446167
1774470633836774700,7.603774658203125,-2.20190097271204,-7.380373870190978,-0.879157308576256,-6.971018314361572,-1.203573226928711,-2.3004555702209477
1774470633846787600,7.61378759765625,-2.4115593299314377,-7.308173726376891,-0.2390027077885344,-6.955074787139893,-1.0551347732543943,-2.3785271644592285
1774470633856800500,7.623800537109375,-2.6429174777835605,-7.217317397409677,0.4046249028719961,-6.942221641540527,-0.904726505279541,-2.445559501647949
1774470633866813700,7.633813720703125,-2.8526559145018457,-7.065140630561113,1.0362985659644006,-6.930007457733154,-0.7527944445610046,-2.4980719089508057
1774470633876826600,7.64382666015625,-3.1151538815051314,-6.861372208163142,1.6532948844067752,-6.921324729919434,-0.5933704376220703,-2.5327868461608887
1774470633886839600,7.653839599609375,-3.395084337085485,-6.6277376398116346,2.266040267406404,-6.916624546051025,-0.4268126487731933,-2.555201292037964
1774470633896852500,7.6638525390625,-3.6449288664817807,-6.321424788740277,2.855680523020029,-6.912034034729004,-0.2582608461380005,-2.573179244995117
1774470633906865700,7.67386572265625,-3.840043734563887,-5.974876373392343,3.4310692581802607,-6.90977144241333,-0.0921530947089195,-2.5921413898468018
1774470633916878600,7.683878662109375,-3.970270827671885,-5.596328891715407,3.997204135043919,-6.910797595977783,0.0607252530753612,-2.6000330448150635
1774470633926891500,7.6938916015625,-4.126923570890725,-5.169653046685457,4.523581002014876,-6.913631439208984,0.2023167312145233,-2.601200819015503
1774470633936904700,7.70390478515625,-4.266991674533486,-4.693588024586439,5.01971909032762,-6.995116233825684,-0.0966938510537147,-2.890138626098633
1774470633946917600,7.713917724609375,-2.520549573743343,0.8853139315098524,2.8854502228617664,-10.306323051452637,-2.405024766921997,-4.56529712677002
1774470633956930600,7.7239306640625,3.460243330216408,89.2309512866497,-49.68128370013237,-15.32628345489502,-2.411674737930298,-4.6514506340026855
1774470633966943500,7.733943603515625,-11.094966640007495,93.24316565155982,-67.6726196274042,-16.71944808959961,-3.095426559448242,-5.668107986450195
1774470633976956700,7.743956787109375,-2.202401907971501,27.630001350438597,-13.191044600766896,-16.67887306213379,-2.354520559310913,-6.146734714508057
1774470633986969600,7.753969482421875,-5.290913281744718,11.439299132871628,6.944381915283203,-16.610727310180664,-1.4229886531829834,-6.398789882659912
1774470633996982500,7.763982421875,-6.564793400120735,13.636390659475326,5.14881542584002,-16.57834243774414,-0.4533547759056091,-6.492335319519043
1774470634006995700,7.77399560546875,-6.040445116367936,15.420162081706524,4.99579051772952,-16.581621170043945,0.5270134210586548,-6.435126781463623
1774470634017008600,7.784008544921875,-5.894262036976218,16.74788484942913,4.640412314715981,-16.620189666748047,1.4988863468170166,-6.219030380249023
1774470634027021600,7.794021484375,-5.48718404186368,18.059107733249665,3.982029070004821,-16.69704246520996,2.433250665664673,-5.851068496704102
1774470634037034500,7.804034423828125,-4.99903695230484,19.12583913913965,3.1360984698563814,-16.79869270324707,3.307368755340576,-5.341662406921387
1774470634047047700,7.814047607421875,-4.473225025740265,19.99921070392132,2.0788488857999443,-16.91520118713379,4.103299140930176,-4.6930251121521
1774470634057060600,7.824060546875,-3.939658831787109,20.63444571275711,0.8629717513203621,-17.0395450592041,4.785184383392334,-3.918066263198853
1774470634067073500,7.834073486328125,-3.527140399186313,21.004111384320257,-0.5291610908620059,-17.151548385620117,5.335971355438232,-3.034982681274414
1774470634077086700,7.844086669921875,-3.2583398249074813,21.15263605840206,-2.0268036412641406,-17.24658966064453,5.73788595199585,-2.067713975906372
1774470634087099600,7.854099609375,-3.114856652124226,21.04822174420357,-3.5546254952222105,-17.308988571166992,5.986948013305664,-1.038985252380371
1774470634097112000,7.864112060546875,-3.1792616120174526,20.717415087866783,-5.034297650778293,-17.331907272338867,6.071573734283447,0.0236740205436944
1774470634107125800,7.874125732421875,-3.3822643107399344,20.138920787906645,-6.427957994788884,-17.318737030029297,6.007969379425049,1.0864005088806152
1774470634117139000,7.884138916015625,-3.722195938296616,19.37916274282336,-7.6582047231435775,-17.275667190551758,5.843207359313965,2.1386115550994877
1774470634127151900,7.89415185546875,-4.640804236643016,18.153430861544607,-8.533717391607166,-23.091947555541992,25.1180477142334,14.685659408569336
1774470634137164800,7.904164794921875,-32.36752554738521,-28.42371427209377,4.652448789468408,-25.45746612548828,29.174440383911133,29.03353500366211
1774470634147178000,7.914177978515625,-34.42361168949604,-28.342358177399635,2.7199299903154373,-20.338214874267575,24.019474029541016,34.194488525390625
1774470634157191000,7.92419091796875,9.60731400709152,90.76480219163894,-21.867445539212227,-13.409894943237305,47.57851409912109,-8.551003456115723
1774470634167203800,7.934203857421875,185.05525337486267,69.59865198714732,15.118684395706651,-15.050252914428713,15.297958374023438,-16.043176651000977
1774470634177216800,7.944216796875,79.6596531803131,26.20047825040817,-11.560430773115158,-10.768068313598633,1.5044329166412354,-8.128077507019043
