time,seconds_elapsed,accel_x,accel_y,accel_z,gyro_x,gyro_y,gyro_z
1774470973808936700,0.070936767578125,-0.4044295264303684,-0.018437281705439,-0.1741973138682544,-0.0342371091246604,-0.098181240260601,0.3552270233631134
1774470973818949600,0.08094970703125,-0.0223123695731163,-0.1719961505621671,-0.1510030468940734,-0.0398104079067707,-0.1237932667136192,0.3029426634311676
1774470973828962600,0.090962646484375,0.2763011591672897,-0.3158402656123042,-0.032709406555444,-0.0513767823576927,-0.1180661395192146,0.2294695228338241
1774470973838974700,0.100974609375,0.3845826701879501,-0.4661681897237896,0.0843099760636687,-0.0660629495978355,-0.0830651521682739,0.1450362056493759
1774470973848987600,0.110987548828125,0.3964718454241752,-0.5154796253815292,0.1323518301770091,-0.0569432191550731,-0.0257115829735994,0.0718333646655082
1774470973859000600,0.12100048828125,0.3624205227404832,-0.5067275791272521,0.2089052007645368,-0.0200065039098262,0.0610299706459045,0.0211496800184249
1774470973869013500,0.131013427734375,0.3719260177105665,-0.4729378299891948,0.3151002608999609,0.0362868122756481,0.1174060851335525,-0.028962692245841
1774470973879026700,0.141026611328125,0.4659352577507495,-0.4598325569614768,0.3836025731094181,0.0947273224592208,0.0847300142049789,-0.0746131911873817
1774470973889040000,0.151039794921875,0.4047317242473364,-0.4647141915231942,0.4101433740325272,0.1529216468334198,0.0494010522961616,-0.0666471421718597
1774470973899052500,0.161052490234375,0.1644482194006443,-0.4496642141684889,0.3385223452806473,0.1942846924066543,0.0235512237995862,0.0061321780085563
1774470973909064400,0.171064453125,-0.1342968267649412,-0.3849862825527787,0.2151511094167828,0.2160038352012634,-0.0305349137634038,0.134751409292221
1774470973919077600,0.18107763671875,-0.3443184643387794,-0.3245134014114737,0.1224763328507542,0.2082422375679016,-0.1077891141176223,0.2926940321922302
1774470973929090800,0.1910908203125,-0.5138216290414334,-0.3603291034191846,0.0855465321213006,0.1859667599201202,-0.1591718643903732,0.4570185244083404
1774470973939103500,0.201103515625,-0.4678185872793197,-0.3924024040281772,-0.0627665450364351,0.1391492336988449,-0.16457000374794,0.5715682506561279
1774470973949116700,0.21111669921875,-0.0653600686609745,-0.4631693001687526,-0.2805710915714502,0.0919103398919105,-0.1828733682632446,0.5707384347915649
1774470973959129600,0.221129638671875,0.5607283416450023,-0.5865443354249,-0.3355237479865551,0.0570582970976829,-0.2914739549160003,0.4672800302505493
1774470973969142800,0.231142822265625,1.019828200417757,-0.7142725974544882,-0.2178019161865115,0.0279345009475946,-0.4097294807434082,0.3302928805351257
1774470973979154700,0.24115478515625,1.0373188489228486,-0.7398910228356719,-0.1758719690822064,-0.0106697157025337,-0.4485646188259125,0.2256585210561752
1774470973989167600,0.251167724609375,0.6454647264271974,-0.611252075701952,-0.211149326429516,-0.0433847866952419,-0.4030911326408386,0.1833395659923553
1774470973999180500,0.2611806640625,0.1465045664310455,-0.415071916475892,-0.1831272009074687,-0.0618521608412265,-0.302731990814209,0.202043130993843
1774470974009193700,0.27119384765625,-0.2573708332479,-0.2432891164034605,0.0322753990523517,-0.0328367538750171,-0.1606155782938003,0.2594193518161773
1774470974019206400,0.281206298828125,-0.4619938266485929,-0.169355572925508,0.3319366832800209,0.0077729877084493,-0.0168946329504251,0.3280178606510162
1774470974029219600,0.291219482421875,-0.3294201704144477,-0.2822770187065005,0.5257129962347448,0.0109187131747603,0.0730078220367431,0.3596607148647308
1774470974039232800,0.301232666015625,0.0826619165956974,-0.6723349054351448,0.3676619305253029,-0.0501200817525386,0.1129712462425232,0.3439708352088928
1774470974049244700,0.31124462890625,0.4946808752417564,-1.24007049549371,0.0331659181512892,-0.1698294430971145,0.1382787376642227,0.3249824941158294
1774470974059257900,0.3212578125,0.5606733965873718,-1.8311290934726596,-0.0566800647296011,-0.3174562752246856,0.1841591000556945,0.3577556610107422
1774470974069270500,0.3312705078125,0.3962643401533365,-2.216134957508743,-0.1312092360131442,-0.4730613231658935,0.278494119644165,0.4459995031356811
1774470974079283700,0.34128369140625,0.3779419169992208,-2.19632404936254,-0.1357838504523038,-0.5962023735046387,0.3377089202404022,0.5298177003860474
1774470974089296600,0.351296630859375,0.6273971548169851,-1.6866174544245005,0.4319755588732659,-0.5969752073287964,0.2747597992420196,0.596784234046936
1774470974099309600,0.3613095703125,0.9385387412190436,-1.297352179378271,1.3228205287642776,-0.5361159443855286,0.0526657812297344,0.6849103569984436
1774470974109322500,0.371322509765625,1.1940128009349107,-1.5897668534785507,1.766695345876366,-0.589514434337616,-0.0175718963146209,0.7481476664543152
1774470974119334700,0.381334716796875,1.4324492166101932,-1.125842643289268,2.143416635039449,-0.6554057002067566,0.1597555428743362,0.7505665421485901
1774470974129347600,0.39134765625,2.0521751061469318,-0.5799971057385206,2.162262059154361,-0.5262802243232727,0.2309551537036895,0.7303118705749512
1774470974139360800,0.40136083984375,2.4020851068824527,-0.3467819318428635,1.8407433095142245,-0.3449632525444031,0.0604219026863575,0.6786832809448242
1774470974149373400,0.41137353515625,2.311475446152687,-0.3710454354837537,1.3652648551315067,-0.1909832805395126,-0.1050637289881706,0.6519864201545715
1774470974159386600,0.42138671875,1.689613129109144,-0.8765235990718007,1.644306106787175,-0.1121714189648628,-0.2261423170566558,0.6815924644470215
1774470974169399800,0.43139990234375,0.9717366619437932,-0.9985852136418224,1.6331798787474632,-0.0787641927599906,-0.3581373691558838,0.7984743118286133
1774470974179412500,0.44141259765625,0.0556587588578462,-0.6261550458014011,1.283999507460743,-0.0551982894539833,-0.4731147587299347,0.9964505434036256
1774470974189424600,0.451424560546875,-0.794375184956193,-0.209384216453135,1.0469421250537037,-0.0665825083851814,-0.5942220091819763,1.2592939138412476
1774470974199437600,0.4614375,-1.3655822505176067,0.1717997512072324,0.8326479247272014,-0.1278578639030456,-0.6832383871078491,1.519076585769653
1774470974209450800,0.47145068359375,-1.681286030268669,0.5569669432848692,0.6953656524106859,-0.2588217258453369,-0.6048165559768677,1.6092658042907717
1774470974219463700,0.481463623046875,-1.2935422657012938,1.2926029390245677,0.9802930394954978,-0.4161246120929718,-0.4530009329319,1.508680820465088
1774470974229476600,0.4914765625,-0.407431046333909,2.1364795292526484,1.1767594683170317,-0.5051777362823486,-0.2362262904644012,1.2426989078521729
1774470974239489500,0.501489501953125,0.0908352861791849,2.2931121064662934,0.8895712966933846,-0.5228738188743591,0.028824919834733,0.8475459814071655
1774470974249502700,0.511502685546875,0.5022235457062721,2.2560592638790604,0.6907033596880734,-0.5295231938362122,0.3679521083831787,0.3540710210800171
1774470974259514600,0.5215146484375,0.7559253350526094,2.416770050317049,0.7627433445043862,-0.5330346822738647,0.6132126450538635,-0.185947760939598
1774470974269527600,0.531527587890625,0.8994172756642103,2.859208697146177,1.2607630087800323,-0.3878889679908752,0.5770812630653381,-0.706832230091095
1774470974279540500,0.54154052734375,0.7880693628102541,3.0450515867531296,1.456901520821452,-0.1514102667570114,0.6288217902183533,-1.128261685371399
1774470974289553700,0.5515537109375,0.4818365912377834,3.093399730336666,1.1406094197884202,-0.1467137783765792,0.5391425490379333,-1.4585003852844238
1774470974299566800,0.56156689453125,0.5804781672537327,3.544098840510845,-0.1649868563219904,-0.1286621838808059,0.7764081954956055,-1.6671247482299805
1774470974309579500,0.57157958984375,0.5882809499591589,2.532694769567251,-1.5244605608314274,-0.1407476067543029,1.0397868156433103,-1.7727574110031128
1774470974319592700,0.5815927734375,0.5149065016686916,1.9089964692682029,-2.171994202487171,-0.2220295667648315,1.1538141965866089,-1.8578572273254397
1774470974329604600,0.5916044921875,0.3924187706410885,2.138494960728288,-1.868930416339636,-0.4374976754188537,1.1464086771011353,-2.0192530155181885
1774470974339617800,0.60161767578125,0.2293558681190013,3.0888883903920648,-1.2062252167761325,-0.6813471913337708,0.9740692973136902,-2.22484827041626
1774470974349630700,0.611630615234375,-0.0631271950423717,3.674303721787035,-1.081604565373063,-0.7799920439720154,0.6521501541137695,-2.368255853652954
1774470974359643600,0.6216435546875,-0.6078723701357841,3.852584943968057,-0.8639175077378749,-0.6168513894081116,0.3337031602859497,-2.368885040283203
1774470974369656600,0.631656494140625,-1.257761927267909,3.780273156473041,-0.5514452572539449,-0.2065352648496627,0.1636997461318969,-2.1963791847229004
1774470974379669800,0.641669677734375,-2.0892975068390367,3.2764044739082454,-0.2866045265167951,0.2964850962162018,0.2229019999504089,-1.869006872177124
1774470974389682400,0.651682373046875,-3.072255820021033,2.651639128899574,-0.3671756083130836,0.6876482963562012,0.635625422000885,-1.4542970657348633
1774470974399694600,0.661694580078125,-3.929852308043837,2.288643436619639,-0.7577578111767769,0.8891348838806152,1.2701321840286257,-1.0051229000091553
1774470974409707500,0.67170751953125,-4.103663983595371,1.9329001996859907,-1.1348445726513865,0.9597065448760986,1.7526814937591553,-0.5373243093490601
1774470974419720700,0.681720703125,-3.644830082282424,1.0189578473240135,-1.5597893561050296,0.9288221597671508,1.8648799657821653,-0.1122531443834304
1774470974429733600,0.691733642578125,-2.7690777598440643,0.0037643209695816,-1.9305726335212587,0.7640795111656189,1.6579649448394775,0.2055525183677673
1774470974439746600,0.70174658203125,-1.6888976743161677,-0.5785854853749275,-2.046941297146678,0.5157477855682373,1.3537043333053589,0.3575988411903381
1774470974449759700,0.711759765625,-0.6180646783262491,-0.7403767605260014,-1.91618199685812,0.2659220099449157,1.105476140975952,0.3785438239574432
1774470974459772700,0.721772705078125,0.0981008932679891,-0.8793371951878071,-1.611219391351938,0.0728840306401252,0.8871422410011292,0.3378953337669372
1774470974469785600,0.73178564453125,0.3589285889714956,-1.3132640342593191,-1.4548679691672324,-0.0237013678997755,0.70687335729599,0.2880582809448242
1774470974479797500,0.741797607421875,0.3932815249502658,-1.8348571740850803,-1.3451146320283411,-0.0573430620133876,0.5194807648658752,0.2602013349533081
1774470974489810700,0.751810791015625,0.3165671185821294,-2.3214365759357807,-1.1838748532801866,-0.1526637226343155,0.2712675333023071,0.2601009309291839
1774470974499823600,0.76182373046875,0.2658575065642595,-2.4031708562925456,-1.4857210803315042,-0.3284796178340912,-0.0427988953888416,0.2617398202419281
1774470974509836800,0.7718369140625,0.2584481070905923,-2.262006774106621,-1.5533265898317097,-0.5064482688903809,-0.3912865817546844,0.201763316988945
1774470974519849700,0.781849609375,0.4461071062088012,-2.0394713996574283,-1.1644415462747215,-0.6050711870193481,-0.6823789477348328,0.0102616939693689
1774470974529862700,0.791862548828125,0.7350888832509517,-1.6478808965340257,-0.7564744933679699,-0.5763940215110779,-0.6928068399429321,-0.2652724087238312
1774470974539875800,0.801875732421875,0.7261725863456726,-1.549822088842094,-0.4302496118634939,-0.5381788611412048,-0.4353114068508148,-0.5713202357292175
1774470974549887700,0.8118876953125,0.4836772506684064,-1.5594710839360952,-0.4790072130307555,-0.5143712759017944,-0.0987336561083793,-0.8273797035217285
1774470974559900700,0.821900634765625,0.1381774675905704,-1.3661866461515426,-0.4747402032360434,-0.4846852719783783,0.1751052886247635,-1.0122307538986206
1774470974569913600,0.83191357421875,-0.1023947910696268,-1.0690797225818038,-0.3407847372546791,-0.433970957994461,0.2831683754920959,-1.0820738077163696
1774470974579926800,0.8419267578125,-0.2721376097470522,-0.8864853133767843,-0.0865709067329764,-0.3874533474445343,0.2290919870138168,-1.0194904804229736
1774470974589939700,0.851939697265625,-0.4392600167930126,-0.8434080959334969,-0.0272933728560805,-0.406634509563446,0.1314881891012191,-0.8819286227226257
1774470974599952600,0.86195263671875,-0.5234685783088207,-0.8379474924400448,-0.173900522878766,-0.5118204355239868,-0.0289060808718204,-0.7239990830421448
1774470974609965800,0.8719658203125,-0.6954343337327241,-0.8432593351125717,-0.3277902311250567,-0.6323612332344055,-0.2038118541240692,-0.5642011761665344
1774470974619977700,0.881977783203125,-0.8711971433520317,-0.735864251537621,-0.3796130650818348,-0.6760076284408569,-0.2573345303535461,-0.3974196910858154
1774470974629990700,0.89199072265625,-0.956311713796854,-0.5585886992678046,-0.089753336161375,-0.6769165396690369,-0.1585645675659179,-0.1985803544521331
1774470974640003600,0.902003662109375,-0.951268458932638,-0.376910235863924,0.1716790474370121,-0.6844561696052551,-0.0827621966600418,0.0250227209180593
1774470974650016800,0.912016845703125,-0.6605307781338692,-0.2420762334823608,0.1672431108161807,-0.7494285106658936,-0.2473154664039611,0.2547443509101867
1774470974660029700,0.92202978515625,-0.1454588567703962,-0.2600344994992017,0.1001107717856764,-0.8621253967285156,-0.6421590447425842,0.4575371444225311
1774470974670043000,0.93204296875,0.2793582086503505,-0.3244365367829799,0.114528004194796,-0.9657167792320251,-1.0747089385986328,0.5649977922439575
1774470974680055600,0.9420556640625,0.616781652778387,-0.2631099614217877,0.2816165089711547,-0.9805168509483336,-1.5202057361602783,0.5657663941383362
1774470974690067700,0.952067626953125,0.5718436098992824,0.0150908938869833,0.7245242346167564,-0.8535290956497192,-1.7813047170639038,0.4568305611610412
1774470974700080600,0.96208056640625,0.4044435549557209,0.530431987580657,1.1391077830538152,-0.6175577044487,-1.6487979888916016,0.249347984790802
1774470974710093800,0.97209375,0.1725695665359497,0.971343570972979,1.561758025829494,-0.3251482248306274,-1.317229151725769,-0.0173340383917093
1774470974720106500,0.9821064453125,0.176647775760293,1.0335428375154734,1.7180609326973555,-0.053569134324789,-0.9697750210762024,-0.280450701713562
1774470974730119700,0.99211962890625,0.1467863059818744,0.7860580229878426,1.4557400758266448,0.1205251663923263,-0.6199687719345093,-0.4804538488388061
1774470974740132600,1.002132568359375,-0.1856803925216197,0.4462891847774386,0.9042205842927098,0.1951476782560348,-0.2505814135074615,-0.6036376357078552
1774470974750145800,1.012145751953125,-0.5384510433852673,0.0929077085390687,0.2094908916980028,0.205784872174263,0.0598478205502033,-0.650205135345459
1774470974760157700,1.02215771484375,-0.8531219729572534,-0.2603483877539634,-0.2641156313329935,0.1806570440530777,0.2688381969928741,-0.6889970898628235
1774470974770170600,1.032170654296875,-0.783703568816185,-0.4930341309480369,-0.5581394941955804,0.132496178150177,0.3458805084228515,-0.7501931190490723
1774470974780183800,1.042183837890625,-0.4324380618184805,-0.4109842087708413,-0.5310279076471924,0.0656467974185943,0.3518975675106048,-0.8006777763366699
1774470974790196700,1.05219677734375,-0.1916173813551664,-0.0695503599576652,-0.3646834992364048,0.0301585774868726,0.3371569812297821,-0.8816607594490051
1774470974800209700,1.062209716796875,0.0555354247391223,0.2144664881534874,-0.2154538917556405,0.1055495142936706,0.1517115533351898,-0.9958084225654602
1774470974810222600,1.07222265625,0.1710071395248174,0.3030954964600503,0.1330751760154962,0.2304922491312027,-0.1414375007152557,-1.1289414167404177
1774470974820235800,1.08223583984375,0.2687444601774215,0.2537410984434187,0.2534741180703044,0.328389972448349,-0.3574783205986023,-1.267182230949402
1774470974830247700,1.09224755859375,0.4876473233431577,0.2612440214194357,-0.0025876784056425,0.4509427845478058,-0.5071998834609985,-1.4033124446868896
1774470974840260900,1.1022607421875,0.5738233855396508,0.668075932816416,-0.1575526146680116,0.5175180435180664,-0.7600001692771912,-1.5149379968643188
1774470974850273500,1.1122734375,0.5720154593348503,0.4944954356722533,-0.0469993593230843,0.548399031162262,-1.1786127090454102,-1.612329602241516
1774470974860286700,1.12228662109375,0.6385001481115817,0.2500581721469759,-0.6653273647606373,0.5191318988800049,-1.6090575456619265,-1.782427191734314
1774470974870299600,1.132299560546875,0.6666419544905424,-0.2710273104175925,-1.2656368984267117,0.4384277760982513,-2.04613995552063,-2.072377920150757
1774470974880312600,1.1423125,1.3258797702044247,-0.2677759804714471,-1.3831430416494608,0.3224132657051086,-2.6145262718200684,-2.4361703395843506
1774470974890325800,1.15232568359375,2.137321240773797,0.1017454603154212,-1.6390110691189763,0.21265509724617,-3.3310699462890625,-2.7753477096557617
1774470974900337700,1.162337646484375,2.333824640604853,0.0650029988516122,-1.0925183197058737,0.0673417747020721,-3.828360557556152,-3.003947496414185
1774470974910350800,1.172350830078125,2.0723001948088404,-0.0482100137544795,-0.8630242121599614,-0.1048134788870811,-3.871060371398926,-2.9634251594543457
1774470974920363800,1.18236376953125,0.3712035486549139,-0.2305106641773134,-0.6552773145850748,-0.3262072801589966,-2.911510467529297,-2.652364730834961
1774470974930376700,1.192376708984375,-2.5508833372086284,-0.4299092739932239,-0.1119589574243873,-0.5453452467918396,-1.2445483207702637,-2.040491819381714
1774470974940389600,1.2023896484375,-4.744469486039876,-0.7909381962448359,0.0388254052177071,-0.7161421179771423,0.2523818612098694,-1.180340051651001
1774470974950402800,1.21240283203125,-4.972697226911783,-0.1302785310342908,-0.6842793910551815,-0.8222150206565857,1.4960131645202637,-0.2499943375587463
1774470974960415500,1.22241552734375,-4.362272834205627,1.0112861436523497,-1.4713579161971806,-0.7883021831512451,2.5414130687713623,0.6054382920265198
1774470974970427600,1.232427734375,-3.020747166579961,1.3378423029378057,-1.2136588739082217,-0.7073982954025269,3.4681501388549805,1.3315389156341553
1774470974980440600,1.242440673828125,-1.7600293121159076,1.5137930363446472,-1.0560457612246277,-0.6429149508476257,4.175931930541992,2.0430915355682373
1774470974990453800,1.252453857421875,-1.557940221107006,1.0732917873188852,-1.140091533394158,-0.6132025718688965,4.550075531005859,2.828294038772583
1774470975000466700,1.262466796875,-2.1618372578710314,0.3560093405239284,-1.6713243159636857,-0.5432631969451904,4.596984386444092,3.660933494567871
1774470975010479600,1.272479736328125,-2.226086150419712,0.086943320241943,-2.440780455979705,-0.4154029488563537,4.678706169128418,4.3542799949646
1774470975020492800,1.282492919921875,-1.977221279710531,0.2953822186689823,-3.289794409096241,-0.2572847008705139,5.3377556800842285,4.62752103805542
1774470975030505700,1.292505615234375,-1.4811276150614023,1.692951333621144,-2.068278391946852,0.0344019904732704,6.465580940246582,4.484940052032471
1774470975040517600,1.302517578125,-0.6309206527680158,2.8595997422903774,-0.7940107355579733,0.2938817143440246,4.299793720245361,3.324089765548706
1774470975050530600,1.312530517578125,1.7337264116019009,1.2551321632862091,2.4701827838137747,0.2410001158714294,0.2106010913848877,1.388253092765808
1774470975060543700,1.322543701171875,5.836645714309811,-3.057432929420471,8.792261360287666,0.2933195829391479,1.5769708156585691,0.0007005259394645
1774470975070556700,1.332556640625,7.545044207909703,-1.9984175047352908,3.9947985352069137,0.2186072617769241,1.83941113948822,-1.24160897731781
1774470975080569900,1.34256982421875,6.234609259596467,0.8626100784011185,-0.4206476707816123,0.390273779630661,1.5303633213043213,-2.1855275630950928
1774470975090582500,1.35258251953125,4.662760924646258,0.2571399471014738,-0.3298024477303028,0.5548520684242249,0.9123781323432922,-2.7203054428100586
1774470975100595700,1.362595703125,2.625096574410796,-0.428016007592529,0.6479892764687538,0.5491343140602112,0.4299547672271728,-2.7781262397766118
1774470975110607600,1.372607666015625,0.8639701147079467,-0.6553152354426681,0.6592991905122995,0.3863067924976349,-0.1059137135744094,-2.3954522609710693
1774470975120620800,1.382620849609375,-0.5731839185923338,-0.4269584613636136,0.1175105271369218,0.1731245666742324,-0.6540555357933044,-1.74665367603302
1774470975130633500,1.392633544921875,-1.6271341688424348,-0.0888111599404364,-0.3717243576586246,-0.0095501691102981,-1.1403874158859253,-1.0711652040481567
1774470975140646700,1.402646728515625,-2.2148341040432453,0.373741908026114,-0.2446101358741521,-0.0561546571552753,-1.2560714483261108,-0.4697881042957306
1774470975150659800,1.412659912109375,-3.1673300589442253,0.742066174917668,0.3138596131891012,-0.0087695624679327,-0.7957803010940552,0.0398621149361133
1774470975160672800,1.4226728515625,-4.302611269447207,0.8220550729118287,0.3565986847192048,0.0705118998885154,-0.4041093587875366,0.5282930135726929
1774470975170685700,1.432685791015625,-3.9395372512340554,0.78022990135625,-0.0107388361573219,0.0996684581041336,-0.0178564358502626,0.8834806680679321
1774470975180697600,1.442697509765625,-2.7168776170074938,0.5897713346473872,-0.215574011003971,0.0404314994812011,0.1374948024749755,1.0705395936965942
1774470975190710800,1.452710693359375,-1.7203677483350035,0.3352000689901411,-0.2790349680453539,-0.0726535096764564,0.0689149424433708,1.23036789894104
1774470975200723700,1.4627236328125,-1.3606465476810932,0.1008376247555017,-0.5339952330201864,-0.2240342497825622,-0.0541536919772625,1.4021284580230713
1774470975210736600,1.472736572265625,-1.155891452333331,0.2377345510162413,-0.8318927224457263,-0.3693943917751312,-0.1126955598592758,1.444019436836243
1774470975220749600,1.48274951171875,-0.738794167509675,0.6408510951519012,-0.6703419780522585,-0.4370065331459045,-0.2813624441623688,1.3049895763397217
1774470975230762800,1.4927626953125,-0.2291167986661195,0.9315909679077564,-0.0474909422323107,-0.3793552219867706,-0.4025077819824219,1.0855211019515991
1774470975240775700,1.502775634765625,0.0950607949197292,1.1162653982572257,0.4321238813027739,-0.2214946448802948,-0.5027080774307251,0.8867571949958801
1774470975250787800,1.512787841796875,0.4730132333129644,1.2804497060246764,0.6766527686342597,-0.074920929968357,-0.5979161262512207,0.7456415891647339
1774470975260800500,1.522800537109375,0.6141144793957471,1.173228956103325,1.0265583854556084,0.0450340807437896,-0.579849362373352,0.683752179145813
1774470975270813700,1.532813720703125,0.0675987874984741,1.2134097214527428,1.038885075326264,0.3526225388050079,-0.769043505191803,0.7318025231361389
1774470975280826600,1.54282666015625,-0.3682400226742029,0.9525850944891572,0.4510077377319336,0.381491869688034,-1.0074803829193115,0.5458561182022095
1774470975290839600,1.552839599609375,-0.1511538535416126,1.1845406237125395,0.185487792558968,0.3700408041477203,-0.7574708461761475,0.4662798345088959
1774470975300852700,1.562852783203125,-0.4048930522888899,0.9782914904147386,-0.4364782771199941,0.2837538719177246,-0.626522958278656,0.3102250099182129
1774470975310865700,1.57286572265625,-0.219113875567913,0.8580326874829828,-1.332837626518309,0.0908754840493202,-0.6988698244094849,0.1034877896308898
1774470975320877800,1.5828779296875,0.5611567961901426,0.7244434244655072,-1.9684800471112127,-0.0203373041003942,-0.6059524416923523,0.0237307902425527
1774470975330890800,1.592890869140625,0.8162211060613394,-0.1506377207130193,-0.8466352412864565,0.073148176074028,-0.8467485308647156,0.0385603383183479
1774470975340903700,1.602903564453125,0.5172428356617689,-1.0311407448098062,2.4935978539317847,0.2376449704170227,-1.5052812099456787,0.1415261924266815
1774470975350916600,1.61291650390625,0.7751637040078639,0.0307303615674376,2.3462866472929718,0.4096952676773071,-2.052962064743042,0.3173070847988128
1774470975360929800,1.6229296875,1.0733733281224966,0.8031034119434655,0.2051680600628256,0.5089831948280334,-2.286456346511841,0.4994029402732849
1774470975370942700,1.632942626953125,0.3666524612218141,0.3119244073428213,-0.1476660114258527,0.3705715537071228,-1.891323208808899,0.4978671073913574
1774470975380955600,1.64295556640625,-1.0503425811469551,-0.2463112407036125,-0.2525882751464843,0.2322438210248947,-1.2693023681640625,0.5167884230613708
1774470975390967600,1.652967529296875,-1.7296902879536151,-0.3438312653437256,-0.6647866820126771,0.2646986842155456,-0.423733115196228,0.5299695134162903
1774470975400980700,1.662980712890625,-1.4703455242842436,-0.1336941846966743,-0.7483177826583385,0.3734229207038879,0.2827371060848236,0.3673539161682129
1774470975410993700,1.67299365234375,-0.6911497882813215,-0.2638876677960157,-0.4789934767663478,0.4620148539543152,0.6553296446800232,0.1902284175157547
1774470975421006600,1.683006591796875,0.111605687007308,-0.2456839025855064,-0.3825713303655386,0.4179180860519409,0.8905956149101257,-0.0989205092191696
1774470975431020000,1.69302001953125,0.5085848974317312,-0.5029267255395651,-0.5373685088455676,0.3608289957046509,0.8323605060577393,-0.3617244362831116
1774470975441033200,1.703033203125,0.6904021847844124,-0.3797027891919016,-0.754545863392949,0.617895245552063,0.226632758975029,-0.7217885851860046
1774470975451046000,1.7130458984375,1.022532783201337,0.3034828883424401,-0.35402474257797,0.6405760049819946,-0.6054977178573608,-1.102527379989624
1774470975461057800,1.723057861328125,1.6930764213055371,-0.6216873988680541,0.1826364947810769,0.4812774062156677,-1.5199922323226929,-1.3606078624725342
1774470975471071000,1.733071044921875,2.0430185707449917,-0.4337134885817766,-0.0355035673186183,0.3152474164962768,-2.326746225357056,-1.4111807346343994
1774470975481084200,1.743084228515625,0.9677110596895218,0.0377377561114728,-0.2329065463379025,0.2081020921468734,-2.675471067428589,-1.3064024448394775
1774470975491097000,1.75309716796875,-0.1382967100560665,0.2583073834456503,-0.3962853829413652,0.1302126199007034,-2.4258816242218018,-1.0965954065322876
1774470975501110000,1.763110107421875,-1.0102367807298898,0.1531555487528443,-0.8122600934758782,0.1431299597024917,-1.7820650339126587,-0.8017410039901733
1774470975511123000,1.773123046875,-1.906854781064391,0.1592673096314072,-0.611975421540439,0.1936016529798507,-0.9147011637687684,-0.5167782306671143
1774470975521136000,1.78313623046875,-2.07431504176259,-0.1267768065236508,-0.3312766119360923,0.2938954532146454,-0.0852980762720108,-0.2979170382022857
1774470975531148000,1.79314794921875,-1.560435545054078,-0.4171012303464114,0.1194131458878517,0.4797337651252746,0.4523672461509704,-0.1859457343816757
1774470975541161000,1.803160888671875,-0.6392705479621886,-0.1178261689573526,0.3803852184981107,0.665599524974823,0.6057268381118774,-0.2010540962219238
1774470975551174000,1.813173828125,0.2122410671889781,0.4057178126752376,0.3367930372700095,0.8024793267250061,0.4469723403453827,-0.314493328332901
1774470975561187000,1.82318701171875,0.7490443433672189,0.5540992788940667,0.4228752837032079,0.911920130252838,-0.0652361214160919,-0.4698675274848938
1774470975571200300,1.8332001953125,1.1264642823189497,0.5967237841337919,0.5117541751176119,0.9793574810028076,-0.8639466166496277,-0.5988510251045227
1774470975581213000,1.843212890625,1.3477052330434325,0.9197307265050708,0.444925202947855,0.8989571928977966,-1.7384228706359863,-0.6009337902069092
1774470975591226000,1.85322607421875,1.1723165174335242,1.2323624053344129,0.2799512061074375,0.6439163684844971,-2.245922088623047,-0.4972156584262848
1774470975601238000,1.863238037109375,0.93134678388834,1.0513976431578398,-0.0669268795862794,0.3812392055988312,-2.222176074981689,-0.2412689477205276
1774470975611251200,1.873251220703125,0.5867722989618778,0.3458946276143193,-0.1070861637562513,0.1986134499311447,-1.7741169929504397,0.1506274491548538
1774470975621264000,1.883263916015625,-0.0945633667916059,-0.5597343621715903,0.4828606735885143,0.0392170436680316,-1.0658884048461914,0.592717170715332
1774470975631277000,1.893277099609375,-0.8268155653119087,-1.3645837409995496,0.6318059111699461,-0.0703328922390937,-0.288786768913269,1.0283727645874023
1774470975641290000,1.9032900390625,-1.16685942107141,-1.420610310256481,0.341241102720052,-0.0908965915441513,0.2865994572639465,1.3695836067199707
1774470975651303200,1.91330322265625,-0.7406365805059671,-0.8691871187038719,0.1146181666962802,-0.0570195876061916,0.5446254014968872,1.6019084453582764
1774470975661315800,1.92331591796875,-0.2997609452098608,-0.1993580586098134,-0.1262801090478897,-0.0743141025304794,0.5175975561141968,1.6903833150863647
1774470975671328000,1.933327880859375,0.3399842345267534,0.2919976177319884,-0.3265371623240411,-0.1905011534690857,0.2503509819507599,1.6176358461380005
1774470975681341000,1.9433408203125,1.4314882626235483,0.2737631651222705,-0.3219173935689032,-0.420422226190567,-0.2442463189363479,1.4436043500900269
1774470975691354000,1.95335400390625,2.217888230916857,-0.1446001941144466,-0.2473474518835544,-0.7067780494689941,-0.7989755272865295,1.2703702449798584
1774470975701366800,1.96336669921875,2.1528595861673354,-0.4150426903814077,-0.044371202776581,-0.992517113685608,-1.240378975868225,1.1702563762664795
1774470975711380000,1.9733798828125,1.6049375346034764,-0.3073290423765778,0.0002181727953255,-1.2062578201293943,-1.507822871208191,1.169833421707153
1774470975721393200,1.98339306640625,1.0314332980155945,0.0122036480128765,0.0558991434849798,-1.316687822341919,-1.4635556936264038,1.23068106174469
1774470975731406000,1.993406005859375,0.527438650983572,0.328194428011775,0.4436817787580192,-1.341174840927124,-1.1400750875473022,1.3469326496124268
1774470975741418200,2.003418212890625,-0.0332207170784473,0.2956912115529179,0.7203754443742334,-1.287358283996582,-0.7648388147354126,1.5138334035873413
1774470975751431000,2.013430908203125,-0.4919692781955003,0.1253112640157342,0.5456063219673931,-1.1775082349777222,-0.3441328704357147,1.6954841613769531
1774470975761444000,2.023444091796875,-0.5133978506714105,0.1470975638881325,0.2994691226564347,-1.0303587913513184,0.1020580232143402,1.8863465785980225
1774470975771457000,2.03345703125,-0.6271072319597005,0.1902966541454195,0.099269498655945,-0.8623846173286438,0.5508435368537903,2.0523409843444824
1774470975781470000,2.043469970703125,-0.9871171864271164,0.2572480836510658,-0.0938970118373632,-0.7125721573829651,0.9211403727531432,2.1279444694519043
1774470975791483000,2.05348291015625,-0.9874339972913264,0.3068146631136536,-0.5603804049901664,-0.6074652075767517,1.075528621673584,2.071758985519409
1774470975801496000,2.06349609375,-0.442120082399249,0.4069344949886203,-1.020651061107963,-0.5554460287094116,1.067408800125122,1.8495317697525024
1774470975811508000,2.073508056640625,0.3584691547662019,0.5001569685652851,-0.806589792754501,-0.5161575078964233,1.001487374305725,1.5450456142425537
1774470975821521200,2.083521240234375,0.5363818358957767,0.3726885265156626,-0.3517795939996838,-0.4546878039836883,0.825261116027832,1.269041657447815
1774470975831533800,2.093533935546875,0.591943564119935,0.372863006299734,-0.0633386458359658,-0.4248004853725433,0.5592094659805298,1.044379472732544
1774470975841547000,2.103547119140625,0.9606044425547122,0.3849026959225535,0.0041435295455157,-0.483546495437622,0.2718115746974945,0.9004490375518799
1774470975851560200,2.113560302734375,0.6741156513720751,0.161080496533215,-0.1421811502739787,-0.6274197697639465,0.0490557514131069,0.8586967587471008
1774470975861572900,2.12357275390625,-0.0463911642968654,-0.0697872374534606,-0.516157086251676,-0.7968935370445251,-0.1234158650040626,0.9304410219192504
1774470975871586000,2.1335859375,-0.5900426989346742,-0.0541293573334813,-0.8782128673329949,-0.9603087902069092,-0.2236055880784988,1.0861175060272217
1774470975881598000,2.143597900390625,-1.0219231268703937,0.1727086827456951,-1.0499925986655056,-1.1012059450149536,-0.1619227677583694,1.3139292001724243
1774470975891611100,2.153611083984375,-1.4522417123168707,0.4361491912961006,-1.0779640169136226,-1.171700954437256,0.0639135539531707,1.612391233444214
1774470975901624000,2.1636240234375,-1.7639970467031,0.795130387237668,-1.0161778612166643,-1.135265827178955,0.4092817604541778,1.9570112228393557
1774470975911637000,2.173636962890625,-1.9017717787116768,1.0644546931296586,-0.7241333356030285,-1.069667100906372,0.8043665289878845,2.2889866828918457
1774470975921650000,2.18364990234375,-1.839608460265398,1.3271417529642582,-0.621330402123928,-0.9867313504219056,1.1941543817520142,2.5421338081359863
1774470975931663000,2.1936630859375,-1.5232067613780498,1.4727029010653494,-0.5483350162789226,-0.8198723196983337,1.4894189834594729,2.696957588195801
1774470975941675000,2.203675048828125,-0.8938947128504514,1.5205173761636015,-0.2426142858818173,-0.6352022290229797,1.6163756847381592,2.789644241333008
1774470975951688000,2.21368798828125,-0.7961246589720249,1.464315011948347,-0.2244938150405883,-0.4917790293693542,1.595984935760498,2.845170259475708
1774470975961700900,2.223700927734375,-0.8280483219772576,1.69260471214056,-0.5173012878507376,-0.3493444323539734,1.4637893438339231,2.877720832824707
1774470975971714000,2.233714111328125,-0.5211363359689712,2.166717431128025,-0.5060331671223044,-0.2110659331083297,1.2680586576461792,2.900433301925659
1774470975981727200,2.243727294921875,-0.3363432476758957,2.346856556135416,0.009293313524127,-0.1988545805215835,1.1302084922790527,2.948577880859375
1774470975991740000,2.253739990234375,-0.3576356265515089,2.123639336901903,0.2480731358096003,-0.2968727350234985,1.018173098564148,3.037128448486328
1774470976001753000,2.263753173828125,-0.209928698593378,1.7793308094352482,-0.0457414682164788,-0.4227168262004852,0.7970502972602844,3.096561908721924
1774470976011765000,2.273764892578125,0.5821148285448551,1.5371920321106909,-0.0154722944200038,-0.4947808980941772,0.495713859796524,3.053333044052124
1774470976021778200,2.283778076171875,1.46572663231194,1.2852169204264878,0.6089464291080832,-0.6268246173858643,0.4190558493137359,2.7552740573883057
1774470976031790800,2.293790771484375,2.12077284155488,0.353237683853507,0.9765145438700914,-0.8250788450241089,0.4309790730476379,1.9266257286071775
1774470976041804000,2.303803955078125,3.3103882843136785,-1.6914526194959878,0.8424269759416579,-0.7984530925750732,0.1824618577957153,1.085194706916809
1774470976051817000,2.31381689453125,4.04758612254262,-1.757090920576453,0.8563114166483282,-0.5489628911018372,-0.0382827594876289,0.6548020839691162
1774470976061830100,2.323830078125,2.9588199949771163,-0.3612193302571773,1.2219865572705864,-0.1229343190789222,0.0422012656927108,0.4820170402526855
1774470976071842800,2.3338427734375,1.3272194943755864,-0.1285077219694853,1.9108321602627636,0.3446246385574341,0.377202421426773,0.3945801258087158
1774470976081855000,2.34385498046875,0.6303939985454082,0.1233376258552074,2.473395900641381,0.6546400785446167,0.6524466276168823,0.3136504292488098
1774470976091868000,2.353867919921875,0.5949333935856819,0.275705531361699,2.258860292774439,0.807108461856842,0.7997828125953674,0.1860120445489883
1774470976101881000,2.363881103515625,0.6113035136282443,0.0347428120791912,1.5437249410107732,0.828609824180603,0.7131611704826355,0.0559522435069084
1774470976111894000,2.37389404296875,0.7228589317530393,-0.1115735383033752,1.0772598141670229,0.6801122426986694,0.487664133310318,-0.0098424796015024
1774470976121907000,2.383906982421875,0.6875473798751831,-0.1341764152556657,0.3897971899658441,0.4209382832050323,0.1276200413703918,0.0110391471534967
1774470976131920100,2.393920166015625,0.4350596424937248,-0.3658125032663345,-0.3497074639007449,0.1710475087165832,-0.0954316854476928,0.1022556126117706
1774470976141933000,2.40393310546875,0.0612906272649765,-0.3593015139371156,-0.6879089066639542,0.0250374339520931,-0.1259575933218002,0.1717898696660995
1774470976151945200,2.4139453125,0.000236731365323,-0.1655705014288425,-0.8217913074091077,0.0338415764272213,-0.0288645979017019,0.1790544390678405
1774470976161958000,2.4239580078125,0.1120721354752778,-0.159305011293292,-0.6682239629849791,0.1283272057771682,0.1558061093091964,0.1476440727710724
1774470976171971000,2.43397119140625,0.0966384194999933,-0.2572825704425573,-0.2589268305182456,0.2285464853048324,0.2895143628120422,0.1027130857110023
1774470976181984000,2.44398388671875,0.1360275960803031,0.040509705042839,-0.3383797219395637,0.3318540751934051,0.2973057925701141,0.0902180820703506
1774470976191997000,2.453996826171875,0.0091039284318685,0.3157610628962516,-0.3779585758730769,0.3808328211307525,0.3392889201641083,0.087414838373661
1774470976202009900,2.464009765625,0.0018932664006948,0.4417015647262334,0.0191167884021997,0.4582134187221527,0.3847028911113739,0.0644512176513671
1774470976212023000,2.47402294921875,0.3184025173157453,0.4534662367999553,0.7339373751282692,0.6134474277496338,0.3256137371063232,-0.010041388683021
1774470976222035000,2.484034912109375,0.8736012818843126,0.1003244145363569,1.1239724655032155,0.7125284075737,0.3277273774147033,-0.0881415978074073
1774470976232048000,2.494048095703125,0.9477689263790844,0.2295797400027513,1.1556897922813891,0.6848182082176208,0.3416919112205505,-0.110801100730896
1774470976242060800,2.504060791015625,0.4202051877111196,0.1046428622573614,0.7097156648024916,0.5902907252311707,0.2510675191879272,-0.060834914445877
1774470976252074000,2.514073974609375,0.0011795651733875,-0.0850350754678249,0.1978840405344963,0.4388823211193084,0.2231525480747223,0.0197163894772529
1774470976262087200,2.524087158203125,-0.2135305224776268,0.1985784525394439,-0.1116734915465116,0.2520274817943573,0.2233586907386779,0.0759653449058532
1774470976272100000,2.53410009765625,-0.3596165712356567,0.0114782563477754,-0.7332353643387556,0.1309473812580108,0.2306054234504699,0.0084906918928027
1774470976282113000,2.544113037109375,0.0139139590620994,-0.3596919745594263,-1.2064882516264914,0.0389599427580833,0.2153191268444061,-0.1118743643164634
1774470976292125000,2.554125,0.4469529093831777,-0.7777630728513002,-1.2609329585194586,-0.0819230675697326,0.26426962018013,-0.1811751425266266
1774470976302138000,2.56413818359375,0.054096331846714,-1.0918109020888804,-1.1521680478960274,-0.1862445175647735,0.4097095131874084,-0.2052012234926223
1774470976312151000,2.574151123046875,-0.749143127566576,-0.8475935649245977,-0.802082982854545,-0.2232347577810287,0.4215651154518127,-0.1815353035926818
1774470976322164000,2.5841640625,-0.9035200348079204,-0.3847001590877771,-0.2306125901818275,-0.1944070607423782,0.2562801241874695,-0.1061723530292511
1774470976332177000,2.594177001953125,-0.9024117813050746,0.1069283428460359,0.1372016082957387,-0.1568706035614013,0.15981325507164,-0.0401736311614513
1774470976342190000,2.604190185546875,-1.2212900994390248,0.2435381227284669,0.0582858924910426,-0.0874228999018669,0.1182893216609954,0.0057148104533553
1774470976352203000,2.614203125,-1.017578960186243,0.2303138994961976,-0.0448147087603807,0.0541315712034702,0.1511532515287399,0.0608454421162605
1774470976362215200,2.624215087890625,-0.3472346440464258,-0.0122515788078308,0.3232660316988825,0.2124099284410476,0.2389454841613769,0.1037489026784896
1774470976372227800,2.634227783203125,0.2642401344954967,-0.1530640710771083,0.981712989296019,0.2979890406131744,0.3805867731571197,0.0877603441476821
1774470976382241000,2.644240966796875,0.8267898463487625,0.0833978296548128,1.0016229739025235,0.3466489911079407,0.3677368760108948,0.0571409091353416
1774470976392254200,2.654254150390625,0.9366215094208716,0.1110965684413909,0.9671645317226648,0.3541074395179748,0.2770434617996216,0.005628450307995
1774470976402267000,2.664266845703125,0.8929223606869577,0.2268757417410612,0.594276683242619,0.3088665604591369,0.1901470273733139,-0.0819210261106491
1774470976412280000,2.674280029296875,0.806417504927516,0.4394038091778754,0.3437470941916108,0.2398198544979095,0.1351974904537201,-0.1836599111557006
1774470976422292000,2.6842919921875,0.4864563599929213,0.5648983208060264,0.00027034137398,0.2446785271167755,0.0788234323263168,-0.2415280044078827
1774470976432304600,2.6943046875,0.188665838073194,0.8377385258644818,-0.033217502208054,0.2572773694992065,-0.0511799342930316,-0.2442281395196914
1774470976442317600,2.704317626953125,0.3801780054882168,0.6982429614126682,-0.5136880657896399,0.1437699496746063,-0.2330326288938522,-0.1999762058258056
1774470976452330500,2.71433056640625,0.7150199086904525,-0.5702385127902031,-1.596974592900276,0.0672088488936424,-0.2353221476078033,-0.1986499428749084
1774470976462343400,2.724343505859375,0.6096773737311363,-0.8639625159233808,-1.3738894756138325,0.0963535159826278,-0.1630643308162689,-0.2626128494739532
1774470976472356600,2.734356689453125,0.5883171903163195,-0.2401081482797861,-0.5454755351945757,0.1264168620109558,-0.1334214806556701,-0.3907715976238251
1774470976482369500,2.74436962890625,0.7623392937481402,-0.0056920741617679,-0.2417342881768941,0.0679856240749359,-0.2140885293483734,-0.5692734122276306
1774470976492381700,2.754381591796875,0.9613345103949308,0.0628086306124925,-0.5810565516635775,-0.0027785548008978,-0.3576811254024505,-0.7249442338943481
1774470976502394400,2.764394287109375,0.5354840102732181,0.0664390960693359,-0.457135280701518,-0.0858876556158065,-0.3248330056667328,-0.8145437240600586
1774470976512407600,2.774407470703125,-0.0145616093158721,0.0084679686158895,-0.4887517774537205,-0.1288095563650131,-0.2734880745410919,-0.8075148463249207
1774470976522420500,2.78442041015625,-0.2374877366483211,-0.0293354000777006,-0.9555033200234174,-0.1284283101558685,-0.1675705015659332,-0.6936619877815247
1774470976532433400,2.794433349609375,-0.7997346661627293,-0.1003705917656421,-0.8512681617841124,-0.1087089329957962,0.0735771283507347,-0.503262996673584
1774470976542446600,2.804446533203125,-1.3053542840480803,-0.0929261209785938,-0.4583832349359988,-0.083383984863758,0.3529932796955108,-0.3123716115951538
1774470976552459500,2.81445947265625,-0.9666133275806904,-0.1753898846536874,-0.1788064150989055,-0.0613109059631824,0.4894712269306183,-0.1435887217521667
1774470976562471700,2.8244716796875,-0.6248071383237839,-0.2917565024524927,0.4308724199369549,-0.1106701418757438,0.526951014995575,-0.0282774902880191
1774470976572484600,2.834484619140625,-0.4461339942157268,-0.1049392148554325,0.4908589788660407,-0.1898216754198074,0.4716829061508178,0.0549388341605663
1774470976582497500,2.84449755859375,-0.4846434653520584,0.1690735411137342,0.2876592962667346,-0.2122597843408584,0.3113980293273926,0.0872981548309326
1774470976592510500,2.854510498046875,-0.369181687438488,0.4773731820881366,0.2533668583035469,-0.2497634887695312,0.1347851455211639,0.0669199079275131
1774470976602523600,2.864523681640625,-0.2145774011820554,0.5707032076925039,0.256885972340405,-0.2978275716304779,0.1315255314111709,0.0406619608402252
1774470976612536300,2.874536376953125,-0.3730097212940454,0.5241770188391208,0.1122916234448552,-0.1809741854667663,0.2898768186569214,-0.0398685671389102
1774470976622549500,2.884549560546875,-0.2663549346923828,0.250475813037157,0.4423430775001645,0.0892596095800399,0.4636394381523132,-0.2017180025577545
1774470976632561400,2.8945615234375,0.185678054434061,0.643397272503376,0.5915104333996772,0.3274077177047729,0.5947588682174683,-0.3638978600502014
1774470976642574600,2.90457470703125,0.0015320318728685,0.87149875664711,0.3679199969395995,0.5216949582099915,0.7632038593292236,-0.3948246240615845
1774470976652587500,2.91458740234375,-0.886995016464591,1.2594079409092664,0.3711550333380699,0.6879347562789917,0.9178885221481324,-0.3136642575263977
1774470976662600400,2.924600341796875,-1.5596026013612747,1.765636630603671,0.6249699276700615,0.7172701358795166,1.037858963012695,-0.1067491546273231
1774470976672613600,2.934613525390625,-1.9009271445810796,1.8384581211864948,0.4772375730097293,0.6286654472351074,1.074762940406799,0.3062226772308349
1774470976682626600,2.94462646484375,-2.17252699418962,1.642014342588186,0.2194800785318016,0.5503633618354797,0.94698566198349,0.7467997074127197
1774470976692639500,2.954639404296875,-1.9400339970886704,1.461314076566696,0.5725555575609207,0.326331615447998,0.6544363498687744,0.9344921112060548
1774470976702651400,2.9646513671875,-0.2285281851232051,0.7153560087770223,1.268907006138563,0.0558227524161338,0.6670399308204651,0.8643423914909363
1774470976712664600,2.97466455078125,1.4003925748750568,-0.9835007494956256,1.4463409638404845,0.2182593345642089,0.3188750743865967,0.7102447152137756
1774470976722677500,2.984677490234375,2.4122534496754406,-0.9727706811666488,1.1728954863652583,0.3652030825614929,0.1474735736846923,0.5253219604492188
1774470976732690700,2.994690673828125,2.067053526327014,-0.3715677057921886,0.204869077116251,0.3555994629859924,0.2837193012237549,0.4586923718452453
1774470976742703400,3.004703369140625,0.6581488514333963,-0.4366010267168283,-0.0526031706795096,0.2871636748313904,0.5495296716690063,0.4790591597557068
1774470976752716500,3.014716552734375,-0.112487730538845,-0.4636959543913602,-0.7867793229997158,0.2026783525943756,0.7628097534179688,0.4553152024745941
1774470976762729500,3.0247294921875,-0.3746142338812351,-0.606617401638627,-1.279802786423266,0.0535443723201751,1.2367433309555054,0.5774440765380859
1774470976772741600,3.03474169921875,-1.225574060368538,-0.2267822182387113,-0.9729799400031566,-0.0382222980260849,1.4511538743972778,0.570638120174408
1774470976782754300,3.04475439453125,-0.1170844106793403,0.2820113535076379,-0.6852835265964269,-0.0293085444718599,1.3105915784835815,0.4308207929134369
1774470976792767500,3.054767578125,1.6739800911694764,0.3996422921538353,-0.4941814012870192,0.0336760096251964,1.0225813388824463,0.2509509027004242
1774470976802780700,3.06478076171875,2.5017832062140104,0.5999971067160368,0.2001154528483748,0.1329358667135238,0.9044668078422546,0.0633479729294776
1774470976812793600,3.074793701171875,2.935820519922673,0.8876590333312749,1.1710486894547938,0.2779708206653595,0.8964152932167053,-0.2123128920793533
1774470976822806500,3.084806640625,3.783606684809923,0.2280541378706693,1.6534896763265132,0.4072878062725067,0.6271989941596985,-0.6114595532417297
1774470976832819500,3.0948193359375,4.953863347104192,-0.584312046328187,1.1308344602271914,0.4618504047393799,0.0763398110866546,-1.0346118211746216
1774470976842831600,3.10483154296875,5.186235932695865,-0.8206172951936721,0.1992453920155763,0.4034380316734314,-0.3507479727268219,-1.4044630527496338
1774470976852844500,3.114844482421875,4.182703033518791,-0.5442986003696918,-0.3707166419208049,0.2858898341655731,-0.5046568512916565,-1.7246993780136108
1774470976862857500,3.124857421875,2.922009436713159,-0.4139496344476938,-0.5911585512220859,0.1487701684236526,-0.5665686130523682,-1.984637975692749
1774470976872870400,3.134870361328125,2.155087199088931,-0.2391518704682588,-0.540044157795608,0.0364872999489307,-0.6915826797485352,-2.192368030548096
1774470976882883600,3.144883544921875,1.7990081543296574,0.0756675276637077,-0.6019277825176715,-0.0243930462747812,-0.7407408356666565,-2.33963394165039
1774470976892896500,3.154896484375,1.4884417374670504,0.2803571565598249,-0.5968763443470001,0.0161226894706487,-0.6020263433456421,-2.4073193073272705
1774470976902908700,3.16490869140625,1.2243442263126372,0.5945528698354959,0.4101850212171674,0.1430637687444687,-0.3059538602828979,-2.408653736114502
1774470976912921300,3.17492138671875,0.9600538229346276,0.8203606900840997,1.297818627846241,0.2836299538612366,-0.0219391956925392,-2.314014673233032
1774470976922934500,3.1849345703125,0.0740963328242301,0.9680027361124752,1.3694038546323777,0.3790243566036224,0.2035235166549682,-2.1874423027038574
1774470976932947500,3.194947509765625,-0.3092144177317619,1.3832400722831486,0.9429530505299568,0.4582222402095794,0.3950466215610504,-2.270040988922119
1774470976942960400,3.20496044921875,0.3182183929204941,1.737726879414916,1.0478066329285505,0.5333458781242371,0.4194687306880951,-2.3236522674560547
1774470976952973600,3.2149736328125,0.2037836199671029,1.6905337510854004,0.968324223151803,0.5585127472877502,0.3749896883964538,-2.246253252029419
1774470976962986500,3.224986572265625,-0.586717938426137,1.7113766326278448,-0.3179623723328113,0.5656132698059082,0.2419813126325607,-2.016355276107788
1774470976972998700,3.23499853515625,-1.5237123728126287,1.885239161583781,-0.9433689378544688,0.593199610710144,0.2236763387918472,-1.7248148918151855
1774470976983011600,3.245011474609375,-2.410809096086025,1.1717167979747056,-0.7833706836000084,0.6351438164710999,0.1956389993429184,-1.3757752180099487
1774470976993024500,3.2550244140625,-3.0551252369999884,0.4791156418412923,-0.6695829763785004,0.679892361164093,0.2051350325345993,-0.952653169631958
1774470977003037400,3.265037353515625,-3.97415965180397,0.6516086360096931,-0.5422042584389448,0.7354007363319397,0.456335186958313,-0.493541955947876
1774470977013050600,3.275050537109375,-4.426597130078077,1.1956202361315489,-0.111269879181683,0.8919911980628967,0.9838642477989196,0.0083302278071641
1774470977023063300,3.285063232421875,-4.756246433073282,1.7617074744611978,0.8081631795510649,1.1526776552200315,1.5659990310668943,0.5642834901809692
1774470977033076500,3.295076416015625,-4.505978709828853,4.3592748214334245,2.037149386450648,1.4744712114334106,2.163249254226685,0.9914146065711976
1774470977043088400,3.30508837890625,-3.601241115924716,5.713381153690815,2.0663997385933994,1.8214370012283323,2.5789663791656494,1.3550443649291992
1774470977053101600,3.3151015625,-2.9230267970621586,6.316349385172129,1.6628016945511102,2.123909473419189,2.612238883972168,1.6459332704544067
1774470977063114500,3.325114501953125,-2.176487714514136,5.92844487708509,0.9298743732482194,2.342015266418457,2.1525814533233643,1.8604463338851929
1774470977073127400,3.33512744140625,-1.7827923480659722,4.99801053186655,0.129507838922739,2.5244719982147217,1.2674983739852903,2.012500524520874
1774470977083140600,3.345140625,-1.4202134198933838,4.519084275117517,0.6146943251103162,3.0666391849517822,0.0125203896313905,1.887840151786804
1774470977093153500,3.355153564453125,0.2430728433042764,2.26428524043262,2.131254195819795,3.073256731033325,-1.0940831899642944,1.6710647344589231
1774470977103166500,3.36516650390625,1.289802494651079,-1.275236793681979,-0.2341840189278125,2.696354627609253,-1.2998855113983154,1.6708275079727173
1774470977113178400,3.375178466796875,0.2420353169500827,-2.453872577264905,-1.2532342207103966,2.354926586151123,-1.3282597064971924,1.385107398033142
1774470977123191600,3.385191650390625,1.2637293112397192,-2.933419596260786,-2.1178389800600708,1.8963207006454468,-1.418371081352234,0.8721268773078918
1774470977133204500,3.39520458984375,2.196972868660092,-4.09790235132873,-4.943465871730447,1.325999736785889,-1.7032246589660645,0.3606952726840973
1774470977143217700,3.4052177734375,2.1176848124116656,-6.198618493282795,-6.129867613139748,0.737554132938385,-2.1261703968048096,-0.0528519563376903
1774470977153230300,3.415230224609375,1.2148194421201943,-7.189515782770514,-5.833858129417896,0.1900420188903808,-2.5711569786071777,-0.21901535987854
1774470977163243500,3.425243408203125,-0.6948410440146923,-7.795409546309709,-5.165341028705239,-0.7940705418586731,-2.445223808288574,-0.0434335730969905
1774470977173256400,3.43525634765625,-2.660574715027213,-3.979222780412435,-6.933005365744233,-1.4421826601028442,-1.742443561553955,0.1998989135026931
1774470977183269400,3.445269287109375,-1.568962550380826,-1.130505082142353,-5.121947877180576,-1.6689153909683228,0.0897059291601181,0.4919642806053161
1774470977193281500,3.455281494140625,-0.0146750065624713,-0.5149684609889984,-2.7211712225481866,-1.4968937635421753,2.3794610500335693,0.5685448050498962
1774470977203294500,3.46529443359375,2.7757839794844386,0.6101034901887178,-0.2544504157565534,-0.7159161567687988,2.840136766433716,1.0766795873641968
1774470977213307600,3.4753076171875,-0.0451531469345092,-0.1603910529643297,4.443508809651434,-0.4880691468715668,4.010466575622559,0.8829754590988159
1774470977223320600,3.485320556640625,1.9275591309189797,0.5249000724166631,3.8323108022242782,-0.2567310929298401,3.7188427448272714,0.8310818672180176
1774470977233333500,3.49533349609375,2.790545787547529,0.6828846487611532,2.7616566699326035,0.4912999868392944,2.906077146530152,1.375448226928711
1774470977243346400,3.505346435546875,-3.861866274793446,-2.440166707995534,4.910147539496421,0.824104905128479,2.4354825019836426,1.581419825553894
1774470977253359600,3.515359619140625,-2.1078344495266674,-1.1181412751317024,2.1187275994628667,0.627673327922821,2.3033885955810547,1.320388674736023
1774470977263371500,3.52537158203125,1.142081245906651,0.3359036872148513,-2.276079723122716,0.3247817754745483,2.263085126876831,0.945481300354004
1774470977273384400,3.535384521484375,2.010489343062043,0.5395668956726789,-2.2077833087489007,0.0929357558488845,1.783366560935974,0.6657974720001221
1774470977283397400,3.5453974609375,1.795194733521342,0.6108773971706628,-1.2088158177912234,-0.0417246893048286,1.3095145225524902,0.4805445671081543
1774470977293410600,3.55541064453125,0.2062766058266162,0.4411538677155971,-0.5109630247399211,-0.2354973405599594,0.7362380027770996,0.0564849004149436
1774470977303423500,3.565423583984375,1.9133128711625933,0.7509884631723165,-0.6803720814183354,-0.3576205372810364,0.2205821871757507,-0.3555970191955566
1774470977313436400,3.5754365234375,1.106372511404753,0.9553373158067464,0.3757145963385701,0.1859996020793914,-0.9696447253227234,0.3695495128631592
1774470977323449600,3.58544970703125,-6.101829851657151,1.497193199199438,4.724978019106388,0.6724908947944641,-1.1441075801849363,0.3858535587787628
1774470977333462500,3.595462646484375,-1.7362071225017308,1.806338643348217,4.259039838746189,0.9649834632873536,-1.1915546655654907,0.507161557674408
1774470977343474700,3.605474609375,-0.9279173939615488,1.8803385300606488,1.5658026250451802,0.8289833664894104,-0.9130155444145204,0.2870388031005859
1774470977353487600,3.615487548828125,2.103757409346104,1.741197770395875,-1.802170417752862,0.5446978211402893,-0.4942724108695984,-0.0758784189820289
1774470977363500500,3.62550048828125,3.5847529224604364,3.2228169683665038,-1.7104808528319,0.13675157725811,-0.0185744855552911,-0.1244286298751831
1774470977373513500,3.635513427734375,1.353649236139655,5.099688114577532,-1.650016154997051,-0.0236359592527151,0.3419679999351501,0.0844926238059997
1774470977383526700,3.645526611328125,-0.9607280689343808,5.854789858287573,-0.2384592120289802,0.151753768324852,0.5508422255516052,0.2942532300949096
1774470977393539300,3.655539306640625,-1.1878534015223383,6.209960556030273,1.64151311506778,0.4736809134483337,0.6536570191383362,0.5083024501800537
1774470977403552500,3.665552490234375,-1.1201944082692266,6.779881088912487,1.6049167840763925,0.7151142358779907,0.6490864753723145,0.4805648326873779
1774470977413565400,3.6755654296875,0.465154921028018,7.680115526178478,0.02559709033221,0.866550624370575,0.593156635761261,0.4782212674617767
1774470977423578600,3.68557861328125,0.6885837371855974,7.38128280172944,-1.1211290587708354,1.1330238580703735,0.501119077205658,0.6652113795280457
1774470977433590500,3.695590576171875,-0.8500891811326146,6.306831615242362,0.0135635381892323,1.0718414783477783,-0.126924067735672,1.1635053157806396
1774470977443603700,3.705603759765625,-1.545951677149534,2.056771786287426,-0.8351539161987602,-0.2372134774923324,-1.578653335571289,1.88440203666687
1774470977453616600,3.71561669921875,-1.0331675744622946,0.4391021958827972,-6.322281113308668,-1.2818008661270142,-2.975980758666992,2.747914552688598
1774470977463629800,3.7256298828125,-1.2692203098714352,-4.523336671864986,-1.32993094529137,-1.9240614175796509,-3.321160793304444,3.404076337814331
1774470977473642500,3.735642578125,0.3413485086172819,-11.9553232403934,2.977504237180948,-1.8397718667984009,-1.9126368761062624,2.978316068649292
1774470977483655700,3.74565576171875,5.243061397245526,-11.385745237338542,6.017382805210351,-1.8458880186080933,-0.4635853469371795,2.263269662857056
1774470977493668900,3.7556689453125,6.010571956151724,-4.790202478688955,0.5411152941584587,-2.192946672439575,0.6498641967773438,2.0865275859832764
1774470977503681500,3.765681640625,0.8731170054987072,-4.179392301535606,-4.083396271592378,-1.896939873695373,0.9568686485290528,2.0496747493743896
1774470977513694700,3.77569482421875,0.404844244711101,-4.162458702391386,1.0561591584712269,-1.4040793180465698,0.6441914439201355,1.9019466638565063
1774470977523707600,3.785707763671875,0.6735473499648272,-3.157839761543274,1.394649647308886,-0.9907800555229188,0.089884340763092,1.5850011110305786
1774470977533719800,3.7957197265625,0.7741412290923297,-2.3102935428917406,-0.5694789265945553,-0.5386185050010681,-0.0281437654048204,1.1706223487854004
1774470977543732700,3.805732666015625,0.5784669735617936,-1.6233073040306567,-0.5863245551943779,-0.1985538005828857,-0.0172984674572944,0.720520555973053
1774470977553745700,3.81574560546875,0.8904711681425571,-1.6009376513123512,-1.0302826666757463,0.0059039909392595,-0.1167446225881576,0.3666577637195587
1774470977563758600,3.825758544921875,0.8945711508072912,-1.380493988445401,-1.0452993262827397,0.1118589043617248,-0.2774866819381714,0.2413323074579239
1774470977573771800,3.835771728515625,0.341186011531949,-0.6096154144108296,-0.7077949258729815,0.2070791721343994,-0.15387524664402,0.3068718910217285
1774470977583784700,3.84578466796875,-0.3047736588053405,0.3639198213875294,0.0121963414892554,0.2306711375713348,0.2376047670841217,0.4716562926769256
1774470977593797600,3.855797607421875,-0.7803783699162304,0.6725058780878782,-0.0344376916527748,0.1544341444969177,0.6831212639808655,0.5986883044242859
1774470977603810800,3.865810791015625,-0.7507055545777082,0.2436614568471908,-0.8525640468135476,0.099238134920597,1.144371509552002,0.6015398502349854
1774470977613823700,3.87582373046875,-0.2308341239780187,-0.5972083527803421,-0.7485109671428799,0.1047708466649055,1.5242055654525757,0.4736005365848541
1774470977623836700,3.885836669921875,0.2633189279973507,-1.1547609869986772,-0.5547641725435852,0.2158956527709961,1.855340838432312,0.3132001161575317
1774470977633849600,3.895849609375,-0.0489192214697599,-1.305381172055006,-0.1502332315653562,0.3751641511917114,2.195091009140014,0.1624372452497482
1774470977643861800,3.90586181640625,-0.6125514678627252,-1.4736445658296349,-0.0945414472207427,0.6541756391525269,2.4376637935638428,0.0493463426828384
1774470977653874700,3.915874755859375,-0.9309464594591408,-1.3278139531373976,0.4623118065565824,0.8188537955284119,2.318844556808472,-0.1298018395900726
1774470977663887600,3.9258876953125,0.0199948133457452,-1.0016232661634683,-0.3148880794540047,0.8897651433944702,1.898230791091919,-0.2492839246988296
1774470977673900500,3.935900634765625,0.2680220641870051,-0.9376415001183748,-0.8643655437663197,0.9483339190483092,1.385574221611023,-0.2030173689126968
1774470977683913700,3.945913818359375,-0.3702408411026001,-1.4507330613195897,-0.159705993309617,0.9895541071891784,0.9267295598983764,-0.0721903592348098
1774470977693926700,3.9559267578125,-0.5281587819516659,-1.9836545276284216,0.3301306567713618,0.989078164100647,0.5099485516548157,0.0750385075807571
1774470977703939600,3.965939697265625,-0.4191308364778757,-1.7453870387792587,0.2749070744603872,0.9443722367286682,0.1181318685412406,0.1949006617069244
1774470977713952800,3.975952880859375,-0.2151828927945345,-1.3710241493105888,0.1760413342997431,0.9599842429161072,-0.2161236107349395,0.2943220436573028
1774470977723965700,3.985965576171875,-0.0883743759583681,-0.9230120862632988,0.7031541143298149,1.0827770233154297,-0.494727611541748,0.4613532125949859
1774470977733978600,3.995978515625,-0.686512849195674,-0.4501736249953508,1.2214999427974222,1.2133184671401978,-0.575568675994873,0.6547846794128418
1774470977743991600,4.005991455078125,-1.0848854867398738,0.1472001474797725,1.0483397168919444,1.3118133544921875,-0.4837104380130768,0.8166552186012268
1774470977754004700,4.016004638671875,-1.113365731292963,0.7327145553350448,0.7301359370186925,1.2154476642608645,-0.2902794480323791,0.8648908734321594
1774470977764017700,4.026017578125,-0.7340659699440002,1.1512637925326823,0.2275523258283734,0.920950412750244,-0.2510222196578979,0.7544234991073608
1774470977774029800,4.03602978515625,-0.1295849958121776,1.1539859109729529,0.0736282769210636,0.5500894784927368,-0.5414071679115295,0.543404221534729
1774470977784042500,4.04604248046875,0.0313029372910037,0.8739911579847335,0.1681749848388135,0.0189156103879213,-0.84180748462677,0.2930587232112884
1774470977794055700,4.0560556640625,-0.294585003876686,1.385464178073406,-0.4347876936845481,-0.3105778694152832,-1.54572594165802,0.2515091598033905
1774470977804068600,4.066068603515625,-1.708874878939986,1.4682681334882974,0.947372912798822,-0.5071779489517212,-2.352715253829956,0.4534594714641571
1774470977814081800,4.076081787109375,-3.06618146854341,1.9899550890773532,1.260775722131133,-0.5257726907730103,-2.2737441062927246,0.552367091178894
1774470977824094700,4.0860947265625,-1.9456606047987937,1.7811808212161062,1.1192929293848572,-0.5508089661598206,-1.754903793334961,0.5498117208480835
1774470977834107600,4.096107666015625,-0.5660708351841196,1.419844002059102,0.2230373326219618,-0.6510258316993713,-1.2686121463775637,0.5361760258674622
1774470977844120800,4.106120849609375,0.0452835318485274,0.7140893498420715,-0.6074877547323704,-0.6968554258346558,-0.8410428166389465,0.4921784102916717
1774470977854133500,4.116133544921875,0.6136299107491969,0.1489110430508851,-0.378711732327938,-0.7222111225128174,-0.6863802671432495,0.4329638183116913
1774470977864146700,4.126146728515625,0.7890361620157956,0.2935673512667417,-0.5373243774428963,-0.7289864420890808,-0.8378644585609436,0.4148187339305877
1774470977874159600,4.13615966796875,0.4584534140953794,0.6339589975506067,-0.8035682529762387,-0.6552789211273193,-1.104519009590149,0.4408170282840729
1774470977884172800,4.1461728515625,0.1205464972993358,0.6345306599587202,-0.5128866862788796,-0.5692602396011353,-1.253774881362915,0.3973162770271301
1774470977894185700,4.156185791015625,0.6830033067047595,0.4087082266628742,-0.5078238499313592,-0.4024182558059692,-0.8375537395477295,0.1494483947753906
1774470977904198700,4.16619873046875,2.3149691334873435,0.1675882709920406,-0.0302568988367915,-0.2094848901033401,-0.4728957414627075,-0.0187635831534862
1774470977914211800,4.1762119140625,1.8607506170153616,-0.1566916139245033,-0.2934092380955815,-0.0103134540840983,-0.0485146567225456,-0.1366004645824432
1774470977924223700,4.1862236328125,1.2404933970808982,-0.2238105089515447,-0.9341296926051378,0.3580951392650604,-0.0657356828451156,-0.1216068118810653
1774470977934236700,4.196236572265625,0.3694693087408319,-0.6000187340259552,-0.1259302726969123,0.8199256062507629,-0.0994241312146186,-0.0578853636980056
1774470977944249600,4.20624951171875,-0.5239764912983402,-1.0023924969702958,0.5040922621876001,1.1748263835906982,-0.1746971011161804,-0.022192895412445
1774470977954262800,4.2162626953125,-0.4577905297398567,-0.6940133610188961,0.4098933447942137,1.4194108247756958,-0.2530576884746551,-0.0377838388085365
1774470977964275700,4.226275634765625,-0.3988888434380293,-0.7272428459256887,0.0608598346322774,1.4854965209960938,-0.2982284128665924,-0.2014020234346389
1774470977974288600,4.23628857421875,0.4143103209862485,-0.5358809006363153,-0.4432638456068932,1.5081349611282349,-0.4321268200874328,-0.40908944606781
1774470977984301600,4.246301513671875,0.5366554286727682,-0.5874088432997465,-0.3382091876782476,1.5448577404022217,-0.5523096919059753,-0.5793464779853821
1774470977994314800,4.256314697265625,0.218463375769928,-1.0337006584256887,0.0439480089284479,1.6051762104034424,-0.5789546370506287,-0.7205877304077148
1774470978004327700,4.26632763671875,0.0306266089320182,-1.3981319364666938,0.2031209182746708,1.6805604696273804,-0.5016621947288513,-0.8345601558685303
1774470978014340600,4.276340576171875,-0.2162281640637665,-1.6113941633969544,0.1388693953774869,1.7533142566680908,-0.3446172177791595,-0.9327956438064576
1774470978024353800,4.286353759765625,-0.4274865768909454,-1.5774503927409649,0.0677482789717614,1.765258550643921,-0.0625098198652267,-1.0658626556396484
1774470978034366700,4.29636669921875,-0.2502466073911636,-1.3970096544384956,-0.046146688016504,1.7044318914413452,0.2053205519914627,-1.2227247953414917
1774470978044379600,4.306379638671875,-0.0277747266322374,-1.051316979137063,-0.2086485956549644,1.5480577945709229,0.4016854763031006,-1.3927816152572632
1774470978054392600,4.316392578125,0.2290461445827037,-0.4639771094202995,-0.4167709754787385,1.358647108078003,0.4026612639427185,-1.517126202583313
1774470978064405800,4.32640576171875,0.142007985664159,0.0314507847964763,-0.2058815420944243,1.2656967639923096,0.2196844518184662,-1.555287480354309
1774470978074417700,4.336417724609375,-0.1557655851207673,0.1573731664478778,0.4879164956733584,1.3619256019592283,-0.3353534638881683,-1.641593098640442
1774470978084430600,4.3464306640625,0.5973423544235528,0.4593541257947683,1.4891130608573555,1.207228422164917,-0.6841244697570801,-1.68043851852417
1774470978094443800,4.35644384765625,0.521972202271223,-0.5639174930751324,-0.0536193254521116,0.9453781247138976,-0.6537777781486511,-1.646446943283081
1774470978104456700,4.366456787109375,-0.1369979024171829,-0.7792085954844952,-0.3107479474419727,0.7770012021064758,-0.6471474766731262,-1.5668292045593262
1774470978114470000,4.376469970703125,-0.3190583508759737,-0.5193313323736191,0.4296681952463462,0.7214668393135071,-0.8534840941429138,-1.4822685718536377
1774470978124482600,4.386482666015625,-0.3029424978554249,-0.7986684982359409,0.558585046005994,0.6955950856208801,-1.1445269584655762,-1.4466723203659058
1774470978134495700,4.396495849609375,0.017795768931508,-0.8357441371768712,-0.1604590584329329,0.6531102061271667,-1.350017547607422,-1.4995096921920776
1774470978144508700,4.4065087890625,0.3637508945614099,-0.582532761695981,-0.5537491137495264,0.6555838584899902,-1.5045543909072876,-1.5757206678390503
1774470978154521600,4.416521484375,0.2916927895665168,-0.1950444331943988,-0.2467908043814823,0.6750693917274475,-1.5344685316085815,-1.6351839303970337
1774470978164534500,4.426534423828125,0.044198622688651,0.0552910945892334,-0.1809899148841388,0.6484648585319519,-1.5004819631576538,-1.6726744174957275
1774470978174547700,4.436547607421875,-0.1544464653462171,0.0498129554390907,-0.4876230656847357,0.6383214592933655,-1.343102216720581,-1.6799850463867188
1774470978184561000,4.446560791015625,-0.3313850407466292,0.1374701961040496,-0.3796134304080158,0.6600629687309265,-1.2189682722091677,-1.650449275970459
1774470978194573600,4.456573486328125,-0.5785241105765104,-0.0232511117279529,-0.1045550013108179,0.6862450242042542,-1.2371376752853394,-1.5872756242752075
1774470978204586800,4.466586669921875,-0.5206856695920229,-0.3443295702546834,0.1330702075794339,0.699988842010498,-1.4454023838043213,-1.5435307025909424
1774470978214599700,4.476599609375,-0.0517722728133201,-0.4026590096265077,0.1752725418843329,0.7044419646263123,-1.660474419593811,-1.4559314250946045
1774470978224612600,4.486612548828125,0.1839624826878309,-0.7082394547700882,-0.1286052640598267,0.6616159677505493,-1.883794903755188,-1.297701120376587
1774470978234624500,4.49662451171875,0.0453992306500673,-0.845392255488038,-0.7807623277325183,0.6075505614280701,-1.990418553352356,-1.1032514572143557
1774470978244637700,4.5066376953125,-0.0890156695365905,-0.9751122758567332,-0.8664960529889911,0.5835440158843994,-2.0488007068634038,-0.8893724083900452
1774470978254650600,4.516650634765625,-0.405674265794456,-1.3145610883325338,-0.793286659067124,0.5397595167160034,-1.871368646621704,-0.6731714010238647
1774470978264663800,4.526663818359375,-0.590913928811252,-0.9590677345067262,-0.7221971068434416,0.4514156877994537,-1.4487473964691162,-0.5029780268669128
1774470978274676700,4.5366767578125,-0.6554553745657206,-0.3014712562590837,-0.5636228940427302,0.4060556590557098,-0.926242470741272,-0.3011458218097687
1774470978284689700,4.546689697265625,-1.220469430705905,-0.1634586238414049,0.0244439747743308,0.338559627532959,-0.3688814342021942,-0.096139907836914
1774470978294702800,4.556702880859375,-1.5218258284136652,-0.0023071078985929,0.1735530246153473,0.2415449321269989,0.1920497864484787,0.102051742374897
1774470978304715500,4.566715576171875,-1.6052075837165116,0.2183621804177761,0.164668876414001,0.1087524592876434,0.658145546913147,0.2851485908031463
1774470978314728700,4.576728759765625,-1.4892363949760794,0.1202478431463241,-0.3071614307247102,-0.0032353280112147,0.9247130751609802,0.4744000136852264
1774470978324741600,4.58674169921875,-1.2472080922886728,-0.2773036142081022,-0.5360735005989671,-0.0791358724236488,0.958046019077301,0.6807271242141724
1774470978334754800,4.5967548828125,-1.3165847031146287,-0.583677840077877,-0.5132654564633965,-0.0917446091771125,0.9082193374633788,0.7968991994857788
1774470978344767500,4.606767578125,-0.7823772886484861,-0.7232482233315706,-0.7369127376772463,-0.0884626731276512,0.7211270928382874,0.8531114459037781
1774470978354780700,4.61678076171875,-0.4804714403644204,-0.656691053840518,-0.9936793214216828,-0.0720615983009338,0.558262288570404,0.7672910690307617
1774470978364793900,4.6267939453125,0.1568447586596012,-0.3704249654978513,-0.62336892221421,-0.1029783710837364,0.536995530128479,0.5766032338142395
1774470978374806500,4.636806640625,0.7203001871809362,-0.1672644458651542,-0.5131944370537996,-0.1398671567440033,0.5334146022796631,0.3471181392669678
1774470978384819700,4.64681982421875,0.903813757057488,-0.0175163674682378,-0.4642977196767926,-0.1274056434631347,0.42496457695961,0.1100199520587921
1774470978394832600,4.65683251953125,0.89121175737679,0.1547515857726335,0.0285566707901656,-0.1203195080161094,0.2881255149841308,-0.1358318924903869
1774470978404844800,4.6668447265625,0.9083537385746836,0.326845936012268,0.2753469271823763,-0.1477296352386474,0.2097328305244445,-0.3329110741615295
1774470978414857700,4.676857666015625,0.6792021608561277,0.2108522431790828,0.1812150836758315,-0.1847188174724578,0.1929096430540084,-0.4410732388496399
1774470978424870700,4.68687060546875,0.3242714093491435,0.1512660817444324,0.0992740287005901,-0.2362248450517654,0.3329961895942688,-0.4807360768318176
1774470978434883600,4.696883544921875,0.0485375286757946,0.0169786073297262,-0.1892658497929573,-0.3476112782955169,0.6270581483840942,-0.4190801680088043
1774470978444896800,4.706896728515625,-0.6435133000984787,-0.2875011830955744,-0.7680033108592033,-0.514165997505188,0.9918371438980104,-0.2409252375364303
1774470978454909700,4.71690966796875,-1.567920347851515,-0.8663789294153451,-0.9469025188080966,-0.7640083432197571,1.4412891864776611,-0.095476433634758
1774470978464922600,4.726922607421875,-1.307605570106208,-0.988898809146881,-1.0332239808246493,-1.028853178024292,1.8280036449432373,-0.1256832331418991
1774470978474935800,4.736935791015625,-0.0494160650759935,-0.6666857936322689,-0.8310701540164649,-1.3199182748794556,1.9954205751419067,-0.2196653932332992
1774470978484948700,4.74694873046875,0.2839163103461265,-1.0583937856554984,-0.9683046416684984,-1.5930956602096558,2.077549934387207,-0.3583489060401916
1774470978494961700,4.756961669921875,0.7372855165123939,-1.422800513777137,-0.990242405775562,-1.849781036376953,1.9865739345550537,-0.4867841303348541
1774470978504974600,4.766974609375,0.9888234058231116,-1.2173328862458466,-1.0260136841196563,-2.030517339706421,1.751270055770874,-0.565822184085846
1774470978514987800,4.77698779296875,0.906758286076784,-0.9612187750607728,-0.9889543387264011,-2.130868673324585,1.5191282033920288,-0.6103353500366211
1774470978525000400,4.78700048828125,0.7818377749443054,-0.5730202524632215,-0.942804801165685,-2.1670846939086914,1.4167296886444092,-0.6392094492912292
1774470978535013600,4.797013671875,0.6564847176134586,-0.1648345883697271,-0.8061431449655443,-2.173506736755371,1.4935837984085083,-0.6682142019271851
1774470978545026800,4.80702685546875,0.597863017296791,0.029711247652769,-0.6997439405601471,-2.1578054428100586,1.656360387802124,-0.7231891751289368
1774470978555039700,4.817039794921875,0.7375660870194435,0.1995148566067218,-0.4459586376488209,-2.1194398403167725,1.763954997062683,-0.7669931054115295
1774470978565052700,4.827052734375,0.8892933565348387,0.3854284733623266,-0.3187384712718427,-2.0612943172454834,1.7234420776367188,-0.7681889533996582
1774470978575064600,4.837064697265625,0.934532135926187,0.4204571166455745,-0.4989772572614252,-1.985667943954468,1.5169458389282229,-0.7134362459182739
1774470978585077800,4.847077880859375,0.800195853933692,0.4785457329988479,-0.5017256791867315,-1.885345220565796,1.324000358581543,-0.6045796871185303
1774470978595090700,4.857090576171875,0.3331780616432428,0.7146633503377438,-0.0039265257939696,-1.7653142213821411,1.250341773033142,-0.4845808446407318
1774470978605103600,4.867103515625,0.0121966337502002,0.9352835388153792,0.5536376527316867,-1.604936122894287,1.229562759399414,-0.3653771877288818
1774470978615116500,4.877116455078125,-0.0411918420881032,1.0862813250124457,1.1173276206612586,-1.401506781578064,1.1323506832122805,-0.2149802297353744
1774470978625129700,4.887129638671875,-0.268958102928102,1.2335931161731482,1.529552915534377,-1.1801202297210691,0.9989690780639648,-0.0321258157491683
1774470978635142700,4.897142578125,-0.5701096257135272,1.3555904333353042,1.781045504398644,-0.9488609433174132,0.9497959613800048,0.096405528485775
1774470978645155600,4.907155517578125,-0.4034069053843617,1.326888654986024,1.8663868693366643,-0.721825897693634,0.8909209370613098,0.1258296072483062
1774470978655168800,4.917168701171875,-0.0473258147984743,1.3636784627228975,2.173472458346188,-0.4966132640838623,0.9128459095954896,0.0956320241093635
1774470978665181700,4.927181640625,0.1535463016360998,1.5081833797693251,2.507000940862298,-0.2913309037685394,0.9947507977485656,0.0558058209717273
1774470978675194600,4.937194580078125,0.1838455783098936,1.6505150444298982,2.608489138481021,-0.0945579335093498,1.051576018333435,0.0442208051681518
1774470978685207600,4.94720751953125,0.1626817942500114,1.767406562885642,2.672572319073975,0.1213242784142494,0.9791853427886964,0.0829018577933311
1774470978695220700,4.957220703125,0.152143449100852,1.960412768250704,3.0205519362688062,0.3281988799571991,0.8651258945465088,0.1668436229228973
1774470978705233700,4.967233642578125,0.2016097830593586,2.255241517755389,3.251981688052416,0.4924402832984924,0.7681138515472412,0.2292790412902832
1774470978715246600,4.97724658203125,0.46362172011137,2.3817425760775803,3.1681188712343573,0.6112979650497437,0.604209303855896,0.242220401763916
1774470978725259800,4.987259765625,0.8106728242844343,2.241370228791237,2.841202208073437,0.6736792325973511,0.3876897692680359,0.2258735001087188
1774470978735271700,4.997271728515625,0.9318933118551967,1.849908320483565,2.2500559318110347,0.6339709758758545,0.2929853796958923,0.1615895926952362
1774470978745284900,5.007284912109375,0.9870154796183108,1.4554273566156626,1.7107041401937604,0.5212108492851257,0.3010569214820862,0.0532740950584411
1774470978755297500,5.017297607421875,0.9745184016168116,1.1987170331031085,1.447078630465269,0.3658409118652344,0.3341813087463379,-0.052273903042078
1774470978765310700,5.027310791015625,0.8257020511120557,0.9356044413328172,1.1502782886266707,0.1881399601697921,0.3234639763832092,-0.0803732052445411
1774470978775323600,5.03732373046875,0.3689753512114286,0.5912719484686851,0.3552107374921441,0.0113295000046491,0.3498745262622833,-0.0429123789072036
1774470978785336800,5.0473369140625,-0.0136824883937835,0.2205710886389017,-0.5962511981859803,-0.1427484303712844,0.4295337796211242,-0.0449562892317771
1774470978795349500,5.057349609375,0.0724798375383019,0.0215852243423461,-1.1462126466229556,-0.2588230967521667,0.5289685130119324,-0.1131145656108856
1774470978805362700,5.06736279296875,0.4052551635995507,-0.0081628481894731,-1.3726093726754187,-0.3456331491470337,0.6354517340660095,-0.1800335794687271
1774470978815375600,5.077375732421875,0.5214508087456226,0.1307569622009992,-1.6838140874415637,-0.3726698458194732,0.6570432782173157,-0.1886755377054214
1774470978825388500,5.087388427734375,0.4535635596945881,0.2412824527561664,-2.0334832651585337,-0.3488367795944214,0.5936084389686584,-0.1506268382072448
1774470978835401700,5.097401611328125,0.5211190925732254,0.3048667439162731,-2.386808627295494,-0.2875896692276001,0.4739654064178467,-0.1035200506448745
1774470978845414700,5.10741455078125,0.7167325578272342,0.334643458020687,-2.6377742696762083,-0.2136996388435363,0.3261522650718689,-0.0892313718795776
1774470978855427800,5.117427734375,0.9911059638023376,0.3061152826726436,-2.839018726554513,-0.1285173743963241,0.151783138513565,-0.090555764734745
1774470978865440500,5.1274404296875,1.1313672519296407,0.2743582084059715,-2.933354422070086,-0.0474032834172248,-0.0045794090256094,-0.1180360242724418
1774470978875453700,5.13745361328125,1.2046867551624774,0.1442471428930759,-2.97105783752054,-0.0010922431247308,-0.1659741699695587,-0.1811779737472534
1774470978885466600,5.147466552734375,1.2613468000173569,-0.1111035827040672,-2.881650246056914,0.0172588974237442,-0.3287870287895202,-0.2379298210144043
1774470978895478800,5.157478759765625,1.034699606335163,-0.2554337277054787,-2.4981167926609515,-0.0184554234147071,-0.4304992854595184,-0.2696779072284698
1774470978905491700,5.16749169921875,0.7186305004030465,-0.252637374985218,-2.232943761229515,-0.0933011919260025,-0.4878489077091217,-0.2818850576877594
1774470978915504600,5.177504638671875,0.4514464214101433,-0.3404337318599224,-1.9875079881861808,-0.1859512329101562,-0.5331780314445496,-0.3149205148220062
1774470978925517800,5.187517822265625,0.3712669692799448,-0.4401519971966743,-1.6618898404031992,-0.2900010347366333,-0.540664553642273,-0.3621484637260437
1774470978935530800,5.19753076171875,0.3056049950629472,-0.5159270768880844,-1.3829945730894804,-0.3995722532272339,-0.484794557094574,-0.3812223076820373
1774470978945543700,5.207543701171875,0.0831277805417776,-0.5669178439348935,-1.2436612134620546,-0.5097563862800598,-0.3977560997009277,-0.3530429899692535
1774470978955556600,5.217556640625,-0.1654009900808334,-0.5646627584844828,-1.1955942249074578,-0.6077886819839478,-0.3607719838619232,-0.2721113860607147
1774470978965569800,5.22756982421875,-0.4995148712694645,-0.6444850677400827,-1.2873758520260452,-0.7014268636703491,-0.4014851748943329,-0.1947976350784301
1774470978975582700,5.237582763671875,-0.6563046848714351,-0.757156922674179,-1.4206769457519053,-0.7753263711929321,-0.5261014103889465,-0.1597333997488021
1774470978985595600,5.247595703125,-0.6156038411706686,-0.9332511562049388,-1.346590257538855,-0.8394542336463928,-0.6523597836494446,-0.1580478847026825
1774470978995608600,5.257608642578125,-0.6190677178889513,-1.022647934013605,-1.219473113144934,-0.8896930813789368,-0.7288102507591248,-0.149082064628601
1774470979005621800,5.267621826171875,-0.8383522738486527,-1.0164818125993014,-1.0377528564259408,-0.9206683039665222,-0.7031003832817078,-0.108308270573616
1774470979015634700,5.277634765625,-1.1318524050980805,-0.8511129712224006,-0.927590646225214,-0.9281360507011414,-0.5998961925506592,-0.0379467569291591
1774470979025647600,5.287647705078125,-1.325181851068139,-0.6477057833522558,-0.8613520411640405,-0.9202081561088562,-0.4488341212272644,0.025049740448594
1774470979035659800,5.29765966796875,-1.3183446985244751,-0.4862625909864902,-0.9060340634554624,-0.8862645626068115,-0.2889586985111236,0.0582223422825336
1774470979045672700,5.307672607421875,-1.21410048019588,-0.3605214111208915,-0.8594196117967366,-0.8282392024993896,-0.1327281594276428,0.0716544538736343
1774470979055685600,5.317685546875,-1.0971312203288075,-0.1360007080733776,-0.6073088910341262,-0.7599493265151978,0.0676352828741073,0.0739988386631012
1774470979065698600,5.327698486328125,-0.986674118834734,0.1100339076459407,-0.3687780750736594,-0.6892045736312866,0.2527764737606048,0.0389574281871318
1774470979075711700,5.337711669921875,-0.6383925960838794,0.260071324378252,-0.2307961300551891,-0.6064425706863403,0.3483597040176391,-0.0213634371757507
1774470979085724700,5.347724609375,-0.3108545861542224,0.3479799094557761,-0.1074313239321112,-0.5340376496315002,0.363302618265152,-0.0482484064996242
1774470979095737600,5.357737548828125,-0.2653051333785057,0.4019365405708551,-0.0713186848044395,-0.4852309226989746,0.3978802859783172,-0.0420544259250164
1774470979105750800,5.367750732421875,-0.3695440910100936,0.2830874583065509,0.0100949852958321,-0.4804504513740539,0.4647670090198517,-0.0612440556287765
1774470979115763700,5.377763671875,-0.2265045703411102,0.1402437524706125,0.2861737338840961,-0.5239830613136292,0.5289691686630249,-0.160474494099617
1774470979125776600,5.387776611328125,0.1469686768114566,0.0844330179214477,0.7050190314188599,-0.5933728814125061,0.6439414024353027,-0.2832570672035217
1774470979135789600,5.39778955078125,0.2565349669456482,0.0464630604892969,0.988333576479554,-0.6747809648513794,0.8208666443824768,-0.3594239950180053
1774470979145802800,5.407802734375,0.1094575690627098,0.1247276189088821,1.1496353145480156,-0.7375066876411438,1.0841134786605835,-0.4056108295917511
1774470979155815700,5.417815673828125,0.0912096724495291,0.2532125445246696,1.3355518539130686,-0.7474535703659058,1.3582624197006226,-0.4269486367702484
1774470979165828600,5.42782861328125,0.283837107630074,0.5926145952492952,1.7259662989944218,-0.6595114469528198,1.5351208448410034,-0.3737467527389526
1774470979175840500,5.437840576171875,0.4012549880474805,1.1140741718232632,2.301980764837563,-0.4635003507137298,1.475006937980652,-0.2184871137142181
1774470979185853700,5.447853759765625,0.3832981833353638,1.678506628683209,3.001866525021195,-0.1848063766956329,1.1946338415145874,-0.0122191738337278
1774470979195866600,5.45786669921875,0.472756628203392,2.002413004112244,3.502641625484824,0.1106124892830848,0.8277396559715271,0.1326487958431244
1774470979205879800,5.4678798828125,0.8952110561460256,1.999097011432052,3.769949330857396,0.3490869700908661,0.4798600673675537,0.1388826072216034
1774470979215892700,5.477892822265625,1.6049468869537111,1.8444173218518491,3.817450502222776,0.4967502057552337,0.1546268314123153,0.0600650273263454
1774470979225905700,5.48790576171875,2.011719177117944,1.4134925872057675,3.505228134846687,0.5375901460647583,-0.0916395112872123,-0.0037165330722928
1774470979235918800,5.4979189453125,1.888874887737632,0.951177273517847,3.0839193698078398,0.5044705271720886,-0.2347460687160492,-0.0234612077474594
1774470979245931500,5.507931640625,1.5787246504604815,0.6532400366038084,2.824579282313585,0.4387690424919128,-0.2933914363384247,-0.0229702461510896
1774470979255944700,5.51794482421875,1.350398709911108,0.495276503047347,2.613793966890871,0.3592718243598938,-0.2499608546495437,-0.0541044622659683
1774470979265957600,5.52795751953125,1.293074063667655,0.3840566004872321,2.3465286393553018,0.2955197393894195,-0.1070689037442207,-0.1468743085861206
1774470979275970800,5.537970703125,1.3898001614511013,0.3039858694285154,2.0825316659659148,0.2604347169399261,0.0830863863229751,-0.2709690928459167
1774470979285983700,5.547983642578125,1.4456298929616809,0.3021469635635614,1.9517530764549968,0.2392946630716323,0.2827137410640716,-0.431536316871643
1774470979295995600,5.55799560546875,1.5961156379833816,0.3727694827973842,1.9064122979938984,0.2297336459159851,0.4584517478942871,-0.6433971524238586
1774470979306008600,5.568008544921875,1.902055856350064,0.4951473237097263,1.8896204454079268,0.2239024192094802,0.5577284097671509,-0.8587685823440552
1774470979316021800,5.578021728515625,2.1199778917849064,0.626074966302514,1.7696768459051846,0.2263171076774597,0.522365927696228,-0.9991456866264344
1774470979326034700,5.58803466796875,1.9797049132198092,0.7322808400928974,1.5287646877661347,0.2306026220321655,0.4278917610645294,-1.071690320968628
1774470979336047600,5.598047607421875,1.7777227897167205,0.8420926294207572,1.3823302639618515,0.2337872385978698,0.3299169838428497,-1.1756707429885864
1774470979346060800,5.608060791015625,1.9179545594885945,0.9081447719991208,1.2776312876030802,0.2431887984275818,0.2137907147407531,-1.3208893537521362
1774470979356073700,5.61807373046875,2.0354168635696173,0.9848217689663172,1.0836045070186258,0.2893373966217041,0.1501880288124084,-1.4538538455963137
1774470979366086700,5.628086669921875,1.853185150197148,0.9852660056024788,0.9242980344206094,0.3486664295196533,0.2106490135192871,-1.584705829620361
1774470979376099600,5.638099609375,1.7852642911374568,1.0017588752418756,0.6929834334492683,0.4049614071846008,0.269115000963211,-1.7096611261367798
1774470979386112800,5.64811279296875,1.7038427299916743,0.9319722223103046,0.3544289394646883,0.4374814629554748,0.2442030608654022,-1.7676010131835938
1774470979396125700,5.658125732421875,1.2952414708346127,0.7736416090071201,-0.015697627608478,0.4434022307395935,0.1270053386688232,-1.7083408832550049
1774470979406138600,5.668138671875,0.5575426973462104,0.6826064163416624,0.0540995467171072,0.4499231576919555,0.0455213375389575,-1.5737744569778442
1774470979416151800,5.67815185546875,-0.0376397025644779,0.8455769644051789,0.701137806071341,0.4953151345252991,0.0105039672926068,-1.3985201120376587
1774470979426163500,5.68816357421875,-0.2823012763649225,1.1953630465000866,1.2135510296195744,0.6222931742668152,-0.0869817659258842,-1.2149670124053955
1774470979436176400,5.69817626953125,-0.3569534895062446,1.5382295584648846,1.3426131706014277,0.830549418926239,-0.2383611798286438,-1.0790019035339355
1774470979446189300,5.708189208984375,-0.1414478675633668,1.628478569188714,1.1789195689603686,1.063198447227478,-0.4134902954101562,-1.0066115856170654
1774470979456202500,5.718202392578125,0.196711489623785,1.501867036229372,0.7266571549922227,1.264034867286682,-0.5308318138122559,-0.9875614047050476
1774470979466215400,5.72821533203125,0.308669643330574,1.324379887035489,0.2205132209718227,1.4081298112869265,-0.5091988444328308,-1.0638865232467651
1774470979476228400,5.738228271484375,0.5152595528900623,1.1233324140340089,0.066114394159615,1.4911082983016968,-0.4160212278366089,-1.2556562423706057
1774470979486241300,5.7482412109375,0.7255524086207151,0.6505483133018016,-0.2674079508766532,1.5130027532577517,-0.2608709037303924,-1.4604730606079102
1774470979496254500,5.75825439453125,0.3786380825698375,-0.1586871716558933,-0.915590996351838,1.4950016736984253,0.049400694668293,-1.6196550130844116
1774470979506267400,5.768267333984375,-0.2544482237994671,-0.7791197481572627,-1.376212073342502,1.4437289237976074,0.5226930975914001,-1.722502589225769
1774470979516280300,5.7782802734375,-0.679436554133892,-1.0735469311237336,-1.5352774306610226,1.3675702810287476,0.9846293330192566,-1.8153371810913088
1774470979526293200,5.788293212890625,-0.9706506202727556,-1.1574199770748614,-1.588058295994997,1.283692479133606,1.073211908340454,-1.757245421409607
1774470979536305400,5.798305419921875,-1.5624246730446814,-1.158693065750599,-1.4523805362656712,1.257219314575195,1.049663782119751,-1.6606359481811523
1774470979546318300,5.808318359375,-2.000707369238138,-0.9447516243845224,-0.8009843739628791,1.2538130283355713,0.8867519497871399,-1.479851007461548
1774470979556331500,5.81833154296875,-2.318166468223929,-0.4936304894059896,-0.0438809350416064,1.3155293464660645,0.7977362871170044,-1.1994141340255735
1774470979566344400,5.828344482421875,-2.539007605975866,-0.3622100948601961,0.0367255103290081,1.442392110824585,0.9404141306877136,-0.8778505921363831
1774470979576357400,5.838357421875,-2.841533924245834,0.0407698172837495,-0.3063838704809546,1.5798375606536863,1.1521782875061035,-0.5544407963752747
1774470979586370600,5.84837060546875,-2.6377736851543188,0.1574760423004627,-0.3246726836264133,1.6809654235839844,1.1791805028915403,-0.3418101072311401
1774470979596383200,5.85838330078125,-1.914533060607314,-0.2042377934753894,-0.4316135936930775,1.626244068145752,1.0483205318450928,-0.1575510501861572
1774470979606396400,5.868396484375,-0.5609469528317451,-0.7554676544129848,-0.2949967995479702,1.439381122589111,0.6470938920974731,0.0103259515017271
1774470979616409300,5.878409423828125,0.9706915368050336,-1.4668652809530496,0.1644452967911958,1.1900203227996826,-0.0461288020014762,0.0437219925224781
1774470979626422500,5.888422607421875,2.267390805232525,-1.310344347420335,0.6257543560460209,0.975089430809021,-0.8363128900527954,-0.1793667376041412
1774470979636435500,5.898435546875,3.4266450119972225,-0.7748229277461767,1.1268182103231548,0.8028889298439026,-1.5565006732940674,-0.5577510595321655
1774470979646448400,5.908448486328125,3.89650124258399,0.0850987883538007,1.3496718569412829,0.6736277937889099,-2.109299659729004,-0.8383024334907532
1774470979656460300,5.918460205078125,3.466297223427892,0.955080710697174,1.477109027069807,0.5990630388259888,-2.5192270278930664,-0.9245553016662598
1774470979666473500,5.928473388671875,2.738696065583825,1.5988912401765585,1.382816293913126,0.6320458650588989,-2.7791450023651123,-0.9035670161247252
1774470979676486400,5.938486328125,2.346498244217038,2.029950414857268,1.7152373997092245,0.7318576574325562,-2.957716703414917,-0.8596085906028748
1774470979686499300,5.948499267578125,2.393404372298717,2.453219666314125,1.9325661454260348,0.8409386873245239,-3.11235785484314,-0.8389090299606323
1774470979696512500,5.958512451171875,2.673513691577315,2.891238743135333,1.63702296404168,0.9139415621757508,-3.3532721996307373,-0.8566997647285461
1774470979706525400,5.968525390625,3.136601743203401,3.0963007124751805,0.8643772342041134,0.9244521856307985,-3.78387713432312,-0.9207172989845276
1774470979716538400,5.978538330078125,3.661912734508514,3.0538451340615747,-0.0992560546524822,0.8548544645309448,-4.469446659088135,-1.0251930952072144
1774470979726551300,5.98855126953125,3.984201153346896,3.009020488429069,-0.8403669016066938,0.7510064244270325,-5.385932445526123,-1.0161869525909424
1774470979736564500,5.998564453125,3.266089708381891,2.812164037376642,-1.0322570354886351,0.6363770961761475,-6.160260200500488,-0.8198165893554688
1774470979746577400,6.008577392578125,1.9160984102278944,2.866553214690089,-0.8319631573334336,0.4791460931301117,-6.632344722747803,-0.555746853351593
1774470979756590300,6.01859033203125,1.293831019514799,3.2387188863754277,-0.8112056890521198,0.1360297501087188,-6.82606840133667,-0.2976835668087005
1774470979766602200,6.028602294921875,1.2916016530275345,2.706684139773249,-1.6784984453767535,-0.3846413791179657,-6.80281400680542,-0.0502570644021034
1774470979776615400,6.038615478515625,1.2413561513900755,1.371025318354368,-3.0235078634649515,-0.8362607359886169,-6.328861713409424,0.155135229229927
1774470979786628600,6.048628662109375,0.7411006908863782,1.218100948008895,-2.656285785661637,-1.0844054222106934,-5.637483596801758,0.3962467610836029
1774470979796641300,6.058641357421875,0.139690794762969,1.3081839545160532,-2.2970430161744355,-0.5455794930458069,-3.0288949012756348,0.3017846941947937
1774470979806654500,6.068654541015625,-3.41805254021883,1.9505191507458688,-4.86834633333832,0.566081702709198,0.7460160255432129,-0.1643860340118408
1774470979816667400,6.07866748046875,-9.38254897389412,1.613045437735319,-11.02740993808508,1.375639796257019,2.6592214107513428,-0.4401638209819793
1774470979826680300,6.088680419921875,-8.926606702369451,0.6461246516406536,-12.378836237478255,1.5733706951141355,2.728342771530152,-0.8826519250869751
1774470979836693200,6.098693359375,-3.654932958623767,-0.1568278075248003,-10.382255592781304,1.2733848094940186,1.8664076328277588,-1.2854303121566772
1774470979846706400,6.10870654296875,1.608214948838949,-2.3117431571781637,-7.815992900133132,0.8652902841567993,1.4557173252105713,-1.4188599586486816
1774470979856719600,6.1187197265625,3.622933892294765,-4.598379345628619,-3.0014591132640835,0.4048725664615631,1.2208701372146606,-1.3256701231002808
1774470979866732300,6.128732177734375,2.3529753312766557,-4.987685537207127,-0.025143062954396,-0.3549956977367401,0.9475475549697876,-1.093314528465271
1774470979876745500,6.138745361328125,0.3901490721434354,-4.6218958302944895,-2.2594532902315256,-0.9780017137527466,0.7227573394775391,-0.7822597622871399
1774470979886757400,6.14875732421875,-0.4218663989216089,-4.492999401268363,-3.381754315391183,-1.2359317541122437,0.6153342127799988,-0.5742565989494324
1774470979896770600,6.1587705078125,-0.8351911794692277,-3.0219834303766486,-2.118877090936154,-1.211694836616516,0.4791364669799804,-0.4961580336093902
1774470979906783200,6.168783203125,-1.1796072589635849,-1.1188380252242087,-0.5266564145646989,-1.0945515632629397,0.5693494081497192,-0.4631551802158355
1774470979916796400,6.17879638671875,-1.189627717718482,-0.6485527555704117,-0.0445256626859307,-0.941135048866272,0.6158950328826904,-0.4371629953384399
1774470979926809300,6.188809326171875,-1.3952829767763617,-0.4821048867851495,0.9748701376639306,-0.8114929795265198,0.5443804860115051,-0.4369072616100311
1774470979936822500,6.198822509765625,-1.090664654663205,-0.1587877094209194,1.5129162535101175,-0.733985424041748,0.3640235364437103,-0.4918240308761596
1774470979946835200,6.208835205078125,-0.5240402407169342,0.4809188918709755,1.2761232211276887,-0.6282708048820496,0.0800213366746902,-0.4812117218971252
1774470979956848400,6.218848388671875,-0.4451952520608901,0.783459238666296,1.352560710250586,-0.3752590715885162,-0.1399381905794143,-0.284785509109497
1774470979966861600,6.228861572265625,-1.1276567069739103,0.2187538100838661,2.269766302192211,-0.136217251420021,-0.0962928235530853,-0.0664408430457115
1774470979976874200,6.238874267578125,-1.239173546653986,-0.0299614230215549,2.5512729210481044,0.0563330240547657,0.145301952958107,0.1077378839254379
1774470979986886400,6.248886474609375,-0.811771725437045,-0.1943868460685014,2.173013316401839,0.2375644892454147,0.4341427087783813,0.2012238353490829
1774470979996899300,6.2588994140625,-0.0869119752556085,-0.7321469845801591,2.061857418988645,0.3822364807128906,0.4028423130512237,0.261076271533966
1774470980006912500,6.26891259765625,0.3351800491154194,-0.6544353838682174,1.662085947497189,0.4593780040740967,0.1519953459501266,0.3061036169528961
1774470980016925400,6.278925537109375,0.3277174581497907,-0.3205336841255426,0.963439958241582,0.4860578179359436,-0.0640088468790054,0.3251209557056427
1774470980026938400,6.2889384765625,0.269638778668642,-0.0819330177992582,0.3375022084526717,0.482349693775177,-0.0841431692242622,0.2884478569030761
1774470980036951300,6.298951416015625,0.3458791377842426,0.0094072952926158,-0.3028856531016528,0.4529185891151428,-0.0491721369326114,0.1816495060920715
1774470980046964500,6.308964599609375,0.5678443111300469,-0.0225561152011156,-0.8457591891042888,0.3773009181022644,-0.0482947491109371,0.0314917787909507
1774470980056977200,6.31897705078125,0.6940858417332172,0.0448947882592678,-1.2926625602573156,0.2798071205615997,-0.0343150198459625,-0.0992047190666198
1774470980066990300,6.328990234375,0.7054582996189593,0.1020651207238435,-1.4673983649164437,0.1970554143190384,0.0405879244208335,-0.1949051469564438
1774470980077003500,6.33900341796875,0.6589385405063629,-0.0110685065031051,-1.3236775839850303,0.1327800154685974,0.2028966695070266,-0.2715765237808227
1774470980087015400,6.349015380859375,0.6634019496560096,-0.1536211204379796,-1.0653460890114306,0.0987018272280693,0.3947419226169586,-0.3458608984947204
1774470980097028600,6.359028564453125,0.7733399957120418,-0.1650906089574098,-0.7730098869748413,0.0679431185126304,0.5572482943534851,-0.440895527601242
1774470980107041300,6.369041259765625,0.9369599475950002,-0.1731289539843797,-0.5512069184534252,0.0164035614579916,0.6370879411697388,-0.5335826277732849
1774470980117054500,6.379054443359375,0.9588029460906982,-0.2163280442416668,-0.4890625969685613,0.0309694539755582,0.6690866351127625,-0.6124449372291565
1774470980127067400,6.3890673828125,0.8502227443844079,-0.5447527738779783,0.0236693371400237,0.138825923204422,0.7986793518066406,-0.6878562569618225
1774470980137080300,6.399080322265625,0.694724139636755,-0.837292535662651,0.7434547066666185,0.2605142593383789,1.1105029582977295,-0.8370763659477234
1774470980147093200,6.40909326171875,1.1254781938910483,-0.7658201216012239,1.1544720139894633,0.3658041357994079,1.3496782779693604,-1.053030490875244
1774470980157106400,6.4191064453125,1.7414181351482867,-0.4703641801089048,1.184585485767573,0.3934711813926697,1.3989017009735107,-1.2758795022964478
1774470980167119600,6.42911962890625,1.9879232909888027,-0.1737757274553179,0.9956515713427216,0.3264939188957214,1.3915762901306152,-1.4979153871536257
1774470980177132300,6.43913232421875,1.8725030141294,-0.0980856956988573,0.7302642395734786,0.2496438473463058,1.3349074125289917,-1.6859710216522217
1774470980187145500,6.4491455078125,1.4503531220912933,0.0891264364346861,0.6682797848254441,0.2015459686517715,0.9998342990875244,-1.6687525510787964
1774470980197157400,6.459157470703125,-0.2781196067661047,0.1872156392648816,0.8493152010854333,0.1609652489423751,0.4108953177928924,-1.455017328262329
1774470980207170600,6.469170654296875,-2.3880846385806795,0.4490349763542413,0.7991839734774082,0.1306822150945663,0.0343504510819911,-1.0286681652069092
1774470980218435300,6.480435302734375,-4.154710280221701,0.6173825412809848,0.6592953180547804,0.1260863989591598,-0.1445734798908233,-0.3704842329025268
1774470980228448500,6.490448486328125,-5.31827065974772,0.7525619960993528,0.3990155385576188,0.1536951661109924,-0.0225141681730747,0.212308183312416
1774470980238461400,6.50046142578125,-4.6152281890988345,0.7418418646425008,0.3945486222766339,0.2065330743789672,0.2327937632799148,0.6393303275108337
1774470980248474400,6.510474365234375,-2.6624276494175194,0.4577501977294683,0.4668913894318044,0.2618591487407684,0.3473149836063385,0.8230047821998596
1774470980258487600,6.520487548828125,-0.7856400898367166,0.1264981357127428,0.4603801809068769,0.3047032952308655,0.3281972110271454,0.8195242881774902
1774470980268500200,6.530500244140625,0.514829344779253,-0.2365142154410481,0.4121436810042709,0.3404451012611389,0.2537469863891601,0.7001346945762634
1774470980278513400,6.540513427734375,1.1603571995705366,-0.5216027844369411,0.3173725166808813,0.3660647273063659,0.1866584867238998,0.5387980341911316
1774470980288526300,6.5505263671875,1.2155594468325377,-0.6587830576837063,0.1976047852016985,0.376343697309494,0.131013423204422,0.3768436908721924
1774470980298538500,6.56053857421875,0.8394470833480357,-0.6730430537045001,0.0299956175521016,0.3626180291175842,0.0693612396717071,0.253479391336441
1774470980308551400,6.570551513671875,0.2835059759795665,-0.5377192219793796,-0.1159462004296481,0.3319932222366333,0.0353327244520187,0.1817924827337265
1774470980318564400,6.580564453125,-0.2084463510811328,-0.3457710012346506,-0.2386440670765936,0.296447217464447,0.0412318930029869,0.1574810147285461
1774470980328577300,6.590577392578125,-0.4863379943102598,-0.1449488614216446,-0.350404798515141,0.2578595578670501,0.0530484393239021,0.1716305315494537
1774470980338590500,6.600590576171875,-0.4889034608840942,0.1046896240085363,-0.415004696458578,0.2264675348997116,0.0524383075535297,0.2201418578624725
1774470980348603400,6.610603271484375,-0.365565250506997,0.3374181834310293,-0.452683561989665,0.1968366354703903,0.0702721327543258,0.2759482860565185
1774470980358616300,6.6206162109375,-0.1656342143148183,0.5066057063132524,-0.4824503392219543,0.1688617169857025,0.125248834490776,0.317796915769577
1774470980368629500,6.63062939453125,-0.0078840312480926,0.5825225325629114,-0.4787991232380271,0.1415034979581833,0.1945171803236007,0.3397221565246582
1774470980378642400,6.640642333984375,-0.0294517199337482,0.5654366654664278,-0.4662593020733445,0.1227156966924667,0.2550521492958069,0.3426398932933807
1774470980388655400,6.6506552734375,-0.2375245615273714,0.511358453798294,-0.4308082686595618,0.1098014116287231,0.2949522733688354,0.3399362862110138
1774470980398667300,6.660667236328125,-0.5419722032487392,0.439794562061131,-0.3952263754077255,0.0958065018057823,0.3398355841636657,0.3443912267684936
1774470980408680400,6.670680419921875,-0.8454840254247188,0.3442456913635134,-0.3368342825958505,0.0962322503328323,0.3827597498893738,0.3741225302219391
1774470980418693400,6.680693359375,-1.0796084231197831,0.2681377264559269,-0.2182612407939508,0.1213836818933487,0.4209521412849426,0.424232542514801
1774470980428706000,6.6907060546875,-1.14080552688241,0.1992196730524301,-0.0414854912724345,0.170517548918724,0.420067548751831,0.4850220382213592
1774470980438719000,6.700718994140625,-1.032293714237213,0.0838327139407396,0.0704659769652411,0.2362134754657745,0.4142599999904632,0.5395209193229675
1774470980448732200,6.710732177734375,-0.7176683773726225,-0.0894645823478698,0.1702549694506451,0.3108614683151245,0.4123581051826477,0.57919842004776
1774470980458745300,6.720745361328125,-0.2298772616446018,-0.2538952660918235,0.2842712977962568,0.3950106799602508,0.372657299041748,0.5974056124687195
1774470980468758000,6.730758056640625,0.2887082207977771,-0.3481897528141737,0.3696667310090735,0.4712677896022796,0.3212578296661377,0.5932203531265259
1774470980478771200,6.740771240234375,0.6440361549288034,-0.3334825975477695,0.4999594732318073,0.5278072357177734,0.2450437694787979,0.5563585162162781
1774470980488784100,6.7507841796875,0.9707172557681798,-0.1963064159542322,0.4906916229424998,0.5534186363220215,0.1467478722333908,0.4886013269424438
1774470980498796300,6.76079638671875,1.1906851178169249,0.0671539663404226,0.4318271999111399,0.5596961975097656,0.098226398229599,0.4006072878837585
1774470980508809200,6.770809326171875,1.3372691792249678,0.3525561313301324,0.4145022998943924,0.5433397889137268,0.0409233719110488,0.2914621531963348
1774470980518822100,6.780822265625,1.4608154793947934,0.6811088712602853,0.3716076359437778,0.5151675343513489,-0.0150610664859414,0.1881690621376037
1774470980528835000,6.7908349609375,1.4124468775451182,0.8579986390829086,0.3694271135669201,0.4698301255702972,-0.0608802214264869,0.0946905016899108
1774470980538848300,6.80084814453125,1.333387953877449,0.8435194473534822,0.3039312166318297,0.3997088372707367,-0.1104059591889381,0.028486181050539
1774470980548861000,6.81086083984375,1.1941454874038695,0.6635743836134672,0.0502215362399816,0.3490661084651947,-0.1615805327892303,-0.0087545700371265
1774470980558874000,6.8208740234375,0.9153963505625724,0.335611426270008,-0.0668001844666898,0.3299267590045929,-0.1664594560861587,-0.0222027339041233
1774470980568887300,6.83088720703125,0.5751642787545919,-0.0240086520969867,-0.0901448196969926,0.3236366510391235,-0.1295586824417114,-0.0365981869399547
1774470980578900200,6.840900146484375,0.2491881113141775,-0.2558300335466861,-0.195148478090763,0.3140226304531097,-0.0923135802149772,-0.0528426691889762
1774470980588913200,6.8509130859375,-0.0067734396576881,-0.3327233036130667,-0.310391425621882,0.2959661185741424,-0.1001079306006431,-0.0604804158210754
1774470980598926000,6.860926025390625,-0.1573924556702375,-0.2772808178544044,-0.465893829761818,0.2711462676525116,-0.1088071465492248,-0.0567804835736751
1774470980608938200,6.870938232421875,-0.1895019966363906,-0.1696247452557087,-0.55107204002738,0.2497285455465316,-0.1055726408958435,-0.0457687266170978
1774470980618951200,6.880951171875,-0.1341612176865339,-0.1366138715356588,-0.5630382260225713,0.221775472164154,-0.0815445333719253,-0.0263734608888626
1774470980628964000,6.890964111328125,-0.1829471681654453,-0.1709790824741125,-0.4704981817521154,0.1833021193742752,-0.0505518205463886,0.002276070183143
1774470980638977000,6.90097705078125,-0.3611614625900983,-0.2509387543737888,-0.3475399106033146,0.1358954608440399,-0.0190626047551631,0.0563430339097976
1774470980648990200,6.910990234375,-0.5837181720882654,-0.3282721694231033,-0.2407995646100491,0.0801717042922973,0.0293597988784313,0.1313061118125915
1774470980659003100,6.921003173828125,-0.7586269952267408,-0.3573702536135911,-0.1228819179769605,0.0256144516170024,0.0981670916080474,0.2055960595607757
1774470980669016000,6.93101611328125,-0.7542652928858995,-0.3466939612984657,-0.0342578781064599,-0.0113039556890726,0.1791398674249649,0.2608199715614319
1774470980679029200,6.941029296875,-0.5696498992472887,-0.3315460765272379,0.0217042476121336,-0.0178462769836187,0.2332837879657745,0.2987196743488312
1774470980689042200,6.951042236328125,-0.3332487887918949,-0.3180985659331083,0.1410796918381005,-0.0156386829912662,0.2263445854187011,0.3049152493476867
1774470980699055000,6.96105517578125,-0.0546469514667987,-0.2992255231589079,0.1731739621698856,-0.023002590984106,0.1787056922912597,0.286074697971344
1774470980709067000,6.97106689453125,0.2231844860076904,-0.2519534843742847,0.1106528432618826,-0.0268736165016889,0.1253998577594757,0.2455985993146896
1774470980719080200,6.981080078125,0.3196586548566818,-0.2264075397074222,0.0909757175631821,-0.0372980274260044,0.0968853905797004,0.1926967799663543
1774470980729093000,6.991093017578125,0.2821189055353403,-0.1661848339349031,-0.0315170549657195,-0.0616849698126316,0.0717315599322319,0.1423386931419372
1774470980739106300,7.001106201171875,0.1397714587837457,-0.0772276165872812,-0.2507145171638578,-0.1065224930644035,0.0617076903581619,0.107647031545639
1774470980749119000,7.011118896484375,0.0015507365733385,0.0102016605406999,-0.5322491930704564,-0.1633582264184951,0.0728752240538597,0.0868941321969032
1774470980759132200,7.021132080078125,-0.0233206698328256,0.0682096128731966,-0.7033151501104236,-0.2137620151042938,0.094554416835308,0.0809065401554107
1774470980769145300,7.031145263671875,0.0377460855484008,0.0963823989123106,-0.7465631210107356,-0.2462020218372345,0.1036139726638794,0.0698183625936508
1774470980779158000,7.041157958984375,0.1958762078434228,0.0689613080233335,-0.7220894086852669,-0.2567444145679474,0.0959081202745437,0.0421262830495834
1774470980789171200,7.051171142578125,0.4506956030428409,0.0760357764542102,-0.6442787315130233,-0.257742166519165,0.0761047750711441,-0.0015486441552639
1774470980799184100,7.06118408203125,0.6659083795189857,0.0855441940337419,-0.5632891320437192,-0.2452311664819717,0.0518566891551017,-0.0508147254586219
1774470980809197300,7.071197265625,0.746933050301671,0.079217913621664,-0.4181277238499373,-0.2321803718805313,0.0390854105353355,-0.1024052873253822
1774470980819209200,7.081209228515625,0.7489315306425094,0.0645697950661182,-0.2856363756043836,-0.2200478017330169,0.0271025169640779,-0.1524122655391693
1774470980829222100,7.09122216796875,0.6679056908160448,0.0112654903799295,-0.1825290888838469,-0.2160140573978424,0.0164052732288837,-0.1987253427505493
1774470980839235000,7.101235107421875,0.4931359838873148,-0.0307417597442865,-0.1623892775768414,-0.2146278917789459,0.0117159793153405,-0.22684246301651
1774470980849248300,7.111248291015625,0.295601487442851,-0.0770756408959627,-0.1578486019399017,-0.2048153281211853,-0.0069902050308883,-0.2285935878753662
1774470980859261000,7.121260986328125,0.0316086057066917,-0.115501525402069,-0.0453895860388875,-0.1844131201505661,-0.0473520085215568,-0.1972393840551376
1774470980869274000,7.131274169921875,-0.2814829457193613,-0.1607289066165685,0.083201759093441,-0.168324276804924,-0.0684842690825462,-0.1606381237506866
1774470980879287300,7.141287353515625,-0.3916425255715847,-0.1377162798196077,0.0739392425663769,-0.1498187780380249,-0.0560254752635955,-0.1218672841787338
1774470980889300200,7.15130029296875,-0.3475274895131587,-0.107881113526225,0.094357870814763,-0.122024729847908,-0.0250142738223075,-0.0980342328548431
1774470980899313200,7.161313232421875,-0.2108417217850685,-0.0911883374005556,0.1585279625061899,-0.0966671779751777,-0.0006964178755879,-0.0952520295977592
1774470980909326000,7.171326171875,-0.0124362877249717,-0.104084059330821,0.1800377469921484,-0.0688955709338188,0.0121421255171298,-0.1054246202111244
1774470980919339300,7.18133935546875,0.1450982067644596,-0.0808469761282205,0.190251755557768,-0.0384540446102619,0.0056908829137682,-0.1222363486886024
1774470980929352000,7.19135205078125,0.236096574550867,-0.0387865345120429,0.199130569996871,-0.0244718492031097,-0.0164948459714651,-0.1383247971534729
1774470980939364000,7.201364013671875,0.2130266646087169,0.0098480247974395,0.188777079895325,-0.0304298736155033,-0.0488890036940574,-0.1425038278102874
1774470980949377000,7.211376953125,0.0356938291937112,0.0581488221079111,0.1225769436810165,-0.0555199459195137,-0.0699996352195739,-0.1330233365297317
1774470980959390200,7.22139013671875,-0.1939011083781719,0.1301812081396579,0.0115984121287241,-0.0842189639806747,-0.0683665797114372,-0.1044417694211006
1774470980969403100,7.231403076171875,-0.3528016305238008,0.1454208628475665,-0.0996598496804013,-0.1136054769158363,-0.0358225181698799,-0.0702603012323379
1774470980979416000,7.241416015625,-0.4635445632219314,0.054362873828411,-0.1305404333734884,-0.1368618011474609,0.0078139081597328,-0.0346165485680103
1774470980989429200,7.25142919921875,-0.4153180001914501,-0.1104185230493545,-0.1011994438052177,-0.1583608388900756,0.0309732407331466,-0.0018125218339264
1774470980999442200,7.261442138671875,-0.3259574627399444,-0.2632914554685354,-0.0664720850234851,-0.1733586937189102,0.0340023189783096,0.0176040530204772
1774470981009455000,7.271455078125,-0.1935503952443599,-0.336821971103549,-0.0352132426025345,-0.1798479408025741,0.0398823618888855,0.0223378334194421
1774470981019468000,7.281468017578125,0.0266430922538042,-0.2983265284925699,-0.0137184730226174,-0.1818309277296066,0.0505957268178463,0.0098425485193729
1774470981029481200,7.291481201171875,0.1686310580432415,-0.1758855592161416,0.0081778996281325,-0.1818375885486602,0.0614686161279678,-0.003629317972809
1774470981039494100,7.301494140625,0.1770440816015005,-0.0336947643309831,0.0564360633732751,-0.1784646958112716,0.0547193624079227,-0.0109309069812297
1774470981049507000,7.311507080078125,0.0565063155978918,0.0750157857567071,0.0881799858974292,-0.1692076027393341,0.0383420772850513,0.006400098092854
1774470981059520300,7.321520263671875,-0.1531453196197748,0.1285205814510583,0.1442900687193498,-0.1790122985839843,0.0360757261514663,0.0276960656046867
1774470981069532200,7.3315322265625,-0.2978226706236601,0.1468769068747758,0.0207417227229103,-0.2005797028541565,0.0653959065675735,0.0546428896486759
1774470981079545300,7.34154541015625,-0.3779992001444101,0.0941600466877222,-0.0653501317888498,-0.2160217761993408,0.0842220559716224,0.0890509337186813
1774470981089558000,7.35155810546875,-0.3791518773108721,0.0101905546247959,-0.0498256322575733,-0.2193942070007324,0.0736141577363014,0.1225774884223938
1774470981099571200,7.3615712890625,-0.3339046223521232,-0.0053436991155147,0.00581756370496,-0.2065865248441696,0.0355655811727047,0.1474141329526901
1774470981109584100,7.371584228515625,-0.2245306399196386,0.0529091678887605,0.0292983560029417,-0.1836070716381073,-0.0083633437752723,0.1572310477495193
1774470981119597300,7.381597412109375,-0.1340998428881168,0.1223164661139249,0.0487554822754114,-0.1549586504697799,-0.0423250384628772,0.1598420143127441
1774470981129610000,7.39160986328125,-0.145677467957139,0.1514192264795303,0.059138600330241,-0.1224716678261756,-0.0626345872879028,0.1727887243032455
1774470981139623200,7.401623046875,-0.2143155353754758,0.1205348433941602,0.1070644633810967,-0.1049243658781051,-0.049591489136219,0.1868968158960342
1774470981149636000,7.411635986328125,-0.2183575042426586,0.0665267743527889,0.0931327859992161,-0.1046310737729072,-0.0370903089642524,0.195802703499794
1774470981159649000,7.42164892578125,-0.0919604908168315,0.0023509470403194,-0.0021446838784962,-0.1147865056991577,-0.0303083043545484,0.1964596956968307
1774470981169662200,7.431662109375,0.1636252125799656,-0.0526776972204446,-0.0694083576710894,-0.1276510506868362,-0.041940838098526,0.1805282235145568
1774470981179675100,7.441675048828125,0.4533405645936727,-0.0671393532931804,-0.1314375283436849,-0.1425559669733047,-0.0648125931620597,0.1482634991407394
1774470981189688300,7.451688232421875,0.621640198725462,-0.0549590861558914,-0.1517954393807798,-0.1554981768131256,-0.0979384407401084,0.1085359901189804
1774470981199701000,7.461700927734375,0.6228232710301875,-0.0489139607727527,-0.1860113780416548,-0.1684216856956482,-0.1421109586954116,0.0730871856212616
1774470981209714200,7.471714111328125,0.4234679888993501,-0.0121229839920997,-0.1745410492720082,-0.1732767522335052,-0.1780320107936859,0.0540997572243213
1774470981219727000,7.48172705078125,0.1018038394391536,0.0543020835518836,-0.1551453708631917,-0.1742754429578781,-0.1991761773824691,0.0560180321335792
1774470981229740000,7.491739990234375,-0.3265706262022256,0.120900754097104,-0.1250185281468555,-0.1687484681606292,-0.2016832828521728,0.0909820199012756
1774470981239753200,7.501753173828125,-0.7132686811089515,0.1565846464186906,-0.0578045387148857,-0.170797511935234,-0.1622261554002761,0.1536957323551178
1774470981249765000,7.51176513671875,-0.9210720581114292,0.0991980408549308,-0.0121244087642058,-0.170591339468956,-0.0397071987390518,0.2285829931497573
1774470981259778000,7.521778076171875,-0.7839169193059206,-0.0750461808949708,0.1331818147277459,-0.1593426764011383,0.0893431976437568,0.2845698297023773
1774470981269791200,7.531791259765625,-0.3320627938777208,-0.3057815206736326,0.3984641882851719,-0.1258932799100875,0.1352779120206833,0.3072953820228576
1774470981279804200,7.54180419921875,0.0532113657057285,-0.4246159898906946,0.7245135670922697,-0.0727784037590026,0.0867268815636634,0.2961846888065338
1774470981289817000,7.551817138671875,0.3237918091386556,-0.3884025207370519,0.9352459832839668,-0.0220996756106615,0.02580551430583,0.2470353990793228
1774470981299830300,7.561830322265625,0.5100292510211467,-0.2575321612894535,0.919228256875649,0.0251650419086217,-0.0398925393819808,0.1771402060985565
1774470981309843000,7.571843017578125,0.4821966567218303,-0.1614823553323745,0.7854740856200456,0.0696129277348518,-0.0890047922730445,0.1043591648340225
1774470981319856000,7.581856201171875,0.3321095556288957,-0.0768704737126827,0.6277925108101219,0.1093012243509292,-0.1300044357776641,0.0380160957574844
1774470981329869000,7.591869140625,0.1711275510340928,-0.0092968206554651,0.4397024267982691,0.1279315650463104,-0.129293605685234,-0.0186236202716827
1774470981339882200,7.60188232421875,-0.0026028759747743,0.0547393059253692,0.2009305686235427,0.1319167166948318,-0.1140041276812553,-0.0390548594295978
1774470981349895200,7.611895263671875,-0.1621837815999984,0.0916845964848995,0.0302300108298659,0.1124620586633682,-0.0870426520705223,-0.0323234908282756
1774470981359908000,7.621908203125,-0.2072515883386134,0.1494967339843511,-0.1727105459092184,0.091028407216072,-0.0551182776689529,0.0034014848060905
1774470981369921300,7.63192138671875,-0.1609340737998485,0.1869587418943643,-0.2510643169822171,0.0774092078208923,0.0003269114531576,0.0424150861799716
1774470981379934000,7.641933837890625,-0.0619400310844182,0.2331061605632305,-0.2657548133747652,0.0659565478563308,0.0666806399822235,0.0652642101049423
1774470981389947100,7.651947021484375,0.0406640188217163,0.2725619726389646,-0.1819226839559152,0.0480463840067386,0.1205582246184349,0.0854721292853355
1774470981399960000,7.6619599609375,-0.0893500160574913,0.1945715549856424,-0.0472055859522894,0.0134037183597683,0.1703745126724243,0.0969314500689506
1774470981409973200,7.67197314453125,-0.2901367922961712,0.0665501552283763,-0.0452854315446689,0.0006042476161383,0.1474536657333374,0.1410293579101562
1774470981419986200,7.681986083984375,-0.8023831348448991,-0.1393091019690036,0.0743881553776562,-0.0080342479050159,0.0794469118118286,0.2101580947637558
1774470981429999400,7.691999267578125,-1.2646224606871603,-0.1870832450568675,0.1436427837917581,-0.0127481212839484,-0.023394726216793,0.2802149653434753
1774470981440012500,7.702012451171875,-1.3199778526842594,0.0214256498664617,0.0402400212559849,-0.011423997581005,-0.0463517047464847,0.3533288538455963
1774470981450025200,7.712025146484375,-1.1825608480721712,0.1830599808901548,-0.0214040590891614,-0.0101703610271215,0.0184193141758441,0.4294101893901825
1774470981460038400,7.722038330078125,-0.9089210170686244,0.2179541841387748,-0.0400749303547665,-0.0051369862630963,0.1278355568647384,0.4960422217845917
1774470981470051300,7.73205126953125,-0.5683674582213163,0.1751835484266281,-0.0573160610781982,-0.0008665680652484,0.223294511437416,0.5259258151054382
1774470981480064500,7.742064453125,-0.2312508880853652,0.1426999134510755,-0.1247409898471087,-0.0138225806877017,0.2672217488288879,0.5240115523338318
1774470981490077400,7.752077392578125,-0.002329319730401,0.0419499669790267,-0.1863255037584342,-0.0343342870473861,0.2366504520177841,0.5132534503936768
1774470981500090400,7.76209033203125,-0.0211187758743762,-0.0536000727623701,-0.1957525997300632,-0.0503430813550949,0.1343765407800674,0.5142907500267029
1774470981510103600,7.772103515625,-0.1696574784815311,-0.1032090300619602,-0.2073768586860969,-0.0628735870122909,0.0966748818755149,0.5222019553184509
1774470981520116200,7.7821162109375,-0.3761556181043386,-0.1555161404043435,-0.1741881076484918,-0.0541136525571346,0.1151985004544258,0.5400944352149963
1774470981530129400,7.79212939453125,-0.7008323933839797,-0.1890530838251113,-0.1120195467715151,-0.0380841605365276,0.2180202901363372,0.5632902979850769
1774470981540142300,7.802142333984375,-0.7954092041790485,-0.0910953984200954,-0.0860193007322028,-0.0298877507448196,0.349096268415451,0.5784729719161987
1774470981550155500,7.812155517578125,-0.4931283851027488,0.1182873567283153,-0.1651853928350843,-0.0341220796108245,0.4109669029712677,0.6050010919570923
1774470981560168400,7.82216845703125,-0.1060620814055204,0.3048755117446184,-0.2124330643634311,-0.0534451752901077,0.4054688215255737,0.6359097361564636
1774470981570181400,7.832181396484375,0.1693167022198438,0.3665162676215172,-0.2621084196964278,-0.0940092653036117,0.3860923647880554,0.6502478718757629
1774470981580194600,7.842194580078125,0.353619961169362,0.2725175489753484,-0.269126901890058,-0.1496837139129638,0.4094107449054718,0.6331775188446045
1774470981590207200,7.852207275390625,0.4061047661662101,0.0943038390725851,-0.2599814358714036,-0.198172241449356,0.4594710171222687,0.5739374160766602
1774470981600220400,7.862220458984375,0.4729173717230558,0.0022924948513507,-0.1229515034812968,-0.2338322401046753,0.4937794506549835,0.4799861311912536
1774470981610233300,7.8722333984375,0.5536018507659435,0.0622808073461055,-0.0606136413188651,-0.2438485622406005,0.4691528975963592,0.391162246465683
1774470981620246500,7.88224658203125,0.541683449435234,0.1479459974110126,0.159477956707403,-0.2036390900611877,0.349883496761322,0.339787483215332
1774470981630259200,7.89225927734375,0.4138426669418811,0.3026104894220829,0.542887089603953,-0.1350974887609481,0.2057975977659225,0.3140438199043274
1774470981640272400,7.9022724609375,0.28528993678689,0.4565583575963973,0.7463998202078044,-0.0782904028892517,0.1807809174060821,0.2859541177749634
1774470981650285600,7.91228564453125,0.273904034897685,0.4953758717685937,0.782808738868311,-0.034990556538105,0.2632641792297363,0.2349844574928283
1774470981660298200,7.92229833984375,0.456450805568695,0.541614475852251,0.6718545745722949,-0.0119235888123512,0.349208116531372,0.1581514626741409
