time,seconds_elapsed,accel_x,accel_y,accel_z,gyro_x,gyro_y,gyro_z
1774471236630237400,0.073237548828125,-1.4575082545429467,-0.3513365264073014,-0.5486881405655294,-0.7375378608703613,-1.1319363117218018,0.1587910950183868
1774471236640250400,0.08325048828125,-1.0088830280333756,-0.6786901196807622,-1.0214749447114766,-0.998584508895874,-1.1576673984527588,0.1942022293806076
1774471236650263300,0.09326318359375,-0.6342465823203325,-0.7749523993447422,-1.2006596185382454,-1.197943091392517,-1.19694185256958,0.2888243496417999
1774471236660276500,0.1032763671875,-0.6383014106690883,-0.592945142377913,-0.7698572681628167,-1.228568434715271,-1.3605834245681765,0.2543303072452545
1774471236670289400,0.113289306640625,0.566264348462224,0.0314940394163131,0.5209396443530917,-0.8202819228172302,-1.0637637376785278,-0.474690318107605
1774471236680301300,0.12330126953125,1.353843297407031,0.1067871808096766,2.2234943803608416,-0.359874427318573,-0.2463870048522949,-0.9012680649757384
1774471236690314200,0.133314208984375,0.870698546180129,0.5942839897662401,1.8331192443765696,0.0271102972328662,0.3490050137042999,-1.027308225631714
1774471236700327400,0.143327392578125,0.9959341146111488,0.2556701668098569,1.6110785215765238,0.2086426615715026,0.3382113873958587,-1.133496880531311
1774471236710340400,0.15334033203125,1.1147621540874242,-0.1902168669074773,1.1012653244588524,0.1696707606315612,0.0224643386900424,-1.2943576574325562
1774471236720353300,0.163353271484375,0.6560141774922609,0.081461600895226,0.396379929357022,0.1253170818090438,-0.0141379935666918,-1.3619574308395386
1774471236730366200,0.1733662109375,-0.1508335355460643,-0.0264069454103708,0.1599554380260407,0.1696912050247192,0.1269749253988266,-1.3158423900604248
1774471236740379400,0.18337939453125,-0.4860200144022703,-0.0340261882424354,0.1592638755653053,0.2479212880134582,0.2581047713756561,-1.2045257091522217
1774471236750392300,0.193392333984375,-0.4354010032773017,0.0418719333067536,0.3170066059779375,0.3134041726589203,0.2734256684780121,-1.071963906288147
1774471236760404200,0.203404296875,-0.5384656564325094,0.2925774634465575,0.5448523617949337,0.3527074754238128,0.2877289056777954,-0.9229059219360352
1774471236770417400,0.21341748046875,-0.9402361927866936,1.1885282320439814,1.0915330349955708,0.5884172320365906,0.300721138715744,-0.6885445713996887
1774471236780430300,0.223430419921875,-1.617003235450387,1.169996550053358,1.7007652222424745,1.00401771068573,0.4041512012481689,-0.3322114646434784
1774471236790443500,0.233443603515625,-1.9726830517590044,1.2307692909240722,1.9707418545633557,1.4707508087158203,0.6074601411819458,0.0742300599813461
1774471236800456200,0.243456298828125,-1.5063719464331864,1.6218872080996631,1.7648752908423542,1.9035301208496092,0.7840446829795837,0.4379953444004059
1774471236810469400,0.253469482421875,-0.684602558594942,1.5953966760590672,1.7334300590038298,2.219322443008423,0.7292367815971375,0.6643384695053101
1774471236820482300,0.263482421875,0.299777311822772,1.4606865923181176,1.6300649615973233,2.411030530929565,0.385785698890686,0.7389439344406128
1774471236830495200,0.2734951171875,1.297430505311489,1.3334610191136598,1.4755781642407175,2.5158531665802,-0.0825404897332191,0.7040567994117737
1774471236840507400,0.28350732421875,1.7612164760738611,1.5578323768183588,1.379428551170975,2.582984447479248,-0.438345730304718,0.662039577960968
1774471236850520300,0.293520263671875,1.559057242438197,2.0412688044682143,1.4975767916895448,2.651632785797119,-0.5651582479476929,0.6491760015487671
1774471236860533200,0.303533203125,0.7604273226469754,1.76768041139096,1.1394408144004642,2.606811761856079,-0.2886171340942383,0.5483032464981079
1774471236870546400,0.31354638671875,0.1655669942975044,1.6573998355075716,-0.2324153287548571,2.520180940628052,-0.0713404566049575,0.5194870233535767
1774471236880559400,0.323559326171875,-0.0153501293450593,2.195257589174807,-0.8397474545340985,2.448233127593994,0.4624958336353302,0.5742279887199402
1774471236890572300,0.333572265625,-1.087736784517765,1.4191536817073822,-1.1226846176497638,2.3796262741088867,0.9648383259773254,0.6990018486976624
1774471236900585500,0.34358544921875,-1.4188672659814356,0.893084273250401,-1.2241902047947049,2.1227591037750244,1.2508476972579956,0.8165842890739441
1774471236910597400,0.353597412109375,-1.8140251061975956,-0.1594698464661836,-1.5786267430439591,1.7371060848236084,1.4514734745025637,0.9115747213363647
1774471236920610300,0.3636103515625,-2.2731594517618414,-0.8883741958633065,-1.829450492735952,1.2646446228027344,1.4969093799591064,1.0023469924926758
1774471236930623200,0.373623291015625,-2.260819610148668,-0.8944222438558935,-2.022454944535345,0.7309754490852356,1.479537844657898,1.0935442447662354
1774471236940636400,0.383636474609375,-1.989114546599984,-0.9193936035051942,-2.00119865988642,0.1876474022865295,1.4316821098327637,1.1389079093933103
1774471236950649300,0.3936494140625,-1.574712492209673,-0.7580380894228815,-1.539819019613415,-0.2956447005271911,1.385701298713684,1.2267587184906006
1774471236960662300,0.403662353515625,-1.193892973947525,-0.7354816819608211,-0.0568272911805659,-0.4274941086769104,1.114298939704895,1.3333510160446167
1774471236970675200,0.41367529296875,-0.9535182836860416,-0.9674620533645152,0.3699222766727209,-0.3862015306949615,0.7200034260749817,1.4195969104766846
1774471236980688400,0.4236884765625,-0.6737526632785796,-0.1623112073719501,0.4349372582230716,-0.3473803699016571,0.5780689120292664,1.4443612098693848
1774471236990701300,0.433701416015625,-0.8018389449656009,0.5491588998824357,0.0537505871489644,-0.3447789847850799,0.5009392499923706,1.4790024757385254
1774471237000713500,0.44371337890625,-1.4158295057207344,0.6629588820636272,0.1571212375134229,-0.3294369578361511,0.6204691529273987,1.5626741647720337
1774471237010726400,0.453726318359375,-1.9379864169090983,0.700576372796297,-0.023284429475665,-0.3523105680942535,0.7006473541259766,1.6121996641159058
1774471237020739300,0.4637392578125,-1.716993887987733,0.4586684816181659,-0.6347082084827125,-0.4998694062232971,0.5924410223960876,1.5811622142791748
1774471237030752500,0.47375244140625,-0.9305699542969464,-0.194805363741517,-1.136555175961554,-0.7718021273612976,0.2425850331783294,1.5032793283462524
1774471237040765200,0.48376513671875,0.059066521474719,-0.889889568862319,-1.427298409718275,-1.1164374351501465,-0.1430965065956115,1.4461275339126587
1774471237050778400,0.4937783203125,0.8166752795696258,-0.9367617946743964,-1.498080795688927,-1.4838923215866089,-0.4267860054969787,1.2728036642074585
1774471237060791300,0.503791259765625,2.029852215179801,-0.743861387771368,-1.5138098413489758,-1.6413133144378662,-0.6673096418380737,0.9090559482574464
1774471237070804500,0.513804443359375,2.439021045091748,-0.7930997581928968,-0.8460362524800003,-1.748903512954712,-0.5436068773269653,0.6573965549468994
1774471237080816400,0.52381640625,1.388942667838931,-0.1372480777859688,-0.6844120044589043,-1.8662904500961304,-0.1987142115831375,0.5033447742462158
1774471237090829300,0.533829345703125,0.87129358946383,0.4846154083013534,-0.4261434917189181,-1.810288906097412,0.1313854157924652,0.3108352720737457
1774471237100842200,0.54384228515625,0.8411381051748991,0.908546923059225,0.1863942398793995,-1.6706223487854004,0.2858287990093231,0.0854916647076606
1774471237110855400,0.55385546875,0.3195218767344951,1.0638806926339863,0.3694935298666357,-1.6815589666366575,0.5299772620201111,0.0086916945874691
1774471237120868400,0.563868408203125,-0.5548457133471966,0.924065394708514,-0.1813173750065267,-1.7923530340194702,0.7210061550140381,0.1071829795837402
1774471237130881300,0.57388134765625,-1.0885866793453691,0.6898053879350423,-0.4757990646392107,-1.882950782775879,0.751641035079956,0.3586855232715606
1774471237140894500,0.58389453125,-0.9950362889885902,0.6525660828649997,-0.3448895422250032,-1.8707059621810915,0.634112536907196,0.6441348195075989
1774471237150907400,0.593907470703125,-0.5221183327436447,0.7465776609927416,-0.0453279189795255,-1.6874797344207764,0.4145857989788055,0.8794229626655579
1774471237160919600,0.60391943359375,-0.0241752408355474,0.922010215744376,0.524909717027843,-1.3049933910369873,0.2354104816913604,0.9775746464729308
1774471237170932200,0.61393212890625,0.5722668037474155,1.2323930927336215,1.2280474647447466,-0.7228606939315796,0.1364378333091735,0.8746724724769592
1774471237180945400,0.6239453125,0.9686509708881378,1.3291618606150148,1.973390907767415,-0.101363405585289,0.1122530847787857,0.6790715456008911
1774471237190958300,0.633958251953125,1.0299100339710712,1.3975082516103985,1.697216882111132,0.4008634686470032,0.0982041135430336,0.4723204970359802
1774471237200971300,0.64397119140625,0.996838369974494,1.0142793341189622,1.0963424080386757,0.68369060754776,0.1549476981163025,0.3022396266460418
1774471237210984200,0.653984130859375,0.9500438855737448,0.7016197443693876,0.3624848201483487,0.7131856083869934,0.1159670129418373,0.2057021707296371
1774471237220997400,0.663997314453125,0.6697481038123368,0.4929799165427684,-0.2694768661051988,0.5897993445396423,-0.0282359067350626,0.231126993894577
1774471237231010600,0.674010498046875,0.186489370816946,0.191116446095705,-0.5086611775383353,0.4580711424350738,-0.1866431236267089,0.3855570554733276
1774471237241022500,0.6840224609375,-0.3655272565841674,0.0506003064244985,-0.5707464623123407,0.3679084181785583,-0.246719092130661,0.6289007663726807
1774471237251035400,0.694035400390625,-0.854566326546669,-0.0221130476087331,-0.6090352764353155,0.3096040785312652,-0.1947693228721618,0.8525679111480713
1774471237261048300,0.70404833984375,-0.8017197025001048,-0.2072252848535776,-0.6279021817296743,0.2507757842540741,-0.1492581665515899,0.9704749584197998
1774471237271061500,0.7140615234375,-0.2223375137895345,-0.168040690934658,-0.5236851436689496,0.2230096608400344,-0.1032938659191131,0.970744490623474
1774471237281074200,0.72407421875,0.4238590340435504,0.4344079005867242,-0.148530811561644,0.3119351267814636,-0.039250548928976,0.8745509386062622
1774471237291087400,0.73408740234375,0.6627215661764144,0.5697954451978207,0.3585051028624176,0.4347158968448639,0.0617389157414436,0.7698346376419067
1774471237301100300,0.744100341796875,0.4085632652342319,0.2519406248927116,0.2898714193582534,0.5589121580123901,0.1062496080994606,0.7341554760932922
1774471237311113500,0.754113525390625,0.1268032561391592,0.5302671524077653,0.2975926612600684,0.6559873223304749,0.0773801431059837,0.7493480443954468
1774471237321125400,0.76412548828125,-0.1211468378126621,0.6235878256618976,0.1432877963416278,0.7197802662849426,0.1227970868349075,0.7496381998062134
1774471237331138300,0.77413818359375,0.0801835437834262,0.4642378061830997,-0.0648648324899375,0.7385635375976562,0.2697188854217529,0.6499976515769958
1774471237341151200,0.784151123046875,0.5340291352897882,0.3229600344896316,-0.2611839617952704,0.7303403615951538,0.475331038236618,0.4801872372627258
1774471237351164400,0.794164306640625,1.0659481465578078,0.281024680557847,-0.2773996219284832,0.7234798073768616,0.6236890554428101,0.2790477573871612
1774471237361177300,0.80417724609375,1.5501041206538675,0.1908633481174707,-0.268727655173093,0.7071904540061951,0.6729168891906738,0.0624110326170921
1774471237371190300,0.814190185546875,1.9860873077332968,0.0483802922874689,-0.2353070316083729,0.6608357429504395,0.6464924812316895,-0.1718400716781616
1774471237381203500,0.824203369140625,2.3101070804089305,-0.041007717692852,-0.3383965269438922,0.5393381118774414,0.5521761775016785,-0.395551860332489
1774471237391216400,0.83421630859375,2.3045903628140687,0.0291045139312744,-0.5386740384861827,0.3714862167835235,0.4318225979804992,-0.5622612833976746
1774471237401228500,0.844228515625,2.116927856564521,0.1884825904607772,-0.6419973425775766,0.2061250060796737,0.31747767329216,-0.6650599241256714
1774471237411241200,0.8542412109375,1.89419345241189,0.0950228009968996,-0.4890567517496645,0.0814637616276741,0.1298638135194778,-0.7286338210105896
1774471237421254400,0.86425439453125,1.6538590941607951,-0.1849573389440774,-0.3112820177860558,-0.0302083306014537,-0.1458907574415207,-0.7269710302352905
1774471237431267300,0.874267333984375,1.070707323783636,-0.3683043200820684,-0.2252574928894639,-0.1156041920185089,-0.4808085858821869,-0.6059740781784058
1774471237441280300,0.8842802734375,-0.0085001173198223,-0.6921627647161483,0.2857150303311646,-0.1393851041793823,-0.7888104915618896,-0.3431802690029144
1774471237451293200,0.894293212890625,-0.8734814548969269,-0.5880927339106797,0.6550554154627025,-0.0556803494691848,-1.0750236511230469,-0.006821708753705
1774471237461306400,0.904306396484375,-1.287213647201657,-0.300336699271202,1.0774804711803794,0.1089677736163139,-1.2486541271209717,0.3348354697227478
1774471237471319600,0.914319580078125,-1.6375824976205824,-0.8845178126960992,0.69780135512501,0.1303883790969848,-0.5491999387741089,0.1045607030391693
1774471237481331500,0.92433154296875,-1.225562369930744,-2.8382693694919348,-1.508548998211324,0.0811710879206657,0.0494350716471672,-0.3158081173896789
1774471237491344400,0.934344482421875,-0.9452888000011443,-1.6353110455572604,-1.7258492484860122,0.0658701583743095,-0.1425868272781372,-0.1965552568435669
1774471237501357300,0.944357421875,-1.410015266484022,-0.2419488077104091,-0.3729851713746785,-0.0284651853144168,-0.2062172889709472,0.1175361573696136
1774471237511370500,0.95437060546875,-1.7857646418750286,-0.0183761991679668,-0.5031596575126052,-0.1335934698581695,-0.0328020974993705,0.3433490693569183
1774471237521383200,0.964383056640625,-1.637255165362358,0.0291559518575668,-0.7929721862904727,-0.1552847027778625,0.0610356554388999,0.4516482055187225
1774471237531396400,0.974396240234375,-1.2821984493881464,0.3203548204272985,-0.3366590356267988,-0.0567288361489772,0.0085609909147024,0.5150836110115051
1774471237541409300,0.9844091796875,-0.844911193972826,1.1687176161587238,0.5518243196994066,0.1599918752908706,-0.049418319016695,0.5330978631973267
1774471237551422500,0.99442236328125,-0.3304857538193464,1.5052099169164894,0.9823169465385376,0.5000503659248352,-0.0659999623894691,0.520143985748291
1774471237561434400,1.004434326171875,0.1704535972952842,1.2971610407203435,1.2997832059174774,0.8900614380836487,-0.0694734007120132,0.5065183043479919
1774471237571447300,1.014447265625,0.4622825804620981,1.4256132331103086,1.7319504879705607,1.2480871677398682,-0.1851920038461685,0.5100717544555664
1774471237581460200,1.024460205078125,0.6430149951875209,1.6528993092179298,1.8114387429662049,1.5098044872283936,-0.290452241897583,0.5406002998352051
1774471237591473400,1.034473388671875,0.7213157939642667,1.445385270550847,1.2610465018965302,1.5649830102920532,-0.319068968296051,0.5424546599388123
1774471237601486300,1.044486328125,0.6341922217845917,1.371020057657361,0.660408028537035,1.4606679677963257,-0.2587929368019104,0.4863677322864532
1774471237611499300,1.054499267578125,0.8381547054499388,1.106148054999113,0.3477387941762804,1.3012149333953855,-0.1733265072107315,0.3679742515087127
1774471237621512400,1.064512451171875,1.305936467850208,0.2593582076728344,0.4417829593993723,1.1083308458328247,-0.1711212247610092,0.178045243024826
1774471237631525400,1.074525390625,1.727079228672385,-0.007525134807825,0.1945572341993451,0.91922265291214,-0.248453289270401,-0.0254759341478347
1774471237641537500,1.08453759765625,1.7994319326996802,-0.1367033033847808,0.0839169581580907,0.7803926467895508,-0.3658371269702911,-0.1740254014730453
1774471237651550200,1.09455029296875,1.5480489416897296,-0.4798147300213575,0.0996533834069967,0.6916214823722839,-0.4342614412307739,-0.2429165840148925
1774471237661563400,1.1045634765625,1.2775836490690708,-0.7210340544134378,0.0777677878785878,0.623893678188324,-0.4977881908416748,-0.2961545586585998
1774471237671576300,1.114576416015625,1.111399984177947,-0.8228139284551144,0.1512140592962503,0.5655624270439148,-0.5396954417228699,-0.3334459960460663
1774471237681589200,1.12458935546875,0.9208072696954012,-0.9246393952041864,0.1337686381723731,0.4863762259483337,-0.4467706084251404,-0.3766672313213348
1774471237691602700,1.134602783203125,0.9422872800976038,-1.4223931020200251,0.4607704953987151,0.4086571931838989,-0.4631533026695251,-0.4341363608837127
1774471237701615900,1.144615966796875,0.9067226302415132,-1.0114408958226442,-0.4696678684078156,0.2630282938480377,-0.4592665731906891,-0.450822651386261
1774471237711628800,1.15462890625,0.5614046334713697,-0.5870756658226252,-0.6995845852799714,0.1599192023277282,-0.444441556930542,-0.4812745749950409
1774471237721640700,1.164640625,0.4130687599599361,-0.4010591732144355,-0.3126753718405962,0.1281064748764038,-0.4544451236724853,-0.4989998638629913
1774471237731653600,1.174653564453125,0.1284966160535812,-0.3091308311015367,-0.1100737647322937,0.1551053375005722,-0.5224905014038086,-0.44544318318367
1774471237741666800,1.184666748046875,-0.1319821200817823,-0.3499333816111087,-0.0596938595928251,0.2187681049108505,-0.5324425101280212,-0.4143281280994415
1774471237751680000,1.194679931640625,-0.2971229979217052,-0.6213543675214052,-0.4107547108639031,0.1969461590051651,-0.2425414472818374,-0.4759952127933502
1774471237761692700,1.204692626953125,-1.028558619362116,-0.8371417290151119,-1.3654448878735304,0.0672552734613418,0.1229368522763252,-0.501432478427887
1774471237771705900,1.214705810546875,-2.070345553609729,-0.7786737579554319,-1.67526925419718,-0.0366902984678745,0.1363136321306228,-0.3344818949699402
1774471237781718800,1.22471875,-2.572539288699627,-0.9270563932180405,-1.216356004037708,-0.0824377611279487,0.1458214521408081,-0.1391942352056503
1774471237791731000,1.23473095703125,-2.520658294814825,-1.2505746461123228,-1.006682741510123,-0.1355997771024704,0.1539707332849502,0.0169671364128589
1774471237801744000,1.244743896484375,-2.0029712225168943,-1.3465093012571334,-0.9944998440243304,-0.1804147213697433,0.1196366995573043,0.1193362772464752
1774471237811756800,1.2547568359375,-1.4045096548050642,-1.15126788418591,-0.5647612504228949,-0.1900668144226074,0.0648669302463531,0.1644936203956604
1774471237821769700,1.264769775390625,-0.8757225118219852,-0.8572644795894623,-0.1496876899791881,-0.1841504424810409,0.0095551488921046,0.1654004454612732
1774471237831783000,1.274782958984375,-0.347875864559412,-0.5714677623242139,0.0991216876830905,-0.1619463413953781,-0.0485592857003212,0.126685544848442
1774471237841795600,1.284795654296875,0.2431061610519886,-0.2574538353562355,0.392548242239654,-0.1256551295518875,-0.1043557375669479,0.0622618645429611
1774471237851808800,1.294808837890625,0.6478869851380586,-0.0443657959491014,0.6654032064758241,-0.0805552825331687,-0.1491975039243698,-0.00888900924474
1774471237861822000,1.304822021484375,0.8830921638071536,0.1156423951774835,0.6997662985224277,-0.0466619245707988,-0.0842020437121391,-0.1447528898715973
1774471237871833900,1.314833740234375,1.4560919580042362,0.4838993689864873,0.4931306866576895,-0.0206958390772342,-0.0338485948741436,-0.3522698879241943
1774471237881846800,1.3248466796875,1.7560393656969069,0.4218342502176761,0.4354144472807645,-0.0250596962869167,0.0171849802136421,-0.5585176348686218
1774471237891859700,1.334859619140625,1.4414321490108966,0.2665004806429147,0.4410136920599267,-0.0423880852758884,0.0072010550647974,-0.7018130421638489
1774471237901873000,1.344872802734375,0.5943821894437075,0.2862725180834531,0.463299064028263,-0.045090552419424,-0.0986104905605316,-0.7561869621276855
1774471237911885800,1.3548857421875,-0.3023983079761266,0.3742985920608043,0.4083636144762858,-0.0617025531828403,-0.1195157766342163,-0.7089565992355347
1774471237921898800,1.364898681640625,-1.3951356772601604,0.3538993626326322,0.2118465514460578,-0.0259914826601743,0.1602460145950317,-0.5521746873855591
1774471237931911700,1.37491162109375,-1.895034579411149,0.5964595802396535,0.7058325397588312,0.0542144104838371,0.1319517791271209,-0.2955956161022186
1774471237941924900,1.3849248046875,-2.1948703434228896,0.8566729434370994,0.796365920381993,0.0657037645578384,0.0594178773462772,-0.02161724306643
1774471237951936800,1.394936767578125,-1.7900182076662778,0.8547498664200306,-0.00181121414043,0.0350326709449291,0.1191352680325508,0.1407053619623184
1774471237961950000,1.404949951171875,-1.174966739681363,0.8425637540638446,-0.4031102605253457,0.036025121808052,0.1330968588590622,0.2803743481636047
1774471237971962600,1.414962646484375,-1.2219184604704378,1.02372053168118,-0.2524864222072064,0.0369867905974388,0.1329708993434906,0.4139894247055053
1774471237981975800,1.424975830078125,-1.4027110809504986,0.8950608340203762,-0.0019190584290772,0.0318603664636611,0.15607550740242,0.5506032705307007
1774471237991989000,1.434989013671875,-1.2576941227287053,0.7117085921853781,-0.0271307296402752,0.0270855836570262,0.1944271624088287,0.6726096272468567
1774471238002001700,1.445001708984375,-1.2014911739915608,0.8647539585620164,0.3255195827793329,0.0245514269918203,0.2701382637023926,0.7720893621444702
1774471238012014800,1.455014892578125,-1.092505314093828,0.9383651382178068,0.1897809597082436,-0.0227508395910263,0.2766720652580261,0.8365959525108337
1774471238022027800,1.46502783203125,-0.6620803456634282,0.8353402325510978,-0.805776722805947,-0.1193236634135246,0.1789130866527557,0.8042163848876953
1774471238032040000,1.4750400390625,0.2309153725206851,1.0668892268002033,-2.3779567739285525,-0.268964022397995,-0.0256744213402271,0.5982392430305481
1774471238042052900,1.485052978515625,1.3750672872215508,1.0600380457311869,-3.0586200933784244,-0.4758674800395965,-0.3422165513038635,0.2157769501209259
1774471238052065800,1.495065673828125,1.946983962357044,0.2302671377450227,-2.506500882385671,-0.7325416803359985,-0.3341900408267975,-0.0300027206540107
1774471238062078700,1.50507861328125,1.9500421808838844,-0.1452607038497924,-2.556240188066661,-0.956726849079132,-0.2243285328149795,-0.2611435949802398
1774471238072092000,1.515091796875,2.6673358797252176,-0.1109405010968446,-2.2617273726433518,-0.8866947889328003,-0.1381260156631469,-0.5501887798309326
1774471238082104600,1.5251044921875,3.7570723136276,-0.6033721361070871,2.6836791117608545,-0.1884835660457611,0.0033228751271963,-0.9256449341773988
1774471238092117800,1.53511767578125,4.033528955617546,-2.146274362558126,8.044807500982284,0.497294545173645,-0.2420895397663116,-1.2574666738510132
1774471238102129700,1.545129638671875,3.022152357202768,-3.2194004379212853,6.510751428809762,0.8659753799438477,-0.304343044757843,-1.5200824737548828
1774471238112142800,1.555142822265625,2.437669045960903,-2.42659644780457,1.9929438956297931,0.7924391031265259,-0.2046931535005569,-1.6495089530944824
1774471238122156000,1.565156005859375,1.775741260510683,-1.0621510923624038,-1.9845012075856328,0.3917526006698608,-0.1937692165374755,-1.6451889276504517
1774471238132168700,1.575168701171875,0.6019868192285299,-0.4692044886797666,-3.162365714535117,-0.064602680504322,-0.228067010641098,-1.4949086904525757
1774471238142182000,1.585181884765625,-0.6976186920344829,-0.2707809344410896,-3.0367496223539114,-0.4433569312095642,-0.0424422994256019,-1.210979461669922
1774471238152194800,1.59519482421875,-1.4008441180348397,0.1022673652976751,-2.178216438002884,-0.6722316145896912,0.2358276844024658,-0.8421404361724854
1774471238162207700,1.605207763671875,-1.6645605209171772,0.212998607558012,-0.8047838393110781,-0.7418335676193237,0.5142068862915039,-0.520997941493988
1774471238172220700,1.615220703125,-1.3167793489038944,0.145884388706088,0.9073102939363568,-0.6618271470069885,0.5008410215377808,-0.3769217431545257
1774471238182232800,1.62523291015625,-0.6812450648605823,0.3448427804738282,2.1016469930633903,-0.5128414630889893,0.4705587327480316,-0.2940717041492462
1774471238192245800,1.635245849609375,-0.2863333083599805,0.4508060776799917,2.353188097244501,-0.3674546778202057,0.4355853199958801,-0.2337079495191574
1774471238202259000,1.645259033203125,-0.0828717599540948,0.0880780964255332,2.406176029457897,-0.1930250078439712,0.3951786160469055,-0.1622557938098907
1774471238212271600,1.655271728515625,-0.1605494583964347,-0.5059551334500313,1.7731356080569325,-0.0479082837700843,0.2381674349308014,-0.0680877491831779
1774471238222284800,1.665284912109375,-0.4473351866990327,-0.6794295398712158,0.3945494990594685,-0.0343817695975303,0.0676601827144622,-0.0095121758058667
1774471238232298000,1.675298095703125,-0.6615507688313722,-0.8838175554722547,-0.3051434419658035,-0.0561967901885509,-0.119276687502861,-0.0180172473192214
1774471238242310700,1.685310546875,-0.4873989015400409,-0.870799083945155,0.2633022691234946,-0.0475464649498462,-0.3154669404029846,-0.0562046207487583
1774471238252323800,1.69532373046875,-0.6421499027907848,-0.4075368447959422,0.8087808730579912,-0.0152250099927186,-0.4459042847156524,-0.0789906308054924
1774471238262335700,1.705335693359375,-1.0638894604623317,0.0376058002948761,0.6414684233326464,-0.0003188127884641,-0.4991742670536041,-0.0453788079321384
1774471238272349000,1.715348876953125,-1.273571490818262,0.1879687957197427,0.3303277137134224,0.0035816528834402,-0.4404574334621429,0.0446288473904132
1774471238282361900,1.72536181640625,-1.4963649316817522,0.3320031726449727,0.1965920279625803,0.0028933263383805,-0.2243923544883728,0.2008356004953384
1774471238292374800,1.735374755859375,-1.8433266040056944,0.5589549022316932,0.0235823164436966,0.0010192599147558,-0.1091054379940033,0.3444036841392517
1774471238302387700,1.7453876953125,-1.10606037671566,0.6651011547893285,-0.2308902380794286,-0.0276921764016151,0.0199443213641643,0.4212669134140014
1774471238312401000,1.75540087890625,-0.3098018622308969,0.5719231048762798,-0.2574081695836037,-2.11345031857e-05,0.1782362163066864,0.4469616115093231
1774471238322413600,1.76541357421875,0.0029214404046535,0.6857242561012507,0.1732192626163363,0.080998882651329,0.3137341439723968,0.3940582275390625
1774471238332426800,1.7754267578125,0.5669593449890613,0.4695522792041301,0.42307424034141,0.1121240481734275,0.2572594285011291,0.3054271638393402
1774471238342438700,1.785438720703125,1.0009662635594605,-0.1799070698171853,0.1390274354834109,0.1046087145805358,0.1552079319953918,0.2342826426029205
1774471238352451800,1.795451904296875,0.9899988793432712,-0.1850315732240676,-0.2394495382405817,0.042733896523714,0.0590949766337871,0.1728821247816085
1774471238362465000,1.805465087890625,1.0403425806581974,-0.1249912382811307,-0.5698834888074547,-0.0418162494897842,-0.0559065453708171,0.1264996528625488
1774471238372477700,1.815477783203125,0.9511334343761204,-0.0781283648192882,-0.8454512921988964,-0.1584118455648422,-0.1743825823068618,0.0995330289006233
1774471238382491000,1.825490966796875,0.5691051248461008,-0.0932142902702093,-1.282756667792797,-0.2742292582988739,-0.1899394690990448,0.0768223628401756
1774471238392503800,1.83550390625,0.2106166808575391,-0.1805102964073419,-1.3328867263570428,-0.3761883676052093,-0.1716582030057907,0.0697514042258262
1774471238402516700,1.845516845703125,-0.1187947217285633,-0.0905868643760681,-1.2203946849692613,-0.4631153047084808,-0.1401100754737854,0.08694988489151
1774471238412528600,1.855528564453125,-0.4046516447484493,-0.161759418708086,-0.780865861172229,-0.4976519644260406,-0.1651568412780761,0.1472923308610916
1774471238422541800,1.865541748046875,-0.6366051281452179,-0.4027297367751598,-0.2111333982080221,-0.4838011860847473,-0.1824330538511276,0.2092855423688888
1774471238432554800,1.8755546875,-0.8648451439768076,-0.610884411433339,-0.0272409850817173,-0.454534113407135,-0.1507129371166229,0.2200606912374496
1774471238442568000,1.88556787109375,-0.7818500499039888,-0.6021925709336996,-0.2302562510248273,-0.4247501790523529,-0.0839952081441879,0.1928015053272247
1774471238452580600,1.89558056640625,-0.466947065141797,-0.4356301358580589,-0.3318513430841266,-0.3687217831611633,-0.0114107523113489,0.1409731954336166
1774471238462593800,1.90559375,-0.0749772073119878,-0.2952747397065162,0.0162724318217486,-0.2762606739997864,0.0486875921487808,0.0603538677096366
1774471238472607000,1.91560693359375,0.5388479337483644,-0.3986152871936559,0.5586315885614603,-0.1301726996898651,0.024732457473874,-0.0354693308472633
1774471238482619600,1.92561962890625,0.9726140293002128,-0.4956687172353267,1.2602259792938828,-0.0119488984346389,-0.2556540369987488,-0.0849191099405288
1774471238492631800,1.9356318359375,0.6680781247735023,-0.6573807896703481,1.0367946789182725,0.0219294391572475,-0.6214032173156738,-0.0281386505812406
1774471238502644700,1.945644775390625,-0.1435761117637157,-0.5896423014402389,0.4263901599563658,0.0573481991887092,-0.8403122425079346,0.0768151879310607
1774471238512658000,1.955657958984375,-0.5048983178734779,-0.0518523523122072,0.5999664923820645,0.1490267217159271,-0.9864146113395692,0.1854117065668106
1774471238522670800,1.9656708984375,-0.8357131575167178,0.1899234369188547,0.8153906465865671,0.23073410987854,-1.1459957361221311,0.3056930303573608
1774471238532683800,1.975683837890625,-1.1895862166643143,0.1142529866456985,0.2776258318997919,0.3313528597354889,-1.1676265001296997,0.4011404514312744
1774471238542696700,1.98569677734375,-1.3999568138062952,-0.2849912461012601,0.4377756965193897,0.6273461580276489,-1.312811017036438,0.560888946056366
1774471238552710000,1.9957099609375,-1.9087901330411432,-0.8480196813821792,1.8252065715558825,1.10748291015625,-1.6008530855178833,0.8478407859802246
1774471238562721800,2.0057216796875,-2.266284889817238,-0.7539537427186965,2.4372623648561538,1.6143460273742676,-1.519081711769104,0.9705570340156556
1774471238572734700,2.015734619140625,-1.7045207753837108,-0.1644973192393779,2.4015366792194546,2.099391222000122,-1.5365924835205078,1.1859345436096191
1774471238582747600,2.02574755859375,-1.248812897136807,0.3231447434067725,2.259334486157447,2.349694013595581,-1.7883296012878418,1.523267388343811
1774471238592760800,2.0357607421875,-1.5964122828423977,0.6119692840605974,0.9203846603691578,2.1516029834747314,-1.8029708862304688,1.6089740991592407
1774471238602774000,2.04577392578125,-1.751882246017456,1.0232470689505335,-0.0843660170998424,1.5745538473129272,-1.614344358444214,1.5063613653182983
1774471238612786700,2.05578662109375,-1.589762761825323,1.75534378464818,-0.7828270782425999,0.7600188255310059,-1.43905770778656,1.3757230043411257
1774471238622800000,2.0657998046875,-1.3323077574253082,1.6749065583646296,-1.0721509467206896,0.0956524536013603,-1.2942315340042114,1.240343689918518
1774471238632812800,2.075812744140625,-1.0394622906923294,0.4370885179728269,-0.0528995963428169,0.0112957619130611,-1.176071047782898,1.134109616279602
1774471238642825000,2.085824951171875,-0.8952490500688552,-0.4352040194004773,0.9290781083039938,0.2178605496883392,-1.03453266620636,1.1156110763549805
1774471238652837600,2.095837646484375,-0.8967308130592108,-0.6634837827205657,1.1433948127232492,0.3954033851623535,-0.9040481448173524,1.101767659187317
1774471238662850800,2.105850830078125,-0.8663841901123523,-0.3606365619331598,1.090159043228626,0.5480737686157227,-0.8503976464271545,1.1397849321365356
1774471238672863700,2.11586376953125,-0.908064107978344,-0.4202104484081268,1.2158717276521027,0.7372332811355591,-0.84334397315979,1.225154161453247
1774471238682877000,2.125876953125,-0.7659650830298662,-0.833868406432867,1.632939347989857,0.9419026970863342,-1.0191662311553955,1.355056881904602
1774471238692889600,2.1358896484375,-0.5352157147258519,-0.8850549883127212,1.0197738398820162,0.9980740547180176,-1.394309163093567,1.5355888605117798
1774471238702902800,2.14590283203125,-0.4109486990660428,-0.8843716822236776,-0.0510502421490848,0.8410319685935974,-1.2663298845291138,1.433201789855957
1774471238712916000,2.155916015625,-0.0656190118581056,-0.5653899037152529,-0.9964935020595788,0.6648899912834167,-1.3743194341659546,1.4800682067871094
1774471238722927900,2.165927978515625,-0.1842208413630723,-0.2082809313863515,-0.5333883531682193,0.5239409804344177,-1.396225929260254,1.5111355781555176
1774471238732940800,2.17594091796875,-0.4548001157522201,0.191164961412549,-0.4976708508379757,0.3376526236534118,-1.3321033716201782,1.5471796989440918
1774471238742953700,2.18595361328125,-0.7228431496620178,0.8220785999178886,-0.6219369897149503,0.1525293588638305,-1.1887832880020142,1.583762526512146
1774471238752967000,2.195966796875,-0.7093985616773366,1.084694932603836,0.0842626297906041,0.0335158966481685,-1.1308690309524536,1.4827715158462524
1774471238762979800,2.205979736328125,-0.3057178077876568,1.15468090749979,0.5376107931688427,0.0007883616490289,-1.3083148002624512,1.3601455688476562
1774471238772992800,2.21599267578125,-0.3671604107439518,1.7393296384364365,0.1764262419641017,0.0023993076756596,-1.4442882537841797,1.2530113458633425
1774471238783005700,2.226005615234375,-0.3865431566059589,2.025482329532504,0.1919704325765371,0.0513646118342876,-1.4725364446640017,1.1438878774642944
1774471238793017900,2.236017822265625,0.4956652101039886,1.2086182493925093,0.6905804639607668,0.0748635455965995,-1.525920271873474,0.9962704181671144
1774471238803030800,2.24603076171875,1.2869091112971305,0.4322071756720542,0.3685957042440771,-0.0319433808326721,-1.5680065155029297,0.8325330018997192
1774471238813043700,2.256043701171875,1.4068272840976714,0.3461404190689325,-0.5287783751547336,-0.302691787481308,-1.5909247398376465,0.6874615550041199
1774471238823056600,2.266056640625,1.284789927186072,0.1121639054119586,-1.3218793023914095,-0.5747492909431458,-1.6725274324417114,0.5633262991905212
1774471238833069800,2.27606982421875,0.964350058823824,-0.2905254993528127,-1.696405857989192,-0.7567989826202393,-1.7391842603683472,0.4808340966701507
1774471238843083000,2.2860830078125,0.5868780974239111,-0.4461491917848587,-1.6678379351526498,-0.8975963592529297,-1.675586819648743,0.4904651939868927
1774471238853095700,2.296095703125,0.135826520550251,-0.1125461827278137,-1.2472010780259966,-0.9797157049179076,-1.3308526277542114,0.5645298361778259
1774471238863108900,2.30610888671875,0.0203603587225079,-0.1292576635539531,-0.6831780787497759,-0.9918413758277892,-0.9685006737709044,0.6828927993774414
1774471238873120800,2.316120849609375,0.1299079441562295,-0.4428682704180479,0.0272939573779702,-0.961072027683258,-0.658983588218689,0.749650776386261
1774471238883134000,2.326134033203125,0.5600614021688699,-0.0997428152561187,0.3781313020914792,-0.910202145576477,-0.5340381264686584,0.7240344882011414
1774471238893147000,2.33614697265625,1.0853238781571388,0.1604156028836965,0.5288289362981915,-0.846781849861145,-0.5453029870986938,0.6408544182777405
1774471238903159800,2.346159912109375,1.257441024750471,0.0758709412813186,1.006661260330677,-0.7889328598976135,-0.5583266019821167,0.5362133383750916
1774471238913172700,2.3561728515625,1.214980185639858,-0.0545236173480749,1.0252674688622354,-0.7326514720916748,-0.5218613147735596,0.4187133312225342
1774471238923186000,2.36618603515625,1.1266864006370303,0.3050280719578266,0.8432701487675308,-0.6189144849777222,-0.3585507571697235,0.3357991874217987
1774471238933198600,2.376198486328125,0.92519235291183,0.4884837741672992,1.1624293296694754,-0.5352020263671875,-0.2143097072839737,0.245070070028305
1774471238943210800,2.386210693359375,0.9425953231334686,0.2408037293285131,0.4889657124653458,-0.5779033303260803,-0.1851442754268646,0.1700054407119751
1774471238953223700,2.3962236328125,0.5681950242638588,0.0697469054430723,-0.7773539075285196,-0.6685977578163147,-0.2238775640726089,0.1625137031078338
1774471238963236900,2.40623681640625,0.2428533553346991,-0.1660001250177621,-0.6367790234073997,-0.797421395778656,-0.2132256478071212,0.1675808876752853
1774471238973249800,2.416249755859375,0.4742155948400497,-0.6766232502788305,-0.1798765285484492,-0.9173113107681274,-0.2000728249549865,0.1922441571950912
1774471238983262700,2.4262626953125,0.5294333319321275,-1.2248638662725686,0.447092317853868,-0.960638463497162,-0.0653126984834671,0.216908112168312
1774471238993276000,2.43627587890625,0.634036738961935,-1.2575871552228928,0.9359202292837202,-0.9504348039627076,0.101460576057434,0.2492972016334533
1774471239003288800,2.446288818359375,1.0651900216668844,-1.0251064330816269,1.1337100156635045,-0.8883680105209351,0.181530624628067,0.2614896893501282
1774471239013301800,2.4563017578125,1.5278233152627945,-0.7479168006420135,1.0934931560873984,-0.8256636261940002,0.2322891354560852,0.2458129674196243
1774471239023313700,2.466313720703125,1.5997592551827429,-0.626934798002243,0.8772370080381632,-0.7454482913017273,0.3150882422924042,0.174172356724739
1774471239033326800,2.476326904296875,1.5798784966707229,-0.459326653265953,0.8759386387906968,-0.6375356912612915,0.4292318522930145,0.0172626357525587
1774471239043339800,2.48633984375,1.2355778602495788,0.0656032297670841,0.5294689877673984,-0.5351651906967163,0.4813338220119476,-0.1587526500225067
1774471239053353000,2.49635302734375,0.4248641194328665,0.7450134804159403,-0.231161748497188,-0.3809521794319153,0.3034186661243438,-0.2409737557172775
1774471239063365600,2.50636572265625,-0.535252831865847,1.2009212651491163,-0.0809820006847381,-0.2472996413707733,0.1483071595430374,-0.296640545129776
1774471239073378800,2.51637890625,-0.947587140071392,1.1948486672371623,0.1914011082559824,-0.2205724120140075,0.116648830473423,-0.3508606255054474
1774471239083392000,2.52639208984375,-0.9209329419016836,1.044181135907769,0.2753941273249685,-0.224966675043106,0.1192952618002891,-0.3955847918987274
1774471239093404700,2.53640478515625,-1.039468720433116,0.9461644137918948,0.5030325240015984,-0.2213335931301117,0.1609998494386673,-0.3915024399757385
1774471239103416600,2.54641650390625,-1.2839479234039783,0.7247849313795566,0.4383214207686484,-0.2920594811439514,0.1945351511240005,-0.3017523884773254
1774471239113429800,2.5564296875,-1.4037556215673683,0.3800193077951669,-0.0560689470939338,-0.4747398197650909,0.1561789810657501,-0.1677743643522262
1774471239123443000,2.56644287109375,-1.3250704996481537,0.302477802953124,-0.3685677933238446,-0.6165648698806763,-0.0838573053479194,-0.0185763221234083
1774471239133456000,2.576455810546875,-0.9481532495215534,0.6571054798603058,-0.361315922499448,-0.5034175515174866,-0.2812912762165069,0.060989074409008
1774471239143468800,2.58646875,-0.3912891820892691,0.9115542881816624,-0.4303149321846664,-0.282278448343277,-0.2332803457975387,0.0942525714635849
1774471239153481700,2.596481689453125,-0.1955275405362248,0.4176198473930358,-0.5397349457159638,-0.1212535947561264,-0.0590038821101188,0.1440595537424087
1774471239163495000,2.606494873046875,-0.1438826934948563,-0.0800122788697481,-0.3480664186954498,-0.0349011868238449,0.1509032249450683,0.1348113119602203
1774471239173506800,2.6165068359375,0.1964618987768888,-0.1253255848020315,-0.0510235002726316,-0.0099431099370121,0.3466207981109619,0.031696643680334
1774471239183519700,2.626519775390625,0.878673178321123,0.2795025855571031,0.2099143778070807,0.0308257266879081,0.4605994522571563,-0.1610788255929947
1774471239193532700,2.63653271484375,1.282158117377758,0.6044973407447338,0.3626246670104563,0.0612816400825977,0.4076158404350281,-0.3151893019676208
1774471239203545900,2.6465458984375,1.1790370578601956,0.6460691220611333,0.472111316037178,0.0634065717458725,0.2916405200958252,-0.4348957240581512
1774471239213559000,2.65655908203125,1.2319330740064385,0.5342389786481857,0.3808969674125314,0.0713041722774505,0.2042142748832702,-0.5165916681289673
1774471239223571700,2.66657177734375,1.132670151221752,0.0723532885491848,0.4306776280172169,0.1241455599665641,0.159967228770256,-0.5349208116531372
1774471239233585000,2.6765849609375,0.9264233560115098,-0.3180079650402069,0.6577806026428937,0.1694528460502624,0.149976909160614,-0.5234045386314392
1774471239243597800,2.686597900390625,0.915527867987752,-0.422895741969347,0.5559089586645365,0.1842215657234192,0.1799354702234268,-0.541786789894104
1774471239253610000,2.69660986328125,1.1127739028796553,-0.3150730806320905,-0.1118085161030292,0.1464949548244476,0.2252084016799926,-0.6273810267448425
1774471239263622700,2.70662255859375,1.085901385784149,-0.1749175909668207,-0.5913384378336369,0.0864581540226936,0.2501543462276459,-0.7253987789154053
1774471239273635800,2.7166357421875,1.0135092265293002,0.0288677825659513,-0.5210486576855182,0.0327509827911853,0.3163882493972778,-0.8265874981880188
1774471239283648800,2.726648681640625,0.940552419129014,0.1703074668228626,-0.1965225429229438,0.0263466648757457,0.4413729310035705,-0.8985785841941833
1774471239293662000,2.736661865234375,0.5615723912537097,0.1682820984750986,0.1684611083038151,0.0553652644157409,0.5858891010284424,-0.9421018362045288
1774471239303674600,2.746674560546875,0.5370742020741105,0.2860568295061588,0.3046609922111034,0.0839232578873634,0.6864809393882751,-1.0053139925003052
1774471239313687800,2.756687744140625,0.6042252458050846,0.3488333114147186,0.3352941770143807,0.0717052072286605,0.6691626906394958,-1.0589593648910522
1774471239323701000,2.766700927734375,0.4035714482963085,0.3105325145930052,0.3641683893211185,0.039442703127861,0.5462587475776672,-1.0962282419204712
1774471239333713000,2.776712890625,0.2512862526372075,0.4839040451616048,0.1044920556098222,0.0198567528277635,0.4123843014240265,-1.1462301015853882
1774471239343725600,2.7867255859375,0.1983653943106532,0.560837062716484,-0.1452310393638908,0.0097220400348305,0.2989456057548523,-1.1838423013687134
1774471239353738800,2.79673876953125,0.117213590016961,0.1479500890642404,-0.1583008026868105,0.0056426101364195,0.2414649873971939,-1.1895157098770142
1774471239363752000,2.806751953125,-0.1801326952666044,-0.1102683009237051,-0.1451591431714594,-0.0291417352855205,0.2149569392204284,-1.1408655643463137
1774471239373764900,2.816764892578125,-0.614890724465251,-0.0832856014519929,-0.454112133488059,-0.1018841192126274,0.1434971392154693,-1.0524563789367676
1774471239383777800,2.82677783203125,-0.8771803094148636,0.0999544121801853,-0.7771940407916903,-0.1764270663261413,0.1083511039614677,-0.9262154698371888
1774471239393790700,2.836790771484375,-1.2791910842657088,0.1792524053007364,-0.5900606729827821,-0.2157419770956039,0.0809599608182907,-0.7481918931007385
1774471239403803000,2.846802978515625,-1.7923925355821846,0.2193494378894567,-0.3874128521125763,-0.2398030459880828,0.0275724530220031,-0.5219929218292236
1774471239413815800,2.85681591796875,-2.255437917110324,0.6158581081926823,-0.3838069365750998,-0.2834341526031494,-0.030974481254816,-0.2599575519561767
1774471239423828700,2.866828857421875,-2.5958582049667838,1.0215466947734355,-0.3564543078124523,-0.3713567852973938,-0.0817267596721649,0.0203507561236619
1774471239433841700,2.876841552734375,-2.675078456676006,1.1991723756551742,-0.3246131354589015,-0.4510513246059418,-0.1391650140285492,0.2708282470703125
1774471239443854800,2.886854736328125,-2.479761636281013,1.1643769566059112,-0.1839523996852338,-0.4946829974651336,-0.2288614213466644,0.4766235947608948
1774471239453868000,2.896867919921875,-2.136255657368898,1.0854062957435846,0.1129736874248832,-0.4979259371757507,-0.2968828082084656,0.6491069197654724
1774471239463880700,2.906880615234375,-1.996039377427101,0.9006611382454633,0.2161154974695295,-0.4759047627449035,-0.3379207253456116,0.8159679770469666
1774471239473894000,2.916893798828125,-1.9019664245009424,0.6870704100131988,-0.1844211131755262,-0.4803849756717682,-0.3830735683441162,1.0181024074554443
1774471239483905800,2.92690576171875,-1.944692052027583,0.5162777900218963,-0.6507284921742975,-0.5321244597434998,-0.3890487849712372,1.2827916145324707
1774471239493919000,2.9369189453125,-2.223532958805561,0.321847689333558,-0.8169562884680927,-0.6310033798217773,-0.3439625203609466,1.5893282890319824
1774471239503931600,2.946931640625,-2.345843287439644,0.3468400917708873,-0.7436713450919836,-0.7215179800987244,-0.2867148220539093,1.8663809299468996
1774471239513944800,2.95694482421875,-2.044072463712096,0.5357517212986945,-0.4115093286234885,-0.756591260433197,-0.2675379514694214,2.078074216842652
1774471239523957800,2.966957763671875,-1.533047771912813,0.6192530113279819,0.2259006861638277,-0.7366575598716736,-0.2394408732652664,2.185248851776123
1774471239533971000,2.976970947265625,-0.8052478766262531,0.373525269600749,0.8072179345902055,-0.6770762801170349,-0.1625303775072097,2.2241475582122803
1774471239543983600,2.986983642578125,-0.1462111364424228,0.0198129539728164,1.2717878222718837,-0.5973297357559204,-0.1682328879833221,2.2191567420959477
1774471239553996800,2.996996826171875,0.4261018445342779,-0.2156482452839613,1.5120824330344795,-0.5141906142234802,-0.2049174010753631,2.1858601570129395
1774471239564008700,3.0070087890625,0.5089329802170396,-0.1314350075930357,1.3662114883318544,-0.4639992713928222,-0.283943772315979,2.155712604522705
1774471239574022000,3.01702197265625,0.6198375332176685,0.3366816858500242,0.7316127315729856,-0.4765084087848663,-0.3996378779411316,2.103628873825073
1774471239584034600,3.02703466796875,0.9076549426555632,0.841675280791521,-0.0138307742906734,-0.5196090936660767,-0.4821772873401642,2.007635593414306
1774471239594047700,3.0370478515625,0.9663698742136358,1.0232125821590423,-0.2451347077375277,-0.5568206310272217,-0.4623644351959228,1.8964924812316892
1774471239604061000,3.04706103515625,0.798571467602253,1.025493971094489,0.0310650003492832,-0.6023499965667725,-0.4145764410495758,1.7981925010681152
1774471239614073900,3.057073974609375,0.6503104128926992,0.6301888313621282,-0.2096199249051511,-0.6634514331817627,-0.3440151810646057,1.688368320465088
1774471239624086800,3.067086669921875,0.5019172562360763,0.1913011550128459,-0.6966069577086716,-0.6212204098701477,-0.2678389251232147,1.506966233253479
1774471239634098700,3.0770986328125,0.8535632869839668,0.0005430208355188,-0.6379195717446505,-0.5302335619926453,-0.1462608128786087,1.2029304504394531
1774471239644112000,3.08711181640625,1.3793098932273684,0.1404658707886934,0.0317015446871519,-0.460402637720108,-0.1069745644927024,0.9577173590660096
1774471239654124800,3.097124755859375,1.4152508290499448,0.7331441789239644,1.016876803266257,-0.3524380922317505,-0.0839779078960418,0.731428325176239
1774471239664137700,3.1071376953125,1.3068927456617354,1.0133002599537373,1.4281906823828816,-0.2447318732738495,-0.0250051282346248,0.5131063461303711
1774471239674150700,3.117150634765625,1.4154589188426732,1.1170745226830243,0.9245108003884552,-0.2349439561367035,0.0277369134128093,0.3599293231964111
1774471239684163800,3.127163818359375,0.9469415356442332,0.9412971000164748,-0.2196161808005534,-0.3475535809993744,0.0668955445289611,0.3358831703662872
1774471239694177000,3.137177001953125,-0.261608032426238,0.6167810682564974,-1.660248064545542,-0.5369522571563721,0.0305505879223346,0.4064449369907379
1774471239704190000,3.14718994140625,-0.9861623699203133,0.3250724965989589,-2.5159587388217446,-0.7739195823669434,-0.0654981806874275,0.5039907097816467
1774471239714201900,3.157201904296875,-0.878234056251496,0.2184405063509941,-3.0759999749854203,-0.9927493929862976,-0.1057982072234153,0.6250430345535278
1774471239724215000,3.167215087890625,-1.114357957200706,-0.1203799450933933,-2.612987326683104,-1.088067650794983,-0.1529625356197357,0.756837010383606
1774471239734228000,3.17722802734375,-0.8827063793599605,-0.78904668340981,-0.7855249390244483,-1.0749012231826782,-0.3478872776031494,0.7115379571914673
1774471239744241000,3.187240966796875,0.6485282056510449,-0.9890917013704776,0.6314210765708238,-0.9675257205963136,-0.4873900413513183,0.5658484697341919
1774471239754253800,3.19725390625,-0.1808510726690292,-0.9956599738448858,2.3278704083755613,-0.6214444637298584,-0.2723102271556854,0.548875629901886
1774471239764267000,3.20726708984375,-0.687754592885077,-0.9931459451973438,4.0587572126373646,-0.172550082206726,0.0208326671272516,0.5489823222160339
1774471239774280200,3.2172802734375,0.4402303231298923,-1.2270832958877087,4.163294860954583,0.2312727570533752,0.0792011618614196,0.5741851329803467
1774471239784292000,3.2272919921875,0.550043427632004,-1.6649591648459434,3.8361619246944794,0.5554571747779846,-0.0067555513232946,0.6262962818145752
1774471239794304800,3.2373046875,0.7297820090144872,-1.913380383440852,2.824720152089,0.7725013494491577,-0.0850066840648651,0.6667805910110474
1774471239804318000,3.24731787109375,1.0810213586576285,-1.7678923005759717,1.4403757718257606,0.8749372959136963,-0.2476428747177124,0.6819908022880554
1774471239814331100,3.2573310546875,0.8258196861423551,-1.3780015871077775,0.3270838364213705,0.8591706156730652,-0.0389503836631774,0.7242655754089355
1774471239824343800,3.26734375,-0.5997656360477209,-1.481487680545449,-0.4201610563084483,0.6581225395202637,0.309413880109787,0.8723475337028503
1774471239834357000,3.27735693359375,-2.2071271829277275,-1.3968068253427743,-2.1758900408819315,0.2291664183139801,0.5114295482635498,1.1777105331420898
1774471239844370000,3.287369873046875,-2.522369774907827,-0.5020902747154236,-3.621827976879477,-0.289871871471405,0.5326367020606995,1.410920262336731
1774471239854383000,3.297383056640625,-1.0564490813285112,0.3022983547329902,-3.486570488388836,-0.7036948800086975,0.5117066502571106,1.5095802545547483
1774471239864395000,3.30739501953125,0.2888689643174409,0.6844219413310288,-1.836714930780977,-0.7723209857940674,0.6228594779968262,1.426899552345276
1774471239874408000,3.317407958984375,0.3905108911931514,1.3195669337958096,1.0167832797639071,-0.3337961435317993,0.8124576210975647,1.1613757610321045
1774471239884420900,3.3274208984375,0.3650625616818666,1.416484754759073,3.325618294410407,0.0039444188587367,0.7886525988578796,1.0524784326553345
1774471239894434000,3.33743408203125,0.8873205951571465,0.9339864847421644,3.9962072329610585,0.2332542985677719,0.8516656160354614,0.9040714502334596
1774471239904447000,3.347447021484375,1.5473638820350168,1.181844808757305,3.720093997581303,0.4219252169132232,0.8131659030914307,0.813593864440918
1774471239914460000,3.3574599609375,0.7932827135443687,0.8806734122276305,2.5474364116251467,0.5271285772323608,0.873361349105835,0.8001603484153748
1774471239924473000,3.36747314453125,-0.0911462335581891,0.6466974830925464,1.3136268762223422,0.538911759853363,1.056092619895935,0.8659817576408386
1774471239934486000,3.377486083984375,-0.7098141567409039,0.6659446198761463,-0.1198878415943589,0.383623868227005,0.9545036554336548,0.9189451336860656
1774471239944498200,3.387498291015625,-0.1567664327263832,0.5649041660249233,-1.0562013171125202,0.2061434835195541,0.792093813419342,0.902862548828125
1774471239954510800,3.3975107421875,-0.2930453732192516,1.1441086600810288,-1.3106390925832092,0.0230911094695329,0.5853089690208435,0.8260063529014587
1774471239964524000,3.40752392578125,0.1543172860085964,0.8617828337967395,-2.04537492461279,-0.1807482987642288,0.3060690760612488,0.663223385810852
1774471239974537000,3.417536865234375,0.1580266801868565,-0.2720627909451723,-2.0612268660001454,-0.2974229753017425,0.2063456773757934,0.5499839782714844
1774471239984550000,3.4275498046875,-0.878904648989439,-0.7236445291727781,-1.35354636028707,-0.4160010814666748,0.0695783644914627,0.5589958429336548
1774471239994562800,3.437562744140625,-0.7429261527478694,-0.6338187122970819,-0.8400306553896516,-0.507061243057251,-0.0004188255406916,0.6711652278900146
1774471240004576000,3.447575927734375,-0.2888754305908456,-0.3497065871179103,-0.0163896649932488,-0.441191017627716,0.0602553002536296,0.7786757946014404
1774471240014589200,3.457589111328125,-0.1309387485086917,-0.1263975979477167,0.9531164979521184,-0.292206346988678,0.2056388556957245,0.7223877310752869
1774471240024601000,3.46760107421875,0.6299065072894096,-0.0535340217888355,0.5638287188131362,-0.2006809413433075,0.2858263552188873,0.4725808203220367
1774471240034613800,3.47761376953125,0.8800818760752678,0.1048567972689867,-0.0891586399375461,-0.1816529184579849,0.2020310461521148,0.3712960183620453
1774471240044627000,3.487626953125,0.1332441759068519,0.2427887656658887,0.5018054664246737,-0.1989056766033172,0.1957431435585022,0.3100695312023163
1774471240054640000,3.49764013671875,0.2168787369269877,-0.1872802289336919,0.1782018550681881,-0.2482942640781402,0.2460824847221374,0.2918875813484192
1774471240064652800,3.50765283203125,-0.3919662776332348,-0.6486012708872556,-0.3816543251184746,-0.319405734539032,0.2600110173225403,0.3924481868743896
1774471240074666000,3.517666015625,-1.1379553981482982,-0.7882464729428291,-1.0168329641245304,-0.4731340408325195,0.2919372618198395,0.4822771549224853
1774471240084679000,3.527678955078125,-0.7346014650601893,-0.0908943228900432,-2.569488961218297,-0.6419389247894287,0.253652811050415,0.5152255296707153
1774471240094691000,3.537691162109375,-0.6274515884179621,0.1126040503948926,-2.190602456845343,-0.7373573184013367,0.090135782957077,0.4998675882816314
1774471240104704000,3.5477041015625,-0.33432562424317,-0.0015969138026237,-0.7634043656963855,-0.8841339945793152,-0.0921199843287468,0.4386503994464874
1774471240114717000,3.557717041015625,0.1612204164605587,0.2143178734630346,-0.8005184369515627,-0.9436431527137756,-0.2379381656646728,0.3738794028759002
1774471240124729900,3.567729736328125,-0.2409820085048675,0.3701595925599336,-0.250609595484659,-0.8464269638061523,-0.1882853209972381,0.3900224566459656
1774471240134743000,3.577742919921875,-0.589388618940115,-0.0104155955523252,0.7900676239553839,-0.7666581273078918,-0.0261139851063489,0.4847516119480133
1774471240144756000,3.587755859375,-0.3254209447104483,0.0893774885863065,1.1849763847813009,-0.6520671248435974,0.1235716566443443,0.5258440971374512
1774471240154769000,3.597768798828125,0.0071276599228382,-0.2094692643880844,0.975769643786922,-0.5509125590324402,0.1892430633306503,0.4935064017772674
1774471240164782000,3.607781982421875,0.5064086493711918,-0.793545163872838,0.8665339738465845,-0.4352351427078247,0.1291597932577133,0.4604355096817016
1774471240174794000,3.6177939453125,0.872829274598509,-0.4834370121717453,1.2543849981807171,-0.3393656015396118,0.0129349194467067,0.3621411621570587
1774471240184807200,3.62780712890625,0.8723300929047166,-0.0396276615113019,1.0871521895628422,-0.3436323404312134,-0.1770073920488357,0.2601790726184845
1774471240194819800,3.63781982421875,0.5494178430795669,0.5090057531923056,0.1428724935390055,-0.4357849061489105,-0.3730863630771637,0.1958839744329452
1774471240204833000,3.6478330078125,0.0688285484891384,1.0704103866636752,-0.5860452267963439,-0.5882238149642944,-0.545153796672821,0.2038169801235199
1774471240214846000,3.657845947265625,-0.4836474400520324,0.9737789814263582,-1.0272006288819011,-0.7039123773574829,-0.7478480935096741,0.2388900220394134
1774471240224859000,3.66785888671875,-0.6497159541308879,0.4707844513475894,-1.3625877448767425,-0.8404683470726013,-1.0605580806732178,0.2273382991552353
1774471240234871800,3.677871826171875,-0.2991373334188014,0.3419143258064985,-2.5196315821155904,-1.0630240440368652,-1.3899589776992798,0.1141909658908844
1774471240244884000,3.687884033203125,-0.2403672376073896,0.662726242351532,-3.426727721844613,-1.351653814315796,-1.3016968965530396,0.084237590432167
1774471240254897000,3.69789697265625,-0.8074784852225333,1.0363304224073886,-2.76475025203377,-1.5205278396606443,-0.8702933192253113,0.0371353290975093
1774471240264910000,3.70791015625,-0.9312357977945356,1.2912632148534058,-1.7630254251919686,-1.493003010749817,-0.4907218515872955,-0.0316921696066856
1774471240274922800,3.7179228515625,-0.6415490873534232,1.1876292373776436,-0.1687935551285743,-1.2986944913864136,-0.2214426845312118,-0.1027857884764671
1774471240284936000,3.72793603515625,-0.0396715737182647,1.4606985750168562,1.6049369500815869,-0.9827919006347656,-0.1659212708473205,-0.1294978559017181
1774471240294949000,3.73794921875,-0.1722445723652839,1.733601323917508,2.641654033719003,-0.5805746912956238,-0.1206872165203094,-0.1120983660221099
1774471240304961800,3.7479619140625,-0.1399110133849084,2.004607299286127,3.2174758995994925,-0.1508722603321075,-0.0104337036609649,-0.1016480699181556
1774471240314975000,3.75797509765625,0.4141197303175926,1.8485428773492572,2.695823430801928,0.1399257481098175,0.0876127034425735,-0.0296958461403846
1774471240324987000,3.76798681640625,-0.0949895563144236,1.2985948729157446,0.7010311308264732,0.1183450818061828,-0.0421217903494834,0.0125765968114137
1774471240335000000,3.778,-0.4097078321594745,0.8327361875325441,-2.5016437977433204,-0.2737089991569519,-0.4509415030479431,-0.0113825313746929
1774471240345013000,3.788012939453125,-0.0394097079116851,0.8935212033629417,-4.930974638947844,-0.769539475440979,-0.7906321883201599,-0.0420993492007255
1774471240355026000,3.79802587890625,-0.1436955003596842,0.8005553348958492,-4.339350223779678,-1.0388007164001465,-0.6655635237693787,0.1119551956653595
1774471240365038800,3.808038818359375,-0.9116437200307844,0.2801508203327655,-1.6397566267892718,-1.037044882774353,-0.296007364988327,0.2437112182378769
1774471240375052000,3.818052001953125,-0.1578828695356846,0.0067506433039903,0.4631050027608871,-0.8615434765815735,0.0920809730887413,0.29538694024086
1774471240385065000,3.82806494140625,0.1765396392107009,0.4474152661979198,1.3244737027987836,-0.6590083241462708,0.4714930951595306,0.3335045576095581
1774471240395078000,3.838077880859375,-0.0702197836518287,0.5635556740254163,1.3254758655786514,-0.439198762178421,0.7368946671485901,0.407256007194519
1774471240405089800,3.84808984375,-0.2306007536135614,0.9221440712571144,2.0591294553294777,-0.1145456284284591,1.0111210346221924,0.5310898423194885
1774471240415103000,3.85810302734375,-0.453949928663671,1.4238766185760496,2.9674951766029,0.1988924443721771,1.077175259590149,0.7016240358352661
1774471240425116200,3.8681162109375,-0.0058498950719833,1.8095061674684283,2.9883579318895936,0.3813748061656952,0.9037460684776306,0.7880001068115234
1774471240435128800,3.87812890625,0.6783188021503388,2.4604537092208862,1.735391714465618,0.3472810089588165,0.5917702913284302,0.8631497025489807
1774471240445142000,3.88814208984375,0.5569124366186559,3.514257244476676,0.3975172628238796,0.2385173588991165,0.4256801605224609,0.867068350315094
1774471240455155000,3.898155029296875,-0.0301765270769596,3.877368087568879,0.4097285096213221,0.0288983527570962,0.7893164157867432,0.9548999071121216
1774471240465168000,3.90816796875,-0.934059111586958,3.792584941035509,0.3182791831970215,-0.2178816050291061,0.8341980576515198,1.0426397323608398
1774471240475180800,3.918180908203125,0.4513581586048006,4.029582263818383,-0.5673182414293289,-0.3704360127449035,0.6983690857887268,1.0218243598937988
1774471240485193000,3.92819287109375,0.5835887004896998,3.4898148771375417,-0.6462129144459963,-0.4750696420669555,0.8438811302185059,1.048833250999451
1774471240495206000,3.938205810546875,-0.4656118710152804,2.249842873582244,0.171690445613861,-0.4471325278282165,1.1338154077529907,1.1785944700241089
1774471240505219000,3.948218994140625,-0.9272751505352556,1.3220681029617785,1.53375299757272,-0.2205081135034561,1.2484239339828491,1.3037210702896118
1774471240515231700,3.958231689453125,-0.2750833078101277,1.0921405724346638,2.306049913972616,0.0795821845531463,1.0771081447601318,1.3407931327819824
1774471240525245000,3.968244873046875,0.2008180481597781,0.7249170333266258,2.241112454637885,0.4687080085277557,0.8652352690696716,1.298795223236084
1774471240535258000,3.978258056640625,0.6297793737784028,0.2732096228927373,2.6436174427464603,0.9434199333190918,0.6308323740959167,1.1210625171661377
1774471240545271000,3.98827099609375,1.3321385383382438,0.4507891265451907,2.7877745692685245,1.3818532228469849,0.2829564213752746,0.901496410369873
1774471240555283000,3.998282958984375,1.4201084982141852,-0.0170469963908195,1.8785099994592367,1.7383822202682495,-0.133668765425682,0.7751704454421997
1774471240565295900,4.0082958984375,2.2835046124264595,0.6637275283485651,0.9371196682013572,1.8965822458267207,-1.1692272424697876,0.6315739154815674
1774471240575309000,4.01830908203125,2.321967614072561,1.0513064577430489,-0.6622054333478212,1.72356116771698,-1.725543737411499,0.6544408798217773
1774471240585322000,4.028322021484375,0.1404687933981418,0.7846054860919713,-2.060463042020797,1.4260672330856323,-1.4698318243026731,0.8126869201660156
1774471240595335000,4.0383349609375,-1.3107011980339884,0.4963403328865766,-1.7589999690681697,1.3767844438552856,-0.7863858342170715,0.8161423802375793
1774471240605347800,4.048347900390625,0.524691398102045,1.843435325077176,0.5991936813786626,1.7019281387329102,-0.2123773396015167,0.5518978834152222
1774471240615361000,4.058361083984375,2.365137770496309,2.852510076290369,2.064185277414322,1.894871473312378,0.3080743849277496,0.0883118510246276
1774471240625374000,4.0683740234375,2.473715341854095,2.497283848968148,-0.7998095580298453,1.7776991128921509,0.6830399632453918,-0.5563967823982239
1774471240635387000,4.078386962890625,1.9991312059625983,2.2739134849995373,-3.586529869005084,1.545711874961853,1.0917608737945557,-1.026931881904602
1774471240645398800,4.088398681640625,0.6570426437571645,1.5186112502813338,-3.839493407204747,1.402270793914795,1.5183802843093872,-1.2805019617080688
1774471240655412000,4.098411865234375,0.6312018077969551,1.1630208658218384,-2.4049857967600223,1.107655644416809,1.87841272354126,-1.6387295722961426
1774471240665425200,4.108425048828125,1.833502252344787,1.3925263715445997,-2.194206472686678,0.747572660446167,2.52510142326355,-1.7713956832885742
1774471240675437800,4.118437744140625,-0.3302294409707188,-6.448753530058265,-1.0706862809956073,0.2183400243520736,3.37748384475708,-1.442557692527771
1774471240685451000,4.128450927734375,-1.30390963819772,-14.6319436658144,-0.4028671724844723,0.0613651126623153,3.1909167766571045,-1.2082064151763916
1774471240695464400,4.13846435546875,1.9772765170291065,-7.97929662567377,3.105512485195696,0.072695791721344,2.3848164081573486,-0.9524238705635072
1774471240705477400,4.148477294921875,1.5581591245546935,-5.569367235031724,2.8980566064566373,-0.1880316734313964,1.585912823677063,-0.4202867448329925
1774471240715489300,4.1584892578125,-0.925186799953878,-6.269643748098612,-0.5329154018942266,-0.5347744226455688,1.079487442970276,0.0386323519051075
1774471240725502500,4.16850244140625,-2.4441829578995704,-5.085632701218128,-1.001881332577765,-0.8320255875587463,1.040898680686951,0.353857547044754
1774471240735515400,4.178515380859375,-2.789294033920765,-4.009245578232408,-0.8926582298580557,-1.0111685991287231,1.01906418800354,0.4098291993141174
1774471240745528600,4.188528564453125,-0.4840976680375635,-3.7460797949701545,-0.1324957686923444,-0.9958529472351074,0.744568407535553,0.0786902979016304
1774471240755541200,4.198541259765625,1.895338238532841,-2.4257266792327163,0.4588177538957446,-0.8214635252952576,0.5909703373908997,-0.4834771752357483
1774471240765554400,4.208554443359375,2.35508340947181,-0.8187742976754904,0.6278980170112103,-0.5378312468528748,0.6975056529045105,-1.089267015457153
1774471240775567600,4.218567626953125,1.9970256119854748,0.5430342795222998,-0.0860017285428941,-0.2637802362442016,0.8925382494926453,-1.6426292657852173
1774471240785580300,4.228580322265625,1.6801026657029985,1.4399720133304594,-1.002003643783182,0.0115493414923548,0.9051192998886108,-2.021328926086426
1774471240795592200,4.23859228515625,1.0348081812761722,1.8302426660269495,-0.8790262295424938,0.2692354917526245,1.0994240045547483,-2.121080160140991
1774471240805605400,4.24860546875,-0.5335621022999286,1.4744447762966155,-0.5970536371426657,0.3315663933753967,1.8493198156356807,-1.9464980363845823
1774471240815618600,4.25861865234375,-1.6994461024679242,0.0202729726999998,-0.9119898300547152,0.1537782847881317,2.638084173202514,-1.6564733982086182
1774471240825631500,4.268631591796875,-1.466698692214489,-1.6707903552174568,-1.1959653963074088,-0.1200210452079773,2.9864401817321777,-1.2779009342193604
1774471240835644400,4.27864453125,-1.312495972496271,-2.259387531518936,-0.8013095142640173,-0.3263047039508819,2.9483556747436523,-0.8989638090133667
1774471240845657300,4.2886572265625,-1.2855378229439258,-2.234346029242873,-0.3259071207921952,-0.4546605050563812,2.6513147354125977,-0.5850858688354492
1774471240855670500,4.29867041015625,-1.473886996283382,-1.8462918835520743,-0.2419702158246189,-0.4932760596275329,2.1136467456817627,-0.2844373285770416
1774471240865683200,4.30868310546875,-1.5548247194349765,-0.861560130956769,-0.1180233354972675,-0.4131404757499695,1.4204535484313965,-0.0724484473466873
1774471240875695400,4.3186953125,-1.3852851682446896,-0.0454939231961965,0.3059806965075433,-0.2709633409976959,0.8916848301887512,0.1505217850208282
1774471240885708300,4.328708251953125,-2.0955321634449064,0.3067360449194908,0.6913191534988582,-0.0512122027575969,0.480900764465332,0.3772564828395843
1774471240895721500,4.338721435546875,-1.999988407313824,0.352678296405077,1.1888047108978033,0.1524109691381454,0.0451146624982357,0.5110195875167847
1774471240905734700,4.348734619140625,-1.1106183322809635,0.4885609310567378,0.9639647858332842,0.2601189017295837,-0.3236920833587646,0.5340421199798584
1774471240915747300,4.358747314453125,-0.4420166220247745,0.1036538512200117,0.270039066565223,0.265293151140213,-0.443096250295639,0.4865102767944336
1774471240925760500,4.368760498046875,-0.2883762123644351,-0.7932078947424888,-0.1805838731002062,0.0484121814370155,-0.3964012563228607,0.4080528020858764
1774471240935773400,4.3787734375,-0.499656471697241,-0.6876964329570532,-0.6081759927248582,-0.1265777349472046,-0.0020134646911174,0.3451643884181976
1774471240945786400,4.388786376953125,-0.8639161925636232,-1.0768851356357336,1.1276113334622233,-0.0983400866389274,0.1965494155883789,0.4090560674667358
1774471240955798300,4.39879833984375,-1.0330829649187625,-1.78744046613276,0.3779056766420602,-0.2796544730663299,-0.0577726066112518,0.4764100909233093
1774471240965811500,4.4088115234375,-1.2405797601900994,-1.7210978161752224,-0.6505920793782919,-0.4052958786487579,-0.1055741310119628,0.5277447700500488
1774471240975824400,4.418824462890625,-1.352397774773836,-1.9599743768334388,0.7107989299945533,-0.4191280603408813,-0.2508570253849029,0.5848821401596069
1774471240985837600,4.428837646484375,-1.373311967986822,-1.8118880941689013,0.2764064461726695,-0.5088303089141846,-0.5615134835243225,0.6882323026657104
1774471240995850200,4.438850341796875,-2.406040566509962,-1.1539216135650872,0.1017726405832916,-0.3410325050354004,-0.9049097299575806,0.9370754957199096
1774471241005863400,4.448863525390625,-3.357368646675348,-0.8899865994960069,0.8910733718194067,-0.1104775741696357,-1.3154360055923462,1.171623706817627
1774471241015876600,4.458876708984375,-4.597658630138636,0.0357861836522817,0.7263208357099443,-0.0411203429102897,-3.518479585647583,0.908531904220581
1774471241025889300,4.46888916015625,-8.052302240651846,0.7696253591030836,3.033145168121159,0.2231501191854477,-4.198624610900879,0.7763634324073792
1774471241035901200,4.478901123046875,-3.950711848460138,-0.6430103190124035,0.4338329502429813,0.4564651250839233,-4.496740341186523,0.6857160925865173
1774471241045914400,4.488914306640625,-3.2790734008565545,-0.6111690735936165,-0.8253207967095076,0.8479013442993164,-3.6858294010162354,0.983031928539276
1774471241055927600,4.498927490234375,-2.907304035012424,-0.0469184030413627,-0.7043926431488245,0.9116845726966858,-1.9255470037460327,1.9250035285949707
1774471241065940500,4.5089404296875,-0.0236813198387622,1.143082824164629,-0.5640908038154244,0.7332773804664612,-1.2309801578521729,2.639834403991699
1774471241075953400,4.518953369140625,4.492240399594604,1.7891665592730044,-0.7778821691863238,0.4411879479885101,-1.106938123703003,2.9076499938964844
1774471241085966300,4.52896630859375,5.59591446569562,1.9065929152578116,-0.5499114718154072,0.2308743596076965,-0.63277268409729,3.0178239345550537
1774471241095979500,4.5389794921875,4.426333218444883,2.08882521315217,0.2111607976716011,0.1717985272407531,0.0532499328255653,2.786112070083618
1774471241105992200,4.5489921875,4.86105559180826,2.818976055479049,0.7839864774107933,0.1792997568845749,0.8596585988998413,2.089817523956299
1774471241116004400,4.55900439453125,4.214751199686527,3.192793001502752,0.8476973906252533,0.200504645705223,1.1137259006500244,1.4412448406219482
1774471241126017300,4.569017333984375,1.372409466189146,3.5352591159731146,0.7050882972627878,0.2329594194889068,0.618696928024292,0.9894922375679016
1774471241136030500,4.579030517578125,0.0554442393243312,3.828879658731818,1.1736589450184256,0.3525515794754028,-0.0015178790781646,0.450710266828537
1774471241146043600,4.589043701171875,1.1667127060770988,3.4689661503762004,2.33850826837644,0.3827337026596069,-0.1870658695697784,-0.1366912722587585
1774471241156056300,4.599056396484375,0.6145040632352232,2.5344021580070257,1.814386194594949,0.2786973118782043,0.0056007830426096,-0.5071617364883423
1774471241166069500,4.609069580078125,-0.782996589590609,1.2804518979817627,1.4710609790772198,0.1909554153680801,0.2942048013210296,-0.6610438823699951
1774471241176082400,4.61908251953125,-0.6688660602807999,0.1967331169337034,1.3654505869619546,0.1010883748531341,0.482164055109024,-0.626682460308075
1774471241186095400,4.629095458984375,0.0028410686448216,-0.4862093994945287,0.3468117059266195,0.0138047225773334,0.4517360031604767,-0.4336351156234741
1774471241196108300,4.6391083984375,0.1986179077669978,-0.7145195579528808,-0.4484266717301681,-0.0069397040642797,0.2832431495189667,-0.1697078645229339
1774471241206120400,4.649120361328125,0.0139770874261856,-0.5175976404488086,-0.5268647600857541,0.0315188728272914,0.1344412118196487,0.0691011101007461
1774471241216133400,4.65913330078125,0.1836447950407862,-0.3355903834819793,-0.543193086813204,0.095149777829647,0.0100819831714034,0.2134167402982711
1774471241226146600,4.669146484375,0.5642196908921003,-0.049284547650814,-0.5076229205317795,0.1599373817443847,-0.1219067648053169,0.2504841983318329
1774471241236159200,4.6791591796875,0.7597928241357207,0.258439339262247,-0.4284479692690074,0.2235075682401657,-0.2287219017744064,0.228371724486351
1774471241246172400,4.68917236328125,0.5102700740396976,0.3372223685979842,-0.1204629289354197,0.2848939597606659,-0.2483001202344894,0.2103905975818634
1774471241256185600,4.699185546875,0.0025037995144724,0.2379530160725116,0.1986853104474022,0.3212224245071411,-0.2346090823411941,0.1964902281761169
1774471241266198300,4.7091982421875,-0.1433212602198124,0.0193055889725685,0.4418206975938752,0.3247063159942627,-0.2349304258823394,0.1725194901227951
1774471241276211500,4.71921142578125,-0.0395534272313118,-0.1487456233561039,0.6016168899375945,0.2819692492485046,-0.2317596673965454,0.1318895071744918
1774471241286224400,4.729224365234375,0.125732996559143,-0.1748667375624179,0.6111718500725924,0.2102178335189819,-0.2382280081510543,0.0888547673821449
1774471241296237600,4.739237548828125,0.1107704052269458,-0.0858972452551126,0.7680429122172295,0.1502285301685333,-0.1087046340107917,-0.0428702421486377
1774471241306250200,4.749250244140625,0.1614692035898566,0.0037713352322578,0.959005629055947,0.0630143657326698,0.0404167287051677,-0.1856849044561386
1774471241316262400,4.759262451171875,0.0847518746122717,-0.2732160526335239,0.7157101559769362,-0.011857209727168,0.1808822304010391,-0.2995664775371551
1774471241326275300,4.769275390625,0.0545423220485448,-0.3217816383600235,0.6996928679600357,-0.0134239979088306,0.1931552141904831,-0.3429807126522064
1774471241336288500,4.77928857421875,0.176640176975727,-0.0033352819025516,0.8020043646603823,0.003446860704571,0.3410378694534302,-0.378686785697937
1774471241346301400,4.789301513671875,-0.090182375228405,-0.0775701464146375,0.1982898083237931,0.0225350856781005,0.2276513427495956,-0.2205668240785598
1774471241356314400,4.799314453125,0.2182642730012536,-0.3391553824871778,0.1099823053228668,0.0756257325410842,0.2506828904151916,-0.0916996598243713
1774471241366327600,4.80932763671875,0.1217281448319554,-0.1380377668589353,0.2146018415035679,0.1406835913658142,0.1998742669820785,0.0146883726119995
1774471241376340500,4.819340576171875,0.3442635192811489,0.1165244387090206,0.1093102512801997,0.2153458446264267,0.0360150188207626,0.1130410432815551
1774471241386353400,4.829353515625,0.5007902980327605,0.3829652981191873,0.2579582046817988,0.303029328584671,0.0249713044613599,0.1366261392831802
1774471241396366300,4.839366455078125,0.3488274661958217,0.6752186441779137,0.404953404174,0.3533819913864136,0.112975463271141,0.0720881670713424
1774471241406379500,4.849379638671875,0.2986588291868567,0.6795359228551388,0.2446571898862719,0.3712826371192932,0.1201512813568115,-0.0374323762953281
1774471241416392400,4.859392333984375,0.2313242455825209,0.4848328504443168,0.2134624256774783,0.3530913591384887,0.0748538374900817,-0.134175956249237
1774471241426405400,4.8694052734375,0.0201055071786046,0.2002384947061538,0.1177019123900216,0.2937971651554107,0.0258398987352848,-0.1971982717514038
1774471241436417300,4.879417236328125,-0.062807753829658,-0.0564116230517625,0.1874538136686198,0.2463670670986175,-0.0281679406762123,-0.2270166128873825
1774471241446430500,4.889430419921875,-0.3034226825878024,0.0133463883072137,0.2678205137329176,0.1873420625925064,0.0136397071182727,-0.1746677607297897
1774471241456443400,4.899443359375,-0.927174758900702,0.0846703338086605,0.0787860615430399,0.1261199861764907,0.1705632805824279,-0.0986265242099762
1774471241466456300,4.909456298828125,-0.9568228781893848,0.1024175874233245,0.054257495491486,0.0834497734904289,0.2902574837207794,-0.0751536563038826
1774471241476469500,4.919469482421875,-0.3870812090054154,0.142999188658595,0.0701310550556052,0.0557544939219951,0.2929110825061798,-0.1058172956109047
1774471241486482400,4.929482421875,0.1741959986940026,0.1679278782099485,0.1072511085269972,0.0086016813293099,0.2495932877063751,-0.1516193002462387
1774471241496495400,4.939495361328125,0.4597068847551941,-0.1211029986709356,-0.0748406483855098,-0.0718010142445564,0.1627188473939895,-0.1974107474088668
1774471241506508300,4.94950830078125,0.788378867150843,-0.4864496379911899,-0.0753300028050318,-0.137207493185997,0.1193236112594604,-0.2295027077198028
1774471241516521500,4.959521484375,0.5902817683875561,-0.4465963510304689,0.1205613478085957,-0.1511579304933548,0.1653976291418075,-0.2281772643327713
1774471241526534400,4.969534423828125,0.1405079563647508,-0.168852007317543,0.2366994175485335,-0.1333534121513366,0.1487194448709488,-0.1951407641172409
1774471241536547300,4.97954736328125,0.0923696561396121,0.0200754043012857,0.284336508519575,-0.08657818287611,0.0335433147847652,-0.1828018128871917
1774471241546560500,4.989560546875,0.2690831906124949,0.0705968002706766,0.1678939576740376,-0.0392523072659969,-0.097406692802906,-0.1780237406492233
1774471241556573400,4.999573486328125,0.3475087848126888,0.1048322473496198,0.0831707429006695,0.004283451475203,-0.1565847992897033,-0.1962770372629165
1774471241566586400,5.00958642578125,0.3687906422942876,0.2225666463702917,0.0276725631657056,0.0263705402612686,-0.1804015338420868,-0.2254679948091507
1774471241576599300,5.019599365234375,0.3934054435908794,0.3956903396576642,0.0188831714425701,0.0498915798962116,-0.2077926695346832,-0.2707334756851196
1774471241586612500,5.029612548828125,0.5136678997844457,0.5111345819145441,0.2056190187007188,0.0695722103118896,-0.2179444581270218,-0.3361885249614715
1774471241596624400,5.039624267578125,0.6939154536023736,0.4517021497368812,0.3909338658455759,0.0917214602231979,-0.2007383108139038,-0.4496559798717499
1774471241606637600,5.049637451171875,1.0628323526248336,0.4650637356132268,0.5049298455229029,0.1208818256855011,-0.1738820075988769,-0.6092228293418884
1774471241616650200,5.059650146484375,1.3581088458970187,0.590240851855278,0.5082942804547026,0.145803153514862,-0.1229711398482322,-0.7730317711830139
1774471241626663400,5.069663330078125,1.320073422013223,0.7873509854078292,0.4442158491021022,0.1560265719890594,-0.0223004147410392,-0.9231724739074708
1774471241636676400,5.07967626953125,1.244130584539473,0.7908592857897281,0.3299602321079,0.1331838369369506,0.0898309126496315,-1.059032320976257
1774471241646689500,5.089689453125,1.384013394743204,0.5967576864033937,0.2044487693449482,0.0974315181374549,0.184530571103096,-1.2010529041290283
1774471241656702500,5.099702392578125,1.5684221598938106,0.4645546170473098,0.1918391343470662,0.060319036245346,0.2725033164024353,-1.3374760150909424
1774471241666715400,5.10971533203125,1.6007988273635505,0.3912620018213987,0.2701181414171122,0.0308525320142507,0.3916752636432647,-1.463613510131836
1774471241676728600,5.119728515625,1.7016753228247166,0.3951186772495508,0.3554153932187706,0.0016717438120394,0.4960794448852539,-1.6073704957962036
1774471241686741200,5.1297412109375,1.950473265777528,0.4908464116454124,0.2762419763259589,-0.0264438986778259,0.5998966097831726,-1.7700684070587158
1774471241696754400,5.13975439453125,2.055088217114657,0.6611719986468553,0.1350705145511776,-0.0769044086337089,0.7786527872085571,-1.918572187423706
1774471241706767600,5.149767578125,1.789700812280178,0.5925882917642593,-0.0554279457766562,-0.144606202840805,1.0457829236984253,-2.052740335464477
1774471241716780500,5.159780517578125,1.6951183023966847,0.5875631570786237,-0.1597760446048341,-0.219711348414421,1.3393460512161257,-2.2093422412872314
1774471241726793500,5.16979345703125,1.8308653279699385,0.7261690792143345,-0.2469245685626752,-0.2797268331050873,1.6578651666641235,-2.357262372970581
1774471241736806700,5.179806640625,1.7532805685080586,0.9210118523567914,-0.3990528018280863,-0.3391946852207184,1.9306365251541135,-2.436056613922119
1774471241746819600,5.189819580078125,1.4777007093526422,1.018750342053175,-0.6636485448282211,-0.3833549618721008,2.118216037750244,-2.437385320663452
1774471241756832500,5.19983251953125,1.1801391008179634,0.7419727975457906,-0.5236467478873208,-0.3866093456745147,2.177619695663452,-2.3534576892852783
1774471241766845400,5.209845458984375,0.5625905918529257,0.2395072597771882,-0.3545140604648739,-0.3146610558032989,1.72379469871521,-2.2161309719085693
1774471241776857600,5.219857666015625,-0.3983248163470998,-0.2606897485375404,0.2271048377892002,-0.0495614744722843,1.1348233222961426,-1.956857442855835
1774471241786870500,5.22987060546875,-1.4796341616332531,-0.2428378655046224,0.3268443285770714,0.0043566860258579,0.866203784942627,-1.5367181301116943
1774471241796883500,5.239883544921875,-1.983752727305889,-0.01415536660254,-0.6460276210069656,0.0012655550381168,0.4840702414512634,-1.094889521598816
1774471241806896400,5.249896484375,-1.7101164034336804,-0.4520318200826644,-0.8608019330006093,-0.0176216997206211,0.2225501835346222,-0.7352407574653625
1774471241816909600,5.25990966796875,-1.1159060634255409,-0.5352729978710412,-0.8009238759472965,-0.006885964423418,-0.1201512441039085,-0.4626654088497162
1774471241826922800,5.2699228515625,-1.4792249963104724,-0.5382902998656034,-0.3565538957294076,0.0069015175104141,-0.2449640780687332,-0.1181227341294288
1774471241836935400,5.279935302734375,-2.413059505361318,-0.4827800095677375,-0.6063808164037764,-0.0315571948885917,-0.4924266040325165,0.2632736265659332
1774471241846948600,5.289948486328125,-2.8162124359846112,-0.4232622371941805,-0.7933204882714897,-0.0720695629715919,-0.782379150390625,0.6248544454574585
1774471241856961500,5.29996142578125,-2.644509130889177,-0.4174041588157415,-0.5454726856503636,-0.1567311882972717,-1.028558611869812,0.8546844124794006
1774471241866974700,5.309974609375,-1.6601719305694105,-0.6419026500314474,-0.8455553370952605,-0.2648175656795501,-1.1019850969314575,0.9438099265098572
1774471241876987400,5.3199873046875,-0.8751590327203274,-0.8642284733831882,-0.9066497111357747,-0.3714886307716369,-1.0170891284942627,0.9380673170089722
1774471241887000600,5.33000048828125,-0.2844611212799325,-0.8306038516789674,-0.8111072701789438,-0.462429016828537,-0.8577408790588379,0.8491801619529724
1774471241897013800,5.340013671875,0.2547755925903097,-0.5478226828426123,-0.9098315560422836,-0.4914100766181946,-0.6666889190673828,0.6869766116142273
1774471241907026400,5.3500263671875,0.7222808396041392,-0.3171872963070869,-0.6906261297333985,-0.5320479869842529,-0.5925847887992859,0.4381696283817291
1774471241917039600,5.36003955078125,0.8749158716142177,-0.1534364115208387,-0.4611760439923033,-0.6380918622016907,-0.6441406011581421,0.143641322851181
1774471241927052500,5.370052490234375,0.4381142808239907,0.0708282709389925,0.4034737600754946,-0.6990284323692322,-0.7523815631866455,-0.1845655441284179
1774471241937065700,5.380065673828125,0.2248515059044584,0.1066267295509576,0.8696469182353467,-0.742081344127655,-0.7617985010147095,-0.5335707068443298
1774471241947078400,5.390078369140625,0.2429308044850826,0.1477653801470994,0.9411920322068036,-0.737393319606781,-0.6535610556602478,-0.8545433878898621
1774471241957091600,5.400091552734375,0.2610825472474098,-0.0540244356542825,1.135471107051894,-0.5898648500442505,-0.4386231899261474,-1.057471513748169
1774471241967104500,5.4101044921875,0.3645581192910671,-0.4464987358748912,0.9282641615726052,-0.343314528465271,0.2312268763780594,-1.2028685808181765
1774471241977117400,5.420117431640625,2.047317144721746,-0.5196066421836615,1.3431105987295509,-0.0846315771341323,1.2156926393508911,-1.4634966850280762
1774471241987129300,5.43012939453125,3.976490140578151,-1.1918009701043366,1.613737511652708,-0.0358896292746067,1.4718209505081177,-1.6985726356506348
1774471241997142500,5.440142578125,2.788797774836421,-1.3865128103435038,-0.7830614715203642,-0.0574282109737396,0.7442861199378967,-1.6744999885559082
1774471242007155700,5.45015576171875,-0.3128086428314447,-0.6289157426863908,-0.5074551627494395,0.1579040288925171,0.6236078143119812,-1.577542781829834
1774471242017168600,5.460168701171875,-0.3459674736548215,-0.051748307415843,0.6353564432583749,0.4727245569229126,0.453119158744812,-1.5382601022720337
1774471242027181600,5.470181640625,-0.185247261801362,0.2839391066998243,0.0277231060428544,0.704512894153595,0.2690973281860351,-1.5726474523544312
1774471242037194500,5.480194580078125,-0.1366923435993492,0.6193699157059193,-0.0441969787208363,0.9396977424621582,-0.2156320661306381,-1.708433747291565
1774471242047207700,5.490207763671875,0.7087520804673433,0.3971452146410942,0.9374858711652456,1.1706502437591553,-0.7014601826667786,-1.860762476921081
1774471242057220400,5.500220458984375,-0.021123890440911,-0.0035965631872415,0.4461579230805859,1.2233384847640991,-0.5378469824790955,-1.8209644556045528
1774471242067233500,5.510233642578125,-2.1581768356673416,-0.5932593228936195,-1.3842925039455294,1.0912338495254517,-0.1425683796405792,-1.6901187896728516
1774471242077246700,5.520246826171875,-2.201893812318892,-1.0415279910504818,-0.7092980969775468,0.9911179542541504,0.1177415028214454,-1.6240767240524292
1774471242087259600,5.530259765625,-1.676592757885903,-0.9762848267674444,0.2712139738298021,0.8857988119125366,0.3231561779975891,-1.5168836116790771
1774471242097272600,5.5402724609375,-1.936631349038333,-0.7501601956546307,-0.1290377737255767,0.7673289179801941,0.4363383948802948,-1.3501684665679932
1774471242107285500,5.550285400390625,-1.8639473672300575,-0.7604571332633495,0.0029748876249417,0.6893478631973267,0.4408316016197204,-1.13616144657135
1774471242117298700,5.560298583984375,-1.6027208814673124,-0.8916343667030334,-0.2843392484659329,0.6626070737838745,0.5673098564147949,-0.9421400427818298
1774471242127311400,5.570311279296875,-0.9449348719969392,-0.7449176188260317,-0.4593681908527389,0.6645456552505493,0.8077016472816467,-0.8077856302261353
1774471242137324500,5.580324462890625,-0.1485759658776223,-0.3606663725495338,-0.4176807838000357,0.6093186140060425,0.8262342810630798,-0.7907701730728149
1774471242147337500,5.59033740234375,0.4408816266454756,-0.1572849036425352,-0.062664619031921,0.5448010563850403,0.8939749002456665,-0.7103387713432312
1774471242157350700,5.6003505859375,-0.4071916846200824,0.06479015981853,-0.0586470539536327,0.4590437710285187,0.7221456170082092,-0.5748049020767212
1774471242167363600,5.610363525390625,-0.6561784281432628,0.0458183328449726,0.0804667081063613,0.3928414285182953,0.5090601444244385,-0.4228485226631164
1774471242177376500,5.62037646484375,-0.8598425133839249,0.3028589112251997,0.1792772840136662,0.336488127708435,0.3443409204483032,-0.3441300094127655
1774471242187389700,5.6303896484375,-0.5436386751562357,0.5367231966793536,0.316777692592889,0.2813943028450012,0.2912251055240631,-0.3638960719108581
1774471242197402400,5.64040234375,-0.1112257477790117,0.6248030466705561,0.3844757757473737,0.2130051106214523,0.3532863557338714,-0.4301522970199585
1774471242207414500,5.65041455078125,-0.1292404201582074,0.5886152964800596,0.1205019640378654,0.1603789031505584,0.5826427340507507,-0.44995978474617
1774471242217427500,5.660427490234375,-0.7507008784025907,0.4638140278130769,0.096851477728784,0.0715283825993537,0.9554389119148254,-0.3400063812732696
1774471242227440600,5.670440673828125,-1.3035028109624982,-0.167376674067974,-0.5043504747323692,-0.1524358391761779,1.312016487121582,-0.2057382017374038
1774471242237453600,5.68045361328125,-0.6660045333698391,-0.8951450051724911,-1.1703781697820872,-0.4603888988494873,1.5400978326797483,-0.1430620402097702
1774471242247466500,5.690466552734375,0.3199050308331847,-1.1440402710199356,-1.240413902103901,-0.7808290123939514,1.572170972824097,-0.166591927409172
1774471242257479400,5.7004794921875,0.8927066721096635,-1.132047050887346,-1.069069128122553,-1.0839532613754272,1.4432710409164429,-0.2467885166406631
1774471242267492600,5.71049267578125,1.2768059426948428,-1.0709715276777745,-0.9970627533148974,-1.3176254034042358,1.1498727798461914,-0.3388864398002624
1774471242277505500,5.720505615234375,1.362529000426829,-0.8493038759738206,-0.7742581334702671,-1.4481011629104614,0.710798442363739,-0.401418536901474
1774471242287518500,5.7305185546875,1.091692244145274,-0.5575701698750257,-0.4726239417344332,-1.446925163269043,0.238885760307312,-0.3870450258255005
1774471242297531600,5.74053173828125,0.5664280145913362,-0.2283797165632247,-0.1361898557036183,-1.3653807640075684,-0.1364191472530365,-0.2904175519943237
1774471242307544600,5.750544677734375,0.0673848524868488,0.1253758536845445,-0.0240091635536402,-1.2127267122268677,-0.3484078347682953,-0.1717628538608551
1774471242317557500,5.7605576171875,-0.0746644881010055,0.3491168045312166,-0.0327235446786507,-1.0139795541763306,-0.3728223741054535,-0.1095114573836326
1774471242327570400,5.7705703125,0.019502280588448,0.6650935560047626,-0.1199237988237291,-0.8253499865531921,-0.2384178191423416,-0.1109741106629371
1774471242337583600,5.78058349609375,0.0964981342464685,0.9225894769370556,-0.1258811728581786,-0.7163037061691284,-0.0097942259162664,-0.1508320420980453
1774471242347596500,5.790596435546875,0.1086351467639207,0.6886731690347194,-0.2761638695884496,-0.6822909712791443,0.1917698085308075,-0.2022278606891632
1774471242357609500,5.800609375,0.4069856406539678,0.557538021171093,-0.1067276326421648,-0.596100926399231,0.2345114201307296,-0.2953511476516723
1774471242367622700,5.81062255859375,0.7198404607146978,0.7572434319138527,0.1063182481236755,-0.486660897731781,0.1945591419935226,-0.4038475453853607
1774471242377635600,5.820635498046875,0.7672682745829225,0.6521469806700945,0.1688290648333728,-0.4129395186901092,0.1292965114116668,-0.4789931774139404
1774471242387648500,5.8306484375,0.5359782235309482,0.3455459603071212,0.0133703537046909,-0.4360594153404236,0.1149523854255676,-0.4626471400260925
1774471242397661400,5.840661376953125,0.1896647859826684,-0.0586807370275258,-0.2113665493767708,-0.5336171984672546,0.0821920484304428,-0.368543803691864
1774471242407674600,5.850674560546875,0.1058528225690126,-0.388708225685358,-0.3578455429751426,-0.61959308385849,-0.0032218766864389,-0.2614270448684692
1774471242417687600,5.8606875,0.3678223817840218,-0.5204717345803975,-0.3942247971497475,-0.7027846574783325,-0.0529265813529491,-0.1922027021646499
1774471242427700500,5.870700439453125,0.6055149933546781,-0.4444786282241344,-0.3835135065864771,-0.7840061783790588,-0.0403747260570526,-0.1660795658826828
1774471242437712400,5.88071240234375,0.8320698325783014,-0.2471066288650035,-0.2909469396352768,-0.8655577898025513,0.0229334030300378,-0.1963088363409042
1774471242447725600,5.8907255859375,1.0596747653767469,-0.0006505728632211,-0.1965890322878956,-0.8950322866439819,-0.0306832194328308,-0.2474300861358642
1774471242457738800,5.90073876953125,1.1194783689543604,0.1420896725982427,0.1750263120383024,-0.8579030632972717,-0.2619025707244873,-0.2893413007259369
1774471242467751400,5.91075146484375,1.0800953298538922,0.317004340955615,0.453299063539505,-0.7822281718254089,-0.5376100540161133,-0.3262175917625427
1774471242477764600,5.9207646484375,0.9699527011364698,0.5179506916701794,0.5600817143045366,-0.6975939869880676,-0.7506754398345947,-0.3508712649345398
1774471242487777500,5.930777587890625,0.7318722592920065,0.7352279994606972,0.5499054804660379,-0.6235166192054749,-0.8913325667381287,-0.3400744199752807
1774471242497790500,5.94079052734375,0.3158598470956087,0.9202741857320068,0.5444754182413221,-0.5369199514389038,-0.9587893486022948,-0.288732647895813
1774471242507803400,5.950803466796875,-0.0452586531355977,1.064397994506359,0.6597428426265716,-0.4455243945121765,-0.9488927721977234,-0.2287267446517944
1774471242517816600,5.960816650390625,-0.2352232988476753,1.1758061131149529,0.6586323971666396,-0.3445860743522644,-0.8944860100746155,-0.1779535710811615
1774471242527829800,5.970829833984375,-0.2986445084005594,1.1615081231713291,0.5869137532591819,-0.2093492597341537,-0.8392401337623596,-0.1245854645967483
1774471242537842400,5.980842529296875,-0.3737587860956788,1.0292863491147757,0.4932037884265184,-0.0499380268156528,-0.7888749837875366,-0.0485090799629688
1774471242547855600,5.990855712890625,-0.428835653412342,0.8884989912867546,0.3484000345639884,0.0764639601111412,-0.6788583993911743,0.0257399994879961
1774471242557868500,6.00086865234375,-0.3944277723759412,0.7585878322601318,0.2005551594398915,0.1298305094242096,-0.5516685247421265,0.0691002532839775
1774471242567881500,6.010881591796875,-0.2193944460749626,0.6177876149505377,0.0743329180590808,0.1380538940429687,-0.4512912333011627,0.0902904048562049
1774471242577894400,6.020894287109375,-0.1314683253407478,0.4522457550942897,0.0948700946532189,0.1066829115152359,-0.4188201129436493,0.1138916015625
1774471242587907600,6.030907470703125,-0.2015712046146392,0.4048784392416477,0.1924380500882863,0.0645294487476348,-0.4518283903598785,0.1534544378519058
1774471242597920800,6.040920654296875,-0.4115393584355711,0.4159270720005035,0.4086727169580757,0.0219537615776062,-0.5112708806991577,0.2071855813264846
1774471242607933400,6.050933349609375,-0.6261942087680101,0.4607680842459201,0.5219451681338251,-0.0087569020688533,-0.5462843179702759,0.2606641352176666
1774471242617946600,6.060946533203125,-0.7395788881465792,0.492048188650608,0.5432010143913328,-0.0198444407433271,-0.5395947098731995,0.2924007475376129
1774471242627959600,6.07095947265625,-0.7165422959521413,0.4836684828400611,0.4913502695143222,-0.0113258874043822,-0.4678596556186676,0.2698075175285339
1774471242637972500,6.080972412109375,-0.5341846181124449,0.3339163127899169,0.3062836249768734,-0.0100318575277924,-0.3426002562046051,0.1916384100914001
1774471242647985400,6.0909853515625,-0.3421346905589103,0.1904793172359466,0.2500261695735156,-0.0256135109812021,-0.224675565958023,0.0733540803194046
1774471242657997600,6.10099755859375,-0.1938245360106229,0.1176286005586385,0.2956595012404024,-0.0619331672787666,-0.1268043965101242,-0.0590119510889053
1774471242668010500,6.111010498046875,-0.1223950843080878,0.0945610287040472,0.3611525486312806,-0.1088183224201202,-0.0852904319763183,-0.191722422838211
1774471242678023700,6.121023681640625,-0.0927384894520044,0.0566805031210184,0.4166951337635516,-0.1649361848831176,-0.081843763589859,-0.3286073207855224
1774471242688036400,6.131036376953125,-0.1491816766858101,0.0807739108920097,0.5021152630262077,-0.2275379747152328,-0.0941033288836479,-0.4588699638843536
1774471242698048500,6.141048583984375,-0.3929167832911014,0.2140291196495294,0.6140422909423708,-0.2797447144985199,-0.0813036412000656,-0.5547754764556885
1774471242708061400,6.1510615234375,-0.7374971134364604,0.355996042650938,0.710432873161137,-0.2968643605709076,-0.0369901359081268,-0.5978584289550781
1774471242718074600,6.16107470703125,-1.0643471411019565,0.4138128563255071,0.7443751825124025,-0.270352303981781,0.0238969139754772,-0.5931769013404846
1774471242728087600,6.171087646484375,-1.2399877856463193,0.4262649261415004,0.7224051966361701,-0.220002144575119,0.0819628909230232,-0.571593165397644
1774471242738100500,6.1811005859375,-1.2126160868570208,0.4272013302087784,0.7139978721663356,-0.1850966364145279,0.1669403612613678,-0.5646087527275085
1774471242748113700,6.19111376953125,-1.074993038278818,0.4610439785778522,0.7092772733852267,-0.1665927618741989,0.2688235342502594,-0.5737338066101074
1774471242758126600,6.201126708984375,-0.968980348972976,0.4769242692768573,0.7370255504019558,-0.1500912755727768,0.3387655913829803,-0.581834077835083
1774471242768139500,6.211139404296875,-0.951093394626677,0.4478934051036835,0.7619519018657505,-0.1275730431079864,0.3413558900356293,-0.5819175243377686
1774471242778152400,6.22115234375,-1.034912664563954,0.3805073835730552,0.8229903079353272,-0.113357089459896,0.327959656715393,-0.6028670072555542
1774471242788165600,6.23116552734375,-1.1072855345964432,0.3389847020953893,0.8224240523546934,-0.1107823923230171,0.360675573348999,-0.6449169516563416
1774471242798178600,6.241178466796875,-1.1378814561292527,0.3201601746380328,0.7483676131494342,-0.0999025776982307,0.452541321516037,-0.690686047077179
1774471242808191500,6.25119140625,-1.142916819947958,0.2967033112049103,0.6455161643534898,-0.0672544986009597,0.571221649646759,-0.7245678901672363
1774471242818204700,6.26120458984375,-1.0995195767700672,0.2449678632706403,0.5204800640173256,-0.0185748450458049,0.6970754265785217,-0.7406467199325562
1774471242828217600,6.271217529296875,-1.0892620943889022,0.2058919904232025,0.4060632651120424,0.0190202072262763,0.8418502807617188,-0.7597132325172424
1774471242838230500,6.28123046875,-0.9238640269175172,0.1649059000402689,0.2817002417318522,0.0435937270522117,0.9894927740097046,-0.7835460901260376
1774471242848243500,6.291243408203125,-0.7340528182014823,0.0973188029795885,0.1747511483587324,0.0656560286879539,1.1064612865447998,-0.7983556985855103
1774471242858255600,6.301255615234375,-0.5922527761995792,0.0289589679807424,0.1252976738817989,0.0759486183524131,1.1590086221694946,-0.7931209802627563
1774471242868268500,6.3112685546875,-0.4754372455894947,-0.0868698896795511,0.0381463369123637,0.0636306926608085,1.1728930473327637,-0.7658737301826477
1774471242878281500,6.321281494140625,-0.3858008138060569,-0.1028133087426424,0.0286345583319664,0.0230819322168827,1.2296886444091797,-0.7406290769577026
1774471242888294400,6.33129443359375,-0.3414244964629411,-0.0074392100900411,-0.0705669896543026,-0.0236737728118896,1.2403061389923096,-0.7048065066337585
1774471242898307600,6.3413076171875,-0.0300870952278375,-0.0344067119926214,-0.0471292693130671,-0.064902439713478,1.1450395584106443,-0.6452782154083252
1774471242908320800,6.35132080078125,0.3506017823919654,0.0073538698941469,-0.0069581485748291,-0.1072799935936927,1.0466041564941406,-0.5819808840751648
1774471242918333400,6.36133349609375,0.5749480056554078,0.1092272674381732,-0.0500448644988238,-0.1328010708093643,0.9450790882110596,-0.5452606678009033
1774471242928346600,6.3713466796875,0.7609118912935257,0.106256727194786,-0.0926639629110693,-0.129836767911911,0.833571195602417,-0.5093948245048523
1774471242938359600,6.381359619140625,0.7840045975893736,0.0377460855484008,-0.1870611793555319,-0.0991401150822639,0.6697242259979248,-0.4641599655151367
1774471242948372500,6.39137255859375,0.710720165669918,-0.1292600016415119,-0.2956374355390668,-0.0601636059582233,0.4557496011257171,-0.4273677468299866
1774471242958385400,6.401385498046875,0.6332295142322778,-0.5214420409172773,-0.4844453124314546,-0.0823682472109794,0.3292457163333893,-0.4571056663990021
1774471242968398600,6.411398681640625,0.652259793394804,-0.7605506567656993,-0.6669340693049133,-0.1786215901374817,0.252633661031723,-0.5448142886161804
1774471242978411500,6.42141162109375,0.7923913176625966,-1.0240665686398744,-0.9069567312583326,-0.3600616753101349,0.2248134762048721,-0.6046896576881409
1774471242988424400,6.431424560546875,0.5498194096177816,-1.5873539471179243,-1.3283295014441012,-0.621382474899292,0.2081313729286193,-0.6175071001052856
1774471242998437600,6.441437744140625,0.241837164029479,-2.070763486760854,-1.6289847651451823,-0.8870101571083069,0.2306593209505081,-0.5928715467453003
1774471243008450600,6.451450439453125,0.219406721034646,-1.9941607240736483,-1.6113292814671991,-1.1003496646881104,0.2415399849414825,-0.5496820211410522
1774471243018463500,6.46146337890625,0.4042880721330642,-1.607717520710826,-1.409672152134776,-1.2154157161712646,0.16814886033535,-0.4763643741607666
1774471243028476400,6.471476318359375,0.6278665258944034,-1.106733745932579,-1.106737253063917,-1.2337125539779663,0.0359207279980182,-0.405791163444519
1774471243038488600,6.481488525390625,0.9904682504206896,-0.5790624552369117,-0.7177014028593898,-1.1902366876602173,-0.1270357072353363,-0.3635901808738708
1774471243048501500,6.49150146484375,1.2829869694173337,0.0468383235424757,-0.3698822369232774,-1.071646213531494,-0.2260893881320953,-0.3763381242752075
1774471243058514700,6.5015146484375,1.4332435818582772,0.7674637971550226,-0.044929859572649,-0.8795579671859741,-0.2051968872547149,-0.4440473914146423
1774471243068527400,6.51152734375,1.3965543118864296,1.3498890068233012,0.1146460776165127,-0.6466116309165955,-0.1859574019908905,-0.4863075911998749
1774471243078540500,6.52154052734375,1.3612480207055806,1.4659464125424622,0.1038423595294356,-0.4876654148101806,-0.1716916412115097,-0.5316005349159241
1774471243088553500,6.531553466796875,1.2280337284803389,1.2013257542967797,-0.0174707747608423,-0.4111874103546142,-0.1970668137073516,-0.5765617489814758
1774471243098566700,6.541566650390625,0.9854852013111114,0.9439110819071532,-0.0411406964227557,-0.3821674585342407,-0.2522392570972442,-0.5949889421463013
1774471243108579600,6.55157958984375,0.7237731239885091,0.6171095695585012,-0.2499056119337677,-0.3952857553958893,-0.3424656987190246,-0.546902060508728
1774471243118592500,6.561592529296875,0.4006161056220531,0.1156213523894548,-0.4429997878432273,-0.4378846287727356,-0.4235594868659973,-0.4366658627986908
1774471243128605700,6.571605712890625,0.1570873352438211,-0.3425152143090963,-0.725022831788659,-0.5147469639778137,-0.4527587592601776,-0.3063217401504516
1774471243138618400,6.581618408203125,-0.0158522336483001,-0.5802846905082464,-0.9306053178712724,-0.6117691397666931,-0.4353611171245575,-0.191688671708107
1774471243148631600,6.591631591796875,-0.0576496404141187,-0.6126251176208257,-0.9936299293220042,-0.7169630527496338,-0.4385548532009125,-0.0775091126561164
1774471243158644500,6.60164453125,0.0897895765185356,-0.4445218828439712,-0.843370686532557,-0.7835508584976196,-0.5031013488769531,0.0278165116906166
1774471243168657700,6.61165771484375,0.3446376132905483,-0.0313134221524,-0.5084814370572567,-0.7784278988838196,-0.6426102519035339,0.1089357137680053
1774471243178670600,6.621670654296875,0.5559188955366611,0.3725473644793033,-0.2125526173561811,-0.7606734037399292,-0.8720943331718445,0.1898036748170852
1774471243188683500,6.63168359375,0.7699702270179987,0.5401245295554399,-0.0357566652968525,-0.6843621134757996,-1.1638270616531372,0.2524185180664062
1774471243198695700,6.64169580078125,1.2214853297501802,1.127698208028078,0.4392623548805713,-0.5301606059074402,-1.5550369024276731,0.3005234599113464
1774471243208708600,6.65170849609375,1.4787532871454954,1.4006781138181683,0.5349678774446248,-0.4112962484359741,-1.8494850397109983,0.3562904000282287
1774471243218721500,6.661721435546875,1.225945231768489,1.2489064206391571,0.3565186052203178,-0.3452487587928772,-2.023470878601074,0.4295800626277923
1774471243228734500,6.671734375,0.9429390220046044,0.9264332928836344,0.0450245521187782,-0.3687140047550201,-2.083589792251587,0.5107251405715942
1774471243238747600,6.68174755859375,0.7259025372326373,0.3396265071302652,-0.2361515196084976,-0.5050957798957825,-1.7965515851974487,0.4876006245613098
1774471243248760600,6.691760498046875,-0.455921228736639,-0.7578045729279518,-0.5448959817409516,-0.764144241809845,-0.9213070273399352,0.1634666472673416
1774471243258773500,6.7017734375,-1.5100632021665572,-1.035000050586462,-0.8766200451835989,-0.7970097661018372,-0.1974558532238006,-0.2258723229169845
1774471243268786400,6.711786376953125,-1.7462708358764647,-0.1080015250355005,-0.4835767129033804,-0.6132675409317017,-0.0258230604231357,-0.3476996123790741
1774471243278799600,6.721799560546875,-1.736186079713702,0.5159136328846216,-0.2586512284472584,-0.362903743982315,-0.1914447844028473,-0.2560834288597107
1774471243288812500,6.7318125,-1.4695155032008886,0.5339607462286949,0.0743003309637308,-0.1845012605190277,-0.3136815130710602,-0.0757863000035286
1774471243298825500,6.741825439453125,-1.4692396088689563,0.3190893305361271,0.1389697870120406,-0.1294667720794677,-0.1927457749843597,0.1130491346120834
1774471243308838700,6.751838623046875,-1.5857412512242792,0.2285001280725002,-0.0207972888350486,-0.1476079523563385,0.1166763380169868,0.30801722407341
1774471243318851600,6.7618515625,-1.6889865216434,0.2983428951054811,-0.0270309225276112,-0.1778327077627182,0.5459166765213013,0.5243990421295166
1774471243328864500,6.771864501953125,-1.7800035941302774,0.4688526065021753,0.2791810985177755,-0.2667655348777771,0.8452328443527222,0.7570005059242249
1774471243338877400,6.78187744140625,-1.4083528862297534,0.3337567383140325,0.3972200334429741,-0.3578168749809265,1.019728422164917,0.9499883651733398
1774471243348889600,6.7918896484375,-0.5599222859591245,0.2613596106231212,0.4700061604514717,-0.3658497333526611,1.0994445085525513,1.1025121212005615
1774471243358902500,6.801902587890625,-0.1222293723523616,0.5479202979981899,0.5737514893472194,-0.3052345812320709,1.0794484615325928,1.1768581867218018
1774471243368915500,6.81191552734375,0.4586234734326601,0.557440990537405,0.3749699154511094,-0.255790114402771,1.0290669202804563,1.1231247186660769
1774471243378928600,6.8219287109375,1.020874494600296,-0.2768342431306839,-0.0445224478155374,-0.2972273230552673,1.092159390449524,0.9374411702156068
1774471243388941600,6.831941650390625,0.9338713339298964,-1.1920862167865036,-0.6749617468073964,-0.3404825925827026,1.2247353792190552,0.6709854006767273
1774471243398954800,6.841954833984375,0.5885790561228991,-1.1520406221240758,-0.8508151573196053,-0.2941398620605469,1.3659346103668213,0.3291689455509186
1774471243408967400,6.851967529296875,0.5454962857216596,-1.3369400934010742,-0.48668256996423,-0.2273476719856262,1.3310794830322266,0.0187807641923427
1774471243418980600,6.861980712890625,0.5914788692176342,-1.3162854279071092,0.1607780064553022,-0.1281659603118896,1.016556978225708,-0.1447301357984542
1774471243428993500,6.87199365234375,0.3245645470768213,-0.8692185367554426,0.9284361571386456,-0.0551559552550315,0.6082141995429993,-0.1366619318723678
1774471243439006500,6.88200634765625,-0.2634679810792207,-0.3057978872865438,1.0658557920992373,-0.0109027391299605,0.2893251478672027,0.0048059877008199
1774471243449019400,6.892019287109375,-0.5500672468990088,0.3356581880211829,1.2085247258901597,0.0114429434761404,0.1606887876987457,0.1787545680999755
1774471243459032600,6.902032470703125,-0.6687398035526275,0.4557499638229608,1.5065607470035551,-0.0021980335004627,0.3929963409900665,0.3492075204849243
1774471243469045800,6.912045654296875,-1.297458562362194,0.4688619588524103,1.0579279217094182,-0.0620172619819641,0.7262464761734009,0.512693464756012
1774471243479058400,6.922058349609375,-2.0205390279114246,0.3375204747617245,0.9534262214884162,-0.0268787108361721,0.8266969323158264,0.7378970384597778
1774471243489070600,6.932070556640625,-1.9402958628952505,-0.1004243677794933,1.0189251140981912,-0.0408811643719673,0.6192950010299683,0.9301987886428832
1774471243499083500,6.94208349609375,-1.369453538993001,-0.3031786446988582,0.8489610538855195,-0.015446912497282,0.25519460439682,1.0219814777374268
1774471243509096700,6.9520966796875,-0.946995896179974,-0.373605349099636,1.176346795862913,0.0985179916024208,0.1173296049237251,1.0155357122421265
1774471243519109400,6.962109375,-0.7229799277842044,-0.7008879229635,2.1785607213959097,0.2028510570526123,-0.0638287290930748,0.9980787634849548
1774471243529122600,6.97212255859375,-0.2861839630171656,-0.7314531570971011,2.20902454098165,0.2942293286323547,-0.2602728605270386,0.9550766348838806
1774471243539135500,6.982135498046875,0.0981651906758546,-0.5828828903079033,2.055742150978744,0.3950052261352539,-0.4957136213779449,0.8889506459236145
1774471243549148700,6.992148681640625,0.5329857637166977,-0.5606535228431224,1.6070555496707557,0.4204864501953125,-0.597831130027771,0.7953986525535583
1774471243559161600,7.00216162109375,0.8999360388413071,-0.4448562293648719,1.4614134452879428,0.4609342813491821,-0.5273883938789368,0.6964920163154602
1774471243569174500,7.012174560546875,0.7615496046751737,-0.4558808967262506,1.6977759772986172,0.5568186640739441,-0.4771177172660827,0.6595081686973572
1774471243579187700,7.022187744140625,0.6221843886047601,-0.4438976134657859,1.617026908586919,0.5931060910224915,-0.4154269397258758,0.6502989530563354
1774471243589200400,7.032200439453125,0.6757850458890199,-0.0967804583191871,0.8536571027472615,0.6231377720832825,-0.3637765944004059,0.6630720496177673
1774471243599213600,7.042213623046875,0.4027157082498073,-0.0704465781450271,0.7566065953150392,0.6120640635490417,-0.2380053550004959,0.7104334831237793
1774471243609226500,7.0522265625,-0.0140209265679121,0.3896376154899597,0.3305173180013895,0.5300490260124207,-0.0497658140957355,0.7763673663139343
1774471243619239700,7.06223974609375,-0.1598567999571561,0.8305541673183441,-0.0276949393942952,0.4239047765731811,-0.0073813404887914,0.841831624507904
1774471243629251600,7.07225146484375,-0.4264396981865167,0.937217721748352,0.2184013433843851,0.3379282355308532,-0.0132907731458544,0.906264305114746
1774471243639264500,7.082264404296875,-0.2650362533092498,0.9574994622766972,-0.1981657800853252,0.2075249403715133,0.005297559313476,0.8980655074119568
1774471243649277400,7.09227734375,0.0421215241536498,0.9243056332051752,-0.7922337890133261,0.129654049873352,-0.012954487465322,0.8567405343055725
1774471243659290600,7.10229052734375,0.0312996858879923,0.6900561478257179,-0.4648550612986087,0.0605753846466541,-0.1349943727254867,0.7963581681251526
1774471243669303600,7.112303466796875,0.014830489385128,0.6424129376411437,-0.3071510554611683,0.0372389182448387,-0.2242429852485656,0.740350067615509
1774471243679316500,7.12231640625,0.1323357558250427,0.5996060615718365,-0.2429334348335862,0.0169421695172786,-0.2831963002681732,0.6568748950958252
1774471243689329700,7.13232958984375,0.3549015254124998,0.4796265139728784,-0.2271481289416551,0.0092751607298851,-0.2850558161735534,0.5487474799156189
1774471243699344400,7.142344482421875,0.5259609796464443,0.3396598248779773,-0.373693027383089,0.0068093398585915,-0.3031477332115173,0.4392662942409515
1774471243709357300,7.152357421875,0.5178536610364913,0.2600222245395183,-0.494541759032011,0.0012237392365932,-0.307677298784256,0.3396539390087127
1774471243719370200,7.162370361328125,0.4967945063948631,0.326122297912836,-0.4691045354366302,-0.0133597310632467,-0.2900948524475097,0.2551105618476867
1774471243729383200,7.172383056640625,0.4476245250344276,0.4071306020826101,-0.4081377332985401,-0.0237393211573362,-0.225835844874382,0.1882145851850509
1774471243739396400,7.182396240234375,0.1804766863986849,0.5435509968727826,-0.3782020292401313,-0.0349328517913818,-0.1588200628757476,0.1741195321083068
1774471243749409300,7.1924091796875,-0.1775178365930914,0.737699358010292,-0.3786743229269981,-0.0452945381402969,-0.1666214019060135,0.2018978148698806
1774471243759421400,7.20242138671875,-0.2962190348193049,0.8029869459569454,-0.4457429490715265,-0.0651955381035804,-0.211226150393486,0.2257983535528183
1774471243769434000,7.21243408203125,-0.1936281366556883,0.7410796480983495,-0.5119903219610452,-0.0898657292127609,-0.188773900270462,0.2229392677545547
1774471243779447300,7.222447265625,-0.3088601974666118,0.6251818168550729,-0.6089122345775365,-0.1225275322794914,-0.0759421661496162,0.2521647810935974
1774471243789460200,7.232460205078125,-0.7167106382563709,0.7340443426340818,-0.6532233777299523,-0.160735622048378,0.0121480543166399,0.3358229696750641
1774471243799473400,7.242473388671875,-0.8991185849785804,0.806146871292591,-0.5487216775089502,-0.1866329908370971,-0.0062605133280158,0.4178826808929443
1774471243809486300,7.252486328125,-0.7135983514547347,0.7655389665722847,-0.3736643858104944,-0.1985129714012146,-0.1251929402351379,0.4537902176380157
1774471243819499300,7.262499267578125,-0.3613064240187406,0.6421013874739409,-0.2882876572981476,-0.2097499072551727,-0.2547333538532257,0.4376887679100036
1774471243829512400,7.272512451171875,-0.1235845863536,0.4776110824972391,-0.3196338126763701,-0.2222056835889816,-0.3237647116184234,0.3845416307449341
1774471243839525000,7.282525146484375,-0.0217164495065808,0.3053799541354179,-0.4065703378513455,-0.23267562687397,-0.3820013999938965,0.314538300037384
1774471243849538300,7.292538330078125,0.0394467519864439,0.2317155829876661,-0.352058995462954,-0.2399744987487793,-0.4931593239307403,0.2612566947937011
1774471243859551200,7.30255126953125,-0.0023392566025257,0.2905991491109133,-0.2184492741793394,-0.2354822754859924,-0.5964681506156921,0.2397782951593399
1774471243869564400,7.312564453125,-0.1858911126628518,0.4304278910398483,-0.0600733604297041,-0.2183421403169632,-0.6633476614952087,0.2449835538864135
1774471243879577300,7.322577392578125,-0.2735597515046596,0.5295066894292831,0.0846200649261474,-0.1959859579801559,-0.7478566765785217,0.2445055097341537
1774471243889589200,7.33258935546875,-0.0517167432337999,0.4726163429498672,0.1880617347002029,-0.1681816577911377,-0.855804443359375,0.2052148431539535
1774471243899602400,7.3426025390625,0.1723737517029047,0.4043260660558939,0.2888660417079925,-0.139744684100151,-0.9457045197486876,0.1465227752923965
1774471243909615400,7.352615478515625,0.2689230316147208,0.3418003440380096,0.2495516839295625,-0.1092495247721672,-0.9993106722831726,0.0912095010280609
1774471243919628300,7.362628173828125,0.3290013604804873,0.3934381768167018,0.1761979861661791,-0.0915237963199615,-1.0413689613342283,0.0440973788499832
1774471243929641200,7.37264111328125,0.3919301103413105,0.4999281282454729,0.1530252003714442,-0.0814451202750206,-1.0755317211151123,0.0098508168011903
1774471243939654400,7.382654296875,0.5028250187307596,0.6503378854215145,0.1964870332181453,-0.0932423919439315,-1.0867739915847778,-0.01232186332345
1774471243949667300,7.392667236328125,0.5989151566982269,0.7633230440884828,0.2139072468355297,-0.128272607922554,-1.0517573356628418,-0.0238071847707033
1774471243959680300,7.40268017578125,0.6424529773905873,0.8825403751432895,0.1210927695378661,-0.1868064850568771,-0.948655605316162,-0.0315367430448532
1774471243969693200,7.412693115234375,0.647576604014635,0.9634709379017352,0.036962533955276,-0.2705741822719574,-0.7686172127723694,-0.0213541593402624
1774471243979706400,7.422706298828125,0.5807260045349597,1.072199608168006,-0.0407879374623298,-0.3567569851875305,-0.5380601286888123,0.023411713540554
1774471243989719300,7.43271923828125,0.3746799925938248,1.0607014780759811,0.1436111830770969,-0.350657194852829,-0.3551757335662842,0.1267378777265548
1774471243999732200,7.442732177734375,-0.02304214515239,0.4898118079006671,0.953807037499547,-0.2207705676555633,0.1948056519031524,0.324289858341217
1774471244009744400,7.452744384765625,-0.0953308440327644,-0.2795347342610359,2.195579660736024,0.0054527595639228,0.8904805779457092,0.5377340912818909
1774471244019757300,7.46275732421875,0.2923100446820258,-0.7458242122769355,3.129542764602601,0.3165019750595093,1.5705249309539795,0.6858566999435425
1774471244029770500,7.4727705078125,0.6233697989970445,-1.3526286609202622,3.4332992091894146,0.5713973641395569,1.9704227447509768,0.6592587828636169
1774471244039783200,7.482783203125,1.369246618244052,-0.9134709354579448,3.1024013674378392,0.7485918402671814,1.8744113445281985,0.4277355670928955
1774471244049796400,7.49279638671875,1.8241984174266457,-0.2731944253236055,1.7905141744896769,0.7951172590255737,1.528301239013672,0.1101072430610656
1774471244059809300,7.502809326171875,1.679863011728227,0.1797054097652435,0.6721244775548577,0.7550675868988037,1.2231301069259644,-0.1932531744241714
1774471244069822200,7.512822265625,1.2205895499542354,0.5807312652319669,0.2568278124123812,0.6918843984603882,0.9744200110435486,-0.4207370281219482
1774471244079835400,7.52283544921875,0.7594970560595393,0.9196002319931984,-0.006124620360136,0.6105610728263855,0.6862601041793823,-0.5691749453544617
1774471244089848300,7.532848388671875,0.3088087595403194,1.137862459167838,-0.0614031477287411,0.5129751563072205,0.4577438235282898,-0.6637429594993591
1774471244099861500,7.542861572265625,-0.0733987059488892,1.3667933798730372,-0.0841086082726716,0.4849914014339447,0.4214076399803161,-0.679531455039978
1774471244109874200,7.552874267578125,-0.5084422740906477,1.177087385097146,0.1334776193365454,0.4831022322177887,0.3928117156028747,-0.6231988668441772
1774471244119886300,7.56288623046875,-0.8233785766005516,0.7980150027632713,-0.1225996669694781,0.4769766926765442,0.3944317102432251,-0.5160217881202698
1774471244129899300,7.572899169921875,-0.9277812003612518,0.7398112355977297,-0.3679363635525107,0.3882984817028045,0.4851499497890472,-0.3975671231746673
1774471244139912400,7.582912353515625,-0.9429626951411366,1.01404084918797,-0.8435852060660719,0.2304390668869018,0.601620078086853,-0.2958540618419647
1774471244149925000,7.592925048828125,-0.8611372293695807,1.314273503562808,-1.3105226265966892,0.0495543554425239,0.6588580012321472,-0.1999120116233825
1774471244159938300,7.602938232421875,-0.7933750680029392,1.5186013134092091,-1.6722390927210449,-0.106603018939495,0.6219186186790466,-0.0834828689694404
1774471244169951200,7.612951171875,-0.7841758625030517,1.6933254276305436,-1.2839657513216136,-0.0781161785125732,0.3440384566783905,0.1230762153863906
1774471244179964400,7.62296435546875,-0.9854282104268668,1.204635317236185,-1.2366659477472304,0.0032532489858567,0.2913542091846466,0.3557294309139251
1774471244189977300,7.632977294921875,-0.9863280818760396,-0.0139671505540609,-0.1789946311473846,0.2418306320905685,0.3780257403850555,0.5917612910270691
1774471244199990300,7.642990234375,-0.5560840229704975,-0.6501940930366515,0.8058242152094841,0.6045750379562378,0.1821214854717254,0.6583378911018372
1774471244210003500,7.65300341796875,-0.0205979668706655,-0.6539356176525354,0.9941083604887128,0.9081570506095886,-0.2776870727539062,0.7199481129646301
1774471244220016000,7.66301611328125,-0.3271650849640369,-1.5120587598979471,1.050026354804635,1.021373629570007,-0.6547960042953491,0.8316072225570679
1774471244230029300,7.673029296875,-0.4457575621187686,-1.911235772627592,1.510893515510857,0.8819096088409424,-0.6938687562942505,0.870817244052887
1774471244240042200,7.683042236328125,-0.0220353061974048,-1.2103045950442552,0.8006047269955276,0.5990235805511475,-0.5940449833869934,0.7878496646881104
1774471244250054400,7.693054443359375,0.7023717317804694,-0.603996990007162,0.5783750574946404,0.4424388110637665,-0.525752604007721,0.5829061269760132
1774471244260067300,7.7030673828125,1.6880527479246257,0.2999076602041721,1.410537829053402,0.385987251996994,-0.4391655325889587,0.3130011558532715
1774471244270080300,7.713080322265625,1.6025336883321404,0.5537830525517463,1.150169567555189,0.2768013775348663,-0.2511994242668152,0.0536785945296287
1774471244280093200,7.72309326171875,1.0709504848897458,0.0683756170898675,-0.0313508315533399,0.1791224777698516,-0.1046728193759918,-0.1898320764303207
1774471244290106400,7.7331064453125,1.0041855178669097,-0.2323404368877411,-0.599075315696001,0.1262155324220657,-0.102107360959053,-0.3512704372406006
1774471244300119300,7.743119384765625,0.8705544615343213,-0.4310205962359905,-0.4824944706246256,0.0996361300349235,-0.1872587502002716,-0.4118144512176513
1774471244310132200,7.75313232421875,0.4910638537883758,-0.6609294220626354,-0.3547100944936275,0.0927016139030456,-0.2504472434520721,-0.4260067045688629
1774471244320145400,7.7631455078125,0.1865150897800922,-0.569373420393467,-0.1387216574698686,0.0940987020730972,-0.2780535519123077,-0.4115065932273865
1774471244330158300,7.773158447265625,-0.0115203419238328,-0.3883534208983182,-0.0336851197198033,0.0693439990282058,-0.2889849543571472,-0.373664915561676
1774471244340171300,7.783171142578125,-0.2124927038624882,-0.389236048951745,-0.2858209749236702,0.0589017458260059,-0.3356563150882721,-0.3335933983325958
1774471244350184200,7.79318408203125,-0.1483507788196206,-0.199227271836996,-0.1015562944188714,0.0516378134489059,-0.3868650794029236,-0.282071053981781
1774471244360196400,7.8031962890625,-0.1999097011432051,-0.0370750544190406,0.0776081403374671,0.0356218293309211,-0.3964982628822326,-0.222821295261383
1774471244370209300,7.813209228515625,-0.2238581474855542,-0.17473229752779,0.4056374409154057,0.045844979584217,-0.4107378125190735,-0.1612794399261474
1774471244380222200,7.82322216796875,-0.1243833355158567,-0.302487155303359,0.7132058450058102,0.0750734359025955,-0.4777149856090545,-0.114465594291687
1774471244390235100,7.833235107421875,-0.0774903591766953,-0.3526075692564249,0.5537178783610462,0.0959192439913749,-0.5409139394760132,-0.0783805698156356
1774471244400248300,7.843248291015625,-0.1914122141718864,-0.3911953663259744,0.3506799621947109,0.0912493914365768,-0.5379067063331604,-0.0543894916772842
1774471244410261500,7.853261474609375,-0.3036310646414756,-0.3454688034176826,0.0159571553274989,0.0189109798520803,-0.5167146921157837,-0.0728852078318595
1774471244420274200,7.863274169921875,-0.2499658176884055,-0.3454349011480808,-0.1168615617088973,0.0187035202980041,-0.4385040700435638,-0.1341509670019149
1774471244430287400,7.873287353515625,-0.0812117177873849,-0.5203326183706521,0.0647087651453912,0.0561353266239166,-0.3650819957256317,-0.2165437936782837
1774471244440300300,7.88330029296875,0.1069110994502902,-0.5583171888500452,0.0447365289576351,0.0839075744152069,-0.2950864136219024,-0.2932343184947967
1774471244450313200,7.893313232421875,0.1107598838329315,-0.5078863937735557,-0.213682059777528,0.0722154229879379,-0.2115055918693542,-0.3454471230506897
1774471244460326100,7.903326171875,-0.0032858898028731,-0.3412619993776082,-0.3820373696193099,0.0141518516466021,-0.1001905277371406,-0.3627275824546814
1774471244470338300,7.91333837890625,-0.0957704044938087,-0.080879709354043,-0.2750295317962765,-0.0362562984228134,0.0241723395884037,-0.3434721827507019
1774471244480351200,7.923351318359375,-0.1313794780135154,0.0537041176587343,-0.0166917532123625,-0.0603792108595371,0.1347502470016479,-0.2977326512336731
