time,seconds_elapsed,accel_x,accel_y,accel_z,gyro_x,gyro_y,gyro_z
1774472497002441700,0.070441650390625,-1.6295383073747156,0.6450156674854457,1.280143124293536,0.2246074676513672,0.6342971324920654,0.1762012243270874
1774472497012459500,0.08045947265625,-1.89857619754076,0.6144491181775927,1.1698131563104688,0.3463032841682434,0.7962297201156616,0.3643771708011627
1774472497022477600,0.0904775390625,-1.673113829728961,0.5675609641440212,1.0350956199154258,0.4778195023536682,0.9715278148651124,0.5221856832504272
1774472497032495600,0.10049560546875,-0.8975205021321773,0.2923701043061912,0.5982764204032719,0.5648244023323059,1.0579309463500977,0.5811090469360352
1774472497042513700,0.110513671875,0.0962532195746898,-0.0423772524803876,0.4430823515601456,0.6018644571304321,1.0570813417434692,0.5058742165565491
1774472497052531500,0.120531494140625,1.0788304244846103,-0.3800660695463418,0.3038357934333384,0.5855934619903564,1.0070384740829468,0.3378424644470215
1774472497062549500,0.130549560546875,1.332438690328598,-0.6643355772443116,0.225343855998665,0.4758903682231903,0.9605773091316224,0.1218752712011337
1774472497072567600,0.140567626953125,1.0358943690776825,-0.4944274850025772,0.1796311754852533,0.2895154654979706,0.9157383441925048,-0.0595180429518222
1774472497082584600,0.15058447265625,0.8755418945580721,-0.11926701541543,-0.0911500512167811,0.1344398707151413,0.8343729376792908,-0.1581775099039077
1774472497092602400,0.160602294921875,0.6977993092983961,0.0433837991744279,0.0499273755989968,0.0957150384783744,0.6921438574790955,-0.172034740447998
1774472497102620700,0.17062060546875,0.4680278461158275,0.1272787646964192,0.2672998143270612,0.1953920871019363,0.5683037042617798,-0.1043688729405403
1774472497112638500,0.180638427734375,0.2791957115650176,0.2649079507544636,0.3066577189862728,0.3869170844554901,0.5657072067260742,0.0050233551301062
1774472497122656500,0.190656494140625,-0.1571504636079073,0.3658341305762529,-0.1101500813715159,0.5719478726387024,0.7363995909690857,0.110951118171215
1774472497132674600,0.200674560546875,-0.2192898166567087,0.3606105507090688,-0.7676169418901204,0.6978957056999207,0.8846324682235718,0.1709217280149459
1774472497142692600,0.210692626953125,0.2360521508872509,0.2155783949181437,-0.9854176890328524,0.7180467247962952,0.8341708779335022,0.1550921648740768
1774472497152710400,0.22071044921875,0.8032686855077743,-0.002742430575937,-0.7168555996850132,0.635688066482544,0.719095766544342,0.0761911571025848
1774472497162728400,0.230728515625,1.5301619873434305,-0.0413673447854816,-0.4657221995219588,0.5324575304985046,0.657988965511322,-0.0291304755955934
1774472497172746800,0.240746826171875,2.343627657216788,-0.1273297642312943,-0.4920778531365096,0.4816157221794128,0.6631853580474854,-0.1794106513261795
1774472497182764500,0.2507646484375,2.4542162761360404,-0.4081676900453865,-0.1793501665867864,0.4705162048339844,0.5802507996559143,-0.4359340369701385
1774472497192782600,0.260782470703125,2.224744088160992,-0.5949507831119001,-0.1757555030956864,0.4717254936695099,0.3803804814815521,-0.7129278182983398
1774472497202799600,0.270799560546875,2.3182874642550946,-0.5536966894425451,-0.1562353945896029,0.4709294736385345,0.1538592129945755,-0.9253863096237184
1774472497212817400,0.2808173828125,1.6869477092921732,-0.5514310825981199,0.2678171161994337,0.4415932893753052,0.031616736203432,-1.0354576110839844
1774472497222835500,0.29083544921875,0.6553922462016344,-0.4680312071166932,0.5965225624732673,0.397966980934143,0.0299594514071941,-1.0485150814056396
1774472497232853800,0.300853759765625,-0.1273223115772009,-0.3711608785569668,0.5336183625318109,0.3573735356330871,0.0986120477318763,-0.9561288356781006
1774472497242871600,0.31087158203125,-0.5915840831577778,-0.4372931006342172,0.4777113280013203,0.3383694887161255,0.2421084940433502,-0.7885438203811646
1774472497252889600,0.3208896484375,-0.5094529124379158,-0.5639196850322187,0.6894865312442183,0.340526819229126,0.4603136479854584,-0.6089297533035278
1774472497262907400,0.330907470703125,-0.1387368550390005,-1.1096170462839303,0.7390686005368828,0.3334004580974579,0.519243061542511,-0.4508322477340698
1774472497272925700,0.34092578125,0.6949655471771955,-1.745945841705799,0.7817574031844735,0.2989330887794494,0.4337276816368103,-0.3948146998882293
1774472497282943500,0.350943603515625,1.1596844148755072,-1.971970227314532,0.8475093937724828,0.1930876076221466,0.3191076219081878,-0.4232138395309448
1774472497292961500,0.36096142578125,1.017222401833534,-1.925768886501342,0.5039595757186413,-0.004779702052474,0.0161695741117,-0.4739596247673034
1774472497302979600,0.3709794921875,-0.2337923892617225,-1.999613582652062,0.1150663488551974,-0.3106141984462738,-0.3526065945625305,-0.4383411705493927
1774472497312997600,0.38099755859375,-1.9633844775378704,-1.7576709124214946,-0.171636377339065,-0.6156272292137146,-0.3299643695354461,-0.2322991043329239
1774472497323015400,0.391015380859375,-2.9644238063335417,-1.2703821932576596,-0.1678418073616921,-0.7371701598167419,-0.2306375205516815,0.1677425801753997
1774472497333033500,0.401033447265625,-3.0532302170336245,-0.9132035166934132,-0.1079195458404719,-0.6567794680595398,-0.2269839346408844,0.6181842088699341
1774472497343050500,0.411050537109375,-2.6434716045349838,-0.5401492256052792,0.0038582828633487,-0.5001866817474365,-0.1471538245677948,0.9229837656021118
1774472497353068500,0.421068603515625,-1.5064596247166395,-0.3303004603803157,-0.0039319326214492,-0.3521485328674316,-0.1323255002498626,0.9949960708618164
1774472497363086300,0.43108642578125,-0.3325865254908799,-0.4149297315262257,-0.3624184769138693,-0.2603027820587158,-0.2134006470441818,0.8563540577888489
1774472497373104600,0.441104736328125,0.0707797556221485,-0.7213231004878878,-0.8059155467547476,-0.2631811499595642,-0.2330040335655212,0.6227556467056274
1774472497383122400,0.451122314453125,0.2684083600908518,-1.1238378793381154,-1.0110352376312015,-0.3629157543182373,-0.1894850432872772,0.3935291469097137
1774472497393140500,0.461140380859375,0.3232324216902256,-1.177362256515771,-1.017949839325249,-0.5802058577537537,-0.1440086513757705,0.1906854212284088
1774472497403158500,0.471158447265625,-0.0349982481449842,-0.9268728533446788,-1.0138326132647693,-0.878679096698761,-0.1063859090209007,0.028546318411827
1774472497413176600,0.481176513671875,-0.5909925470054149,-0.7481374576553702,-0.3765791042134165,-1.13456928730011,-0.0026513449847698,-0.072037436068058
1774472497423194600,0.491194580078125,-0.8637462428241968,-0.3455065050795674,0.3505990059129893,-1.2541508674621582,0.150038331747055,-0.0818988531827926
1774472497433212400,0.50121240234375,-1.0837614511460063,0.3390283951066434,0.8702516791954636,-1.222255825996399,0.3265112936496734,-0.0157765168696641
1774472497443230700,0.511230712890625,-1.0951187114626169,0.950146907556802,1.1369640490233897,-1.0739057064056396,0.5985094904899597,0.0800147280097007
1774472497453248500,0.52124853515625,-1.0535668038904666,1.2276288009412586,1.2928656816139816,-0.8393604755401611,0.9158153533935548,0.1424899399280548
1774472497463266600,0.5312666015625,-0.6682593265593052,1.4672814605385065,1.4641113060697912,-0.5448672771453857,1.2424774169921875,0.0964553356170654
1774472497473284600,0.54128466796875,0.0394815310388803,1.6296549194917085,1.57142601788491,-0.1906890124082565,1.3878823518753052,-0.0777449160814285
1774472497483302700,0.551302734375,0.6622948651969432,1.6509047743998466,1.8252961495354767,0.1970999985933303,1.3879529237747192,-0.3370206952095032
1774472497493320400,0.561320556640625,0.8655103298872708,1.4789596233725546,1.318743634714186,0.5136263966560364,1.13043212890625,-0.5841864943504333
1774472497503337700,0.571337646484375,0.6879419321507215,0.6936233387880026,0.0334752763614058,0.6412174105644226,0.6485216021537781,-0.6736090183258057
1774472497513355500,0.58135546875,0.0175146139025688,-0.2952297315210104,-0.238321557123959,0.5771828293800354,0.2682822048664093,-0.5420571565628052
1774472497523373600,0.59137353515625,-0.6234259130984544,-0.911296221767366,-0.3246542711868882,0.3572800755500793,0.0224452726542949,-0.2598987221717834
1774472497533391400,0.601391357421875,-1.0406149678587913,-1.0744175764784216,-0.535793806874752,0.0298249833285808,-0.2143318504095077,0.0955648496747016
1774472497543409700,0.61140966796875,-1.0692056870490312,-0.9491524896919726,-0.511575019158423,-0.2848277688026428,-0.3264432251453399,0.4469753503799438
1774472497553427500,0.621427490234375,-0.8631570447593927,-0.5896680204033852,-0.2733668592810631,-0.4883121848106384,-0.290344774723053,0.6989149451255798
1774472497563445500,0.631445556640625,-0.4575765947282314,-0.1324777946442365,0.1510401640340685,-0.5425498485565186,-0.3269581794738769,0.7768683433532715
1774472497573463600,0.641463623046875,0.1003594858497381,0.3318266470342874,0.5887725328683853,-0.4722128510475158,-0.4098949730396271,0.6824942827224731
1774472497583481600,0.651481689453125,0.5711018516212701,0.7061052192203701,0.7423387082487344,-0.3462256193161011,-0.6966777443885803,0.5147870182991028
1774472497593499600,0.661499755859375,0.5564397045403718,0.9279241159632802,0.6790905171751975,-0.2577803134918213,-0.9937943816184998,0.4492912888526916
1774472497603517400,0.671517333984375,-0.4006786494642496,0.9170872262589632,0.4885761286258697,-0.2182861566543579,-1.031183123588562,0.5140958428382874
1774472497613535700,0.68153564453125,-1.352828567406535,0.8483107732832431,0.338766967691481,-0.2017308622598648,-0.9040429592132568,0.685934841632843
1774472497623553500,0.691553466796875,-1.9776994186162948,1.2196633750200272,0.4327504887685179,-0.1744776666164398,-0.7104226350784302,0.9365137815475464
1774472497633571600,0.701571533203125,-1.875287676411867,1.417890383773297,0.8076891322985291,-0.090848185122013,-0.6417846083641052,1.1784379482269287
1774472497643589400,0.71158935546875,-1.1676812588483094,1.4945761485688387,0.8958224660426378,0.0542442947626113,-0.6579696536064148,1.343321681022644
1774472497653607700,0.721607666015625,-0.3731301328033208,1.7140585651881992,1.042870930092037,0.2139669954776764,-0.675504744052887,1.358296036720276
1774472497663625500,0.73162548828125,0.3292535816758871,1.9246420744284989,0.870532541963458,0.3898839652538299,-0.7354753613471985,1.217443823814392
1774472497673642800,0.741642822265625,0.7355144151866435,1.8135405375510452,0.5246548654839396,0.5225016474723816,-0.779146671295166,1.0507726669311523
1774472497683660500,0.75166064453125,0.633762598195672,1.6195117111399768,0.0135316817462444,0.5318458676338196,-0.7285290360450745,0.9003109931945801
1774472497693678600,0.7616787109375,0.2443471010237932,1.2404019194051623,-0.7278535251699387,0.4518154859542846,-0.582698404788971,0.761065661907196
1774472497703696400,0.7716962890625,0.0928349355638027,0.7855994655653834,-1.359470928030461,0.3408474326133728,-0.3849249184131622,0.6467691659927368
1774472497713714700,0.781714599609375,0.1385001236736774,0.617969693519175,-1.7034813493333756,0.2370204925537109,-0.157426506280899,0.5318779349327087
1774472497723732500,0.791732421875,0.0316021759659051,0.6134104227796197,-1.6799141573935743,0.1777353286743164,0.0395691208541393,0.4091701209545135
1774472497733750500,0.80175048828125,0.1404009888589382,0.5375292523652315,-1.4726900415837765,0.185509517788887,0.0997061282396316,0.3004107177257538
1774472497743768600,0.8117685546875,0.5198749377310276,0.530194963954389,-1.2542825607195496,0.2347215265035629,0.0692920312285423,0.2196942716836929
1774472497753786600,0.82178662109375,0.774128515741229,0.5557859168067574,-0.9794790927641092,0.2845492660999298,-0.0391273014247417,0.1755942106246948
1774472497763804400,0.831804443359375,0.8143243325293064,0.5525272072717548,-1.0140192218780515,0.3191117942333221,-0.167398989200592,0.1517306864261627
1774472497773823000,0.841822998046875,0.4517296222656965,0.4268339582011103,-1.160464459337294,0.3337559700012207,-0.2072262018918991,0.1372167468070984
1774472497783840800,0.8518408203125,-0.0969347720980644,0.2381061608076095,-1.3067917695052922,0.3389158248901367,-0.0974917188286781,0.1310408860445022
1774472497793859000,0.861859130859375,-0.2311865906774997,0.1290115798383951,-1.4935720860928297,0.3111093938350677,0.0248710345476865,0.1215513870120048
1774472497803877000,0.871877197265625,0.1057563764572143,0.0159217917531728,-1.6137959638416766,0.2698503732681274,0.1102722138166427,0.0653557553887367
1774472497813895000,0.88189501953125,0.636384763392806,0.0016799159109592,-1.5526711946628986,0.2179530709981918,0.1391626447439193,-0.0632862821221351
1774472497823913200,0.891913330078125,1.0705828206211327,0.0572045269951224,-1.4165629345618187,0.1535224169492721,0.104556992650032,-0.242864578962326
1774472497833931000,0.901930908203125,1.179758065611124,0.0573205545902252,-1.321147773246467,0.0709159523248672,0.0334467850625515,-0.3997023105621338
1774472497843949000,0.911948974609375,0.8309872980386018,-0.020408581778407,-1.432563490639627,-0.0126412576064467,-0.0158696323633193,-0.4748982489109039
1774472497853966800,0.921966796875,0.313552154675126,-0.0720198188111186,-1.305470896165073,-0.0712788701057434,-0.0577833615243434,-0.4569600820541382
1774472497863985200,0.931985107421875,-0.0585883825689554,0.0781800950065255,-1.0349531427048146,-0.0891766473650932,-0.0590504929423332,-0.3769800364971161
1774472497874003000,0.9420029296875,-0.3231728004574775,0.2156187269285321,-0.8839663162931799,-0.0748476386070251,-0.1081849336624145,-0.276337057352066
1774472497884021000,0.95202099609375,-0.4462871389508247,0.180498898230493,-0.757723178254813,-0.0424889028072357,-0.1592923253774643,-0.1751997917890548
1774472497894039000,0.9620390625,-0.5129261415064335,0.2285404600828885,-0.6783807614706456,-0.0074625965207815,-0.1681763678789138,-0.0907629132270813
1774472497904057000,0.97205712890625,-0.4823059623152017,0.2507186818823218,-0.5894513089127839,0.0369871594011783,-0.1737801879644394,-0.0303203407675027
1774472497914073900,0.982073974609375,-0.3882721723556518,0.1998158853799104,-0.5329230737440288,0.0826474577188491,-0.2059841901063919,0.0437990799546241
1774472497924092200,0.992092041015625,-0.3952659767657518,0.1938838649824261,-0.5005214179635048,0.1082870364189148,-0.2501710951328277,0.1202118247747421
1774472497934110000,1.00210986328125,-0.5364695141792297,-0.0689557550653815,-0.5861759405039251,0.090068481862545,-0.3049861192703247,0.2212020754814148
1774472497944128000,1.0121279296875,-0.5357324320763349,-0.5130769481539726,-0.8049205443680286,0.0054784948006272,-0.3198436498641968,0.2969807088375091
1774472497954145800,1.022145751953125,-0.2138262905538082,-0.6769248635739088,-0.7720109390653669,-0.1112660616636276,-0.3088398277759552,0.2943665385246277
1774472497964164000,1.0321640625,0.2703548179835081,-0.6140478439003229,-0.6250044144615531,-0.1882953345775604,-0.3242829740047455,0.2042542248964309
1774472497974182000,1.042181884765625,0.4757938039422035,-0.4542436509132385,-0.3814917184352874,-0.2171969264745712,-0.2842583060264587,0.062511421740055
1774472497984200000,1.052199951171875,0.4324883307009935,-0.2519415016755461,-0.1521777897618711,-0.2112950831651687,-0.2564674317836761,-0.0828452408313751
1774472497994218000,1.062218017578125,0.1361404088050126,-0.2367860181197524,-0.200587892665714,-0.2024079859256744,-0.1885857731103897,-0.186239555478096
1774472498004236000,1.072236083984375,-0.1622235290884971,-0.2904293455019593,-0.2339071016825735,-0.1939950585365295,-0.1010990589857101,-0.2444109916687011
1774472498014254000,1.082254150390625,-0.1501806245952844,-0.2196782314524054,-0.0959763023294508,-0.1900684982538223,-0.1016924157738685,-0.2709728181362152
1774472498024272000,1.09227197265625,-0.071714990645647,-0.1631707468107342,0.1007796109579503,-0.202234610915184,-0.1399484574794769,-0.2558801472187042
1774472498034290200,1.102290283203125,-0.2246796930015087,-0.1234749884992837,0.3076816552065313,-0.2221221625804901,-0.2054291069507599,-0.1920693218708038
1774472498044308000,1.112307861328125,-0.4027157082498073,-0.1520142697632312,0.2767320979304611,-0.2498565912246704,-0.3037535548210144,-0.0770207718014717
1774472498054326000,1.122325927734375,-0.6093804366111755,-0.1729948062106966,0.2530975398428738,-0.2719601392745971,-0.3620043396949768,0.0669892504811286
1774472498064343800,1.13234375,-0.7538011825054883,-0.1206891571730375,0.2993226999230682,-0.2751404941082001,-0.321599394083023,0.1900376826524734
1774472498074362000,1.142362060546875,-0.668938540995121,0.0507151649758219,0.3272352275907993,-0.2439112812280655,-0.256292462348938,0.2617208361625671
1774472498084380000,1.1523798828125,-0.4057084603250026,0.2298354683294892,0.4599938850030303,-0.1844674050807953,-0.1817194074392318,0.2901000082492828
1774472498094398000,1.16239794921875,-0.1038765540599822,0.3690805651515722,0.5183242011576891,-0.1148357763886451,-0.1675886064767837,0.274433970451355
1774472498104416000,1.172416015625,0.1416857679724693,0.4032511303007602,0.474669037695974,-0.0641393139958381,-0.1651512682437896,0.2136782258749008
1774472498114434000,1.18243408203125,0.2592266902476549,0.3142158792808652,0.37455841204077,-0.0403548777103424,-0.1357806026935577,0.1292041987180709
1774472498124452000,1.1924521484375,0.34235914696455,0.188574360397458,0.199506234908849,-0.0489257276058197,-0.1382759809494018,0.0468182377517223
1774472498134470000,1.202469970703125,0.2970703909516334,0.1284589143916964,0.0989370518311858,-0.0896687433123588,-0.1543675065040588,-0.0105808926746249
1774472498144488200,1.21248828125,0.1097206039130687,0.1552142348483204,0.0514598458632826,-0.141163095831871,-0.1524505615234375,-0.0235294476151466
1774472498154506000,1.222506103515625,-0.0679816493362188,0.2154240811392664,0.043835050073266,-0.1743107140064239,-0.1321793496608734,0.0090130669996142
1774472498164524000,1.23252392578125,-0.0892103153258562,0.3103863841205835,0.1448275731295347,-0.1811289340257644,-0.1110242679715156,0.0586336180567741
1774472498174541800,1.242541748046875,-0.0197322899520397,0.4358279965177178,0.2325926580831408,-0.1684294492006302,-0.1107672154903411,0.096342071890831
1774472498184560000,1.25256005859375,-0.028909283620119,0.4888587449595332,0.2634700269058346,-0.1509708315134048,-0.1105213984847068,0.1113436594605445
1774472498194578000,1.262577880859375,-0.0492687655597925,0.4452513661623001,0.1566550813063979,-0.1504766792058944,-0.1251628398895263,0.1199540719389915
1774472498204596000,1.272595947265625,-0.0801852973490953,0.362351841418445,0.0197039406403899,-0.1624571681022644,-0.1279274523258209,0.1337543129920959
1774472498214614000,1.282614013671875,-0.1180821895450353,0.3420788687184453,0.0708497521184384,-0.1725345849990844,-0.1059283390641212,0.1460207998752594
1774472498224632000,1.292632080078125,0.0302811564952135,0.3165527977958321,0.1013379754930734,-0.1642082035541534,-0.1198774427175521,0.1492059379816055
1774472498234649900,1.30264990234375,0.1280266604542732,0.3192673174515366,0.1118058857545256,-0.1441159695386886,-0.1214581951498985,0.1308260262012481
1774472498244668000,1.31266796875,0.1791027676969766,0.3586538636833429,0.0965817208766937,-0.1096234992146492,-0.1333241760730743,0.1011296436190605
1774472498254686200,1.322686279296875,0.2020125186413526,0.3567798865050077,0.1279397128231823,-0.0740389823913574,-0.1561923772096634,0.0769108310341835
1774472498264704000,1.3327041015625,0.1597147611379623,0.2961047607898712,0.0422764224544167,-0.0565073974430561,-0.1425292938947677,0.0674496889114379
1774472498274722000,1.34272216796875,0.0534720624685287,0.2677732770577073,-0.0755497465029358,-0.0561258792877197,-0.1215884089469909,0.0774183720350265
1774472498284740000,1.352739990234375,-0.0422206006139516,0.1769417902708053,-0.1170014085710048,-0.0563450567424297,-0.077068343758583,0.0945416986942291
1774472498294758100,1.362758056640625,-0.0589087005645036,0.1200084814324975,-0.1585357804864645,-0.0643843039870262,-0.0576108768582344,0.1094987243413925
1774472498304776000,1.37277587890625,0.0608224252313375,0.0848126648887991,-0.1565190338365733,-0.0737192183732986,-0.0510264784097671,0.1151283830404281
1774472498314794000,1.3827939453125,0.1970364837944507,0.0534247161954641,-0.0956841875150799,-0.0866887345910072,-0.0692580044269561,0.0983799025416374
1774472498324812000,1.39281201171875,0.3099555914878845,-0.0034939795956015,-0.1083832178294658,-0.0896123498678207,-0.1184881329536438,0.0619681030511856
1774472498334830000,1.402830078125,0.3512216678559779,-0.0909147811561822,-0.1543169937476515,-0.0815531238913536,-0.1462748646736145,0.020632492378354
1774472498344848000,1.412847900390625,0.2776093191564083,-0.071955521403253,-0.1754934911586344,-0.0825885608792305,-0.1731594651937484,-0.010303852148354
1774472498354866000,1.422865966796875,0.1254459963113069,-0.0843506003350019,-0.2320462762467563,-0.0819296762347221,-0.1693877130746841,-0.0248994510620832
1774472498364884000,1.432884033203125,-0.0029705402433872,-0.1284840488329529,-0.1787069002471864,-0.0765833780169487,-0.1480273008346557,-0.024831274524331
1774472498374902000,1.442902099609375,7.30652362108e-05,-0.091312548302114,-0.1597669297166168,-0.0680300593376159,-0.1377868950366974,-0.0201250240206718
1774472498384920000,1.452920166015625,-0.0280389305263757,-0.0769189890295267,-0.2057503899954259,-0.0620991960167884,-0.147340714931488,-0.0193329993635416
1774472498394938000,1.462938232421875,-0.1187520516306161,-0.068206982524693,-0.2327557396903634,-0.0583430118858814,-0.1386922150850296,-0.0127996178343892
1774472498404956200,1.4729560546875,-0.2620288881868123,-0.0883139510080218,-0.2594811034001409,-0.0553890317678451,-0.0970707386732101,0.0138109540566802
1774472498414974000,1.482973876953125,-0.2980722614705562,-0.0787476657614111,-0.1778736642934381,-0.0501584336161613,-0.0805842578411102,0.0547346286475658
1774472498424992000,1.492991943359375,-0.3101987525939941,-0.0302127674341201,-0.0710258393377065,-0.0421223416924476,-0.0745061263442039,0.094159796833992
1774472498435010000,1.503010009765625,-0.3439998999089002,0.0197851891830563,0.0039709494575858,-0.0238022934645414,-0.0519869551062583,0.1239842772483825
1774472498445028000,1.513028076171875,-0.3256950124114751,0.028629589895904,0.0008738602250814,0.004876222461462,-0.0039571109227836,0.1355405300855636
1774472498455046000,1.5230458984375,-0.2668196295946836,0.007607260133326,-0.0562913576729595,0.0372637584805488,0.0389934778213501,0.1269466280937194
1774472498465064000,1.53306396484375,-0.188936179447174,0.0127256260603666,-0.0533737166605889,0.0630844309926033,0.0971643775701522,0.0916640013456344
1774472498475082000,1.54308203125,-0.0939127939283847,-0.0286997325226664,-0.0478475005850195,0.0781857445836067,0.157087355852127,0.0400160774588584
1774472498485100000,1.55310009765625,-0.0652712213337421,-0.0538540475234389,-0.110158410808444,0.079678975045681,0.1993519812822342,-0.0259403027594089
1774472498495117800,1.563117919921875,-0.1073614735662937,-0.057169747942686,-0.0998873382933437,0.087465263903141,0.2555649280548095,-0.092885248363018
1774472498505136000,1.57313623046875,-0.0198719906836748,-0.0296150938019156,0.0221539641410112,0.1062922105193138,0.2850967049598694,-0.1643277406692505
1774472498515154000,1.58315380859375,0.0577589460074901,0.0249777893900871,0.0835977361410856,0.1260905116796493,0.2936627566814422,-0.2371484041213989
1774472498525172000,1.593171875,-0.0041389995008707,0.0946665349051356,0.1309898941740393,0.1511489897966385,0.3270268440246582,-0.2884491384029388
1774472498535190000,1.60318994140625,-0.1468722306996583,0.1213052432447671,0.1388324243679642,0.1741321384906768,0.3695502579212188,-0.3113683760166168
1774472498545208000,1.6132080078125,-0.2310024662822485,0.0886412832662463,0.0809492674589157,0.191194474697113,0.4068398475646972,-0.306084930896759
1774472498555226000,1.62322607421875,-0.3128688485860824,0.0955295814752578,0.0739049019053578,0.2163993865251541,0.4206154942512512,-0.2703689038753509
1774472498565244000,1.633243896484375,-0.253428233101964,0.092703710399568,0.1852149669669568,0.2470638155937194,0.4056796729564667,-0.2226178795099258
1774472498575262000,1.643261962890625,-0.2012625770568847,0.1447968857303261,0.2192756420008838,0.2759728133678436,0.4046638607978821,-0.17315673828125
1774472498585280000,1.653280029296875,-0.2008101571142673,0.1921896282851695,0.1926741969317197,0.3101076185703277,0.4461090266704559,-0.1318308711051941
1774472498595298000,1.663298095703125,-0.3126362088739872,0.5940779458001255,0.0958371861197054,0.2706277072429657,0.4155430495738983,-0.0720434114336967
1774472498605315800,1.67331591796875,-0.7217822424322367,1.015639224295318,-0.135074825400114,0.2725062966346741,0.6317908763885498,0.0503922253847122
1774472498615334100,1.683334228515625,-0.924215032312274,0.3621875907674431,0.4493012260749935,0.4160893261432647,0.8600751161575317,0.1667482554912567
1774472498625352000,1.69335205078125,-1.071361403778195,0.3557832766830921,0.8413622693195939,0.5874062180519104,0.9757465720176696,0.2573319375514984
1774472498635369000,1.703368896484375,-0.8633645500302314,0.7414110720098018,0.3625967560902238,0.7104389071464539,1.12606680393219,0.290853887796402
1774472498645387800,1.7133876953125,-0.5996931553333997,1.0534779565632342,0.3099428781367838,0.795756995677948,1.2667261362075806,0.2699832320213318
1774472498655405000,1.723405029296875,-0.5707137290865183,1.2099942139208315,0.4651018756665289,0.8857332468032837,1.4201077222824097,0.2201398164033889
1774472498665424100,1.733424072265625,-0.7756815904021263,1.2566194792345164,0.5885232342824339,1.0081121921539309,1.6669632196426392,0.1754815280437469
1774472498675441200,1.743441162109375,-0.8358411678105592,1.3363149472400546,0.5490555856384337,1.154423713684082,1.9412575960159304,0.1117608621716499
1774472498685460000,1.7534599609375,-0.5492436555564403,1.355415076768398,0.7564104882210493,1.2961690425872805,2.122766494750977,0.0070456364192068
1774472498695477000,1.76347705078125,-0.0906646057873964,1.2849506707057357,0.8517956927895546,1.4042956829071045,2.103205680847168,-0.128076285123825
1774472498705495000,1.7734951171875,0.5075134688079357,1.256988020285964,0.5429007162705064,1.4336596727371216,1.7656164169311523,-0.2546275556087494
1774472498715513000,1.78351318359375,0.778835670518875,0.7315244687676429,-1.1318231790035962,1.1607977151870728,0.792481005191803,-0.3388962149620056
1774472498725531100,1.79353125,0.3411608770906925,1.0559171664088964,0.3124038614228367,0.9056304097175598,0.4437523186206817,-0.3516804575920105
1774472498735549000,1.803548828125,0.1153887126773595,0.8089283187046646,0.7123170794725417,0.8195743560791016,0.9333549737930298,-0.2629626393318176
1774472498745567000,1.81356689453125,-0.3448684994369745,0.5259750081717968,0.9233212983429432,0.9077404737472534,1.0350924730300903,-0.0835044756531715
1774472498755585000,1.8235849609375,-0.861022955340147,1.0974100372701885,0.6874512260243296,1.0293898582458496,0.8649219274520874,0.1442670673131942
1774472498765603000,1.83360302734375,-1.3206243338942527,1.7020424025714396,0.2299938737615942,1.1080793142318726,1.0338855981826782,0.3667222261428833
1774472498775621600,1.84362158203125,-1.611845998817682,2.016843388263881,-0.2541094933643937,1.145272731781006,1.3416461944580078,0.548679530620575
1774472498785639400,1.853639404296875,-1.8813702111959456,2.6352044191882014,-0.1038560957938432,1.174349069595337,1.7157467603683472,0.6430843472480774
1774472498795657700,1.86365771484375,-1.7631436447441575,3.287684285074472,0.3149345489442348,1.2643150091171265,1.939844846725464,0.7178472876548767
1774472498805675800,1.87367578125,-1.231823183891177,3.0075846104070543,-0.5601397281020879,1.4729098081588743,1.9360069036483765,0.7586621046066284
1774472498815693600,1.883693603515625,-1.144233747765422,2.366261806090176,-0.6472399194061755,1.7194392681121826,1.7195223569869995,0.7555935978889465
1774472498825711600,1.893711669921875,-0.9225123200476169,1.4808487981200218,-0.3134580466508865,1.9505585432052608,1.7285557985305786,0.7280181646347046
1774472498835729700,1.903729736328125,-0.5769236896425485,0.8388625614583491,-0.0956061538428068,2.164877653121948,1.8642878532409668,0.6471920609474182
1774472498845747700,1.913747802734375,-0.1856447366863489,0.5309878678977489,-0.2342678978189825,2.325192213058472,1.7223185300827026,0.497423380613327
1774472498855765500,1.923765625,0.062774143821001,0.3488236668035387,-1.0728270924165844,2.3620848655700684,1.4482498168945312,0.3220685422420501
1774472498865783800,1.93378369140625,-0.0765618461549282,-0.0344432446107268,-1.877710519644618,2.212702989578247,1.4336576461791992,0.1819833368062973
1774472498875801600,1.943801513671875,-0.4367196846604347,-0.69321344281286,-2.2705217967346307,1.9454150199890137,1.4438766241073608,0.0847972929477691
1774472498885819600,1.953819580078125,-0.3850935423195362,-1.0479013254746794,-2.49174141241014,1.596305012702942,1.4133185148239136,-0.0041104760020971
1774472498895837400,1.96383740234375,0.0501449638724327,-1.2810399270027877,-2.436554947239161,1.2649284601211548,1.3772883415222168,-0.0888115018606185
1774472498905855700,1.973855712890625,0.580654692864418,-1.606734647153318,-2.1099650318145757,1.0342351198196411,1.3660125732421875,-0.1992107182741165
1774472498915873500,1.98387353515625,0.7825158203363418,-1.6013059001028538,-1.4431430445820093,0.911246418952942,1.347126841545105,-0.3335464000701904
1774472498925891600,1.9938916015625,0.4618213926911353,-1.2129919344320892,-1.017862745563686,0.8522846102714539,1.2830055952072144,-0.4437749087810516
1774472498935909600,2.00390966796875,-0.1002110172897577,-0.93198099013865,-1.274160396622121,0.8220967054367065,1.301645278930664,-0.4691486060619354
1774472498945927700,2.013927734375,-0.3878115691065788,-1.198288870818913,-1.564016326150298,0.7831773161888123,1.3442491292953491,-0.3828499615192413
1774472498955945700,2.02394580078125,-0.1840226884424686,-1.358875154094398,-1.298886841599643,0.6507931351661682,1.2668259143829346,-0.2906530797481537
1774472498965963500,2.033963623046875,0.5522621265947818,-1.2176014740541576,-1.1078387845650317,0.42923703789711,1.0631932020187378,-0.2733830213546753
1774472498975981800,2.04398193359375,0.9730155958384274,-0.9481669857859611,-0.847343097294867,0.2332061976194381,0.874711811542511,-0.2984672486782074
1774472498985999600,2.05399951171875,0.4938426708519458,-0.2827007970765233,-0.0920002383053302,0.136738508939743,0.814274787902832,-0.3198542892932892
1774472498996017700,2.064017578125,-0.2611877611875534,0.6143176007524133,0.6169461956903338,0.1808920204639434,0.8816238045692444,-0.3153679072856903
1774472499006035500,2.074035400390625,-0.8459376144111156,1.2093678987160323,0.8151394483044743,0.3223799169063568,1.0092941522598269,-0.2696278393268585
1774472499016053800,2.0840537109375,-1.0937357326716184,1.391078218562901,0.7010752622291445,0.4705819487571716,1.2026548385620115,-0.2030816525220871
1774472499026071600,2.094071533203125,-0.8828834894925356,1.0629109708189963,0.426019426947832,0.5452417731285095,1.380180835723877,-0.1709386259317398
1774472499036089600,2.104089599609375,-0.3262935628265142,0.4474649505585432,0.3236471399709582,0.5341941118240356,1.4663487672805786,-0.1904593855142593
1774472499046107600,2.114107666015625,0.303456877118349,-0.0631280718252062,0.2608858556315303,0.4546122252941131,1.3659230470657349,-0.2337581217288971
1774472499056125700,2.124125732421875,0.4957493812561034,-0.3923521351456642,0.2628250070005655,0.3279265165328979,1.156169891357422,-0.2395251542329788
1774472499066143500,2.1341435546875,0.335883813470602,-0.665544222381711,-0.14113427156955,0.1973594576120376,0.9806899428367616,-0.1764455139636993
1774472499076161500,2.14416162109375,0.2747393166780472,-0.8411839901432394,-0.6455664332360029,0.0742176473140716,0.8878463506698608,-0.0802966505289077
1774472499086179800,2.154179931640625,0.6481751544296741,-0.6603440233901142,-0.4217559242844581,-0.0104040270671248,0.8204649090766907,-0.0528786107897758
1774472499096197600,2.16419775390625,1.3806255058705803,-0.4025467814236879,-0.014791326418519,-0.0346982702612876,0.4813658893108368,-0.0830387771129608
1774472499106215700,2.174215576171875,1.6294512136131525,-1.0491770444989204,-0.1945668788105249,-0.0538503937423229,0.255814254283905,-0.0770373418927192
1774472499116233500,2.1842333984375,1.2524340102434155,-0.856211171144247,-0.0478799415498971,-0.1272785365581512,0.1968870311975479,-0.0356371738016605
1774472499126251800,2.194251708984375,0.8321043193697929,-0.0158192081615328,-0.3037374476253986,-0.1901525855064392,0.1158496960997581,0.0213454216718673
1774472499136269600,2.20426953125,0.2417144144326448,0.2106847776576876,-0.1027373208969831,-0.1313213557004928,0.1274618804454803,0.0984679907560348
1774472499146287600,2.21428759765625,0.0665431409657001,-0.2946542697206139,-0.165340199804306,-0.0217378735542297,0.2906593084335327,0.1574591398239135
1774472499156305700,2.2243056640625,0.6787713682234287,-1.0025964951097963,-0.6282201616376638,0.056282602250576,0.4990369081497192,0.1427029371261596
1774472499166323700,2.23432373046875,1.436796890425682,-2.21278330899328,-1.5914426777362822,-0.0418183989822864,0.4193665981292724,0.0364231020212173
1774472499176341500,2.244341552734375,2.347923893105984,-3.239109054736793,-2.3392834905326363,-0.3257234692573547,0.2117240130901336,-0.1385688036680221
1774472499186359600,2.254359619140625,2.28636672385931,-3.3814453955724835,-2.7550246845722195,-0.7048662304878235,-0.0314462929964065,-0.2566538751125335
1774472499196377600,2.264377685546875,1.0954384449362755,-2.907818706536293,-2.3590654648453,-1.0027319192886353,-0.1173452287912368,-0.2285912781953811
1774472499206395600,2.274395751953125,-0.2780225761324167,-1.6921733349859711,-1.6692220829874276,-1.1439340114593506,-0.0708925053477287,-0.0882624089717865
1774472499216413700,2.28441357421875,-1.0844921035081148,-0.5082268777742982,-0.4347217888414859,-1.058105707168579,0.1216358393430709,0.0578895099461078
1774472499226431500,2.294431396484375,-0.8563397659599781,0.2988207417502999,1.0385223794937133,-0.8082224130630493,0.2788427770137787,0.1110347583889961
1774472499236449800,2.30444970703125,0.1456184312462806,0.7126762681737542,1.8054577688604592,-0.5038121342658997,0.2854765951633453,0.0439342185854911
1774472499246467600,2.314467529296875,1.0809990006953478,0.9962494641706346,1.6983371183127165,-0.2333923578262329,0.1232373788952827,-0.0976032018661499
1774472499256485600,2.324485595703125,0.7486141352564096,0.6884136413156986,1.689174737691879,0.00021578441374,-0.1075769066810607,-0.1763782501220703
1774472499266503700,2.334503662109375,-0.266516847255826,0.3141556735262275,1.3490917189657687,0.164220705628395,-0.1617080569267273,-0.1250942945480346
1774472499276521700,2.344521728515625,-1.0369418323040007,0.4719917813107371,0.8248691074192523,0.2336805313825607,-0.0956240445375442,-0.0200682338327169
1774472499286539500,2.35453955078125,-0.759682057237625,-0.2217553299874067,-0.2610913150757551,0.2564393877983093,-0.0321702361106872,0.0612164996564388
1774472499296557600,2.3645576171875,-0.5243664039313792,-1.1220356522217392,-0.5128694428831339,0.1430703401565551,0.0525689758360385,0.0957626402378082
1774472499306575600,2.37457568359375,-0.1563935077607631,-0.986302655173838,-0.7889630967795849,-0.0628908053040504,0.0558928661048412,0.0650984793901443
1774472499316593700,2.38459375,0.3455950601458549,-0.9654138886630534,-1.1135305664658546,-0.211815059185028,0.0590554550290107,0.0349087491631507
1774472499326611500,2.394611572265625,0.6631377457618713,-0.8962965132951736,-1.6318647044956682,-0.3525905609130859,0.0456259325146675,-0.0109370369464159
1774472499336629500,2.40462939453125,0.9417951126664876,-0.8740645154818892,-2.1471914774030445,-0.5132522583007812,0.0011435092892497,-0.086169958114624
1774472499346647800,2.414647705078125,1.002679497218132,-1.0129226588129996,-2.4218752645015718,-0.6759833693504333,-0.0053162542171776,-0.1873048245906829
1774472499356665600,2.42466552734375,1.0689175177574155,-0.9853644975408912,-2.439229134884477,-0.7996945381164551,-0.0292587783187627,-0.2648229897022247
1774472499366683600,2.43468359375,1.2684604314148424,-0.867692057840526,-2.033129044893384,-0.8703694939613342,-0.1010663881897926,-0.3497876822948456
1774472499376701700,2.44470166015625,1.3985264887422322,-0.7640107340916991,-1.4573410812824965,-0.8868101239204407,-0.2120289355516433,-0.4681029319763183
1774472499386719700,2.4547197265625,1.369005795225501,-0.2736474297881126,-0.8006348298728465,-0.8532788157463074,-0.3237767815589905,-0.5872678756713867
1774472499396737500,2.464737548828125,0.9780231948673724,0.5445432227805257,-0.3259598008275032,-0.7919164896011353,-0.4930154383182525,-0.6525945663452148
1774472499406755600,2.474755615234375,0.0285375276982784,0.8428849488422274,0.1335480542242527,-0.6481992602348328,-0.6080368161201477,-0.6246005296707153
1774472499416773600,2.484773681640625,-0.946070890289545,0.6655626348212361,-0.0479191045165061,-0.5342422127723694,-0.5249969959259033,-0.5025258660316467
1774472499426791700,2.494791748046875,-1.508051277822256,0.1696320517793297,0.0816547853797674,-0.4685758352279663,-0.385971188545227,-0.345671534538269
1774472499436809500,2.5048095703125,-1.4989958647072317,-0.2850900303006172,0.0341641354084014,-0.449999064207077,-0.3082435429096222,-0.209820955991745
1774472499446827800,2.514827880859375,-1.2045014617234469,-0.6563078997418283,0.128940852689743,-0.4540305733680725,-0.2666098177433014,-0.1075963154435157
1774472499456845600,2.524845458984375,-0.8253051607489585,-0.7848121145799756,0.4455997412085533,-0.4962562620639801,-0.1959220618009567,-0.0620827600359916
1774472499466863600,2.534863525390625,-0.3273322582244873,-0.6497773289293051,0.6293365984469652,-0.5385632514953613,-0.1495263278484344,-0.0674309208989143
1774472499476881700,2.544881591796875,-0.0447159245610237,-0.3939420346856117,1.0609054762154817,-0.5135014057159424,-0.1079701036214828,-0.0866604298353195
1774472499486899700,2.554899658203125,0.0664157151937484,0.1376873459860682,1.3760066138982772,-0.4349967241287231,-0.0466891676187515,-0.1162079274654388
1774472499496917800,2.564917724609375,0.2287806985795497,0.5990615794315934,1.303678459790349,-0.304239422082901,-0.0186570938676595,-0.1637933701276779
1774472499506935600,2.574935546875,0.3948457055270671,0.5648828309759497,2.118711232849956,-0.0702476799488067,0.1298282593488693,-0.2072609663009643
1774472499516953600,2.58495361328125,0.6739414638489485,0.571889202606678,1.9985686036437749,0.133126214146614,0.0987187102437019,-0.247125893831253
1774472499526971600,2.5949716796875,0.7513350846529007,0.5410755466699599,1.6139514466643332,0.2967817187309265,-0.0230450071394443,-0.2740166187286377
1774472499536989700,2.60498974609375,0.6974182010263205,0.1724292812824249,1.376051622083783,0.4375748336315155,-0.0629895776510238,-0.2922923266887665
1774472499547007500,2.615007568359375,0.6805787099063396,-0.0642094373211264,1.008583752825856,0.5282658338546753,-0.111304648220539,-0.3206046521663666
1774472499557025800,2.62502587890625,0.3902957871377467,-0.1959764533475041,0.6101549281150103,0.5730631351470947,-0.1999351680278778,-0.3282071053981781
1774472499567043600,2.635043701171875,-0.2071136411726474,-0.3805041687026619,0.3170861740201711,0.5813642144203186,-0.2004651427268982,-0.2894429266452789
1774472499577061600,2.6450615234375,-0.8102502149581908,-0.3972521821469068,0.0343932679891586,0.562915027141571,-0.0856623128056526,-0.2130094468593597
1774472499587079400,2.655079345703125,-1.007776528096199,-0.3890291282027959,-0.1637812799245119,0.5332806706428528,0.0733009725809097,-0.1359444856643676
1774472499597097700,2.66509765625,-0.8172714918971061,-0.3500610996440053,-0.2518330728650093,0.5038450956344604,0.1751445233821869,-0.092289313673973
1774472499607115800,2.67511572265625,-0.4439817846179008,-0.2770478858813643,-0.208373285844922,0.477407842874527,0.2402212619781494,-0.0902192443609237
1774472499617133600,2.685133544921875,-0.0386982717067003,-0.1181876957461237,-0.0307084419965744,0.4573299884796142,0.2671276032924652,-0.1218825280666351
1774472499627151600,2.695151611328125,0.2817266913473606,0.0658472676560282,0.2086304754763841,0.4549057185649872,0.2757408022880554,-0.1811083108186721
1774472499637169700,2.705169677734375,0.5496493137478828,0.3094534871846437,0.1461708044320344,0.4678561389446258,0.1697110384702682,-0.2389429360628128
1774472499647187700,2.715187744140625,0.5727051951646804,0.4784384732320904,0.1135726031661033,0.4954201281070709,0.0342770516872406,-0.2760748863220215
1774472499657204700,2.725204833984375,0.4406780668973922,0.3775134624540806,0.2274643552839756,0.512946367263794,-0.0451092980802059,-0.296234667301178
1774472499667222800,2.735222900390625,0.3192091575235128,0.3933174730464815,0.0723918669939041,0.4924488365650177,-0.0987573415040969,-0.3145473599433899
1774472499677240600,2.745240478515625,0.1839198125898838,0.4041226524382829,-0.1268067632704973,0.4577193558216095,-0.1221196576952934,-0.3314194679260254
1774472499687258600,2.755258544921875,0.0645002369612455,0.2569113990426063,-0.2860474771559238,0.4078695178031921,-0.1311871856451034,-0.3489406704902649
1774472499697276700,2.765276611328125,-0.0172369660049676,0.1529474589601159,-0.3528179971367121,0.34392911195755,-0.124367631971836,-0.3706123232841491
1774472499707294700,2.775294677734375,-0.0061713821113109,0.1703217876091599,-0.4012134869933128,0.2829219698905945,-0.1154516339302063,-0.3909892439842224
1774472499717312500,2.7853125,0.0325929405689239,0.1886921415582299,-0.4109323324531316,0.237004280090332,-0.132662832736969,-0.4083957374095917
1774472499727330600,2.79533056640625,0.1218506021678447,0.2222548039421439,-0.3517652732133865,0.210834726691246,-0.1843396127223968,-0.4174057245254516
1774472499737348600,2.8053486328125,0.2039572229683399,0.2363499647900462,-0.3613292203724384,0.1943606883287429,-0.2489210069179535,-0.4232939779758453
1774472499747366700,2.81536669921875,0.2047568489134311,0.2479340195998549,-0.3349947556763887,0.179211288690567,-0.3056080043315887,-0.4276730120182037
1774472499757384400,2.825384521484375,0.1405851132541895,0.262600258333981,-0.3099702045351267,0.1616557240486145,-0.3544611036777496,-0.4245259463787079
1774472499767402800,2.83540283203125,0.091916651675105,0.1750283578649163,-0.3840571850091219,0.1417928040027618,-0.3821054995059967,-0.408339262008667
1774472499777419800,2.845419677734375,0.0802601161509752,0.0759787855699658,-0.4130670063942671,0.1169589459896087,-0.3925012350082397,-0.3975690603256225
1774472499787437600,2.8554375,0.095035075956583,0.0402834950715303,-0.3853928175270557,0.0907968506217002,-0.4035440385341644,-0.3920299410820007
1774472499797456000,2.865455810546875,0.1164221473783254,-0.0101049221679568,-0.3959358388513326,0.0589534528553485,-0.4312894940376282,-0.3878695964813232
1774472499807474000,2.875473876953125,0.040256022542715,-0.1033466849669814,-0.2721130598276853,0.0222218036651611,-0.4383718967437744,-0.3678277134895324
1774472499817491700,2.88549169921875,0.0295399827390909,-0.1027154013261198,-0.074042556810379,-0.0120208701118826,-0.4402504861354828,-0.3536793291568756
1774472499827509800,2.895509765625,0.1224199264883995,-0.0620037439703941,0.0888572641044855,-0.0314883105456829,-0.4501438438892364,-0.3514025807380676
1774472499837527800,2.90552783203125,0.2328092234432697,-0.0070537179037928,0.2625684018909931,-0.0323819369077682,-0.4772282838821411,-0.356602281332016
1774472499847545900,2.9155458984375,0.3015875761151314,0.0230032744467258,0.3502683126538992,-0.0253783538937568,-0.5160931348800659,-0.3600004911422729
1774472499857563600,2.925563720703125,0.2693453486800193,-0.0283446354746818,0.3468669797778129,-0.0252743456512689,-0.5548363924026489,-0.3491429984569549
1774472499867582000,2.93558203125,0.1906862379848957,-0.0680114599525928,0.1571633230894804,-0.0417276211082935,-0.5917999744415283,-0.3139602541923523
1774472499877599700,2.945599853515625,-0.0313777195602655,-0.2033361684605479,-0.0750076024502515,-0.0716995149850845,-0.5992341637611389,-0.2557709813117981
1774472499887617800,2.95561767578125,-0.3582254091382026,-0.3077653879672288,-0.2572226569488644,-0.123344600200653,-0.5432731509208679,-0.1772657930850982
1774472499897635600,2.965635498046875,-0.4792775544047355,-0.3263958541572094,-0.3202876004099845,-0.1718837618827819,-0.3966867625713348,-0.1102176681160926
1774472499907654000,2.97565380859375,-0.3358563409417867,-0.2290688678711652,-0.3823047883838414,-0.2103864103555679,-0.2527777850627899,-0.0813809633255004
1774472499917671700,2.985671630859375,-0.049803018566966,-0.1764607287555933,-0.3541039452940225,-0.2169390022754669,-0.1522043198347091,-0.0826366692781448
1774472499927689700,2.995689697265625,0.2361497660428285,-0.2065621447697281,-0.2537123107403516,-0.2153043448925018,-0.0998729392886161,-0.1036436855792999
1774472499937707800,3.005707763671875,0.4911556237250566,-0.2341021858632564,-0.2101654299587011,-0.2190482020378112,-0.0792632699012756,-0.1305958926677703
1774472499947725800,3.015725830078125,0.6760533414363861,-0.2886708113968372,-0.1101911440342664,-0.2265833467245102,-0.0771487206220626,-0.1704570204019546
1774472499957743900,3.025743896484375,0.8541331958264112,-0.2912067596152424,5.0268882513e-05,-0.2320845276117324,-0.1038904935121536,-0.2263626903295517
1774472499967761700,3.03576171875,0.9295049554139376,-0.3047878334611654,0.0336748905867338,-0.2453997880220413,-0.1636829972267151,-0.2881674468517303
1774472499977780000,3.045780029296875,0.7336445296615361,-0.3231505886256695,0.1196981003090739,-0.2628791928291321,-0.180579587817192,-0.3403947949409485
1774472499987797800,3.0557978515625,0.4970160401910543,-0.2674573429763316,0.1485530233934521,-0.281494140625,-0.1610623449087143,-0.3715300858020782
1774472499997815800,3.06581591796875,0.2459258946478366,-0.153525258848071,0.216187758988142,-0.2915420234203338,-0.1555598080158233,-0.3787660300731659
1774472500007833600,3.07583349609375,-0.1025093573600053,-0.0192991592317819,0.4181055850833654,-0.2882218658924103,-0.0920207872986793,-0.361350804567337
1774472500017852000,3.085851806640625,-0.3186614605128764,0.1651636741936206,0.5793213984340428,-0.261169821023941,0.0048312777653336,-0.3335944414138794
1774472500027869700,3.09586962890625,-0.3985521588295698,0.2938052516758441,0.7410384393051266,-0.2042106837034225,0.0878017991781234,-0.3099788725376129
1774472500037887700,3.1058876953125,-0.3891004398733377,0.3689531393796205,0.9410048390716312,-0.123592272400856,0.1361200511455536,-0.3000644445419311
1774472500047905800,3.11590576171875,-0.2393465162575244,0.3805848327234387,0.954573345696926,-0.0362408570945262,0.1525227278470993,-0.2925149202346802
1774472500057923800,3.125923828125,-0.0567974074989557,0.2651969968289137,0.7537047363936901,0.0459229834377765,0.1437078565359115,-0.2939221560955047
1774472500067942000,3.13594189453125,0.0396785149157047,0.0672974664643406,0.5568164288982749,0.1031015813350677,0.0830453112721443,-0.3010740578174591
1774472500077959700,3.145959716796875,0.018215455648303,-0.148183897820115,0.2841387209251523,0.1352334320545196,0.0132205011323094,-0.3016700744628906
1774472500087978000,3.15597802734375,-0.0444902991116046,-0.3088736414700746,0.016937983058393,0.1401344537734985,-0.0178002659231424,-0.3001206517219543
1774472500097995800,3.165995849609375,-0.1055944638937711,-0.3924173093363642,-0.2385302314385771,0.1183227449655532,-0.0366635173559188,-0.2950964272022247
1774472500108012800,3.1760126953125,-0.1744663400679826,-0.4670727373480796,-0.3594856383323669,0.0871914625167846,-0.076015718281269,-0.2878835201263428
1774472500118030800,3.18603076171875,-0.1340875679284334,-0.4571414181813597,-0.3016097879469394,0.0664321184158325,-0.115622878074646,-0.2794041335582733
1774472500128049000,3.196048828125,-0.0549164160579443,-0.3487283897355198,-0.285304842095077,0.0589060299098491,-0.1746792644262313,-0.2684260606765747
1774472500138066700,3.206066650390625,-0.0536544332981109,-0.2398877835273742,-0.2535641344413161,0.066625602543354,-0.2248122245073318,-0.2476577460765838
1774472500148085000,3.2160849609375,-0.0983031378418207,-0.073359835243225,-0.2524070733606815,0.0857681408524513,-0.2796032726764679,-0.2145807445049286
1774472500158102800,3.226102783203125,-0.2497387309342622,-0.0372559639438986,-0.319067118704319,0.1072824820876121,-0.3452843129634857,-0.1583404392004013
1774472500168120800,3.236120849609375,-0.4426233557462692,-0.0692141137406229,-0.3930740196794271,0.1264668256044387,-0.3517227470874786,-0.0983671098947525
1774472500178138600,3.246138671875,-0.3438952704906463,-0.0475765746891498,-0.470197883631289,0.1293635666370391,-0.3407626152038574,-0.0550828278064727
1774472500188157000,3.256156982421875,-0.0527057542711496,-0.0725488111212849,-0.6178998431533574,0.1199775114655494,-0.326109379529953,-0.0463226251304149
1774472500198174700,3.2661748046875,-0.0943646293491125,-0.2201820893213152,-0.6186126675978303,0.0891651362180709,-0.3350812792778015,-0.0604087486863136
1774472500208192800,3.27619287109375,-0.2214887880057096,-0.3629436698317527,-0.5101806421905756,0.0411976054310798,-0.3346754014492035,-0.0611605569720268
1774472500218210800,3.2862109375,-0.3217091576457023,-0.3081763068556785,-0.4611985846176743,-0.0182439815253019,-0.331290453672409,-0.0403821766376495
1774472500228228900,3.296228759765625,-0.3915127617120743,-0.2465329206302761,-0.4710863569036126,-0.0770143494009971,-0.3460496962070465,0.0082237077876925
1774472500238246700,3.30624658203125,-0.2770674673646688,-0.232599672345817,-0.3714052087068557,-0.1141760051250457,-0.3485763967037201,0.0573533438146114
1774472500248264700,3.3162646484375,-0.0396621483027935,-0.0824263542741537,-0.2790016502976417,-0.1430052518844604,-0.3577669858932495,0.0858414471149444
1774472500258283000,3.326282958984375,0.046222237470746,0.0773366299197077,-0.1758203850254416,-0.1480094492435455,-0.4092788994312286,0.1023309603333473
1774472500268300800,3.33630078125,-0.0965934113144874,0.1485530233934521,-0.1173635198816657,-0.1196124404668808,-0.4585721492767334,0.1254890114068985
1774472500278318800,3.34631884765625,-0.3970248031318187,0.0577177372142672,-0.2332531678184866,-0.0793074965476989,-0.4557098150253296,0.1767031252384185
1774472500288336600,3.356336669921875,-0.6473270131677389,-0.119791039289534,-0.4971931503236294,-0.0681384652853012,-0.4117085337638855,0.2387188225984573
1774472500298355000,3.36635498046875,-0.7739373770833015,-0.284648424012959,-0.7171364624530077,-0.1078929454088211,-0.3971734941005707,0.3130635917186737
1774472500308372700,3.376372802734375,-0.8349860122859477,-0.5557005766108631,-0.9744608262106776,-0.1771191507577896,-0.2390091568231582,0.385893851518631
1774472500318390800,3.386390869140625,-0.8623696937739849,-0.5685176803469657,-1.2196464238852265,-0.2995888590812683,-0.1076824814081192,0.429758071899414
1774472500328408800,3.396408935546875,-0.6721300305128097,0.1762882947981357,-2.071190772262216,-0.5354043245315552,0.3370979130268097,0.4137447476387024
1774472500338427000,3.406427001953125,-0.7050111403733491,-0.1611117684543132,-1.654073905955255,-0.6184843182563782,0.4985336661338806,0.3863052129745483
1774472500348444700,3.416444580078125,-0.5391968933165073,-0.7973635531172156,-1.0186816607311366,-0.6152557730674744,0.613567590713501,0.3704530000686645
1774472500358462700,3.426462646484375,0.0042699324041604,-1.0546265420764684,-1.084148112376034,-0.6506109833717346,0.6574657559394836,0.3367853164672851
1774472500368480800,3.436480712890625,0.7941857998639344,-1.1577183754995464,-1.1185177072286605,-0.7602453231811523,0.5862110257148743,0.2530025243759155
1774472500378498800,3.446498779296875,1.6889917823404073,-1.1483990507513284,-1.252797290597856,-0.91719388961792,0.4148892760276794,0.1425555944442749
1774472500388516900,3.456516845703125,1.748167024886608,-1.0732660683557391,-0.9584393734753132,-1.04450523853302,0.295632928609848,0.0142721841111779
1774472500398534700,3.46653466796875,1.5995646093934774,-0.7417679226234555,-0.8055839767128229,-1.0958856344223022,0.1020292043685913,-0.0895567759871482
1774472500408553000,3.476552978515625,1.111838375595212,-0.5656862563133239,-0.3187804107174277,-1.0317580699920654,-0.110753633081913,-0.1083376556634903
1774472500418570800,3.48657080078125,0.6501221968442201,-0.4474705035164952,0.4338610803589224,-0.8842467665672302,-0.3955307900905609,-0.054439727216959
1774472500428588800,3.4965888671875,0.3436100238084792,-0.1398657129384577,0.8222071947336197,-0.7015408277511597,-0.7246854901313782,0.0652896016836166
1774472500438606800,3.50660693359375,-0.2047708774387836,0.3848281693816184,0.9466963287115095,-0.5259133577346802,-0.9148045778274536,0.238359123468399
1774472500448625000,3.516625,-0.4169213437348604,0.8903821746848523,0.962596493154764,-0.3607347905635834,-0.9995309114456176,0.4138846099376678
1774472500458642700,3.526642578125,-0.0152665427148342,1.186909544800967,0.7034609883219003,-0.1639520823955536,-1.092751383781433,0.5446540117263794
1774472500468660000,3.536659912109375,0.4782213233500719,1.2455918892636897,0.5039437936276198,0.0764083266258239,-1.1538532972335815,0.6262117028236389
1774472500478677800,3.546677734375,0.9961515567541122,1.0569012090101837,0.4296352793574333,0.3158764243125915,-1.2150253057479858,0.6200125217437744
1774472500488695800,3.55669580078125,1.5885434491634367,0.7708309355005621,0.2002832106307149,0.4686049818992615,-1.2400630712509155,0.513346791267395
1774472500498713900,3.5667138671875,1.683095125517249,0.2407519991412758,-0.1218017945900559,0.4883544743061065,-1.1235952377319336,0.3335524797439575
1774472500508732000,3.57673193359375,1.738430059248209,-0.5122019188851118,-0.3771399529665708,0.3860547244548797,-1.0434157848358154,0.1059600710868835
1774472500518749700,3.586749755859375,1.618759723728895,-1.1189186892449856,-0.5511567957013845,0.2039513736963272,-1.0393662452697754,-0.1058771163225174
1774472500528767700,3.596767822265625,1.2837737358808516,-1.331672089870274,-0.5933999004080891,-0.0121934488415718,-1.081862211227417,-0.2311040014028549
1774472500538785800,3.606785888671875,0.5333809005141258,-1.2757698776453732,-0.5640674229398369,-0.2268948405981063,-1.1672329902648926,-0.2220976650714874
1774472500548803800,3.616803955078125,-0.0211351424872875,-1.229848668947816,-0.4756526419058441,-0.4209974408149719,-1.1292445659637451,-0.1571301072835922
1774472500558821600,3.626821533203125,-0.2969236759573221,-0.927489816199243,-0.3507484973862767,-0.5695592164993286,-1.1473249197006226,-0.1063792183995246
1774472500568839700,3.636839599609375,0.1115945810914039,0.2211526879191398,-0.0732242261648178,-0.5027130842208862,-1.4612311124801636,-0.0958400294184684
1774472500578858000,3.64685791015625,0.0883230110973119,-0.0607797551333904,1.09951431607306,-0.3465866148471832,-1.572965145111084,-0.0949243009090423
1774472500588875800,3.656875732421875,0.0308224237650632,-0.3374900796234607,1.1122098392561075,-0.3044575154781341,-1.5175118446350098,-0.1216978579759597
1774472500598893800,3.666893798828125,-0.4107335950106382,-0.2903486814811825,0.9796490425035356,-0.289177656173706,-1.4983240365982056,-0.1221091970801353
1774472500608912000,3.676911865234375,-0.961468365907669,-0.3727135148264467,1.008733098168671,-0.2276698052883148,-1.2950334548950195,-0.1560346782207489
1774472500618930000,3.686929931640625,-1.683442331519723,-0.1973039025589823,0.641577071338892,-0.1759307086467743,-1.113142967224121,-0.1525962650775909
1774472500628947700,3.69694775390625,-2.046688199168444,-0.3130262311048805,0.6760597711771726,-0.1470998525619506,-0.8656503558158875,-0.0928884446620941
1774472500638965800,3.7069658203125,-1.688568588492274,-0.5326464487597345,0.6869765942499041,-0.1651588976383209,-0.6689198017120361,-0.0543586798012256
1774472500648983800,3.71698388671875,-0.7445294962912797,-0.7338548114113509,0.6607894290700554,-0.1958044171333313,-0.5870542526245117,-0.081865943968296
1774472500659001900,3.727001953125,0.2527513567537069,-0.8446633566915989,0.7427614637054503,-0.2192804515361786,-0.568835973739624,-0.1892044246196746
1774472500669019600,3.73701953125,0.7883587011456489,-0.6981773488305508,0.6948213164009154,-0.237363576889038,-0.6380214691162109,-0.3161868453025818
1774472500679037700,3.74703759765625,0.4090788135409355,-0.5340279662460088,0.6728834792286157,-0.2431748658418655,-0.6682361364364624,-0.3616778254508972
1774472500689055700,3.7570556640625,-0.206543732330203,-0.597553512956202,0.692852646676451,-0.2313062101602554,-0.5872049331665039,-0.3465641438961029
1774472500699073800,3.76707373046875,-1.0063356816381217,-0.4661126601442694,0.986561890631914,-0.1774946451187133,-0.496541291475296,-0.2915209531784057
1774472500709091800,3.777091796875,-1.473145968657732,-0.3634637481831014,1.799389993254095,-0.0849322229623794,-0.4112050831317901,-0.1964087933301925
1774472500719110000,3.78710986328125,-1.7144225761950016,0.5236871894955635,1.7438837946094572,0.0011628449428826,-0.3312684297561645,-0.0578721426427364
1774472500729128000,3.7971279296875,-1.7980875323534011,1.1512265292622148,1.626471613280475,0.1554493606090545,-0.245552197098732,0.105804942548275
1774472500739145700,3.807145751953125,-1.975037505930662,1.2330002648465337,1.879069679168612,0.4223092794418335,-0.1354864090681076,0.2646152079105377
1774472500749163800,3.817163818359375,-2.1586130351275203,1.302800215651095,1.903627781841904,0.7360650897026062,0.0367010571062564,0.4008593261241913
1774472500759181800,3.827181884765625,-2.161491220912337,1.5183862093538043,1.667802279317379,0.9963977336883544,0.2448000311851501,0.5169764757156372
1774472500769199900,3.837199951171875,-2.0226941601186987,1.5385621514201164,1.3549404449939726,1.1882025003433228,0.4308266341686249,0.6108944416046143
1774472500779218000,3.847218017578125,-1.89010881344676,1.2321250894472002,1.004467841939628,1.3255125284194946,0.5895287990570068,0.7098459601402283
1774472500789236000,3.857236083984375,-1.7470003191947936,0.94766546600461,0.9624255205020308,1.4375770092010498,0.8789787292480469,0.817970335483551
1774472500799254000,3.86725390625,-1.4170306982040404,0.6657891370534896,0.967485141979158,1.494260311126709,1.2318073511123655,0.8918659687042236
1774472500809272000,3.87727197265625,-0.4804910218477249,0.6635445729970931,-0.4101144401989877,1.3808623552322388,0.8848456144332886,0.9155287146568298
1774472500819289900,3.887289794921875,0.0009463409394025,0.6936240694403648,-0.0373860200643539,1.2796720266342163,0.6932006478309631,0.9394027590751648
1774472500829308200,3.89730810546875,0.3110428022027015,0.2804892585068941,0.7749849864400923,1.2850857973098757,0.6109355688095093,0.9819926023483276
1774472500839326000,3.907325927734375,0.7338005970060825,0.4406169843599199,1.1112472778342664,1.317224621772766,0.4170432388782501,1.0035475492477417
1774472500849344000,3.917343994140625,1.0919921038746834,0.7097288165450095,1.2633848817162214,1.3469282388687134,0.3485326468944549,0.9917784333229064
1774472500859361800,3.92736181640625,1.7367127339363098,0.8849892296001315,0.9847795372597872,1.387961745262146,0.3487259745597839,0.9099631905555724
1774472500869380000,3.937380126953125,2.5522587172150613,1.1282774692207571,0.9201309778690338,1.4722473621368408,0.3019864559173584,0.7106783390045166
1774472500879398100,3.947398193359375,3.1348610370159147,1.2832944279313088,1.511054405160993,1.6280007362365725,0.4713525772094726,0.3838007152080536
1774472500889416000,3.957416015625,3.3540462242543696,1.8462416146695613,1.65820048436597,1.8270288705825808,0.7298280596733093,0.0075807496905326
1774472500899434000,3.96743408203125,3.3084652072966096,2.750871948806941,1.0009364529430866,1.861523985862732,1.4715023040771484,-0.4281984865665436
1774472500909452000,3.9774521484375,3.655069736745953,4.179086888848245,-0.0165571670472621,1.8965972661972048,2.214321613311768,-0.9811761975288392
1774472500919470000,3.987469970703125,3.0770243495970964,2.7325439726948737,1.1869412551134824,2.2742276191711426,2.8525092601776123,-1.642876386642456
1774472500929487000,3.997487060546875,3.1194916184484955,2.229182362869382,1.2643334146127103,2.6796538829803467,3.608383655548096,-2.40957260131836
1774472500939505200,4.007505126953125,2.8913667534291743,2.1710136670172213,0.2191723277568817,2.81833553314209,3.988807439804077,-3.0518360137939453
1774472500949523000,4.01752294921875,2.174830594956875,1.7843159043714405,-0.5497174105480312,2.692941427230835,4.195678234100342,-3.4094130992889404
1774472500959541000,4.027541015625,1.5812626445055007,1.3358768480837344,-0.6817877934351563,2.435904264450073,3.8885867595672607,-3.475993633270264
1774472500969559000,4.03755908203125,0.2651432208150625,0.3128288088366389,-2.561158647507429,2.167286157608032,2.621488571166992,-3.116431474685669
1774472500979577000,4.0475771484375,0.5003951612353325,-0.9963251597553492,-3.020629093158245,1.917901992797852,1.4721646308898926,-2.5653223991394043
1774472500989595000,4.057594970703125,1.4553151284128427,-1.6280708651706577,-2.29275467133075,1.56282377243042,0.5059250593185425,-2.0408389568328857
1774472500999613000,4.067613037109375,2.3498428784698246,-1.0304787737697363,-2.870515980841219,1.1745465993881226,-0.4579035937786102,-1.8003100156784058
1774472501009631000,4.077630859375,3.0783558904618022,0.1023082818299531,-2.5614815958514807,0.9736968278884888,-1.3250982761383057,-2.052823543548584
1774472501019649000,4.08764892578125,2.919230327388644,1.267543901091814,-0.7193877485111355,0.9258803725242616,-1.866238713264465,-2.4566328525543213
1774472501029666800,4.097666748046875,2.354894901162386,2.862473251900077,1.0974129598796367,1.0755537748336792,-2.402747869491577,-2.8741843700408936
1774472501039685000,4.10768505859375,1.119744034153223,3.5709906468287107,2.571206871052086,1.4714288711547852,-2.8060495853424072,-3.197181940078736
1774472501049703200,4.117703125,-0.1442091489702463,3.6186215820536014,2.5989333746284244,1.8602700233459477,-2.82436752319336,-3.4363057613372803
1774472501059721000,4.127720947265625,-2.195263142132759,2.70618992651552,1.148295590376854,2.154649257659912,-2.1575448513031006,-3.44424819946289
1774472501069739000,4.137739013671875,-4.2579941290855405,0.5914404369033873,0.4735527470171451,2.322991371154785,-1.5261441469192505,-3.094909191131592
1774472501079757000,4.147757080078125,-7.30310182994008,-1.4324839956626296,0.6839436562947928,2.362407684326172,-0.9988104104995728,-2.2548840045928955
1774472501089775000,4.157775146484375,-9.326022200030089,-2.449879415975511,-0.4350634418860077,2.1400156021118164,-0.9814141392707824,-1.086562991142273
1774472501099793000,4.16779296875,-9.963743764984606,-2.2732221417345104,-1.93095228048861,1.6517667770385742,-1.0872504711151123,0.1596780866384506
1774472501109811000,4.17781103515625,-8.134072176843882,-1.854601446735859,-2.57819366119951,1.1461174488067627,-1.084809422492981,0.9781819581985474
1774472501119829000,4.1878291015625,-5.42502306150496,-1.813125527009368,-1.337343413504958,0.850360095500946,-0.7745717763900757,1.3246952295303345
1774472501129847000,4.197846923828125,-3.337977717506885,-1.4466826168850064,-1.411824361732602,0.6414361596107483,-0.4627025425434112,1.41736102104187
1774472501139864800,4.20786474609375,-2.0460317810863256,-0.7714986056290567,-1.9038095681495963,0.4292277693748474,-0.2925609946250915,1.4704549312591553
1774472501149883100,4.217883056640625,-0.8255670265555382,-0.4618813792500644,-1.476849060959369,0.3004255890846252,-0.2093379944562912,1.4016032218933103
1774472501159901000,4.22790087890625,0.5543973850578069,0.3334845703091472,-0.0248890881933271,0.3774713575839996,-0.1499141752719879,1.184230923652649
1774472501169919000,4.2379189453125,0.0907265651077032,1.050622128740698,1.1848721937544644,0.6178954243659973,0.2443417906761169,1.004878044128418
1774472501179936800,4.247936767578125,0.1869523121535778,1.4503447926543651,2.226746367894113,0.8907357454299927,0.6346148252487183,0.789362907409668
1774472501189955000,4.257955078125,1.417093242046237,2.552100311782956,2.340037231509388,0.9966176748275756,0.9428964853286744,0.2384190559387207
1774472501199973000,4.26797314453125,3.060200640568137,2.1884299351118504,1.8541174626111985,1.2465624809265137,1.1701940298080444,-0.3390840291976928
1774472501209991000,4.277990966796875,3.691801676815748,0.7319754274055361,2.2256359224341806,1.6288273334503174,1.151936173439026,-0.8284774422645569
1774472501220009200,4.28800927734375,3.212948485302925,-0.1492307765245437,2.436272038644552,1.9288578033447263,0.7482231259346008,-1.0337718725204468
1774472501230027000,4.298027099609375,1.695724889987707,-1.0881978261582552,2.7691780053481456,1.9582782983779907,0.1893507987260818,-0.8358768820762634
1774472501240045000,4.308045166015625,0.5211281526625157,-1.7267469279780985,2.9098183559209105,1.740340232849121,-0.4296159446239471,-0.4187824428081512
1774472501250062800,4.318062744140625,0.3541811021834611,-1.7076283860102297,3.1331460497915744,1.549053430557251,-0.973993480205536,-0.0514457263052463
1774472501260081200,4.3280810546875,0.7014759519845247,-1.072269604664296,3.1879914464399217,1.531195044517517,-1.2023766040802002,0.1299222707748413
1774472501270099000,4.338098876953125,1.680889139905572,-0.4502570654951036,3.206810713200271,1.6276984214782717,-1.295641303062439,0.062339499592781
1774472501280117000,4.348116943359375,2.7057319536149502,-0.2869119850307703,2.6868834607601166,1.680253267288208,-1.392032265663147,-0.1788600385189056
1774472501290134800,4.358134765625,2.9442355893075463,0.5370362081512808,1.948060943938792,1.5907297134399414,-1.3824398517608645,-0.4210926294326782
1774472501300152000,4.368152099609375,2.1184002672046423,2.6257898173719645,2.2189608285844327,1.603421926498413,-1.320677638053894,-0.471858412027359
1774472501310169900,4.378169921875,2.8523884957373142,1.6672105970345437,1.6736394610382614,1.6220691204071045,-1.4535810947418213,-0.6090455651283264
1774472501320188200,4.388188232421875,2.4486802693188188,1.6427938025280833,1.349537855298072,1.735536813735962,-1.832666039466858,-0.638039767742157
1774472501330206000,4.3982060546875,0.9482838901638984,1.612362277776748,0.9600806378763168,1.870021939277649,-2.040427923202514,-0.5207379460334778
1774472501340224000,4.40822412109375,-0.4530699309587478,0.9757200324915348,-0.2508509664924815,1.895630955696106,-1.9035433530807493,-0.3126368522644043
1774472501350241800,4.41824169921875,-1.0088818589895965,0.4881631639108061,-1.4235837731093168,1.7838304042816162,-1.567573070526123,-0.1404682993888855
1774472501360260000,4.428260009765625,-0.5466238284468651,0.1472109611347317,-2.2132485884174704,1.521731972694397,-1.323213815689087,-0.1123053207993507
1774472501370278100,4.438278076171875,0.3088759795576334,-0.6076521515138447,-2.735575887736678,1.194832444190979,-1.1984801292419434,-0.2319012284278869
1774472501380296000,4.4482958984375,0.6574953559607267,-1.5283493849635124,-2.9306936784282325,0.8574504852294922,-1.1159954071044922,-0.4160548746585846
1774472501390314000,4.45831396484375,0.1469382816731929,-1.348971599717438,-3.294576090414822,0.4728591442108154,-0.8437341451644897,-0.577836275100708
1774472501400332000,4.46833203125,-0.3107411889076232,-0.6563695668011903,-3.261919729220867,0.1268779188394546,-0.5707073211669922,-0.6639360785484314
1774472501410350000,4.47835009765625,-0.437601143670082,-0.4878994714733213,-2.6573335411489007,-0.1035505011677742,-0.4350501596927643,-0.7128332853317261
1774472501420368000,4.488367919921875,-0.4612012149661779,0.1736312044180929,-2.276765659560263,-0.2689540088176727,-0.3394097089767456,-0.7136883735656738
1774472501430386200,4.49838623046875,-0.8172551252841949,0.8940378476481884,-1.5099148797370492,-0.2772271037101745,-0.4401970505714416,-0.5906133055686951
1774472501440404000,4.508404052734375,-2.6323855623751875,1.2445628384768963,-0.9648904493108392,-0.1732896417379379,-0.3498788774013519,-0.2877563536167145
1774472501450422000,4.518422119140625,-4.043286379522085,1.5301692938670517,-1.4788094012469053,-0.0331786088645458,0.0908013135194778,0.0420260615646839
1774472501460439800,4.528439697265625,-4.3869729756981135,1.2809426041081546,-2.836379025700688,0.0206875596195459,0.6457891464233398,0.3057962656021118
1774472501470458000,4.5384580078125,-3.938325537356734,0.230667535239458,-3.501221237292885,-0.0612658932805061,1.0106908082962036,0.4819452166557312
1774472501480476000,4.548475830078125,-3.1037621343970296,-0.7495082345519214,-3.4651945228829977,-0.3074784874916076,1.1370216608047483,0.5613706111907959
1774472501490494000,4.558493896484375,-0.5629395879536867,-0.9112839468076824,-3.994971261425316,-0.7045909762382507,1.4853819608688354,0.1106827929615974
1774472501500512000,4.568511962890625,1.994248986878991,-0.4214405747249722,-4.21267439341247,-1.0184046030044556,1.3210557699203491,-0.3347553312778473
1774472501510530000,4.578530029296875,8.204289622408151,0.7124277733054012,-2.559220665182173,-1.1032336950302124,0.0958337113261222,-1.758057951927185
1774472501520548000,4.588548095703125,10.081548306632042,1.658324695267528,-1.5406656995706258,-0.9234933257102966,-1.3203200101852417,-2.935454607009888
1774472501530566000,4.59856591796875,-0.0064735799282789,2.0584407424129543,-1.2775339647084474,-0.6725016236305237,-0.759688675403595,-3.2833821773529053
1774472501540584200,4.608584228515625,-4.429502203869819,0.4915450614340603,-0.9692196376215666,-0.9252696633338928,0.7396613955497742,-2.7199509143829346
1774472501550602000,4.61860205078125,-2.1012042177319525,0.3185088272344321,0.1186747394775506,-1.0857621431350708,0.4088355898857116,-1.9643365144729612
1774472501560620000,4.6286201171875,1.0870721831291914,0.9074095895923674,-1.968044724433869,-0.9675068855285645,0.0578742586076259,-1.3675525188446045
1774472501570637800,4.638637939453125,0.8607780406683683,-0.0678834861913696,-3.7600378854349255,-0.9565826058387756,0.8868443965911865,-0.7380595803260803
1774472501580656000,4.64865625,1.695909598904848,0.0318665990557521,-2.518861182264984,-0.9974478483200072,0.2975150644779205,-0.252722829580307
1774472501590674000,4.658673828125,0.3772504276037215,-0.0003381093805655,-0.7779994388904422,-1.041615009307861,0.4414541125297546,-0.0523873381316661
1774472501600692000,4.66869189453125,-0.4234229807138442,0.622429011015594,0.3621753158077597,-0.8542616963386536,0.2770403325557709,0.0012830684427171
1774472501610709000,4.678708984375,0.2824982602417469,2.957649489893019,-1.517945187588036,-0.6800869107246399,0.7408948540687561,-0.0725693181157112
1774472501620727000,4.68872705078125,0.3074614365845918,3.240975140869617,-0.9533410274229944,-0.4784215986728668,0.3080279231071472,-0.0323097892105579
1774472501630744800,4.698744873046875,-0.0796241563349962,1.0310507284387946,0.3186690958300605,-0.391023576259613,0.0916878804564476,-0.051851000636816
1774472501640763100,4.70876318359375,-1.4450111765414475,1.293375969223678,-0.1593725418378599,-0.2928739786148071,0.0303970109671354,0.061531014740467
1774472501650781000,4.718781005859375,-1.2101871061444285,0.8462102208074181,0.6957839508879929,-0.2077574878931045,0.0465557388961315,0.1613619923591613
1774472501660799000,4.728799072265625,-3.13505685184896,1.1183093982402237,1.163680644904822,-0.1179925799369812,0.3174899518489837,0.338028609752655
1774472501670817000,4.738817138671875,-0.3028063042551279,0.2192431645033881,1.1077456263888628,-0.1932697594165802,0.3870013654232025,0.0131136383861303
1774472501680835000,4.7488349609375,1.4972002134621143,0.0890262639958411,1.0236327072672546,-0.3529491722583771,0.6673268675804138,-0.4609313011169433
1774472501690853000,4.75885302734375,1.7774200073778628,0.1036968501115217,1.3620976232722402,-0.3496351242065429,0.5892701148986816,-0.7240201830863953
1774472501700871000,4.768870849609375,0.9921166021496056,-0.2998688625637442,2.0389678340494632,-0.3794896900653839,0.4268217384815216,-0.6837158799171448
1774472501710889200,4.77888916015625,0.3996037137091159,-0.773584398927167,1.437534703180939,-0.3736083507537842,0.3022177517414093,-0.6197885870933533
1774472501720907000,4.788906982421875,0.7305617612153291,-0.1199922609500586,1.8483998156167565,-0.1387899816036224,0.2281214445829391,-0.6038563251495361
1774472501730925000,4.798925048828125,1.0393781195402143,0.933555107587576,2.1494223051950336,0.1582030653953552,0.1047422513365745,-0.5972511172294617
1774472501740942800,4.80894287109375,1.2027397127479311,1.2482289597690104,1.6330217655763029,0.3542629778385162,-0.0644291937351226,-0.6899694800376892
1774472501750961200,4.818961181640625,1.4374153145849704,0.8995360066730529,1.1934938185621051,0.4790483117103576,-0.2224063128232956,-0.9369853734970092
1774472501760979000,4.82897900390625,1.949875592145324,0.3802920603219419,1.4198334806650876,0.5422077178955078,-0.3227694034576416,-1.2493427991867063
1774472501770997000,4.8389970703125,1.391305305317044,0.0777573395498096,0.7563001597143709,0.4759458601474762,-0.2955844104290008,-1.4802258014678955
1774472501781016600,4.8490166015625,0.1974450645953416,-0.1639420234441757,0.4479422857467084,0.3879567682743072,-0.2599434852600097,-1.512175440788269
1774472501791034600,4.85903466796875,-1.3074918805986642,-0.3549477026417851,0.7092267122417688,0.3530970513820648,-0.1784454137086868,-1.2770987749099731
1774472501801052700,4.869052734375,-1.834153117468953,-0.8113216435819863,1.2914188438065348,0.5027082562446594,-0.1994717866182327,-0.9927344918251038
1774472501811070700,4.87907080078125,-1.0927397073715923,-1.2355443963713943,1.2294402342773971,0.5836302638053894,-0.0796583071351051,-0.7720439434051514
1774472501821088500,4.889088623046875,-0.5301584313362836,-0.6885809607066213,0.0681818115508183,0.5218358635902405,0.0266421232372522,-0.5874530076980591
1774472501831106600,4.8991064453125,-0.028036592438817,-0.7732837354801595,-0.2510574853826314,0.5385165810585022,0.0318169109523296,-0.5719835162162781
1774472501841124600,4.90912451171875,-0.0103512981444597,-0.7694538019284606,-0.8096486688684672,0.5274791121482849,-0.0049366606399416,-0.5906193256378174
1774472501851142700,4.919142578125,-0.9665490301728248,-0.4883123631231486,-2.0925524169817566,0.3855544328689575,-0.0301304310560226,-0.4836888909339905
1774472501861160400,4.929160400390625,-2.2593682422965764,-0.34747385962978,-2.441156303554773,0.2900778651237488,-0.0078813228756189,-0.3549228310585022
1774472501871178800,4.9391787109375,-2.433499651321769,-0.3830585293605923,-3.036955081798136,0.3281309902667999,0.0966504141688346,-0.2201929539442062
1774472501881196800,4.94919677734375,-1.9610586649388075,-0.4624148285396396,-4.911870710027218,0.0894412994384765,0.1599694937467575,-0.0055966936051845
1774472501891213600,4.959213623046875,-1.3389765676647425,-0.9140481508240104,-5.643139158207178,-0.2160978466272354,-0.0573231540620327,0.132022425532341
1774472501901231600,4.969231689453125,-1.5961965942651033,-1.2395417954444885,-4.773917991103232,-0.4307899177074432,0.0511845722794532,0.2427324652671814
1774472501911249700,4.979249755859375,-1.7332202156454324,-1.349831723678112,-3.3825042569756505,-0.6311139464378357,0.1537692695856094,0.293838769197464
1774472501921267500,4.989267333984375,-1.3289403268188238,-1.1716440249994395,-1.5462898230627178,-0.6731952428817749,0.2235881239175796,0.3249476552009582
1774472501931285500,4.999285400390625,-1.9397171862244604,0.4282075846418738,-0.222525875968486,-0.4795053601264953,0.2856850624084472,0.4781345427036285
1774472501941303800,5.0093037109375,-0.8992068477839231,3.241059312021732,1.4352745031639933,-0.0953045859932899,0.1588520109653473,0.5686857104301453
1774472501951321600,5.019321533203125,-1.9635294389665128,2.511684422503412,1.7446873660773037,0.200544387102127,0.4301223754882812,0.916593611240387
1774472501961339600,5.029339599609375,-1.0774538754343983,1.485719180635363,-0.1512838731294497,0.185809925198555,0.4172618091106415,0.988174319267273
1774472501971357700,5.039357666015625,0.4717570957720279,0.7119077680192888,-1.3345361009992658,0.0399978570640087,0.6888533234596252,0.9427154660224916
1774472501981375700,5.049375732421875,1.1957751344323158,0.0783808782756328,-1.426758311492205,-0.1131104603409767,0.9764636754989624,0.813939094543457
1774472501991393500,5.0593935546875,1.7149369554579257,-0.007846037325263,-0.4807150398619472,-0.2115352898836136,1.0094006061553955,0.6883401274681091
1774472502001411600,5.06941162109375,1.9806617755532263,0.3577018236555159,0.3180987851288169,-0.3145085871219635,0.785041332244873,0.602193295955658
1774472502011429600,5.0794296875,2.040676391533017,0.5256294096045195,0.5111129546046257,-0.4498323202133178,0.5115301609039307,0.5333340764045715
1774472502021447700,5.08944775390625,1.7360159838438034,0.456757533430308,0.6763526897091419,-0.5607183575630188,0.5250310301780701,0.417276531457901
1774472502031465500,5.099465576171875,1.750916031333804,0.7057588900007307,0.9515586009856312,-0.6151903867721558,0.7005476951599121,0.2022571563720703
1774472502041483500,5.1094833984375,1.3640630781263112,0.8860336971517652,0.9877782076191156,-0.7557329535484314,0.7302005887031555,0.1000532954931259
1774472502051501600,5.11950146484375,1.2202291922092436,0.5333518936153501,0.4649935199212283,-0.8934221267700195,0.5299748182296753,0.0400440208613872
1774472502061519600,5.12951953125,1.1297206537663935,0.4611883554846048,0.7099394636210054,-0.9882426261901855,0.3001817166805267,0.0052368673495948
1774472502071537700,5.13953759765625,-0.1573760890573263,0.6988716147050261,0.8668466199923306,-1.0676637887954712,0.3145329654216766,0.1088418215513229
1774472502081555700,5.1495556640625,-1.765654750782251,0.4339331226818263,0.8566243550550192,-1.1097062826156616,0.5684784054756165,0.3456471860408783
1774472502091573800,5.15957373046875,-2.5023919857621197,0.0430719567462801,1.0622836327008902,-0.999189555644989,0.773388147354126,0.6130466461181641
1774472502101591600,5.169591552734375,-0.6097253045260906,-0.5117798210155219,1.6379260503612458,-0.8011612892150879,0.7145355939865112,0.4989662766456604
1774472502111609600,5.179609619140625,5.024417477276921,0.2819312740087509,-0.681577657815814,-0.9072685837745668,-0.0530705377459526,-0.1226717382669448
1774472502121627600,5.189627685546875,4.248128568631411,0.1023423302300274,-1.3990766699708996,-1.0072649717330933,-0.4437291026115417,-0.5630888342857361
1774472502131645700,5.199645751953125,-0.411940632712841,-0.5115406784974038,0.2200423885896801,-0.8874934911727905,-0.0249960348010063,-0.6296380758285522
1774472502141662700,5.209662841796875,-2.1696271810948846,0.4780382218681275,2.39541395855546,-0.4732707738876343,-0.0097438478842377,-0.2370195537805557
1774472502151680800,5.2196806640625,-3.91323025906682,1.203911679136753,3.702992640654743,-0.0271862391382455,0.2729616165161133,0.4276630878448486
1774472502161698600,5.229698486328125,-4.024647145503759,1.1617043763957915,1.94729025182724,0.2352878600358963,0.7776950001716614,1.0469471216201782
1774472502171716600,5.239716552734375,-2.993798369377852,0.7597588488008826,0.0503906091965734,0.2954481244087219,1.1476969718933103,1.2475515604019165
1774472502181734700,5.249734619140625,-0.7720949640870094,-0.3166718941308558,-0.2503640232257544,0.3065433800220489,1.0755314826965332,1.063981056213379
1774472502191752700,5.259752685546875,0.3461187917590141,-1.3482539529673754,-0.2255260806977748,0.2700048089027405,0.8418145179748535,0.776175856590271
1774472502201770500,5.2697705078125,-0.110531335774064,-1.981694041210413,-0.4087555729359388,0.1803981065750122,0.6415997743606567,0.621757447719574
1774472502211788500,5.27978857421875,-0.3622767303556203,-1.9229419925123448,-0.4307229284636676,0.0876234248280525,0.44870325922966,0.5463787913322449
1774472502221806600,5.289806640625,0.0525105239599943,-1.057998210466653,-0.197393918929994,0.0643384754657745,0.2151291221380233,0.4809270203113556
1774472502231824600,5.29982470703125,0.4703530741930007,-0.7968578686174005,-0.0727593851320445,0.0831180214881897,0.0209713708609342,0.4331610798835754
1774472502241842400,5.309842529296875,0.4950140527188778,-1.1126675929609686,-0.0496476818747818,0.0771173983812332,-0.131794661283493,0.4242792129516601
1774472502251860700,5.31986083984375,0.3588298047721385,-1.1680160437606275,-0.0615408026337623,0.0176751110702753,-0.3445673584938049,0.4602662324905395
1774472502261878800,5.329878662109375,0.1575391706645488,-0.9742462336119264,0.0031122868016362,-0.0792586281895637,-0.4433400928974151,0.5087300539016724
1774472502271896600,5.339896484375,0.2051221750944852,-0.7042884521219879,0.3146710757024586,-0.1707690954208374,-0.3888784646987915,0.5368906259536743
1774472502281914600,5.34991455078125,0.2890419827967882,-0.5516959440793842,0.649214142088592,-0.2370406836271286,-0.3031063973903656,0.5502719879150391
1774472502291932700,5.3599326171875,0.1194873801678419,-0.4795630568152293,0.9248536224767564,-0.2071914374828338,-0.2584244012832641,0.6064199805259705
1774472502301950700,5.36995068359375,-0.0559708935469388,-0.1356426518833264,1.1703963630259036,-0.0998576506972312,-0.3549124300479889,0.7060718536376953
1774472502311968500,5.379968505859375,-0.0943377413421869,0.2616835453478619,1.0803105800397694,-0.0267586763948202,-0.5084516406059265,0.7602226734161377
1774472502321986600,5.389986572265625,0.0809954446882009,0.4556562211249023,1.1049126679852603,-0.0415545329451561,-0.6034662127494812,0.7290160655975342
1774472502332004600,5.400004638671875,0.4536135363161563,0.5136114568894729,0.6969441537737846,-0.1316359639167785,-0.6476683020591736,0.6355375051498413
1774472502342022700,5.410022705078125,0.4147749793559313,0.3808685085030272,0.1421433024816215,-0.2481788247823715,-0.7083442211151123,0.5285278558731079
1774472502352040400,5.42004052734375,-0.1685708522886037,0.3614229630704968,-0.3114217185176909,-0.3667203783988952,-0.6384269595146179,0.4306037127971649
1774472502362058800,5.430058837890625,-0.3781079212158918,0.4989394825343042,-1.092856319488585,-0.527169406414032,-0.3740668594837188,0.2831897139549255
1774472502372076500,5.44007666015625,0.2796417017668485,0.5665110166996717,-1.1103915377877651,-0.5358582139015198,-0.1091776713728904,0.0689277499914169
1774472502382094600,5.450094482421875,0.3403670963644981,0.348401970792748,-0.2458801558099687,-0.323134571313858,0.2030907571315765,-0.0264668315649032
1774472502392112600,5.460112548828125,-0.5003098210394382,0.2602989773879758,0.1679249556005001,-0.0552399866282939,0.3963677883148193,0.0474787652492523
1774472502402129700,5.470129638671875,-0.8671873231887817,0.6386804731145501,0.0243863993681967,0.0891531407833099,0.5028523802757263,0.2189962714910507
1774472502412147500,5.4801474609375,-1.412106101283431,0.7809388533432036,-0.2567328276053071,0.1829739212989807,0.7237154841423035,0.4219829440116882
1774472502422165800,5.490165771484375,-1.5048989512711763,0.7275726624019444,-0.5386559183076024,0.1948966234922409,0.8491443991661072,0.5977193713188171
1774472502432183800,5.500183837890625,-0.079881930488348,0.8548747349087148,-0.8028326321780681,0.1752635389566421,0.6919683814048767,0.6131044030189514
1774472502442201600,5.51020166015625,1.3572820396840573,0.8081791077725589,-1.221307781226188,0.0977243930101394,0.3477683961391449,0.4166061878204345
1774472502452219600,5.5202197265625,1.3704630082964897,0.7420307382781058,-2.3349945611670613,-0.0041873198933899,0.0232515651732683,0.3266922831535339
1774472502462237700,5.53023779296875,0.5593845258206128,0.3322872502833605,-1.876146046806872,-0.0219371542334556,-0.1558115631341934,0.5125238299369812
1774472502472255700,5.540255859375,0.3187731041938066,0.4509151275450364,-0.9558198386266828,-0.1077998653054237,-0.3477248251438141,0.598913311958313
1774472502482273500,5.5502734375,2.002516464486718,0.7578750808808952,0.0072727674819529,-0.0956226959824562,-0.061944980174303,0.1525251716375351
1774472502492291600,5.56029150390625,4.658405067524313,1.128798278224468,1.183892681197822,0.0197201445698738,-0.0547768138349056,-0.6260267496109009
1774472502502309600,5.5703095703125,4.351595372846722,0.8053183115139603,1.0560891619749366,0.1320674568414688,0.0182767044752836,-1.1113975048065186
1774472502512327700,5.58032763671875,2.3080209217846392,0.973916928592324,0.1889158673115074,0.1763286590576172,0.7014760375022888,-1.2870177030563354
1774472502522345500,5.590345458984375,2.547740947529673,2.16122526345253,-0.7050688619099557,0.2054982781410217,0.7711140513420105,-1.2328450679779053
1774472502532363800,5.60036376953125,-0.7645669066697358,0.896793283836171,-0.4125575955674052,0.1434783190488815,0.4154789745807647,-0.7831726670265198
1774472502542381600,5.610381591796875,-2.77013106828928,-1.1521364837139845,-0.2106643193915486,-0.1180784627795219,0.5324182510375977,-0.2203631699085235
1774472502552399600,5.620399658203125,-0.8416139059931039,-0.5105819164678455,0.3296298676423728,-0.403619647026062,0.4149246215820312,0.0084202131256461
1774472502562417700,5.630417724609375,0.0623994652897119,-0.5240234722452238,0.240098065277189,-0.5901822447776794,0.4310235977172851,-0.1821957379579544
1774472502572435700,5.640435791015625,0.3791857795804739,-0.2443575310862623,-0.0057062488175928,-0.7194406390190125,0.4432597756385803,-0.4268142879009247
1774472502582453800,5.650453857421875,-0.1727799944162368,-0.0535946294022724,-1.8037484807245432,-0.8107101917266846,0.2960483729839325,-0.5701846480369568
1774472502592471600,5.660471435546875,-1.0633289039701224,-0.4226340222932398,0.3685853289805352,-0.5817555785179138,-0.1108117774128913,-0.6645582914352417
1774472502602489600,5.670489501953125,0.1865121671706437,-0.4290097313376143,0.9686334352314472,-0.412619411945343,-0.5483978986740112,-0.8642572164535522
1774472502612507600,5.680507568359375,-1.2109417239040137,-1.0372504598617551,-0.4658335509419441,-0.339355856180191,-0.5868232846260071,-0.8865894079208374
1774472502622525700,5.690525634765625,-1.7622879046976565,-1.3837937606431543,-0.2733672976724803,-0.35878387093544,-0.5420466065406799,-0.90919029712677
1774472502632543500,5.70054345703125,0.0186240364491939,-1.215800854372978,-0.0092423139892518,-0.383818119764328,-0.6545901894569397,-1.0373321771621704
1774472502642561800,5.710561767578125,0.5052314953505993,-0.6434365816004574,0.7834916796311736,-0.2923131287097931,-0.7137922644615173,-1.148289680480957
1774472502652578600,5.72057861328125,-0.6311059462070465,0.074200596916303,1.0714200020976363,-0.2043185383081436,-0.5126514434814453,-1.105107069015503
1774472502662596600,5.7305966796875,-1.8212217397034167,0.3642610360406339,-0.1374357093125581,-0.2113837897777557,-0.2282696962356567,-0.8845124244689941
1774472502672614700,5.74061474609375,-1.7231278606981038,0.0781209852304309,-0.4829688101381063,-0.2325846850872039,-0.0165156330913305,-0.6453677415847778
1774472502682632700,5.7506328125,-1.4167016123801468,-0.1337485452324152,-0.013646248036623,-0.2450079172849655,0.0923758745193481,-0.4821982979774475
1774472502692650500,5.760650390625,-0.5827513728827238,-0.4929359312705695,-0.4128900423921644,-0.3337670862674713,0.0874596759676933,-0.4273334443569183
1774472502702668500,5.77066845703125,-0.5256149426877499,-0.4992475986354053,-1.29882751262784,-0.4985148906707763,-0.0178406499326229,-0.3507319688796997
1774472502712686600,5.7806865234375,-0.8375134849369525,-1.008241953650862,-0.56959144705832,-0.5689696073532104,-0.1116457059979438,-0.259592205286026
1774472502722704600,5.79070458984375,0.3451666056007146,-1.0017993533827363,-0.5685480754852295,-0.699795126914978,-0.3280210494995117,-0.2355465739965438
1774472502732722400,5.800722412109375,0.7971978411614894,-0.4927729957938194,-0.6242158944323658,-0.8832469582557678,-0.5046951770782471,-0.295257031917572
1774472502742740700,5.81074072265625,1.281689915344119,-0.2283369003348052,0.0023626374781131,-1.0062050819396973,-0.5903685092926025,-0.4292838275432586
1774472502752758800,5.8207587890625,0.3529255491644144,0.1179981645233929,0.5016714647814631,-1.0049054622650146,-0.5434361696243286,-0.4062781035900116
1774472502762776600,5.830776611328125,-0.8504939625412226,0.5433446606457233,0.2425618981074541,-0.7886009216308594,-0.3916242718696594,-0.16029953956604
1774472502772794600,5.840794677734375,-1.2655249624848366,0.907630246605724,0.0762831022787839,-0.4568200409412384,-0.236204594373703,0.1734896153211593
1774472502782810600,5.850810546875,-1.6548416754573585,0.2791771529950201,-0.3347689840964973,-0.0769986808300018,0.0502828508615493,0.502536416053772
1774472502792828700,5.86082861328125,-1.7319021187841892,-0.2454369420871138,-1.5930859148986636,0.1690377295017242,0.2743713557720184,0.7892493605613708
1774472502802847000,5.870846923828125,-2.0894640955775974,-0.2537567344039678,-2.014654792178422,0.3076282143592834,0.3384304642677307,1.0560667514801023
1774472502812864800,5.88086474609375,-2.6351252164721486,0.2192805373717099,-1.179370235337317,0.4390445649623871,0.4202739298343658,1.3567256927490234
1774472502822882800,5.8908828125,-2.3885738834023478,0.5136955915089696,-0.813806446135044,0.4652909636497497,0.298831045627594,1.6432374715805054
1774472502832900900,5.90090087890625,-1.9753858809769151,0.51773259194009,-0.7325465052917599,0.4055053889751434,0.199885293841362,1.8992170095443728
1774472502842919000,5.9109189453125,-1.1684808847934007,-0.2916189206127077,-0.4695131162375211,0.2969781160354614,0.3225060999393463,2.1179869174957275
1774472502852936700,5.920936767578125,0.1607213078320026,-0.9646382281154392,-0.6938207610562444,0.1831903010606765,0.2303535342216491,2.260389566421509
1774472502862954800,5.930954833984375,0.8426485097378492,-0.6160583069398999,-1.0214596010118722,0.0205694250762462,-0.0514917336404323,2.20687198638916
1774472502872972800,5.940972900390625,1.3763164104998111,-0.3310773630369454,-0.3746063428357243,-0.0599682964384555,-0.0052454089745879,1.923351526260376
1774472502882990800,5.950990966796875,2.162352221655845,-0.1205332998910453,0.3259481103897094,-0.080267310142517,0.053990576416254,1.3759872913360596
1774472502893008600,5.961008544921875,2.296971119982004,0.2610616871224716,0.4018897788196802,-0.1190045848488807,0.130070686340332,0.8736208081245422
1774472502903026000,5.97102587890625,1.768732258531451,0.6196373344704509,0.3254033359885215,-0.2308266013860702,0.1300050169229507,0.6026746034622192
1774472502913043700,5.981043701171875,1.8734464324593545,0.6585898001339286,0.5581980925150215,-0.4220780432224273,-0.0367387011647224,0.4856060445308685
1774472502923061800,5.991061767578125,2.0668658948004244,0.5861544593244791,0.9204572872139511,-0.5671170949935913,-0.188232272863388,0.273973673582077
1774472502933079800,6.001079833984375,1.7371458646565674,0.5734928384110332,0.9123771488718688,-0.6450033783912659,-0.258165031671524,0.0206357017159461
1774472502943097900,6.011097900390625,1.3237591247886418,0.6789997701518237,1.2423476466454564,-0.61846923828125,-0.2468469142913818,-0.1970804035663604
1774472502953115600,6.02111572265625,0.6228945827007293,1.2413120199874044,1.4494659639932217,-0.5047192573547363,-0.1295850127935409,-0.3407835066318512
1774472502963133700,6.0311337890625,-0.0127764794647693,1.5227258459933102,1.4733100731782611,-0.3117944002151489,0.0333507172763347,-0.4004586040973663
1774472502973151700,6.04115185546875,0.0168716398239135,1.4798241312474012,1.4452989074416458,-0.0575221814215183,0.0927495956420898,-0.4019755423069
1774472502983169800,6.051169677734375,0.5450286682099104,1.3708962851472195,1.4220453114956615,0.1977163851261139,0.0319093242287635,-0.3900139033794403
1774472502993187800,6.061187744140625,0.7974287273079156,1.075651136861369,1.3425406898871064,0.4105218350887298,-0.0798952430486679,-0.3826643824577331
1774472503003206000,6.071205810546875,0.8413578854054212,0.6280354527205229,1.1118329687677324,0.544063925743103,-0.1791325062513351,-0.3949933052062988
1774472503013224000,6.081223876953125,0.4876058222889899,0.261300610444881,0.8853964952267706,0.5933124423027039,-0.239025667309761,-0.4030632376670837
1774472503023241700,6.09124169921875,0.4417980108380317,-0.0085198723330628,0.6670233550235629,0.562174379825592,-0.2585659921169281,-0.5067166090011597
1774472503033259800,6.101259765625,0.6963268986582756,-0.2021569138144142,0.489684235998243,0.506957471370697,-0.2796007096767425,-0.6499017477035522
1774472503043277800,6.11127783203125,0.0812333450973033,-0.3760304938873275,0.3880274038143456,0.4540983736515045,-0.2526488900184631,-0.7569233775138855
1774472503053295900,6.1212958984375,0.7592968573123217,-0.5636646873578429,0.1377422910436987,0.4262840449810028,-0.2474514693021774,-0.9244231581687928
1774472503063313700,6.131313720703125,1.810773410925269,-0.6081377065410837,0.2923580485422164,0.4613617360591888,-0.5495479702949524,-1.234705686569214
1774472503073331700,6.141331787109375,3.776213651949167,-0.2115413579544052,0.6024902387060225,0.5452513098716736,-0.7700644135475159,-1.6560310125350952
1774472503083349800,6.151349853515625,2.068531782186031,-0.3541892489572987,0.3176145087432116,0.5297744870185852,-0.9040588140487672,-1.910333037376404
1774472503093367800,6.161367919921875,1.112355092945695,-0.5620660199895501,0.2610203687313944,0.3222154080867767,-1.1219956874847412,-1.9838029146194456
1774472503103385600,6.171385498046875,-1.2151228089809416,-0.3229138572603464,-0.6482450778607278,0.020818430930376,-1.0038515329360962,-1.6439508199691772
1774472503113404000,6.18140380859375,-4.252565674296021,-0.1373936237365007,-1.851014235898852,-0.3025942742824554,-0.5041685700416565,-0.946918487548828
1774472503123422000,6.191421875,-5.284038719800114,-0.2273907055258751,-2.1485496140137315,-0.5265172123908997,-0.1513507664203643,-0.1724332273006439
1774472503133439700,6.201439697265625,-4.234892654961348,-0.6229604875437915,-1.846238399799168,-0.5999029874801636,-0.0854671075940132,0.4722307324409485
1774472503143457800,6.211457763671875,-3.294931771984696,-1.0117767036482692,-1.446422358513623,-0.5453834533691406,-0.0941249430179596,0.9891711473464966
1774472503153475800,6.221475830078125,-2.367178628674149,-0.8743311305288225,-1.1512059248656037,-0.3928333520889282,-0.070819616317749,1.275977611541748
1774472503163492600,6.23149267578125,-0.7767091798841953,-0.3647827948924154,-0.6229967279009521,-0.1935838758945465,-0.0975550934672355,1.2778816223144531
1774472503173511000,6.241510986328125,-0.0914811828672885,0.0097784666925668,0.1242923692967742,0.0365846082568168,-0.2919909060001373,1.1424574851989746
1774472503183529000,6.251529052734375,-0.4097106817036867,0.4236761517573147,0.5517546154640615,0.2760263681411743,-0.217860996723175,0.9654092788696288
1774472503193546800,6.261546630859375,-0.7495283274918794,0.7136329843766986,0.6671180475696921,0.4347680807113647,-0.0529684498906135,0.8245629668235779
1774472503203564800,6.271564697265625,-0.7828928369551896,0.5633514932228252,0.4585631215475499,0.541858971118927,0.0666979402303695,0.6855875849723816
1774472503213582800,6.281582763671875,-0.432659011092782,0.39862639310956,0.5598570387031883,0.6621416807174683,0.2203058749437332,0.554044246673584
1774472503223601000,6.291600830078125,-0.115939916819334,0.4256639645736664,0.4683241987138986,0.8023620843887329,0.323127418756485,0.450601190328598
1774472503233618700,6.30161865234375,0.7427730080127716,0.5437471770320087,0.4144686898857355,0.9717004895210266,0.3123855590820312,0.2874708473682403
1774472503243636700,6.31163671875,1.5133984840691088,0.9011765404216944,0.914549524474889,1.192400336265564,-0.1390712857246399,0.1554129421710968
1774472503253654800,6.32165478515625,0.7414280231446028,0.8936999209307134,1.638819638200104,1.4257062673568726,-0.5593777894973755,0.1402691453695297
1774472503263672800,6.3316728515625,-0.6637415568739176,0.7267089582446962,1.4983318478405474,1.5685529708862305,-0.4516006410121918,0.2384325563907623
1774472503273690600,6.341690673828125,-1.3990163180857895,0.590513969708234,0.5888211943157017,1.6108407974243164,-0.2176749408245086,0.3927302658557892
1774472503283709000,6.351708984375,-1.4962176321655511,0.0474718493727734,0.5647375407537445,1.6354423761367798,0.0095425862818956,0.564144492149353
1774472503293726700,6.361726806640625,-1.2818623493015766,-0.3274326133264228,0.9433414653256535,1.666003704071045,0.2806598246097564,0.7021849155426025
1774472503303744800,6.371744873046875,0.6936240694403648,0.0338492881724145,0.5217688617188483,1.6253844499588013,0.3689250946044922,0.5471181869506836
1774472503313762800,6.3817626953125,4.664899105718732,1.0570668479006735,0.7679140251405536,1.693071365356445,-0.0074037928134202,0.0896263048052787
1774472503323780900,6.39178076171875,5.714301775667071,1.5556443652547896,1.6072922810360788,1.882349729537964,-0.3778779208660126,-0.3612727522850036
1774472503333799000,6.401798828125,5.082786664137244,0.7385340552687645,1.89048714523986,1.920709013938904,-0.6401553153991699,-0.6708335280418396
1774472503343816700,6.411816650390625,4.599681660398841,-0.3564045503865927,0.9349380863785745,1.8082778453826904,-0.806638777256012,-0.997991144657135
1774472503353834800,6.421834716796875,2.0497715521365403,-1.083133966897428,0.6669418142199516,1.753023386001587,-0.7132808566093445,-1.1422837972640991
1774472503363852800,6.431852783203125,-1.0753367371499538,-0.6977411493703722,0.5736378363722935,1.6949095726013184,-0.230340301990509,-1.044792652130127
1774472503373870800,6.441870849609375,-2.670717338857054,-0.0590003609033301,-0.1041599375786259,1.548111081123352,0.4612275063991546,-0.7823344469070435
1774472503383888600,6.451888671875,-2.836998034381866,0.2027348233002238,-1.053432802247256,1.3726043701171875,0.9208053946495056,-0.4523786008358001
1774472503393907000,6.461906982421875,-2.3264976587176323,-0.168681491322536,-1.790627133344859,1.2248778343200684,1.2764657735824585,-0.2113822400569915
1774472503403924700,6.4719248046875,-0.7934107238382101,-0.3479648580171167,-2.631941325739026,1.114996075630188,1.292464256286621,-0.1225325986742973
1774472503413942800,6.48194287109375,0.7845154697209596,-0.8019279384233057,-3.430438266800344,0.9421919584274292,1.0297644138336182,-0.1918474733829498
1774472503423960600,6.491960693359375,1.227790567374229,-1.2441893289893864,-4.248534811344743,0.6543945670127869,0.7122114896774292,-0.3619082868099212
1774472503433977900,6.501977783203125,0.5600099642425775,-1.3038818734079598,-4.220143414118886,0.3179265260696411,0.4926575720310211,-0.4540358185768127
1774472503443995600,6.51199560546875,-0.374319634848833,-1.0421060831993818,-4.123216825327277,-0.0485675670206546,0.3877928555011749,-0.4249457716941833
1774472503454014000,6.522013916015625,-0.8457862232416867,-0.53503758167997,-3.477301724784076,-0.2783272564411163,0.316355437040329,-0.330786257982254
1774472503464031700,6.53203173828125,-1.0027420410603285,-0.3940085240505635,-2.7146310071244835,-0.3689760565757751,0.3071550130844116,-0.2385088503360748
1774472503474049800,6.5420498046875,-0.3626227673143148,-0.4166041675444692,-2.2121805207945404,-0.3976929187774658,0.2357551455497741,-0.2121065407991409
1774472503484067600,6.552067626953125,0.1730956362366676,-0.4266540715895593,-1.914329646989703,-0.4486780762672424,0.0742240324616432,-0.2489156872034073
1774472503494086000,6.5620859375,-0.5316548073738813,-0.5629106906527653,-1.413554108134657,-0.5452232360839844,-0.0166800413280725,-0.2543096542358398
1774472503504104000,6.57210400390625,-1.1644634658455848,-0.1542358182702213,-1.0373069392893464,-0.69147127866745,-0.0342670120298862,-0.1417058259248733
1774472503514121700,6.582121826171875,-0.9448872334629296,0.4857978595515713,-0.8668354410111904,-0.8389105796813965,-0.079426497220993,0.006383232306689
1774472503524139800,6.592139892578125,-0.4848322659224272,0.7514218861535191,-0.4310589554850011,-0.9035367965698242,-0.1975257992744445,0.1095025017857551
1774472503534157800,6.60215771484375,-0.3660965809047222,0.6835027806594968,0.0816284088294953,-0.8656834363937378,-0.3012825846672058,0.1537727564573288
1774472503544175900,6.61217578125,-0.5789075569361448,0.4485867211300879,0.3207722421217709,-0.783333420753479,-0.3249702453613281,0.1929367482662201
1774472503554193700,6.622193603515625,-0.7719961798876523,0.38821262418814,0.5283801696173847,-0.7099193930625916,-0.294609397649765,0.2581437230110168
1774472503564212000,6.6322119140625,-0.7312719553112983,0.2695107318421825,0.6473407494321465,-0.6418685913085938,-0.2945753037929535,0.3370993733406067
1774472503574229800,6.642229736328125,-0.5020990425437688,0.173552915017493,0.8182708051327615,-0.5705534219741821,-0.2960919737815857,0.3807160854339599
1774472503584247800,6.652247802734375,0.675387571004033,0.0919989961963146,1.2177924665816129,-0.4779900312423706,-0.3603686988353729,0.3224228322505951
1774472503594265600,6.662265625,2.456718614345789,0.0935537878902628,2.079707694586366,-0.3307838141918182,-0.5611183047294617,0.1099260151386261
1774472503604284000,6.672283935546875,2.918525978511572,0.2355169480320066,2.60626181782037,-0.1686408370733261,-0.755775511264801,-0.1483899503946304
1774472503614301700,6.6823017578125,2.105882730937004,0.4670395291982218,2.649983178386092,-0.0524047836661338,-0.7612461447715759,-0.3516559898853302
1774472503624319700,6.69231982421875,0.9913730903059244,0.5893825179928913,2.332831245653331,0.0074782567098736,-0.6680652499198914,-0.4716719090938568
1774472503634337800,6.702337890625,0.1626929001659154,0.4586045495364815,1.7637816503867505,0.0310669392347335,-0.4837851524353027,-0.5266305208206177
1774472503644355800,6.71235595703125,-0.7659744353801011,-0.0047979748662561,1.01997411169447,0.0467757359147071,-0.2686964869499206,-0.510901927947998
1774472503654374000,6.722373779296875,-2.702611191245913,-0.5014830295372754,0.4935856638835743,0.0565889552235603,0.0839715749025344,-0.3390042185783386
1774472503664391700,6.7323916015625,-4.112195665097237,-0.4829882454909384,0.1173638852078467,0.0377188734710216,0.3694011270999908,-0.0135751832276582
1774472503674410000,6.742409912109375,-1.9243010059058665,0.6448826156903058,0.0915647329648956,0.1323119699954986,0.3322961032390594,0.2501448690891266
1774472503684426800,6.7524267578125,-0.0868242969721555,1.0408850900370628,0.3260285186821595,0.2773732542991638,0.2219738215208053,0.3251701891422272
1774472503694444800,6.76244482421875,0.7157768645375967,0.4993761203859001,0.2184499317664653,0.3810378909111023,0.0163298491388559,0.2485734075307846
1774472503704462800,6.772462890625,2.022301945930719,0.3212053728420287,-0.0240470844112336,0.4488185048103332,-0.2923347055912018,0.0125865889713168
1774472503714481000,6.78248095703125,3.926400706285238,-0.3837375246006995,-0.2532693892784416,0.4024164080619812,-0.5788958668708801,-0.4196647107601166
1774472503724498700,6.792498779296875,4.044751775899529,-0.8314950283650309,-0.5518071859015151,0.2773799300193786,-0.796970009803772,-0.8128304481506348
1774472503734516700,6.802516845703125,2.087079246267676,-0.4212750819649547,-0.3756771138723939,0.2284909337759018,-0.9846408367156982,-0.9138100743293762
1774472503744534800,6.81253466796875,-0.1486596986383199,0.4056573877248913,0.1021996703563258,0.3529224991798401,-0.9236860275268556,-0.7245462536811829
1774472503754552800,6.822552734375,-1.081916115540266,0.9435396913114936,0.0571391701413318,0.5072824954986572,-0.7711894512176514,-0.4667948782444
1774472503764570600,6.832570556640625,-1.2939292191922664,0.539353106791526,-0.2879319939945824,0.5905503034591675,-0.5653145909309387,-0.2728597819805145
1774472503774589000,6.8425888671875,-2.0587457167088985,-0.2995924567751586,0.1708130599911324,0.532447099685669,-0.2089749127626419,-0.1572170704603195
1774472503784607500,6.852607421875,-2.7818068930357693,-0.476750885471329,0.3135730513326824,0.315838873386383,0.1015933454036712,-0.045289359986782
1774472503794625500,6.86262548828125,-2.746581265875697,-0.2588820415284484,0.0386081822704523,0.0464260578155517,0.3767844438552856,0.0480685494840145
1774472503804643300,6.872643310546875,-1.3121312308371067,-0.0999064083199948,-0.2354011944315396,-0.1315372884273529,0.3902437686920166,0.0780409425497055
1774472503814661400,6.882661376953125,1.0549269863277673,0.0479425584573298,-0.3988247652258723,-0.1424179077148437,0.1366764903068542,-0.0432689748704433
1774472503824679700,6.8926796875,2.8259067315250634,-0.4423611246135085,-0.9742491562213748,-0.1195165738463401,-0.2552562057971954,-0.333249032497406
1774472503834697500,6.902697509765625,3.717555711275339,-1.6062611844226715,-2.235888582509756,-0.186964064836502,-0.577288806438446,-0.7510756254196167
1774472503844715500,6.912715576171875,3.1022219192177056,-2.178061978093534,-2.815578521995246,-0.2412483394145965,-0.7752843499183655,-1.112930178642273
1774472503854733600,6.922733642578125,1.067549736535549,-1.722446892696619,-2.109161021955311,-0.2339448928833007,-0.7837326526641846,-1.171925067901611
1774472503864751600,6.932751708984375,-1.2734499102652073,-0.5967214460462331,-1.0911031922109424,-0.201350599527359,-0.3356283903121948,-0.9036040902137756
1774472503874769400,6.942769287109375,-2.737382644897699,0.9102034580945968,-0.0888696669283323,-0.0791783407330513,-0.3128535747528076,-0.3568952083587646
1774472503884787500,6.952787353515625,-5.268566425380111,2.465403732843697,3.977789532738924,0.0021340937819331,0.5244422554969788,0.4337023794651031
1774472503894805500,6.962805419921875,-4.252169952976703,2.09535739139989,1.4204957439661026,-0.0874077752232551,0.8631321787834167,0.8908348083496094
1774472503904823600,6.972823486328125,0.1303939741075039,2.137196445350349,0.8423669163174927,0.0236571040004491,0.6878759264945984,0.8974990248680115
1774472503914841300,6.98284130859375,2.172678385359049,1.505415230230242,2.6381203066349026,0.3271032571792602,0.2649116516113281,0.456619918346405
1774472503924859600,6.992859619140625,3.0172505566358563,1.2983838605135678,2.325341474419832,0.3762742578983307,-0.5086941719055176,0.0711960420012474
1774472503934877400,7.00287744140625,2.709752879694104,0.4152037992272526,0.4506460282800719,0.3091903030872345,-0.6089895963668823,-0.3957543671131134
1774472503944895500,7.0128955078125,0.9610200376182794,0.2444343409158289,0.3865252190904691,0.3418418765068054,-0.6240077614784241,-0.6733443140983582
1774472503954912500,7.02291259765625,-0.93160806517303,-0.2728425431460142,0.4916540017012506,0.3853712379932403,-0.4186668694019317,-0.6420761346817017
1774472503964930600,7.0329306640625,-2.1158669493347406,-0.586907908040285,0.0642152505739824,0.380810409784317,-0.0077237370423972,-0.4135471880435943
1774472503974948400,7.0429482421875,-1.833368104571104,-0.7789622195079923,-0.4691288296276703,0.3687452375888824,0.3074952065944671,-0.2103416174650192
1774472503984966400,7.05296630859375,-0.6296849734932184,-0.9283750746011732,-0.4236947833925485,0.3950897753238678,0.5113779902458191,-0.1328310221433639
1774472503994984400,7.062984375,0.3015238632291555,-0.8009438958220183,-0.1613901835368946,0.4893062710762024,0.6712355613708496,-0.1881288886070251
1774472504005002500,7.07300244140625,0.4243389265149832,-0.7435916309192776,-0.2699388758600689,0.5694876313209534,0.82522052526474,-0.2407823204994201
1774472504015020500,7.0830205078125,-0.6487789655417203,-0.9238016292057932,-0.1330697143890895,0.6928964257240295,1.01215398311615,-0.0848640874028205
1774472504025038600,7.09303857421875,-1.551474239963293,-1.0598188500225545,0.3469284641740843,0.8088482022285461,1.06731915473938,0.1916111558675766
1774472504035056600,7.103056640625,-1.2332938409656284,-1.1709916985705495,0.1785338817678392,0.8555786609649658,1.0954527854919434,0.4097706377506256
1774472504045074400,7.113074462890625,-0.9943693495124578,-1.3714499735072254,-0.3120644734006375,0.7689375281333923,1.155567646026611,0.5433769822120667
1774472504055092500,7.123092529296875,-0.6833750626266002,-0.4794708850197494,-0.6892808526042848,0.6375662088394165,1.2206484079360962,0.5518130660057068
1774472504065110500,7.133110595703125,-0.4554273077398538,0.5207875225313008,-0.8209436045385897,0.5421651005744934,1.1437695026397705,0.5063890218734741
1774472504075128600,7.143128662109375,-0.7492278832405805,0.7991023596085608,-0.7433597218595445,0.5332733392715454,0.9662229418754578,0.54294353723526
1774472504085146400,7.153146484375,-1.4391554362505674,0.8740202379487454,-0.7051626046080142,0.5888473987579346,0.8862600922584534,0.7001282572746277
1774472504095164400,7.163164306640625,-1.6899246792763472,1.1282231086850163,-0.8412473377030343,0.6613173484802246,0.9299380779266356,0.9080564379692078
1774472504105182500,7.173182373046875,-1.4302572595238685,1.4019570477128027,-0.667272945870459,0.7312505841255188,0.9788222908973694,1.0310420989990234
1774472504115200500,7.183200439453125,0.0114122053742408,1.590531115849316,-0.7809808658540248,0.7742089629173279,1.000068187713623,0.896431565284729
1774472504125218300,7.19321826171875,1.6185849516838788,1.559001420597732,-1.560266033706069,0.7200899720191956,1.004267930984497,0.554469108581543
1774472504135236600,7.203236572265625,2.603664494803548,1.1060082812022418,-1.9448620017670093,0.629126250743866,0.954133927822113,0.1523590087890625
1774472504145254700,7.213254638671875,2.2787825523406267,0.4155257977232336,-2.428989480420947,0.5340873599052429,0.9340789318084716,-0.1427417993545532
1774472504155272400,7.2232724609375,1.2421008322775364,-0.4068327151145786,-3.0069606332898138,0.4388766586780548,0.982779324054718,-0.2999492585659027
1774472504165290500,7.23329052734375,0.8742992010205983,-1.034493854629993,-2.714989319042861,0.3790092170238495,1.150116205215454,-0.4099214971065521
1774472504175308500,7.24330859375,1.4761381362110375,-0.8182541462589055,-1.7325386631220578,0.3044148683547973,1.2807258367538452,-0.579962968826294
1774472504185326600,7.25332666015625,2.6435651280373333,-0.2521010030861944,-1.057705657260865,-0.1233752220869064,1.4334460496902466,-0.7647358179092407
1774472504195344400,7.263344482421875,3.3604093295454978,-1.2236171541471033,-0.5530117759183049,-1.184264898300171,0.9563239216804504,-1.0367127656936646
1774472504205362400,7.273362548828125,4.571494845834375,-2.2895843707315624,0.4302852676987648,-1.7760893106460571,0.167567491531372,-1.438836932182312
1774472504215380500,7.28338037109375,3.3383488889068365,-1.2428060579374431,2.72588363802284,-1.4696662425994873,-0.6220988631248474,-1.6079668998718262
1774472504225398500,7.2933984375,0.3896797010660171,0.6814886643581092,4.496148512949049,-0.6757489442825317,-1.7598662376403809,-1.7298502922058103
1774472504235415600,7.30341552734375,-1.8705752609372135,3.704315121430158,4.825984862948954,-0.0303291752934455,-1.8863935470581052,-1.3773354291915894
1774472504245433600,7.31343359375,-4.650048742589354,3.9985137563377617,3.7259886085778473,0.1403862386941909,-1.8467559814453125,-0.8550403714179993
1774472504255451400,7.323451416015625,-6.072791388699412,2.488660397529602,3.656341656377912,0.0970134660601615,-1.5803378820419312,-0.2968775331974029
1774472504265469400,7.333469482421875,-7.134722116309404,1.5777420691639183,1.5398790792375805,0.1390364021062851,-1.1967716217041016,0.2503906190395355
1774472504275487500,7.343487548828125,-7.633271941938996,0.6887142316974699,-0.2193470998018979,0.1880002170801162,-0.6556631922721863,0.9012029767036438
1774472504285505500,7.353505615234375,-6.710118401378393,-0.5331412465393542,-1.582856635698676,0.2377133220434188,-0.1311971992254257,1.6103185415267944
1774472504295523300,7.3635234375,-4.649499292013049,-0.8066016293227672,-2.5812790599942206,0.2711229622364044,-0.0480061843991279,2.17643404006958
1774472504305541600,7.373541748046875,-2.7508231412291524,-0.9565317862883208,-3.021561405572295,0.2995541989803314,-0.1007015183568,2.462397575378418
1774472504315559400,7.383559326171875,-0.6279021817296743,-1.1801854972429573,-2.2992215292572973,0.3499782383441925,-0.3893274664878845,2.4819822311401367
1774472504325577500,7.393577392578125,0.9676683895915746,-0.4946531835172325,-1.1102915845446288,0.4776580035686493,-0.72206711769104,2.298480033874512
1774472504335595500,7.403595458984375,1.4406214171499012,0.2912400773629546,-0.7548882470898329,0.5603667497634888,-1.0130860805511477,1.9687434434890747
1774472504345613600,7.413613525390625,0.9749819274753332,0.3628209933001547,-0.5233504318218678,0.6058627367019653,-1.4464590549468994,1.694744348526001
1774472504355631600,7.423631591796875,1.2481336827009917,1.346992262468487,0.9020061961788683,0.8976562023162842,-1.8818674087524412,1.463511347770691
1774472504365649400,7.4336494140625,2.824332029554248,2.149110024375468,1.715706770786643,1.317148208618164,-2.1316585540771484,1.1416826248168943
1774472504375667500,7.44366748046875,4.571983506134152,1.729504848384112,1.650770042104274,1.6795133352279663,-2.535174608230591,0.7418826818466187
1774472504385685500,7.453685546875,2.011249221518636,0.9691589934755116,2.0573129074268044,1.8929823637008667,-2.3760225772857666,0.523450493812561
1774472504395703600,7.46370361328125,-0.4389052120059728,0.2247877930184826,2.414364450480044,1.7618237733840942,-1.91087543964386,0.6753937005996704
1774472504405721300,7.473721435546875,0.6646446431934833,0.0346111850561574,1.225932810678333,1.3384281396865845,-1.769962191581726,0.8401127457618713
1774472504415739600,7.48373974609375,2.555812025782466,-0.6690843792065978,-0.1058806604240089,1.0394922494888306,-1.8010358810424805,0.6775339841842651
1774472504425757400,7.49375732421875,3.2655718219876286,-1.2632372899390756,-0.6831863351214676,0.8836681246757507,-1.7978304624557495,0.3047072887420654
1774472504435775500,7.503775390625,2.9796967787891626,-0.695105028713122,-1.3879565794110298,0.6755055785179138,-1.7114382982254028,0.0744077861309051
1774472504445793300,7.513793212890625,-0.0173421799451112,0.0985332202706485,-1.5377189785942431,0.4780448377132416,-1.7158647775650024,0.0318969637155532
1774472504455811600,7.5238115234375,3.929448403418064,-1.9419469911031424,-0.8886549855660647,0.2887889146804809,-1.7420588731765747,-0.3789659142494201
1774472504465829600,7.53382958984375,4.037027903649211,-0.8536256846956908,-1.9531454075962305,0.0320806875824928,-1.8113147020339968,-0.7204760909080505
1774472504475847400,7.543847412109375,3.622054771372676,0.0872933027233928,-1.0692707151092589,-0.0975745096802711,-1.62743878364563,-1.0568956136703491
1774472504485865500,7.553865478515625,4.520190190532803,0.5547654877178371,0.0448266914591193,-0.1164483428001403,-1.601162075996399,-1.4806736707687378
1774472504495883500,7.563883544921875,5.154244465151429,0.7564299966391176,0.3216980517297983,0.0269852522760629,-1.513598084449768,-2.009182929992676
1774472504505901600,7.573901611328125,4.808996611008048,2.0128506653659044,1.1523016111478208,0.2359449863433838,-1.47060227394104,-2.4893505573272705
1774472504515919400,7.58391943359375,3.948775619700551,1.806245850498229,1.7670320304848253,0.4578315913677215,-1.4533133506774902,-2.8700013160705566
1774472504525937700,7.593937744140625,2.7563626551777123,0.4579810838758945,1.831806554342806,0.6033890247344971,-1.3587028980255127,-2.968827486038208
1774472504535954400,7.603954345703125,1.139227317780256,0.1786801583707332,2.321168426518887,0.9082208275794984,-1.1172302961349487,-2.9051401615142822
1774472504545972500,7.613972412109375,-0.8089075681775808,0.46150969639346,2.042332780437917,1.1314841508865356,-0.8025010824203491,-2.616408586502075
1774472504555990500,7.623990478515625,-2.5907681883513924,0.3843802794836461,1.5042745357625185,1.1609408855438232,-0.6031829118728638,-2.201484680175781
1774472504566008600,7.634008544921875,-4.4642228041172025,-0.0641296500831842,0.6137750183083117,1.0739915370941162,-0.5719280242919922,-1.6822824478149414
1774472504576026400,7.6440263671875,-6.959889865538478,-0.5453551236853004,-0.2449525195710361,0.9648610353469848,-0.0811268538236618,-0.975856363773346
1774472504586044700,7.654044677734375,-7.919902771940827,-1.0396376472592352,-0.5922273494973779,0.8631881475448608,0.8029050230979919,-0.2208236753940582
1774472504596062500,7.6640625,-5.991840367674827,-0.862028040729463,-0.8834249028928577,0.7972730398178101,1.0752273797988892,0.2182423770427703
1774472504606080500,7.67408056640625,-3.2623400004595515,-0.4605613096274435,-0.7186470131464302,0.6994618773460388,0.9858481884002686,0.3306467831134796
1774472504616098300,7.684098388671875,-0.9573241057097912,-0.4204482026867568,-0.3735929280094802,0.4450892806053161,0.827478289604187,0.2252513617277145
1774472504626116600,7.69411669921875,0.813541657719016,-0.3084146456561982,-1.2471230443537231,0.2350508272647857,0.7610463500022888,-0.1298345029354095
1774472504636134400,7.704134521484375,1.8083868080496788,-0.5931155305087566,-2.93216287419796,0.0286854095757007,0.7033920884132385,-0.514491081237793
1774472504646152400,7.71415234375,2.045918383839726,-1.8528890898600217,-3.7956197786867616,-0.2237929105758667,0.405463308095932,-0.7340818047523499
1774472504656170500,7.72417041015625,1.0009463898152111,-2.2572663015812635,-3.139634242767096,-0.4598837494850158,0.1882713288068771,-0.6470987200737
1774472504666188500,7.7341884765625,-0.1651321100115776,-2.62537802170068,-3.161002317227423,-0.8142366409301758,0.1632101982831955,-0.5000966191291809
1774472504676206600,7.74420654296875,0.2072778918236494,-2.739466465434432,-3.6682547970116137,-1.2180211544036863,0.2807419002056122,-0.547310471534729
1774472504686224400,7.754224365234375,0.2061392431825399,-3.045550768446922,-3.293607829904556,-1.6440213918685913,0.2111822366714477,-0.6366658806800842
1774472504696242700,7.76424267578125,-2.9239930117458104,-1.8590953971542417,-1.6032652174770832,-1.5545644760131836,-0.509113073348999,0.1443114727735519
1774472504706260500,7.774260498046875,-3.966778309381008,0.5574358759708702,0.6090826227083802,-1.4974148273468018,-0.1441634893417358,0.2070496827363968
1774472504716278500,7.784278564453125,0.0226888016700744,1.2567832914941013,1.5782792447805405,-1.225501298904419,-0.8226341605186462,0.0850481390953064
1774472504726296300,7.79429638671875,3.779951084911823,2.8416823928058146,2.0495332133360207,-0.8943430781364441,-2.607322931289673,-0.5168319940567017
1774472504736314600,7.804314697265625,9.532335630735757,3.5538410668462515,2.0154928504377603,-0.5131797194480896,-2.8806114196777344,-0.976698875427246
1774472504746332400,7.81433251953125,-5.080657250893116,1.2680826841436326,0.8077665814489126,-0.2587261199951172,-2.162281036376953,-0.2903594374656677
1774472504756350500,7.8243505859375,-6.699436263844371,-0.6086851478233933,-0.0114002226755023,-0.1071861311793327,-1.9706473350524905,0.1683210432529449
1774472504766368500,7.834368408203125,0.1210176584750413,-0.8457333240106701,-1.3200365971341728,-0.0947482287883758,-1.9655790328979488,0.0534147694706916
1774472504776386600,7.844386474609375,0.6764741971969604,-0.8577421801038085,-2.30598737013042,-0.2163835912942886,-1.661137938499451,-0.1877765357494354
1774472504786404000,7.854404052734375,0.9735504333674908,-0.6257327287361025,-3.1796342447221275,-0.4389359951019287,-1.4325811862945557,-0.5951675176620483
1774472504796422000,7.864421875,1.8715718707591291,-1.2950836499243974,-2.505986795383692,-0.649705708026886,-1.0909074544906616,-1.2021701335906982
1774472504806440200,7.874440185546875,2.405415128087997,-2.1681062551379204,-2.2429072291001675,-0.914825677871704,-1.1293927431106567,-1.6741544008255005
1774472504816458000,7.8844580078125,2.8026035973489285,-0.5669184284567833,-2.4013234748601917,-0.9332225322723388,-1.5901856422424316,-1.6369987726211548
1774472504826475300,7.894475341796875,1.7427303867906332,-0.335893165820837,-1.2272095526158808,-0.934961438179016,-1.803404688835144,-1.4634606838226318
1774472504836493000,7.9044931640625,0.2006628575980663,-0.3261757816657424,-1.1453197894364595,-0.9634423851966858,-1.6003413200378418,-1.3896501064300537
1774472504846511000,7.914510986328125,-1.207379062986374,0.3875003112003207,-0.8867465946614742,-0.9666994214057922,-1.2019845247268677,-1.305929183959961
