time,seconds_elapsed,accel_x,accel_y,accel_z,gyro_x,gyro_y,gyro_z
1774472694441357000,0.067357177734375,-0.1061439144700765,-0.0856301187515258,0.3939684112358838,-0.3763135969638824,-0.0831997096538543,0.1714250296354293
1774472694451375400,0.077375244140625,-0.1073649806976318,0.0134013333648443,0.438620038389042,-0.4027133584022522,-0.0286509953439235,0.1676112562417984
1774472694461393200,0.08739306640625,-0.0407704018056392,0.1512897548809647,0.5879873738400637,-0.4031709134578705,0.0153151294216513,0.1500863283872604
1774472694471412200,0.097412109375,-0.0298696530848741,0.26200521505028,0.774291743478924,-0.3751659393310547,0.0217813625931739,0.1374546736478805
1774472694481430000,0.107429931640625,-0.1364952135920524,0.3519903141409158,0.9863077697403728,-0.3251469731330871,0.021145399659872,0.1425402462482452
1774472694491448000,0.117447998046875,-0.2747948462575674,0.2754477572083473,1.0486047975689172,-0.2826517224311828,0.0103737125173211,0.1453621387481689
1774472694501466000,0.127466064453125,-0.5354150366902352,0.2902151182293891,0.9495509144250304,-0.2242176830768585,-0.0923449397087097,0.1279993951320648
1774472694511484200,0.137484130859375,-0.8773299470186233,0.3970107746064663,0.9906683030374348,-0.180196464061737,-0.0200793016701936,0.1511843204498291
1774472694521502000,0.147501953125,-1.218626433187723,0.3600017711609601,0.789873270427063,-0.1496358811855316,0.2502528429031372,0.189447820186615
1774472694531520300,0.157520263671875,-1.2631155632555484,0.5298980268344283,0.5494989454917609,-0.1252845525741577,0.5003934502601624,0.2298889011144638
1774472694541538300,0.167538330078125,-1.0346855778098103,0.7750751489415765,0.451489968290925,-0.1067817062139511,0.6614776849746704,0.2426707446575164
1774472694551556000,0.17755615234375,-0.6541524752736091,0.7643827822744846,0.5689393398251384,-0.0977975651621818,0.6987283825874329,0.2355994880199432
1774472694561575200,0.1875751953125,-0.4819371290028095,0.3090153880283236,0.9509018906425684,-0.0808563977479934,0.6973296999931335,0.2316439002752304
1774472694571593000,0.197593017578125,-0.2859574607849121,0.0864601398348808,1.1640373493880032,-0.0669634267687797,0.6671334505081177,0.2329473197460174
1774472694581611300,0.207611328125,-0.2496662502199411,0.1029421958193183,1.0501159327842295,-0.0756133794784545,0.5724823474884033,0.244900643825531
1774472694591629000,0.217629150390625,-0.4800023615479469,-0.0577159836485981,0.7856208006143569,-0.1361078470945358,0.5192168354988098,0.297524482011795
1774472694601647000,0.227647216796875,-0.6541875465869903,-0.0868161136656999,0.5189782811522483,-0.250058650970459,0.5772002935409546,0.4234965145587921
1774472694611665000,0.237664794921875,-0.5697399156183004,0.0585445434272289,0.2202848190434277,-0.37695974111557,0.5531519055366516,0.5293383598327637
1774472694621683200,0.24768310546875,-0.1342529876232147,0.1783203851476311,0.1324253338046372,-0.4703395068645477,0.481458842754364,0.5765396952629089
1774472694631701200,0.257701171875,0.1747176844805479,0.040024844135344,0.3298535933956503,-0.5260175466537476,0.5346360206604004,0.6352226138114929
1774472694641719000,0.267718994140625,0.1571282517760992,-0.0864309137403964,0.5584449068829417,-0.578136146068573,0.5893847346305847,0.7081940174102783
1774472694651737000,0.277737060546875,0.0696399379372596,0.0448690692961216,0.6609722382910549,-0.576822817325592,0.6196585893630981,0.7600077986717224
1774472694661756200,0.287756103515625,-0.0749333681702613,0.2150532020002603,0.6096250590220094,-0.5713515877723694,0.7284348607063293,0.7623343467712402
1774472694671774200,0.297774169921875,0.1166752453565597,0.3744441380113363,0.5603397807188332,-0.4919097125530243,1.1399285793304443,0.6661436557769775
1774472694681792000,0.3077919921875,0.349490898540616,0.3581716331243514,0.7517170697078108,-0.2215088456869125,1.5640721321105957,0.4238636791706085
1774472694691810000,0.31781005859375,0.9664134210944176,0.5298562335193157,0.3256386060491204,-0.1803179234266281,1.7933845520019531,0.125516727566719
1774472694701828400,0.327828369140625,1.0264520024716854,0.6252890766218304,-0.5316352258905768,-0.2860038578510284,1.9753639698028564,-0.1043918430805206
1774472694711846100,0.33784619140625,0.7657564087152481,-0.2123068259015679,-0.4018041463628411,-0.4394148290157318,2.181252241134644,-0.2917266488075256
1774472694721864200,0.3478642578125,0.563485531398654,0.2851473134458064,-0.1690846470296382,-0.4155164062976837,2.26932430267334,-0.4544788300991058
1774472694731882000,0.357882080078125,0.2643827578365803,0.4742079960554838,-0.3083268212422728,-0.4722958207130432,2.4555790424346924,-0.5729652643203735
1774472694741900300,0.367900390625,-0.1462573136717081,-0.7253533789172768,-0.7775812865436077,-0.6669462323188782,2.7277395725250244,-0.514358401298523
1774472694751918000,0.37791796875,0.1822550942480564,-0.2389750525966286,-1.2275380539178848,-0.9864848852157592,2.600986957550049,-0.2774771749973297
1774472694761937200,0.387937255859375,0.3816162215977907,0.0285948108434677,-0.9442404599919916,-1.2749992609024048,1.9465572834014893,-0.0239756815135478
1774472694771955000,0.397954833984375,0.8492138596028089,0.1989627756819129,-0.843351981832087,-1.560140609741211,0.5261312127113342,0.1115441843867302
1774472694781973200,0.40797314453125,1.2352934903502464,0.3096124771386385,-0.9803834942579268,-1.6355509757995603,-1.0619157552719116,0.3176478445529938
1774472694791991300,0.4179912109375,1.098437626752257,-0.303000073261559,0.3941539238706231,-1.545393705368042,-2.5176703929901123,0.5320457220077515
1774472694802009000,0.428009033203125,1.471950036871433,-0.3909720789641142,0.6529661880984902,-1.5242040157318115,-3.854467868804932,0.5439234375953674
1774472694812027100,0.438027099609375,2.1107716720223424,0.176159115460515,-0.0067675944387912,-1.628000020980835,-4.944558620452881,0.3316776156425476
1774472694822045200,0.448045166015625,2.919202854859829,1.585657372333109,-0.8338678219109773,-1.7566351890563965,-5.818106651306152,-0.064446821808815
1774472694832063200,0.458063232421875,3.057197367098927,2.153142494761944,-0.9957346465162932,-1.759253740310669,-6.280682563781738,-0.4431241750717163
1774472694842081000,0.4680810546875,2.6988825261116025,1.670428536167741,-0.493156880544871,-1.6832304000854492,-6.32664680480957,-0.799041748046875
1774472694852100000,0.47810009765625,2.0836656384319068,0.9734832133501768,-0.1226478900253772,-1.6624975204467771,-5.466048717498779,-1.3376076221466064
1774472694862118100,0.4881181640625,1.725697418925166,0.8013038151755929,0.439825760916993,-1.505612015724182,-4.485225677490234,-1.7222893238067627
1774472694872136200,0.49813623046875,0.6529512827903032,0.9660796590954064,1.1009143921293318,-1.2707120180130005,-3.279139757156372,-1.9526997804641724
1774472694882154200,0.508154296875,-1.2393868971437214,0.6686947953671216,1.4098726431429385,-1.005954623222351,-1.956038475036621,-1.966037631034851
1774472694892172000,0.518172119140625,-2.709595643305778,-0.31152123336941,1.8188889128416776,-0.6906476616859436,-0.5875154137611389,-1.7058202028274536
1774472694902190300,0.5281904296875,-3.1446453489273787,-0.624546587691456,2.1225233384840188,-0.3763094544410705,0.6449052095413208,-1.169375777244568
1774472694912208100,0.5382080078125,-3.1848961107730864,-1.3187471418455243,1.845755584718287,-0.1871303766965866,1.714267373085022,-0.4808278679847717
1774472694922226200,0.54822607421875,-2.562837394374609,-1.3873399088174103,1.4890160302236677,-0.1573405265808105,2.6085593700408936,0.2125388979911804
1774472694932244000,0.558243896484375,-2.339955690705776,-0.7336264094829559,0.9152833917073904,-0.1978815197944641,3.450312852859497,1.0420998334884644
1774472694942263000,0.568262939453125,-2.0117489877343178,-0.0035538930892944,0.1142342819452285,-0.3458395600318908,4.201994895935059,1.7035489082336426
1774472694952281300,0.57828125,-1.6110475419163703,0.9276574278511106,-0.1583300287812948,-0.4468678534030914,2.7814781665802,2.006748914718628
1774472694962299100,0.588299072265625,0.3539309268146753,0.6931579132333398,2.3229620319373905,-0.3407526016235351,-1.5467469692230225,1.5831081867218018
1774472694972317200,0.598317138671875,3.3669062903493643,0.4703095273122191,2.2489918097108603,-0.1322665959596634,-2.216603279113769,1.46603262424469
1774472694982334700,0.608334716796875,1.4429209262639284,1.523036373247206,2.5682886455178258,0.1711177825927734,-1.7361774444580078,1.3664802312850952
1774472694992352800,0.618352783203125,0.6646960811197757,0.6417080042421818,3.4689790098577737,0.5485753417015076,-0.9077807068824768,1.1458733081817627
1774472695002370600,0.62837060546875,-0.0041150341033935,-0.1265747080802917,1.6927620946593582,0.8137771487236023,0.0249640122056007,0.6843495965003967
1774472695012388600,0.638388671875,1.2030524319589138,0.0877656694754958,-0.1947244805250316,0.88962721824646,0.3093404471874237,0.2744970917701721
1774472695022406700,0.64840673828125,1.4521522804677485,-0.3803223823949694,-0.7443863614935428,0.7084167003631592,0.4490927457809448,-0.117349237203598
1774472695032425700,0.65842578125,1.2576520371526478,-0.4717325458526611,-1.447652923221886,0.5100863575935364,0.2334485650062561,-0.4529140889644623
1774472695042443500,0.668443603515625,0.6559925501823425,-1.0714952592909337,-0.1068809235077351,0.429792046546936,0.1972058713436126,-0.6284366250038147
1774472695052461600,0.678461669921875,-0.0949123263597488,-0.8403750118479132,-0.0764434804722666,0.3968265056610107,0.2802179455757141,-0.6919441223144531
1774472695062479600,0.688479736328125,-0.3650117082774639,-0.2917413048833608,-0.0559130989450961,0.432784765958786,0.3517115712165832,-0.7109726667404175
1774472695072497700,0.69849755859375,-0.6081658001244068,-0.227838449293375,0.2481245737358927,0.5060526728630066,0.3627352118492126,-0.676116406917572
1774472695082515700,0.708515625,-0.8475736911803483,-0.4170204201951623,0.3453578903891146,0.5047088265419006,0.3455439805984497,-0.5752593278884888
1774472695092533500,0.718533447265625,-1.0688847845315932,-0.3370876363024115,-0.0100534842416644,0.3883188366889953,0.3323287665843963,-0.4018731117248535
1774472695102551800,0.7285517578125,-1.333428870409727,-0.3102665571331978,-0.0768336488336324,0.2757377028465271,0.2939432859420776,-0.1731416434049606
1774472695112569600,0.738569580078125,-1.4676438641101122,-0.2180836557373404,0.1660616459466516,0.2319901138544082,0.2310248911380767,0.0768928602337837
1774472695122587600,0.748587646484375,-1.3087199610888958,0.096444942754507,0.1513433847643435,0.2180197089910507,0.1597666889429092,0.2953357100486755
1774472695132606700,0.758606689453125,-1.0082435610860585,0.1228270459845662,0.281808962803334,0.2327562570571899,0.1147771626710891,0.4595177173614502
1774472695142624500,0.76862451171875,-0.7281704821646213,0.1107198440834879,0.343327115213871,0.2592560350894928,0.0932649448513984,0.5638864040374756
1774472695152642800,0.778642822265625,-0.3870587049126625,0.0091264325246214,0.1435902864195406,0.2200133204460144,0.0664154067635536,0.5860929489135742
1774472695162660600,0.78866064453125,0.1500759951770305,-0.1636588225886225,-0.0580430236458778,0.1359391808509826,0.0278802663087844,0.5199959874153137
1774472695172678700,0.7986787109375,0.5857996545374393,-0.2733665670201182,-0.0759701638720929,0.0592655166983604,0.0146998912096023,0.3962804675102234
1774472695182696700,0.80869677734375,0.7209159809917212,-0.3882429462611675,-0.1072279103145003,0.0183545686304569,0.0729046091437339,0.2461216002702713
1774472695192714800,0.81871484375,0.7486930457115173,-0.2699775091037154,-0.0742458242975175,0.0054283654317259,0.1541875451803207,0.0895199924707412
1774472695202732500,0.828732666015625,0.6783627874225377,-0.0914382205083966,0.104702337359637,0.027313157916069,0.2198738902807235,-0.0663854554295539
1774472695212751600,0.838751708984375,0.5961363396346568,-0.0046837739020586,0.2401350362867116,0.0535455234348773,0.285225361585617,-0.2048951685428619
1774472695222769700,0.848769775390625,0.3745072663754225,0.0623293226629495,0.0524685845144093,0.0800764709711074,0.3584993183612823,-0.294585108757019
1774472695232787700,0.85878759765625,-0.0334738150566816,-0.0318348156780004,0.523322447836399,0.1358310729265213,0.4519722759723663,-0.3279350697994232
1774472695242805800,0.8688056640625,-0.2946814499884844,0.239269067107141,0.3997890071481466,0.1835812926292419,0.5651060342788696,-0.3254263699054718
1774472695252823600,0.878823486328125,-0.2954524343609809,0.2543725282147526,0.5368507685817778,0.2239506095647812,0.591344952583313,-0.3040634989738464
1774472695262841600,0.888841552734375,-0.1939034464657306,0.2098980111941695,0.5972901858448982,0.2485361099243164,0.4795880615711212,-0.2659144997596741
1774472695272859600,0.898859619140625,-0.0887146407634019,0.1081163835868239,0.4171269493095576,0.2177139371633529,0.303229808807373,-0.2157648503780365
1774472695282877700,0.908877685546875,0.04707271682024,-0.1551943611040711,0.1130957794345915,0.1252295523881912,0.1240707114338874,-0.1748176962137222
1774472695292895500,0.9188955078125,0.2790595179647207,-0.3225362561196088,-0.0474359971746802,0.0229819528758525,-0.0446126088500022,-0.1843936890363693
1774472695302913800,0.928913818359375,0.5895505315035581,-0.308126914756,0.11019377438277,-0.030926551669836,-0.0932842716574668,-0.265311449766159
1774472695312932600,0.9389326171875,0.6914946561962366,-0.1280304598465561,0.6383189463257789,-0.000104387756437,-0.1568103730678558,-0.3653402328491211
1774472695322950700,0.94895068359375,0.3735515730857849,0.175271226710081,1.1564959940977393,0.0878363847732544,-0.1915715485811233,-0.4176079630851745
1774472695332968700,0.95896875,0.0222919113069772,0.2582917474851012,1.0361280317030843,0.1444167643785476,-0.1605309545993805,-0.4200004041194916
1774472695342986500,0.968986572265625,-0.1666384229212999,0.0514116228073835,0.6834225550301373,0.1445493847131729,-0.1695127338171005,-0.3797571063041687
1774472695353004800,0.9790048828125,-0.0582055207312107,-0.0698299075514078,0.5515386346258223,0.1121158972382545,-0.2504215538501739,-0.3148493766784668
1774472695363022600,0.989022705078125,0.3146913878381252,-0.0835007055073976,0.5519238345511257,0.07322309166193,-0.3640077710151672,-0.2611128985881805
1774472695373040600,0.99904052734375,0.6375538071721791,-0.1455985575020313,0.6891787804692984,0.1889758706092834,-0.4344027936458587,-0.2492383122444152
1774472695383058400,1.009058349609375,1.1217349157094956,0.4128668076470494,-0.6825400731071829,0.3308669328689575,-0.2173312157392501,-0.4075214266777038
1774472695393076700,1.01907666015625,0.6255448049485683,0.1986900962203741,0.7387235864914953,0.4306843280792236,0.1179575398564338,-0.5849583148956299
1774472695403095800,1.029095703125,1.0206278263628483,-0.3047974780723452,0.7106912318363785,0.3391053974628448,0.0852051898837089,-0.7460044622421265
1774472695413113600,1.039113525390625,1.271777593138814,-0.1491866451218724,0.1022770099088549,0.1469715386629104,-0.0680635273456573,-0.8906573057174683
1774472695423131600,1.049131591796875,0.824105137309432,-0.3338505540773272,0.058530368771404,0.022833090275526,-0.1203056871891021,-0.9232376217842102
1774472695433149700,1.059149658203125,0.2065384716331958,-0.7193181904062629,-0.0026839783869683,-0.0515212193131446,-0.0773637518286705,-0.808653712272644
1774472695443167700,1.069167724609375,0.5106342311769724,0.5186906963825225,-1.2930046516932547,-0.2443569898605346,0.6246604323387146,-0.747166097164154
1774472695453185500,1.079185546875,1.6632020920455457,1.463417332456261,-1.7971153263203798,-0.2708882391452789,0.2763264775276184,-0.8628994226455688
1774472695463203600,1.08920361328125,1.1867413486272096,-0.2340139230579137,-0.5097634396918118,-0.236454352736473,-0.4164828658103943,-0.9645927548408508
1774472695473221600,1.0992216796875,0.3807902921676635,-1.174211245138943,-0.488160679692775,-0.258428156375885,-0.1264417618513107,-0.8736371397972107
1774472695483239700,1.10923974609375,-0.2606342189580202,-1.465638954028487,-0.4924485861450433,-0.3301947712898254,0.1239201426506042,-0.7165540456771851
1774472695493258800,1.1192587890625,-0.7123305234760046,-0.9729005911566316,-1.0377953803934157,-0.4337569773197174,0.0015982037875801,-0.5424765944480896
1774472695503276500,1.129276611328125,-1.2270873875409365,0.1431321673884987,-1.5032562986306846,-0.5538740754127502,-0.0455658473074436,-0.2846839427947998
1774472695513294600,1.139294677734375,-1.6611872450917955,0.4940240187682211,-1.5524835631363092,-0.5578562617301941,0.0135177131742239,0.0774585530161857
1774472695523312600,1.149312744140625,-1.75702194699347,0.2613958509802818,-0.8406473990485072,-0.415928453207016,-0.0713207423686981,0.4606687724590301
1774472695533330700,1.15933056640625,-1.120566456452012,0.7860249975010752,-0.4787772036671638,-0.2404036968946457,-0.3974345326423645,0.7598057389259338
1774472695543348500,1.169348388671875,-0.7855787150382996,0.5494919312290847,-0.2416955636017024,-0.1141962110996246,-0.7788181304931641,1.010772943496704
1774472695553366800,1.17936669921875,-0.4587637586861848,0.6276634045377373,-0.4402722625754773,-0.0833361446857452,-1.2078256607055664,1.21672260761261
1774472695563384600,1.189384521484375,-0.5434072044879198,0.4510021847739815,-1.0803409021127968,-0.1039199829101562,-1.5544222593307495,1.4225034713745115
1774472695573402600,1.199402587890625,-0.8962924216419458,0.0228512987554073,-1.6354818720795212,-0.1960805803537368,-1.7399955987930298,1.6486707925796509
1774472695583421700,1.209421630859375,-1.183810555872321,-0.1934621324390172,-2.184949545650184,-0.36344775557518,-1.8922977447509768,1.841375470161438
1774472695593439500,1.219439453125,-1.3031161497324704,-0.2575567112088203,-1.9664232607118783,-0.546009361743927,-1.915834903717041,1.981622338294983
1774472695603457800,1.229457763671875,-1.161568328925967,-0.039161213043332,-1.598011096341163,-0.6571230888366699,-1.806894302368164,2.0499532222747803
1774472695613475600,1.2394755859375,-0.7077817741304635,0.1372226510837674,-1.4289511453613637,-0.6430402398109436,-1.6284997463226318,2.0282890796661377
1774472695623493600,1.24949365234375,-0.2106587664335966,-0.0176101832315325,-1.0816216626383364,-0.568213164806366,-1.3978084325790403,1.9085973501205444
1774472695633511400,1.259511474609375,0.646685208132863,0.4649330949708819,-0.7477051306527107,-0.4801733493804931,-1.3375768661499023,1.6605793237686155
1774472695643529700,1.26952978515625,1.40257780995965,0.5186065252304077,-0.1709981707670725,-0.3412333130836487,-1.333037257194519,1.3289459943771362
1774472695653547500,1.279547607421875,1.6997884861648085,-0.0036631986826658,-0.1424025379396974,-0.2117277830839157,-1.3717210292816162,1.0053761005401611
1774472695663565600,1.289565673828125,0.9439338782608508,-0.7663426841706037,-0.6881923997804522,-0.2262952774763107,-1.304270625114441,0.7084856033325195
1774472695673583900,1.299583984375,0.3699403968513011,-1.000717257234454,-1.1331667025670409,-0.3671743273735046,-1.079256534576416,0.4636309146881103
1774472695683602700,1.309602783203125,0.3189659964174032,-0.9314815161839128,-1.2431453728944062,-0.5331289172172546,-0.8831874132156372,0.2311691790819168
1774472695693620700,1.319620849609375,0.7622095298886299,-0.4529197088330984,-0.8014980225734413,-0.6372525691986084,-0.7939605116844177,0.0301150288432836
1774472695703638500,1.329638427734375,0.7390653856664896,-0.1854442456781864,-0.3506474481645971,-0.6472103595733643,-0.6766466498374939,-0.054719965904951
1774472695713656600,1.339656494140625,0.4378612559109926,-0.3946250485137105,0.1441537289885804,-0.5542234778404236,-0.644782304763794,-0.0091857956722378
1774472695723674600,1.349674560546875,0.6077338384479284,-0.3989002416148781,0.6085099373869598,-0.428937166929245,-0.7555743455886841,0.077070266008377
1774472695733692700,1.359692626953125,0.6014852994471788,-0.321202377167344,0.6165685945495962,-0.3269131779670715,-0.9649373292922974,0.1501883268356323
1774472695743710500,1.36971044921875,0.1399982532769441,-0.4154612080544233,0.953680561575666,-0.2551191449165344,-1.1341173648834229,0.2192997634410858
1774472695753728500,1.379728515625,-0.2052133605092763,-0.1313730482727289,1.3377616389170288,-0.1859539002180099,-1.2122750282287598,0.3027890622615814
1774472695763746800,1.389746826171875,-0.273572026464343,0.3305231632202863,1.7203221556276085,-0.0569988451898098,-1.2920141220092771,0.4276774525642395
1774472695773765600,1.399765625,-0.4466261616468429,0.6592267097979784,1.7295137623429298,0.1465920507907867,-1.3348912000656128,0.6396973133087158
1774472695783783700,1.40978369140625,-0.796129919669032,0.7436348855391144,0.9563150017324834,0.3053736984729767,-1.3589476346969604,0.9299222230911256
1774472695793801500,1.419801513671875,-1.2124217333287,0.4934279525712132,-0.5785206034451723,0.2960953712463379,-1.3198922872543335,1.2528220415115356
1774472695803819800,1.42981982421875,-1.6716624618768692,-0.1833510727912187,-2.191803210937232,0.0469398908317089,-1.0862659215927124,1.544260859489441
1774472695813837600,1.439837646484375,-1.561761240699887,-0.8620236568152904,-2.9381144760787485,-0.3416564464569092,-0.8788756728172302,1.6514707803726196
1774472695823855600,1.449855712890625,-0.4358580993950366,-0.5818728364825249,-2.383070902071893,-0.7134923338890076,-0.917664349079132,1.45845627784729
1774472695833873400,1.459873291015625,0.7293044546306133,0.181765264904499,-1.5414938209578395,-0.8926928639411926,-1.078325271606445,1.0895452499389648
1774472695843891700,1.4698916015625,1.1160136154532432,0.7711486231476068,-0.4075272001847624,-0.7930471897125244,-1.1183825731277466,0.716709315776825
1774472695853909800,1.47990966796875,0.9063093732655048,1.302956867517531,0.9782594878412784,-0.4550318121910095,-1.1318740844726562,0.4004324078559875
1774472695863927600,1.489927490234375,0.397013112694025,1.810140958240628,1.779204844968021,-0.0554319657385349,-0.9112448692321776,0.1957730054855346
1774472695873946600,1.499946533203125,-0.4393815973460674,1.943275463227928,1.773464693880826,0.2689711451530456,-0.5181716084480286,0.0695428997278213
1774472695883964400,1.50996435546875,-1.2050140874207018,1.660030184011161,1.185676495874673,0.4755674600601196,0.0670937374234199,-0.0319240689277648
1774472695893982700,1.519982666015625,-1.84469613879323,1.3727400133177636,0.2513974579267203,0.5417690277099609,1.0018091201782229,-0.1904033124446869
1774472695904000500,1.53000048828125,-1.886764179193973,1.0076014637902375,-0.2786754870831966,0.4853895902633667,1.7589635848999023,-0.2683084905147552
1774472695914018600,1.5400185546875,-1.1696394071787597,1.0554781904697417,-0.5503432873614132,0.3345848023891449,2.030067682266236,-0.2219906151294708
1774472695924036900,1.550036865234375,-0.4832096331566572,1.3561620957434175,0.2985981850408017,0.3554051220417022,1.8422423601150515,-0.24134062230587
1774472695934054700,1.5600546875,0.8442021689206362,2.2497239233776924,0.6476014461949468,0.3039222359657287,1.5974432229995728,-0.3865526616573334
1774472695944072700,1.57007275390625,0.6084130528837443,0.8011731745332479,-0.5172236925698817,0.2365900874137878,1.6139020919799805,-0.5620903968811035
1774472695954090500,1.580090576171875,0.1203033727258443,-0.0869034996882081,0.1972454503700137,0.1520330160856247,1.6894803047180176,-0.6597694158554077
1774472695964109600,1.590109619140625,-0.1262415306031704,-0.0308636325582861,-0.5374373362980782,0.0238289795815944,1.6173582077026367,-0.6800293922424316
1774472695974127600,1.600127685546875,-0.4632873735904693,0.0915060250476002,-0.4523013577390462,-0.0347856692969799,1.4725403785705566,-0.6412532925605774
1774472695984145700,1.610145751953125,-0.537897501155734,0.4739508064240217,0.4568983301404863,-0.0059633422642946,1.3488980531692505,-0.5515287518501282
1774472695994163700,1.620163818359375,-0.5192372243493795,1.0767205927237868,1.0955549109227956,0.1124512031674385,1.3983863592147827,-0.4725332260131836
1774472696004181800,1.630181640625,-0.4331628689616918,1.7404080813229084,1.620446800033003,0.2493430078029632,1.644618272781372,-0.4001985788345337
1774472696014199800,1.64019970703125,-0.0931511619061231,2.024956844353676,1.9195245852842928,0.3609858453273773,1.9799216985702517,-0.4425506591796875
1774472696024217900,1.6502177734375,0.3998573962092399,1.6020806838676334,1.62325922710523,0.4826086759567261,2.15519118309021,-0.6534003019332886
1774472696034235600,1.660235595703125,1.1773872448265552,1.8940940836906432,1.4365104746997357,0.5794227719306946,2.010935068130493,-0.8397247195243835
1774472696044254000,1.67025390625,1.989608467596769,2.1018889851257203,1.4212253734149038,0.7031897306442261,1.6952675580978394,-1.0805823802947998
1774472696054272800,1.680272705078125,2.4981331592738627,2.00887197099328,1.0747804915066808,0.8848272562026978,1.2951589822769165,-1.3773603439331057
1774472696064290800,1.690290771484375,2.536671271982789,1.7555384304374455,0.5109738018622622,1.1483361721038818,0.7352227568626404,-1.668166995048523
1774472696074308600,1.70030859375,2.237254025644064,1.4250687509700657,0.1658246223203837,1.4617841243743896,0.1173525005578994,-1.8576672077178955
1774472696084326700,1.71032666015625,1.574816537106037,0.7248433835685253,-0.1234584209569729,1.788745999336243,-0.4637974500656128,-1.908599138259888
1774472696094345000,1.720344970703125,0.2662994051128626,0.3420549033209681,-0.3455542897440493,2.099555969238281,-0.6448156237602234,-1.7847940921783447
1774472696104362800,1.73036279296875,-2.070403421276808,0.1382563780456781,-0.8065142433002591,2.297548532485962,-0.3873351216316223,-1.433889865875244
1774472696114380800,1.740380859375,-2.873921697631478,0.2488043726935982,-0.760796959676966,2.395581722259521,-0.1461442410945892,-0.8700014352798462
1774472696124398600,1.750398681640625,-2.6093665058374405,0.5141340559914708,-0.4304405313257127,2.43536639213562,-0.2777134478092193,-0.2369323372840881
1774472696134417000,1.7604169921875,-1.9622265396744007,0.8660282162815331,0.5492786172719673,2.498270273208618,-0.3818198144435882,0.3153191208839416
1774472696144434700,1.7704345703125,-1.4884224482446908,1.5932693086415528,0.1897559348648413,2.4741480350494385,-0.7236237525939941,0.7648564577102661
1774472696154453800,1.780453857421875,-1.078915180158615,1.8849498232483863,0.2351930133072659,2.5039610862731934,-0.7594871520996094,1.0463008880615234
1774472696164471800,1.790471923828125,-0.514447067463398,1.6708640049755572,0.3922275589179247,2.4887681007385254,-0.4373775124549866,1.1669543981552124
1774472696174489900,1.80048974609375,-0.4005898021370172,1.7348115764901042,-0.2843458608698099,2.382056951522827,0.0170379448682069,1.0926567316055298
1774472696184508000,1.8105078125,0.339621246433258,1.207231471209228,-0.5854878121092916,2.221679210662842,0.1581532657146453,0.8419473171234131
1774472696194525700,1.820525634765625,1.0214011488229036,0.3104199941292405,-1.0216618455857038,2.000124216079712,-0.0506316311657428,0.5322141051292419
1774472696204543700,1.830543701171875,1.7881909922391177,-0.7341805362343787,-1.2977452703490853,1.6739991903305054,-0.6702123284339905,0.1570734977722168
1774472696214561800,1.840561767578125,2.131633842787146,-0.8167740637689829,-1.4368290391296148,1.277357816696167,-1.1015650033950806,-0.256227046251297
1774472696224579800,1.850579833984375,1.6526292601048946,-1.231185762770474,-0.965328110075742,0.9259433150291444,-1.4310086965560913,-0.6598498225212097
1774472696234597600,1.86059765625,1.2058137133657931,-2.0085756183952093,-0.278175866997987,0.570068895816803,-1.4634302854537964,-1.068983793258667
1774472696244616700,1.87061669921875,0.3587193301349878,-2.4176965175122023,-0.3197295281358063,0.2437770515680313,-1.1157610416412354,-1.4277361631393433
1774472696254634800,1.880634765625,0.0762082104116678,-2.127429669095576,-1.103357109106332,-0.0327844284474849,-0.6711732149124146,-1.6230839490890503
1774472696264652800,1.89065283203125,0.2041343331009149,-2.3245015164643523,-1.1346610327780249,-0.2642214000225067,-0.2893944382667541,-1.7960810661315918
1774472696274670800,1.9006708984375,0.7982540722161531,-2.3592487124577164,-1.4528803024813532,-0.4045434296131134,-0.0757244676351547,-1.9821332693099976
1774472696284688600,1.910688720703125,1.1006991419434546,-2.162391092361509,-0.9502315171003342,-0.3531449437141418,0.2377269268035888,-2.1208786964416504
1774472696294707000,1.92070703125,0.5516717594861984,-2.356082941903174,-0.4457129923246801,-0.2781997621059418,1.199384689331055,-2.210073947906494
1774472696304724700,1.930724853515625,0.5068506209850311,-2.3984239540264007,-1.8703662943616508,-0.3504555821418762,1.484632968902588,-2.131993770599365
1774472696314742800,1.94074267578125,0.3400011856615543,-2.0054063407093285,-2.32597495001778,-0.3716993629932403,1.2357934713363647,-1.9060163497924805
1774472696324760600,1.950760498046875,-0.766028795915842,-2.074665901026875,-1.4460574707239866,-0.3479876518249511,1.1158840656280518,-1.5587619543075562
1774472696334779600,1.960779541015625,-1.804789660340548,-2.063439865874499,-1.1992680180493742,-0.2973668277263641,1.2990387678146362,-1.1287744045257568
1774472696344798000,1.9707978515625,-3.01289879116714,-1.4730723188996313,-0.400829894503206,-0.1722763031721115,1.5947151184082031,-0.630098819732666
1774472696354815700,1.980815673828125,-2.953901827797293,-0.6210132989987731,0.5531045687682926,0.0095861097797751,1.8924227952957156,-0.234473779797554
1774472696364833800,1.990833740234375,-2.040948194211721,0.6485927953198551,1.0218863750565796,0.2261226773262024,1.8363279104232788,0.0428174883127212
1774472696374851600,2.0008515625,-1.1290957998663187,1.4100157048754394,0.8582450150594114,0.4048734307289123,1.6188637018203735,0.2124708890914917
1774472696384870000,2.010869873046875,-0.0284025031417608,0.5754835738368332,-0.0248573413481935,0.3908963501453399,1.2394611835479736,0.1607309877872467
1774472696394887700,2.0208876953125,1.611564259266853,-0.7776642886519431,-0.7449043209530413,0.1885272115468979,0.7301488518714905,-0.0198771972209215
1774472696404905700,2.03090576171875,-0.1153144783973693,-1.21772290847674,0.1894859222844243,0.0212790984660387,0.3286712169647217,-0.1190751492977142
1774472696414923800,2.040923828125,0.992681250295043,-0.4877009532265365,0.4832842327628284,-0.1805895566940307,-0.1312725841999054,-0.2834505140781402
1774472696424942800,2.05094287109375,2.764270067301392,0.2631115688569843,-1.1760894601009786,-0.4901338517665863,-0.9615412950515748,-0.4756812155246734
1774472696434961000,2.0609609375,3.574001226821541,-0.1679239326871931,-0.9172242966420948,-0.769827663898468,-1.478811740875244,-0.6776402592658997
1774472696444978700,2.070978759765625,0.6419634403079748,-0.3619616730570792,-0.982394687949866,-1.100398063659668,-1.1655272245407104,-0.7074724435806274
1774472696454996700,2.080996826171875,-3.508533021610975,0.124897422517836,-1.2073120621647686,-1.281050682067871,-0.6560809016227722,-0.5189328789710999
1774472696465014800,2.091014892578125,-3.5670617829471825,0.3549513559035956,0.6710775988504291,-1.292109489440918,-0.2694095969200134,-0.3917110562324524
1774472696475032800,2.10103271484375,-2.315916058948636,1.458296774572134,1.2136442608609794,-1.289060354232788,-0.030725160613656,-0.3748289346694946
1774472696485050600,2.111050537109375,-1.66101188852489,2.4780033944368363,1.0270187695089728,-1.2375761270523071,-0.0586792975664138,-0.3169515430927276
1774472696495068700,2.121068603515625,-1.8942986663520336,2.1374242627568543,1.1808595971122384,-1.0966119766235352,0.0027707312256097,-0.1701004654169082
1774472696505086700,2.131086669921875,-1.9050521155565976,0.8891272792529314,0.4821165406903251,-0.9825160503387452,0.0605773068964481,0.0044897235929965
1774472696515105800,2.141105712890625,-1.510516791152954,0.1320616881240159,0.3309828896865248,-0.8545584082603455,-0.1598963439464569,0.2137834876775741
1774472696525123800,2.151123779296875,-1.749629498654604,-0.0795464149236679,0.4262993398677557,-0.7601687908172607,-0.4270875751972198,0.4452095329761505
1774472696535141600,2.1611416015625,-1.9233277769595385,-0.3942459860682487,0.7064375199146569,-0.5647604465484619,-0.4760063290596008,0.6810022592544556
1774472696545160000,2.171159912109375,-1.790831277614832,-0.4175999736487865,0.6330145563073456,-0.363074243068695,-0.3611012995243072,0.8335702419281006
1774472696555177700,2.181177734375,-1.1682488296031952,-0.4821292905740439,0.3335037134010344,-0.1696953326463699,-0.3654312193393707,0.8302128911018372
1774472696565195800,2.19119580078125,-0.0788648624002933,-0.7655249380469322,0.5319140428319573,0.005228548310697,-0.3932543098926544,0.6303368210792542
1774472696575213600,2.201213623046875,1.1425263593256474,-0.7069919389270246,0.391778865302354,0.1758772134780883,-0.4115599393844604,0.3727219998836517
1774472696585232000,2.21123193359375,1.3552373821139334,-0.5767721523426472,0.3623592940725386,0.3082994222640991,-0.2546347677707672,0.2563381493091583
1774472696595249700,2.221249755859375,0.4032733421325683,-0.2008008047640323,-0.0525089895900338,0.3749050796031952,-0.0275823343545198,0.3035788834095001
1774472696605268700,2.231268798828125,-0.2824246104836463,0.1668352606676519,0.7778660948343574,0.4996131658554077,0.0836576372385025,0.4043411910533905
1774472696615286800,2.241286865234375,-0.0872433991670608,0.8308668865293264,0.6329539121612906,0.5161992311477661,0.2901428043842315,0.5280736684799194
1774472696625304600,2.2513046875,0.5848796170830727,0.2923274342082441,-0.3332142289351671,0.4302342534065246,0.0681097432971,0.5316956043243408
1774472696635323000,2.261322998046875,1.787505932584405,-0.3439097374074161,-0.1651223923351615,0.3155345618724823,-0.108208566904068,0.4140826463699341
1774472696645340700,2.271340576171875,1.4372861352473496,-0.2342709665589034,-0.537201554780826,0.1336736977100372,-0.1865100264549255,0.2435133010149002
1774472696655358700,2.281358642578125,1.1986918986618518,-0.441024542247504,-0.3899277575429529,-0.0090411528944969,-0.3423034846782684,0.0472856983542442
1774472696665376800,2.291376708984375,1.0914525901705026,-0.2634846399530768,-0.0762194624580442,-0.1044081524014473,-0.3582512736320495,-0.1756738871335983
1774472696675394800,2.301394775390625,1.1816238594830035,0.2686065130114555,0.2687660874873399,-0.1574186384677887,-0.4436810314655304,-0.353614330291748
1774472696685412600,2.31141259765625,0.8527005326747894,0.3336635070726275,0.163587583983317,-0.2665563225746155,-0.5604156255722046,-0.3897323906421661
1774472696695431700,2.321431640625,0.356356108134985,0.2566650230661034,-0.1060301518972963,-0.376914769411087,-0.3785381615161896,-0.3301981985569
1774472696705449700,2.33144970703125,-0.2371457913428545,-0.4925063076816499,-0.4340150288116187,-0.4713819026947021,-0.2627231478691101,-0.2329930961132049
1774472696715467800,2.3414677734375,-0.5281897616118192,-1.1594045750208195,-0.6681929833248257,-0.4468754529953003,0.0349683910608291,-0.1284905970096588
1774472696725485800,2.35148583984375,-1.509489201670885,-2.1815702784754336,-0.9950794705431908,-0.3777789175510406,0.4188377559185028,-0.0258113667368888
1774472696735503600,2.361503662109375,-1.5068775578677651,-1.888905136745423,-0.8680331994283944,-0.1365568190813064,0.9239258170127868,-0.1024854704737663
1774472696745521700,2.371521728515625,-1.0624468604385853,-1.90780755174458,-0.934916459068656,0.2355272620916366,1.544081449508667,-0.4277559518814087
1774472696755539700,2.381539794921875,-1.6797241877794264,-1.9759609043858943,-0.972228390983492,0.610374927520752,2.303762912750244,-0.7475855946540833
1774472696765557800,2.391557861328125,-2.447199090850353,-1.0895030635379257,0.1202488295270129,0.9155455231666564,2.732674121856689,-0.9057360887527466
1774472696775575600,2.401575439453125,-2.9292250671803948,-1.672693120098859,0.1267680204289965,0.9397691488265992,2.282282829284668,-0.5951738953590393
1774472696785594600,2.4115947265625,-3.153820589029789,-0.9664375326223672,-0.6858693636603653,0.6387709975242615,1.6743541955947876,0.2191264778375625
1774472696795613000,2.421613037109375,-1.446798644480109,1.3196546120792627,0.9629175418026744,0.4107152223587036,0.6438664197921753,0.644503653049469
1774472696805630700,2.431630615234375,-0.010498013138771,3.5329601913809774,2.077356747546047,0.1382557302713394,0.0548939444124698,0.6960847973823547
1774472696815648800,2.441648681640625,-0.2584709034442901,4.3056852700650685,2.2456373847164213,0.176535427570343,-0.3413067758083343,0.5140558481216431
1774472696825666600,2.45166650390625,0.3001397153943776,3.2852743013232946,2.1761500069923696,0.3073959946632385,-0.9784461855888368,0.2688860595226288
1774472696835684900,2.461684814453125,1.1500263596922158,2.5005226847589013,1.8721034934177996,0.5336228609085083,-1.5856890678405762,0.1214610263705253
1774472696845702700,2.47170263671875,0.6707534814625978,2.4486349688723683,1.5264378522537647,0.6382341980934143,-2.026234865188598,0.1702951341867447
1774472696855720700,2.481720703125,0.3924579336076975,2.028768365465849,0.8301165065534413,0.6421148180961609,-2.397504568099976,0.3632969260215759
1774472696865739800,2.49173974609375,0.3751274441003799,1.8077420804053543,1.155719237571582,0.6803239583969116,-1.9716699123382568,0.5845496654510498
1774472696875757600,2.501757568359375,0.612221797516942,2.044188491307199,1.2555226239085198,0.9768927097320556,-1.4337613582611084,0.9314359426498412
1774472696885776000,2.51177587890625,-1.163170503425598,1.955491678461432,1.503480901166797,1.3514463901519775,-0.7378120422363281,1.5139721632003784
1774472696895793700,2.521793701171875,-0.8767658833950758,2.408654694531113,0.5858882826689631,1.5845340490341189,0.1330524384975433,1.854675769805908
1774472696905811700,2.531811767578125,1.0711749412953853,2.4935943468004464,-0.4575862393394112,1.7067140340805054,0.5600783228874207,1.7914597988128662
1774472696915829800,2.541829833984375,3.059223319968581,2.685835413011908,0.1815096096429973,1.908839464187622,0.4357588589191437,1.4490251541137695
1774472696925847800,2.551847900390625,6.336681979104876,1.7687806277178226,0.6483063065286725,1.8728833198547363,-0.7698885202407837,0.677505612373352
1774472696935865600,2.561865478515625,12.91110187022686,-1.671855500230938,-2.6943133184999226,1.5271074771881104,-1.696236491203308,-0.7451239824295044
1774472696945884700,2.571884765625,9.623172670480608,-3.077010905593633,-3.72661813865304,1.0748389959335327,-1.6216893196105957,-1.8113847970962524
1774472696955902700,2.58190283203125,2.4319196886539456,-1.85927089985162,-2.476650810784101,0.7865356802940369,-1.3744288682937622,-2.0013976097106934
1774472696965920800,2.591920654296875,-1.3069593811571598,-2.030345697785169,-2.0113095734037456,0.5189177989959717,-0.8717851638793945,-1.6213611364364624
1774472696975939000,2.60193896484375,-2.725703313019872,-2.2502333342045544,-1.388466136368364,0.2031395733356475,-0.1958298534154892,-1.0957062244415283
1774472696985957000,2.61195703125,-1.71332484408617,-1.1914919041551648,-0.9918370545558632,-0.1181838512420654,0.1010007485747337,-0.8020405173301697
1774472696995975000,2.621974853515625,-0.5177116222172975,-0.1367617555737495,-1.1174547541722657,-0.3934285640716553,0.3860982060432434,-0.7307260036468506
1774472697005993200,2.6319931640625,-0.3868038533687591,-0.3723864748291671,-1.4860383295871316,-0.6487902998924255,0.6824638247489929,-0.7028472423553467
1774472697016011300,2.64201123046875,-0.7077747598677874,-0.9937542863540352,-2.2540412020549176,-0.8929277658462524,0.7135840058326721,-0.6825588941574097
1774472697026029000,2.652029052734375,0.1664712496608495,-1.618820660135895,-2.5056717380851508,-1.074067234992981,0.4499456584453583,-0.7852110266685486
1774472697036048100,2.662048095703125,-0.1996720929950475,-2.1734442551650104,-1.771950782186538,-1.1299384832382202,0.16471529006958,-0.8493353724479675
1774472697046066000,2.67206591796875,-2.570131058514118,-2.234788658443838,-1.2067346276029944,-1.079897165298462,0.0252593792974948,-0.7758736610412598
1774472697056084200,2.682084228515625,-3.6600714905560015,-1.7786640160895884,-0.641311260009557,-0.946971356868744,-0.1005317047238349,-0.5121278762817383
1774472697066102000,2.69210205078125,-3.293625365561246,-1.0521928851887583,0.2765022346973419,-0.7271026372909546,-0.3019164800643921,-0.1140422448515892
1774472697076120000,2.7021201171875,-2.2976883283406493,-0.3195778447054326,0.5590582164756953,-0.5070260167121887,-0.4192991852760315,0.1981531083583831
1774472697086138000,2.71213818359375,-1.3500006505042317,0.243651812236011,0.5581573221132159,-0.331790566444397,-0.3670386373996734,0.3826779425144195
1774472697096156200,2.72215625,-0.9945897142648696,0.5856979477286338,0.4924539929725229,-0.2264234721660614,-0.2315412163734436,0.5283096432685852
1774472697106174200,2.73217431640625,-1.0703425821244716,0.2055950533032417,0.6962545640744269,-0.2397201061248779,0.5504962801933289,0.4967679381370544
1774472697116192000,2.74219189453125,1.1516957542091608,-0.7201466040544211,0.1337672499328851,-0.2640316784381866,0.992923378944397,0.3648101091384887
1774472697126211000,2.752211181640625,-0.3084060239583254,-1.0442264363542195,-0.7405448105692863,-0.3419416546821594,0.5738680362701416,0.3701811730861664
1774472697136229000,2.76222900390625,0.4472247120618819,0.1704331390291452,-0.1593155326873064,-0.4242785274982452,0.7720673680305481,0.2602840363979339
1774472697146247200,2.7722470703125,1.1372761837124823,0.0753369805350899,-0.3817484696753322,-0.5252386927604675,0.5940025448799133,0.2144249230623245
1774472697156265000,2.782264892578125,0.7156067686676979,0.0184787827596068,-1.2466349685758351,-0.6164087653160095,0.3455811440944671,0.206194207072258
1774472697166283000,2.792282958984375,0.3442775478065014,0.5120725934170186,-0.7448040023837238,-0.6486340761184692,-0.0393881052732467,0.1691648066043853
1774472697176301300,2.80230126953125,0.2118786636173725,0.1501123816646635,-1.2095075994476676,-0.7783665657043457,-0.9389728307724,0.1849482357501983
1774472697186319000,2.812319091796875,-0.660672816953063,-0.4969781923986971,-1.6640633850499986,-0.9522832036018372,-1.7017639875411987,0.256207525730133
1774472697196337200,2.822337158203125,-0.594073561885953,-0.1948163235269487,-0.1561953548401594,-1.0071321725845337,-2.099250555038452,0.1781375706195831
1774472697206355200,2.832355224609375,0.3071563161581754,-0.1177557340696454,1.2388552744850516,-0.9219992756843568,-2.18127703666687,-0.0316862240433692
1774472697216374300,2.842374267578125,1.159280510249734,-0.7971485951922833,1.7245653461553154,-0.6773457527160645,-2.040205240249634,-0.2149914801120758
1774472697226392000,2.85239208984375,1.377853703069687,-1.7980517303876578,2.1761901928722858,-0.3434005081653595,-1.9527313709259035,-0.2190709114074707
1774472697236410000,2.86241015625,1.3940250856697558,-1.4375965163707731,1.7345464958131311,-0.1298853307962417,-1.7014235258102417,-0.2220435589551925
1774472697246428000,2.872427978515625,0.4921294371932744,-0.4886502167753875,1.4625316356629132,0.0093220928683876,-1.4997081756591797,-0.2604194581508636
1774472697256446200,2.8824462890625,-0.5647212106734514,-0.4807736381813883,1.3772501842185854,0.1111345738172531,-1.2263388633728027,-0.2597690224647522
1774472697266464300,2.89246435546875,-1.8278209918379784,-0.5695799027509987,0.9894149419754744,0.2061609625816345,-1.0708211660385132,-0.2292347848415374
1774472697276482000,2.90248193359375,-1.1873077503383158,-0.5754933645784854,0.5854965799376368,0.3216986358165741,-0.8180375099182129,-0.2525759041309356
1774472697286500000,2.9125,-0.6673211689263582,-0.3829204360641539,1.1976719079643487,0.5536032319068909,-0.6762665510177612,-0.3675637543201446
1774472697296518100,2.92251806640625,0.2177951941847801,0.1085867775775492,1.788445259261131,0.8260940313339233,-0.7378827333450317,-0.6289150714874268
1774472697306536200,2.9325361328125,0.8981021014124154,-0.3909285320833325,2.561235512135923,1.163939118385315,-0.3088099062442779,-0.9824446439743042
1774472697316555000,2.942554931640625,2.999552402859926,-0.6453718605119735,2.9462372845187783,1.5122021436691284,0.1960485726594925,-1.459504008293152
1774472697326573000,2.952572998046875,4.05396442540288,-0.0608115385111421,3.742802965256572,1.810282588005066,0.4895419776439667,-2.0743744373321533
1774472697336591400,2.96259130859375,5.315902761572599,-0.1789388823721557,2.577171624675393,1.904202222824097,1.883819818496704,-2.975389003753662
1774472697346609200,2.972609130859375,6.819198369300365,0.3198374820223078,2.5172572541996834,1.976150155067444,2.334436416625977,-3.711049318313599
1774472697356627200,2.982627197265625,2.599268305671215,1.411407451494783,3.5322564270257946,1.7684407234191897,0.126371219754219,-3.8411190509796143
1774472697366645000,2.99264501953125,-3.055447308561205,1.7087848625689743,1.3131573590144514,1.4112335443496704,-2.000488042831421,-3.337875843048096
1774472697376663300,3.002663330078125,-4.399916628423333,0.9097472387596964,-0.8570163500472903,1.0965712070465088,-2.6817729473114014,-3.015944480895996
1774472697386681000,3.01268115234375,-1.6188421413153409,0.7554357249047606,-0.7922939947679638,0.926054060459137,-2.564636707305908,-2.955552577972412
1774472697396699100,3.02269921875,-0.9063736706733704,0.9103026806853712,-0.5935068679139017,0.7736573219299316,-1.8541924953460691,-2.812755584716797
1774472697406718000,3.032718017578125,-1.1508078654587268,0.996129344922304,-1.6159700930103658,0.5657446384429932,-1.0442570447921753,-2.51800799369812
1774472697416736000,3.042736083984375,-1.6790566637814044,2.1031161888331176,-2.9620062237977978,0.3286963999271393,-0.5048486590385437,-1.9546818733215328
1774472697426754300,3.05275439453125,-2.1970038483202456,2.8381875364273785,-4.039699168685078,0.0184208322316408,-0.3213180303573608,-1.2053093910217283
1774472697436772000,3.062772216796875,-1.9534142876654863,3.066681234759092,-4.439232447506488,-0.3169951140880584,-0.1908380538225174,-0.5068724751472473
1774472697446790100,3.0727900390625,-1.2909995954811573,2.470114687013626,-4.616498062904179,-0.6660223603248596,0.1082599759101867,0.0324408411979675
1774472697456808200,3.08280810546875,-0.8116314401835203,1.998268890044838,-4.275514588207006,-0.8999296426773071,0.464559406042099,0.3627713322639465
1774472697466826200,3.092826171875,-0.2100964563757181,1.2727683577418327,-3.197206726291776,-0.9622979760169984,0.8425219058990479,0.6027759313583374
1774472697476844000,3.102843994140625,-0.4441483733564615,0.4067281587615609,-1.5098147803634403,-0.9286032915115356,1.2104722261428833,0.8129902482032776
1774472697486862000,3.112862060546875,0.2526058108031749,0.0269423674613237,-0.5736325391426682,-0.8748138546943665,1.4514228105545044,0.9141887426376344
1774472697496881200,3.122881103515625,0.9634066404938696,-0.4001448348484933,0.2035480576455593,-0.8214255571365356,1.5658247470855713,0.913926899433136
1774472697506899200,3.132899169921875,0.8481289869755506,-0.3159744133859872,0.3673082947820424,-0.8241214752197266,1.494345784187317,0.8571823835372925
1774472697516917200,3.142917236328125,0.7210533436357974,-0.1225827158346772,0.7446563375413418,-0.779948353767395,1.2031844854354858,0.6624246835708618
1774472697526935000,3.15293505859375,-0.0565296964734792,-0.5217226114243269,0.663121671409905,-0.7597615718841553,0.7581899762153625,0.4451338946819305
1774472697536953000,3.162953125,-0.7972147922962903,-0.2093250336118042,0.1927133598983287,-0.7635446786880493,0.429630696773529,0.2511795461177826
1774472697546971100,3.17297119140625,-1.2574071224808692,0.310601780436933,-0.2332625201687216,-0.8146054148674011,0.4545935690402984,0.1150161102414131
1774472697556989200,3.1829892578125,-1.4576894563287497,0.5519482383400202,-0.7956082338824868,-0.9375758171081544,0.3774018883705139,0.1130371689796447
1774472697567007000,3.193007080078125,-1.7046692439436912,0.4434764654442668,-0.8249240524768829,-1.0813244581222534,0.2044641971588134,0.2342805117368698
1774472697577025300,3.203025390625,-2.086557852742076,0.6005201076768338,-1.0976245568037033,-1.23023521900177,0.1829463392496109,0.353843480348587
1774472697587044400,3.21304443359375,-2.1405431254297493,0.6677478699058293,-1.9432164265170693,-1.394388198852539,0.1815777420997619,0.5072921514511108
1774472697597062100,3.223062255859375,-2.003902365887165,1.0157600011307746,-2.565890059943497,-1.693084955215454,0.3053597211837768,0.6653468608856201
1774472697607080200,3.233080078125,-1.290222181367874,1.6826985274150967,-2.7953891359254714,-1.9495177268981931,0.4701545536518097,0.7760778665542603
1774472697617098000,3.243097900390625,-0.2611696410089731,0.838353369827196,-1.7651260507330298,-2.0750982761383057,0.7254772782325745,0.7324943542480469
1774472697627116300,3.2531162109375,4.36424442653954,0.7688782670628279,0.5712298619151115,-1.9545539617538448,1.9373905658721924,-0.0235291514545679
1774472697637134000,3.263134033203125,4.969478849387168,-0.5671443461671472,1.6873352473050356,-1.86544668674469,2.180914878845215,-0.3978835642337799
1774472697647152000,3.273152099609375,2.523954413750768,-0.7222173459138721,1.0341611155442894,-1.846030354499817,1.5050946474075315,-0.3015759289264679
1774472697657170200,3.283170166015625,-0.4250543813079595,0.5483361853227019,1.7287275804013014,-1.860675573348999,0.6058210134506226,0.0881158784031868
1774472697667188200,3.293188232421875,-1.5447767881512642,0.5056777047481388,2.1872405791968106,-2.036360025405884,0.0405901484191417,0.3910520374774933
1774472697677207300,3.303207275390625,-1.0432289497494698,0.9112593238230794,1.5345017701134085,-2.2454328536987305,-0.5380643010139465,0.5152153968811035
1774472697687225000,3.31322509765625,-0.6769272016614675,1.101599670979753,1.2093708213254808,-2.1858458518981934,-1.0939544439315796,0.485663890838623
1774472697697243100,3.3232431640625,-0.250056126320362,-2.332513119614869,5.694021788704395,-0.9794917702674866,-0.8889836668968201,0.2605516016483307
1774472697707261200,3.33326123046875,0.7182412088245153,-5.352005756089091,7.408328629565238,-0.1123638451099395,-0.8677995800971985,0.2011391371488571
1774472697717279200,3.343279296875,-1.5059119277060031,-2.2803151687353846,4.335376351712644,0.1347634643316269,-1.2032153606414795,0.4977554380893707
1774472697727297000,3.353297119140625,-1.564659884750843,-0.5836289959674701,1.997174226675928,0.2280694395303726,-1.0874528884887695,0.5000007152557373
1774472697737315000,3.363315185546875,0.1151823764503002,-0.3908220029689371,1.1609057733640074,0.2556115090847015,-0.691426157951355,0.240613043308258
1774472697747333000,3.3733330078125,0.0427577762305736,0.0967575706339441,0.797683578851819,0.136768490076065,-0.4565824866294861,-0.0120953749865293
1774472697757351200,3.38335107421875,-0.6792033298999071,0.5700596490919589,0.6735442812249064,0.0137298535555601,-0.4211892783641815,-0.0506867580115795
1774472697767369000,3.393368896484375,-2.18679458899498,0.6461280126415193,0.5395546207129955,-0.1252312213182449,-0.4814965724945068,0.1241340562701225
1774472697777388000,3.403387939453125,-2.843177599799633,1.079156733829528,-1.1954694294840096,-0.4191391170024872,-0.2832128703594208,0.2954764068126678
1774472697787406000,3.413406005859375,-2.232680141857266,2.3916715571567413,-3.417871922954917,-0.9250704646110536,0.002910244744271,0.4942153394222259
1774472697797424000,3.423424072265625,-1.8853373612612483,2.6764620199888944,-4.946161686685681,-1.2091447114944458,0.3456054329872131,0.6636366844177246
1774472697807442200,3.433442138671875,0.5402011019229889,0.6655167498528957,-0.9598211832225322,-0.7527025938034058,0.9909719228744508,0.4160343408584595
1774472697817460000,3.4434599609375,4.523723625355959,-2.0460249129541217,2.619137373745441,-0.2382622063159942,1.380393624305725,-0.0317669212818145
1774472697827478300,3.453478271484375,3.181992206025124,-1.2554054272696376,1.878305855189264,-0.3686503171920776,1.0795578956604004,0.034572422504425
1774472697837496000,3.46349609375,-0.5678109933823347,2.260279365792125,-2.806984588912129,-0.9966611862182616,0.8508883118629456,0.36294025182724
1774472697847514000,3.47351416015625,-0.3301911547869444,4.110236055462062,-6.075600016379356,-1.5220969915390017,0.7918638586997986,0.3567870259284973
1774472697857532000,3.483531982421875,2.387000350475311,2.68199101254344,-4.386597712644934,-1.6702409982681274,0.7769594192504883,-0.0551883727312088
1774472697867550200,3.49355029296875,3.408649921101332,1.132495817568153,-3.324126594547927,-1.7471067905426023,0.8254627585411072,-0.444201111793518
1774472697877569300,3.5035693359375,3.1868548436254263,0.8352494855277239,-2.4925930608034133,-1.3575592041015625,0.6808710098266602,-0.5983364582061768
1774472697887587000,3.513587158203125,2.4262387204080818,-0.5486682668212801,0.5068307472407818,-0.8197593092918396,0.4971832036972046,-0.5752593874931335
1774472697897605000,3.523605224609375,2.3958511809289456,-2.1358689961388704,1.8449711563423277,-0.2515532076358795,0.3811258673667907,-0.6159277558326721
1774472697907623200,3.533623046875,2.4839298618763683,-3.626229426708817,3.183027978813648,0.2722796499729156,0.2479398548603058,-0.7913475632667542
1774472697917641200,3.54364111328125,2.10669229375422,-4.092776678878069,3.878360897998512,0.8397303223609924,0.3420605361461639,-0.9873047471046448
1774472697927659000,3.553658935546875,1.4696528658449648,-3.672162325844168,5.009865804833174,1.3557082414627075,0.4754598438739776,-1.0748250484466553
1774472697937677000,3.563677001953125,0.9352005367070436,-2.359867428877949,4.514195626293122,1.4691106081008911,0.6268484592437744,-1.1499470472335815
1774472697947695000,3.573695068359375,1.5784206990778444,-0.3266938141904771,1.3723368393443525,1.3047538995742798,0.6794962286949158,-1.1774766445159912
1774472697957713200,3.583713134765625,0.6387526615679263,0.2362534821456298,0.0761747465334832,1.0142161846160889,0.5460545420646667,-0.9008726477622986
1774472697967732200,3.593732177734375,-1.3862427612304686,0.1786917392106726,-0.7662697650648653,0.7934459447860718,0.5504021048545837,-0.3568346500396728
1774472697977749500,3.60374951171875,-4.589523254477977,0.517010670873709,-0.2809371484048664,0.7194525003433228,0.2614707052707672,0.796771764755249
1774472697987767800,3.613767822265625,-10.3120626971364,0.606209149631299,0.8402136838063597,0.9228213429450988,-0.0437163785099983,2.392898797988892
1774472697997785600,3.62378564453125,-8.313457268613577,0.0550259043144062,1.2910117243103685,1.2975744009017944,0.0814474001526832,3.4069693088531494
1774472698007803600,3.6338037109375,-3.2338428047716614,0.2360190706015564,0.7173899988226592,1.4762117862701416,0.0724485740065574,3.6834933757781982
1774472698017821400,3.643821533203125,0.6734586487680673,0.8578207252327352,-0.5630285814113914,1.425246238708496,-0.5318800806999207,3.627225160598755
1774472698027839700,3.65383984375,1.2904004605442283,1.0721323150854558,-0.7555458342157304,1.2571738958358765,-0.9300743341445924,3.6446828842163086
1774472698037857800,3.66385791015625,-0.553919830673933,1.282724080697447,2.004004218826443,1.1370394229888916,-0.7225284576416016,3.657425165176392
1774472698047875600,3.67387548828125,-0.5642769740372896,1.549636064750701,1.8615480510033664,1.1877495050430298,-0.1872953921556472,3.552708864212036
1774472698057893600,3.6838935546875,-0.5952057807862758,1.4533902978301048,1.1925905130468308,1.3028522729873655,0.3153027594089508,3.221958637237549
1774472698067912700,3.69391259765625,0.2724918300122022,1.1320420824512838,0.5856112923584879,1.38436758518219,0.5978835821151733,2.590092182159424
1774472698077930800,3.7039306640625,1.2310410936027765,0.4692911440499127,0.309043591209501,1.461799383163452,0.4780877232551574,1.833145022392273
1774472698087948500,3.713948486328125,1.454708394691348,-0.2356101062081754,0.3330577962644398,1.5057567358016968,-0.0332724899053573,1.094653606414795
1774472698097966600,3.723966552734375,0.99949385291934,-0.2117757877647876,0.5063786195591092,1.5201451778411863,-0.5283296704292297,0.5702837705612183
1774472698107985000,3.73398486328125,1.0122311694175004,0.3348223217189311,0.6457393055848777,1.614482879638672,-0.8464400172233582,0.2137849926948547
1774472698118002700,3.744002685546875,1.4018506647288798,0.3652620297767222,0.5799368999838829,1.7249040603637695,-0.9937573671340942,-0.0046140924096107
1774472698128020700,3.754020751953125,1.7826415414184331,0.2243672660514712,0.7316095167025923,1.8222005367279053,-1.022993803024292,-0.1450795829296112
1774472698138038500,3.76403857421875,1.8797259511202573,0.0650660541504621,1.3926112733490763,1.96203887462616,-0.8750925064086914,-0.2189412713050842
1774472698148056800,3.774056884765625,1.7776257590830324,-0.5479236589990556,1.997081872217357,2.173797369003296,-0.5970289707183838,-0.2626453340053558
1774472698158074600,3.78407470703125,1.377644444233179,-0.9004283524028956,1.9230960140302773,2.3956491947174072,-0.3979399502277374,-0.2768865525722503
1774472698168093700,3.79409375,0.2830348513364791,-0.8169291082002222,1.3639414975732564,2.5013749599456787,-0.2612606585025787,-0.1910102665424347
1774472698178111500,3.804111572265625,-1.2683259913802143,-0.2590644854232669,0.5225996865198016,2.6559505462646484,0.1153177395462989,0.0599034167826175
1774472698188129500,3.814129638671875,-2.131610461911559,0.2607882404759526,0.821389740870893,2.82483172416687,0.4329982399940491,0.2431035935878753
1774472698198147800,3.82414794921875,-0.6480553274422883,-0.7923829882256687,0.9742124044075609,2.832268476486206,0.1649768352508545,0.2179739028215408
1774472698208165600,3.83416552734375,0.7766624181330204,-0.8977870441138743,1.8468530245661732,2.9392013549804688,0.267643004655838,0.0077900402247905
1774472698218183700,3.84418359375,0.1926215899616479,-0.1320221598312258,2.4041142746225,3.120213031768799,0.3224272131919861,-0.1890645027160644
1774472698228201700,3.85420166015625,-0.1744739388525485,0.0064491761393845,1.7464321639180185,3.2425222396850586,0.5193091034889221,-0.3681589066982269
1774472698238219800,3.8642197265625,-0.0891612154871225,-0.0536922810904681,0.6355427596107125,3.221210479736328,0.7273561358451843,-0.5578194260597229
1774472698248237600,3.874237548828125,0.6276905848056078,0.0437247215665876,0.1353875446110963,3.106718778610229,0.424060970544815,-0.6550959348678589
1774472698258256600,3.884256591796875,0.067654901599884,0.4276175828594714,0.3170402890518307,2.9766318798065186,-0.0035002259537577,-0.460536390542984
1774472698268274700,3.894274658203125,-1.5653192254424095,0.414170145330578,0.3484805524542927,2.875219345092773,-0.2479834705591201,-0.0509369112551212
1774472698278292700,3.904292724609375,-1.3496458457171916,-0.0087904055032879,-0.2116641440838575,2.776625633239746,-0.388931393623352,0.2438974827528
1774472698288310800,3.914310791015625,-0.3169336138069629,-0.1622677335564047,-0.540044157795608,2.687202453613281,-0.2594647407531738,0.351322203874588
1774472698298328600,3.92432861328125,-0.112605219438672,0.0671738400846719,-0.6931488531440496,2.5593299865722656,0.0318875312805175,0.4280639588832855
1774472698308346600,3.9343466796875,0.3721083885401487,0.5143685223344713,-0.6489116520106792,2.245482921600342,0.741610050201416,0.7485671043395996
1774472698318364700,3.94436474609375,-1.8669500561773773,0.8046273335751145,-2.373361993484199,1.662166714668274,1.7061001062393188,1.6241967678070068
1774472698328382700,3.9543828125,-0.2985059767127037,2.6041964097231625,-2.140152957068384,1.544986367225647,2.014422655105591,2.137644052505493
1774472698338400500,3.964400390625,0.3657476213365793,4.477931595996022,-0.973447557514906,1.7644256353378296,1.8935176134109497,1.9221532344818115
1774472698348418800,3.974418701171875,3.7024797226965434,1.5096705495871603,-0.4795803367435932,1.9342809915542605,1.1289325952529907,0.6982660889625549
1774472698358438000,3.98443798828125,4.36370432831347,-0.9134520846270024,-0.8758414620265365,1.8990545272827148,0.9615020155906676,-0.3215270638465881
1774472698368455700,3.99445556640625,1.7616992911547422,-0.7413917097222059,-1.1740709598854184,1.86819326877594,1.204095721244812,-0.8337783813476562
1774472698378473700,4.0044736328125,1.1144675550550225,0.7666951508700847,-0.7652494821064174,1.942458987236023,0.9773699045181274,-1.0082052946090698
1774472698388491500,4.014491455078125,0.5413502719581127,1.6478773894026877,-0.5995226210720837,1.898743152618408,0.5710346698760986,-1.0578866004943848
1774472698398509800,4.024509765625,0.6652618983089923,1.6236059947162866,-1.609722138531506,1.6216028928756714,0.0783850103616714,-1.1877081394195557
1774472698408527600,4.034527587890625,1.011797454175353,0.8668037306986749,-1.6497759165003896,1.4407260417938232,0.0129021406173706,-1.5538321733474731
1774472698418545700,4.044545654296875,0.7583066772311925,0.3167376163108274,-1.1934075285181402,1.171871781349182,0.105242870748043,-1.776535153388977
1774472698428563700,4.054563720703125,-0.4022445836067199,0.2331127364344895,-1.407275320126116,0.8732119202613831,0.3541575968265533,-1.669311761856079
1774472698438581800,4.064581787109375,-0.6578589285761117,0.6902442177437246,-0.7171547287620603,0.669218897819519,0.8049798607826233,-1.643621563911438
1774472698448599600,4.074599609375,0.9297492855638264,0.985969258501008,-0.3333298912040889,0.5462799668312073,1.2339653968811035,-1.8006454706192017
1774472698458618600,4.08461865234375,1.9054460833102465,1.254647594639659,-0.4125736699193715,0.4294004142284393,1.283118486404419,-1.8897589445114136
1774472698468636700,4.09463671875,2.503138420215249,1.6363438957363363,-0.8331314704604447,0.4198159575462341,1.156841516494751,-1.9588954448699951
1774472698478654700,4.10465478515625,2.685471840396523,1.881174104101956,-0.8700646321907639,0.5460574626922607,1.036778450012207,-1.9489426612854004
1774472698488672800,4.1146728515625,1.6546575510621069,1.972078509994596,-1.598153281290829,0.6206318736076355,1.1675024032592771,-1.802897334098816
1774472698498690600,4.124690673828125,-0.416245051908493,1.404096105568111,-2.126919673746824,0.7171464562416077,1.3207656145095823,-1.4679925441741943
1774472698508708600,4.13470849609375,-2.8624621459841726,-0.0116610655687749,-1.817233546850085,0.7218708992004395,1.1973572969436646,-0.9488659501075744
1774472698518726700,4.1447265625,-4.473204567474126,-0.8010219294942915,-1.3881234604105352,0.7167117595672607,1.0398151874542236,-0.4812908470630646
1774472698528744700,4.15474462890625,-3.835900351148843,-1.2016345279850065,-0.1094100766591727,0.8201590776443481,0.949040710926056,-0.3214156925678253
1774472698538762500,4.164762451171875,-2.8490368472218512,-0.5702781141482294,1.0242010086745024,0.9448596835136414,0.5094362497329712,-0.2810225188732147
1774472698548780800,4.17478076171875,-2.799744116264581,0.186118199416995,1.7302036443032325,0.9127200841903688,0.0981555208563804,-0.0782539397478103
1774472698558799600,4.184799560546875,-3.614929449537396,0.4484853796474635,1.0351534875825046,0.7157111167907715,-0.4416202008724212,0.2837058305740356
1774472698568817700,4.194817626953125,-3.76099094837606,0.3053656333491206,0.0979128964152187,0.1950998604297638,-0.2727630138397217,0.6657817959785461
1774472698578835700,4.204835693359375,-3.248287509709596,-0.1875157912552356,-0.7851249068561941,-0.2817340493202209,0.1120942905545234,0.9294393062591552
1774472698588853500,4.214853515625,-2.910415152770281,-0.2540751527033746,-1.4282146477803588,-0.5412940382957458,0.5860781073570251,0.975120484828949
1774472698598871800,4.224871826171875,-2.942155275902152,-0.0734255939558148,-1.334165660251677,-0.6036514639854431,0.6354922652244568,1.1005401611328125
1774472698608889600,4.2348896484375,-3.314639512017369,0.2311049768086522,-0.2264318704310804,-0.4635060727596283,0.3898484706878662,1.3376985788345337
1774472698618907600,4.24490771484375,-3.390857074779272,0.7708052896026522,0.7020047981642186,-0.2110473364591598,0.0185798369348049,1.6539421081542969
1774472698628925400,4.254925537109375,-2.6549486918389795,1.257119683841616,0.6976621658500284,-0.0637116730213165,-0.0627973079681396,2.0958402156829834
1774472698638943700,4.26494384765625,-1.9144594108492132,0.5070403714034706,-0.4167549011267721,-0.0367872640490531,0.2120915949344635,2.313197135925293
1774472698648962800,4.274962890625,-0.860526696255803,1.2002988224018365,-0.6822199743073433,0.0475467927753925,0.7954311966896057,2.215491533279419
1774472698658980600,4.284980712890625,-0.2591945415437221,0.8677059402354061,-1.294844726601988,0.049020055681467,1.1033300161361694,2.004149913787842
1774472698668998700,4.29499853515625,0.457556720983982,0.9413562097925692,-1.691481407199055,-0.0988604798913002,1.275352120399475,1.7607795000076294
1774472698679016700,4.3050166015625,1.546457288584113,1.443087222741544,-0.9604905338514595,-0.1833335310220718,1.1030501127243042,1.5879076719284058
1774472698689034800,4.31503466796875,0.8793436249285936,0.2180640377214178,-1.1225440401352942,-0.3417013585567474,0.7536532878875732,1.3857028484344482
1774472698699052500,4.325052490234375,0.9852385330736636,-0.674513856909424,-0.6789108497593551,-0.4805179834365845,0.3419053256511688,1.1035813093185425
1774472698709070600,4.335070556640625,1.5338170027196407,-0.2902882565308362,0.1538047881755046,-0.4714222252368927,0.0220535621047019,0.7715684771537781
1774472698719088600,4.345088623046875,1.2040110478579995,-0.1936363199621439,0.5135310485970228,-0.4077573716640472,-0.1607807129621505,0.5286520719528198
1774472698729106700,4.355106689453125,1.3302572546362876,-0.4162563039548695,0.818600913869962,-0.3899064660072326,-0.1811019629240036,0.2699105441570282
1774472698739124700,4.365124755859375,1.6673761628597974,-0.3424977517176419,1.1780150213360785,-0.33014115691185,-0.1504578590393066,-0.0502927899360656
1774472698749143600,4.3751435546875,1.5662217272400856,0.0208215464934706,1.3870513011343777,-0.1826334446668625,-0.1775754988193512,-0.2660213708877563
1774472698759161600,4.38516162109375,0.8861866226911544,-0.1012717783890664,1.5640109193228184,-0.0356573872268199,-0.3230136334896087,-0.1920260339975357
1774472698769179600,4.3951796875,0.180131526222825,-0.1896257691465318,1.7480843150392174,0.0951408371329307,-0.722542941570282,0.0089805787429213
1774472698779197700,4.40519775390625,0.2235942358523607,0.2475387366719544,2.0686250134274364,0.1871741116046905,-1.4308415651321411,0.2488512545824051
1774472698789215500,4.415215576171875,0.2564256613522768,0.7289111444640904,2.3252612487904725,0.2670300602912903,-1.8954998254776,0.4669881165027618
1774472698799233800,4.42523388671875,-0.2006938372582197,0.3293491510048508,1.7552277570530772,0.2971433103084564,-1.687145113945007,0.6215500235557556
1774472698809251800,4.435251953125,-0.1621148080170154,-0.4048489939514547,1.13555564353019,0.3957961201667785,-1.2496850490570068,0.6436992883682251
1774472698819269600,4.44526953125,0.7351584413558244,-0.2074568285871297,0.2843254756689071,0.5553085803985596,-0.9798325896263124,0.5461344122886658
1774472698829287700,4.45528759765625,1.2731482969701289,-0.3107270873170346,-0.6142367906011641,0.5405640006065369,-0.7224119901657104,0.4684820175170898
1774472698839306500,4.465306396484375,1.2473515924125909,-0.7173965746939182,-0.75984528497532,0.4101585149765014,-0.470094621181488,0.3529057800769806
1774472698849324800,4.47532470703125,1.5421832645267248,-0.0833869429346173,-0.2736807475358248,0.3434982597827911,-0.390812337398529,0.1884332150220871
1774472698859342600,4.485342529296875,1.556632645639777,0.3164285868942737,0.1476511061176657,0.3235800564289093,-0.3870792090892792,0.0691293179988861
1774472698869360600,4.495360595703125,1.2601029374361037,0.2605762051604688,0.22997853006199,0.3261265754699707,-0.3048194944858551,0.0001739506842568
1774472698879378400,4.50537841796875,0.8465905253618955,-0.3326647052936256,-0.267412042529881,0.3844306766986847,-0.2748290002346039,0.0033988407813012
1774472698889396700,4.515396728515625,0.7596902405440807,-0.3682150343634188,0.237819014429301,0.5258980989456177,-0.1451577991247177,0.0082218255847692
1774472698899414800,4.525414794921875,0.7218646600186824,-0.4233769496150315,0.4644863741166889,0.6808723211288452,-0.0114739434793591,0.0007834928692318
1774472698909432600,4.5354326171875,0.91155896435678,-0.5535161452438682,0.2343935700252652,0.788930356502533,0.1149076893925666,-0.0481462329626083
1774472698919451000,4.545450927734375,1.1903858426094054,-0.5410211861342191,-0.0954959714666009,0.8215116858482361,0.2100830376148224,-0.1371320486068725
1774472698929468700,4.55546875,1.2751461927890777,-0.6289633081551641,-0.2542277129165828,0.7691593170166016,0.2312817871570587,-0.2707468271255493
1774472698939487700,4.56548779296875,0.4658651151239871,-0.0750002228613942,-0.2954040651746094,0.6442077159881592,-0.1197497770190239,-0.4287285208702087
1774472698949505500,4.575505615234375,-0.0453448701143264,0.9567559504330158,-0.1292773911677301,0.4601233899593353,-0.6632540822029114,-0.4708107411861419
1774472698959523600,4.585523681640625,0.1046457848668098,1.610781584456563,0.2481853640124201,0.2607393562793731,-1.1258745193481443,-0.4641132354736328
1774472698969542000,4.5955419921875,0.127484224140644,1.6341403943426906,0.1400415078967809,0.0909111648797988,-1.6074185371398926,-0.4404382705688476
1774472698979560200,4.605560302734375,0.1215057342529296,0.9195001326195896,-0.4570506711579859,0.0270330980420112,-1.899701476097107,-0.3652040064334869
1774472698989578000,4.615577880859375,-0.108351069125533,-0.2448882221631705,-0.1092975561954081,0.0938880294561386,-1.594633936882019,-0.1627598106861114
1774472698999596000,4.625595947265625,0.4190530950665473,-0.5739028805166483,-0.2126233445048332,0.3003647029399872,-1.3674970865249634,0.041252639144659
1774472699009614000,4.635614013671875,0.0174573307573795,-0.3417820046637207,-0.2770984470248222,0.4265093207359314,-1.005832314491272,0.2231121808290481
1774472699019632000,4.645632080078125,0.2107593041986226,0.1372963739071041,-0.7145474688731134,0.2266958206892013,-0.7683987021446228,0.2784702479839325
1774472699029650000,4.65564990234375,0.3354430839657783,0.8489689449310303,-1.2802478998422622,-0.0867984518408775,-0.8214060068130493,0.2632170021533966
1774472699039669000,4.6656689453125,-0.4009592199712991,1.2331669997155663,-0.868384131757915,-0.3956963717937469,-1.0237549543380735,0.2574683129787445
1774472699049687000,4.67568701171875,-0.9136158968865872,1.1464372491590678,-0.5976511281117797,-0.6518557071685791,-1.1092389822006226,0.364835262298584
1774472699059705000,4.685705078125,-1.3407985223948955,0.6951737100351602,-0.3756692958921194,-0.7311440110206604,-0.9999799132347108,0.5699321031570435
1774472699069723100,4.69572314453125,-1.30503805770576,0.2192057916350662,-0.2551902743384242,-0.5883045196533203,-0.7713086605072021,0.7610263824462891
1774472699079741000,4.705740966796875,-0.7663017676383257,0.0780547150611877,-0.6097168289586902,-0.4041838943958282,-0.4194531142711639,0.8512381315231323
1774472699089759200,4.71575927734375,-0.3519277702987194,0.173380298396945,-0.9618386605247856,-0.3236768245697021,0.0819069445133209,0.8586515784263611
1774472699099777000,4.725777099609375,0.1036444988697767,0.0458658252485096,-1.358073190061748,-0.3851885795593261,0.5947372317314148,0.8483737111091614
1774472699109795000,4.735795166015625,0.4396709356814622,-0.2346599658764898,-1.2497227054581046,-0.5148872137069702,1.2712833881378174,0.9320693612098694
1774472699119812900,4.745812744140625,0.761000738620758,-0.2185970120869576,-0.8978992723166942,-0.7382550835609436,1.668804407119751,1.0008121728897097
1774472699129832000,4.75583203125,0.5164823726832867,-0.2702593947850167,-0.3085517160393297,-0.930000066757202,1.712024807929993,1.0116828680038452
1774472699139850200,4.765850341796875,-0.0668769029647111,-0.1691096353404224,0.0788701230973005,-1.1123340129852295,1.6796929836273191,1.0199040174484253
1774472699149868000,4.775867919921875,-0.357892816182971,-0.0732864777460694,0.3138651661470532,-1.2342058420181274,1.5433223247528076,1.0182794332504272
1774472699159886000,4.785885986328125,-0.5346107345700264,0.4602931602105498,-0.2261095796741545,-1.3000596761703491,1.563036322593689,1.0746761560440063
1774472699169903900,4.79590380859375,0.3005833675086498,1.0555563702724873,-1.402090172573179,-1.2926985025405884,1.627443790435791,1.0866398811340332
1774472699179922200,4.805922119140625,0.9573083236187696,1.2896408743485808,-1.4593788707204165,-1.2573899030685425,1.4723135232925415,1.001262903213501
1774472699189940000,4.81593994140625,0.8758891005605459,1.3884541536696255,-1.0806779520474374,-1.2973480224609375,1.3253881931304932,0.9266771674156188
1774472699199958000,4.8259580078125,0.8169242858946323,1.5088659552060066,-1.429985749106109,-1.4533613920211792,1.3777844905853271,0.8929437398910522
1774472699209976000,4.83597607421875,1.0555693758845328,1.8095728029638527,-2.142861923766136,-1.698773741722107,1.606863021850586,0.8856892585754395
1774472699219994000,4.845994140625,0.9467840069949628,2.0752640130504965,-2.9188173626735803,-1.9943252801895144,1.9503557682037356,0.8665516376495361
1774472699230013200,4.85601318359375,0.4682511334776878,2.318475095781684,-3.19496040866971,-2.294851303100586,2.172752141952514,0.8040528297424316
1774472699240031000,4.866031005859375,-0.1003010336607694,2.561328743377328,-2.9107743414714933,-2.5540382862091064,2.0141372680664062,0.807747483253479
1774472699250049000,4.876049072265625,-0.6426853248417377,2.463569210892916,-2.7443027995496987,-2.736595630645752,1.7776497602462769,0.8492725491523743
1774472699260067000,4.886067138671875,-0.943304932707548,2.3571707371398807,-2.1585212651908394,-2.783310413360596,1.5759851932525637,0.846275269985199
1774472699270085000,4.896085205078125,-0.812066324469447,2.195078725476563,-1.5742968971461058,-2.7531862258911133,1.2144933938980105,0.8040897250175476
1774472699280103000,4.90610302734375,-0.3469172486603259,1.9119161561071871,-1.3101295356258749,-2.711000680923462,0.8187565207481384,0.7098683714866638
1774472699290121000,4.916120849609375,0.0746072049558162,1.6107213787019252,-0.8939875787656754,-2.632105588912964,0.5453712940216064,0.5166182518005371
1774472699300139000,4.926138916015625,0.6295709917247295,1.2149816469445824,-0.3700243488077074,-2.4923417568206787,0.374636173248291,0.3397352993488312
1774472699310157000,4.936156982421875,-0.1223006840229034,1.1358198474243282,-0.5635490250889211,-2.3887243270874023,0.2905540764331817,0.2824451029300689
1774472699320176000,4.946176025390625,-0.8260808212965727,1.0883815121620892,-0.3026206454899162,-2.297302007675171,0.3482568264007568,0.3362596929073334
1774472699330194000,4.95619384765625,-1.4305892679572103,1.017558209659159,0.05997625673078,-2.2259767055511475,0.423070341348648,0.4910769760608673
1774472699340212200,4.966212158203125,0.4371837950408458,0.3434992569103837,0.9151170952297748,-1.9977210760116575,0.8101080060005188,0.2643361091613769
1774472699350230000,4.97622998046875,1.1900228545159102,-0.6185802266329526,2.051252146083117,-1.8882702589035036,0.4955143928527832,0.5056533813476562
1774472699360248000,4.986248046875,0.0193546888113021,-0.6916787805914878,2.6409914781570434,-1.6264657974243164,0.5559899806976318,0.4685702919960022
1774472699370265900,4.996265869140625,4.434731921216845,-2.012702927458286,4.619335916678607,-1.167200207710266,0.6256028413772583,-0.0675421506166458
1774472699380284200,5.0062841796875,2.949374121239781,-2.7183994197472927,4.513001448072493,-0.8985587358474731,0.2131954580545425,-0.2279224395751953
1774472699390302000,5.016302001953125,2.176977543857693,-2.311447096841037,4.449979466970265,-0.7390444874763489,-0.0522055923938751,-0.2646333277225494
1774472699400320000,5.026320068359375,-0.5081657952368259,-1.2371356110855936,3.2885902940034866,-0.6930021643638611,-0.3917880058288574,0.247067242860794
1774472699410338000,5.036338134765625,-1.7938976794481276,-1.0804638709053396,3.3125410784333944,-0.637342095375061,-0.3325643837451935,0.3215630352497101
1774472699420356900,5.04635693359375,3.032280367985368,-1.0018044679492712,2.174887878102064,-0.5697861313819885,0.1284714639186859,-0.0810831114649772
1774472699430375200,5.056375244140625,1.4485469494521617,-0.8207359531372785,2.155154419106245,-0.4351471364498138,0.0281797498464584,0.0045971679501235
1774472699440393000,5.06639306640625,-0.3176040604144334,-1.0783052315667272,2.491813893124461,-0.3283442854881286,-0.095115952193737,0.1910924166440963
1774472699450411000,5.076410888671875,-0.5185059874653816,-1.2729229637816548,2.7510581190288064,-0.1725743114948272,-0.0576737932860851,0.3445198833942413
1774472699460429000,5.086428955078125,-0.1737456245779991,0.3707219026178121,1.808250029927492,-0.1020583286881446,0.0155985560268163,0.3804560303688049
1774472699470447000,5.096447021484375,-0.1851461395144462,0.4107239503994583,1.8214746915511784,-0.0006867004558444,-0.3562562465667724,0.5004935264587402
1774472699480465000,5.10646484375,-0.4622627067178487,0.3398623617127537,1.9698099805407223,0.0576915368437767,-0.6847079396247864,0.4478022158145904
1774472699490483000,5.11648291015625,0.6420248151063919,0.4210658961936831,1.4938039951525628,0.2478032410144806,-0.6781468987464905,0.1787884086370468
1774472699500501200,5.126501220703125,1.6305471921563148,-0.4351905753970146,1.8799173820391295,0.4304225742816925,-0.4824745953083038,-0.0924271121621131
1774472699510519000,5.13651904296875,0.3402718192964792,-0.5841325981080532,0.9742810857295988,0.4577574431896209,-0.2102701663970947,-0.1562783569097519
1774472699520538000,5.1465380859375,0.9205898275524376,-0.4897331897065043,0.5380823562033474,0.5613453984260559,-0.179914653301239,-0.1507227420806884
1774472699530556000,5.156555908203125,0.0751648388385772,-0.5155351549610495,1.049371690288186,0.6655042171478271,-0.1177894249558448,-0.0576905459165573
1774472699540574000,5.166573974609375,-0.06838964561522,-0.050619887907803,-0.4748493626989424,0.4683118164539337,0.2277887463569641,-0.1087539941072464
1774472699550592000,5.176592041015625,-0.6094090781837701,0.5776978888854384,-1.0765367605894804,0.5536410212516785,-0.6408462524414062,0.2983423769474029
1774472699560610000,5.186610107421875,-3.089324443721771,0.3428399162188172,1.025600354078412,0.5618273019790649,-0.9483606815338136,0.4352786540985107
1774472699570627800,5.1966279296875,-0.3884054433465004,0.2532365099221468,-1.2023410688191651,0.2590128779411316,-0.9603872299194336,0.2589369118213653
1774472699580646100,5.206646240234375,0.8186556397318839,-0.2091647284835577,-2.575467158845067,-0.0156614482402801,-0.6787949204444885,-0.0076579190790653
1774472699590664200,5.216664306640625,1.1108528716892003,0.7065867191269993,-1.4359255144186318,-0.0776578858494758,-0.3523618578910827,-0.2067349851131439
1774472699600682000,5.226681884765625,0.8504998077601194,0.302149593912065,-0.4871783175919205,0.07293401658535,-0.1874296367168426,-0.2727227807044983
1774472699610701000,5.236701171875,0.5564157391428947,-0.4068167138278484,0.1484942789435386,0.281256228685379,-0.1921368539333343,-0.2398698776960373
1774472699620718800,5.24671875,-0.0280944601058959,-0.1270011167988181,-0.1743341650556772,0.3725746870040893,-0.238937646150589,-0.1006094589829444
1774472699630737200,5.256737060546875,-0.1095925936192274,0.0528179824739694,-0.9059747344836592,0.3141513764858246,-0.2039334625005722,-0.0027978783473372
1774472699640755000,5.2667548828125,0.447254522678256,0.2559811324551701,-1.9674876750729977,0.1581561863422393,-0.090236984193325,-0.0080419080331921
1774472699650773000,5.27677294921875,0.844167097607255,0.5662266468003392,-2.2640238130174577,-0.034656673669815,0.0912332087755203,-0.0214615762233734
1774472699660791000,5.286791015625,0.8865028490334749,0.8423381286144256,-1.7362774112589656,-0.1709695011377334,0.3262340128421783,-0.0047015058808028
1774472699670809000,5.29680908203125,0.709808311522007,0.4246013768434524,-1.6006876220740376,-0.2448116242885589,0.5715548992156982,0.0501794628798961
1774472699680827100,5.3068271484375,0.3802624689012766,0.5967854511931538,-1.1358917436167597,-0.2276699244976043,0.656596302986145,0.1643888503313064
1774472699690845000,5.316844970703125,0.1267524027347564,0.74115329785645,-1.2691896224722266,-0.2661059200763702,0.6057249307632446,0.2834841609001159
1774472699700863200,5.32686328125,0.0850724848687648,1.0086766918063164,-1.1926125056829302,-0.3522022068500519,0.3661905825138092,0.370002806186676
1774472699710882000,5.336882080078125,0.3065273706048727,1.3440733062818646,-1.0591961880795655,-0.4047502875328064,0.3244466185569763,0.4548088610172272
1774472699720900000,5.346900146484375,0.0529015691041946,1.0585226727321744,-0.6027861529126763,-0.4611592292785644,0.029229337349534,0.5795736908912659
1774472699730918000,5.35691796875,-1.175887946179509,0.4994567113414406,-0.8637408359967171,-0.4426856637001037,-0.3375962674617767,0.6415225267410278
1774472699740936000,5.36693603515625,-1.1584399677723645,0.2194046752080321,-0.2273415326219052,-0.4038626551628113,-0.8280138969421387,0.6181396842002869
1774472699750954200,5.376954345703125,-2.392247018957138,0.6873550721734761,-0.1353110453087836,-0.3414407968521118,-1.9427335262298584,0.8819420337677002
1774472699760972000,5.386971923828125,-3.8277328267842528,0.8645932150423526,0.3979132033389061,-0.3393592834472656,-2.314128398895264,0.8680819272994995
1774472699770990000,5.396989990234375,-1.3058522966980934,-0.6998793304428458,-0.4559625836603343,-0.3410415947437286,-2.119391918182373,0.5223876237869263
1774472699781008100,5.407008056640625,0.0528121372550725,-0.8460662092268466,-0.5561097784662619,-0.2926152050495147,-1.8961105346679688,0.3957053124904632
1774472699791026200,5.417026123046875,-0.7133353166043758,0.5853232691973448,0.0125847562849521,-0.2972925007343292,-2.004148483276367,0.5426559448242188
1774472699801045000,5.427044921875,-1.207960662266612,0.9809455120548606,-0.7561253876693547,-0.4423085451126098,-2.4074738025665283,0.6857134699821472
1774472699811063000,5.43706298828125,-0.1371463709771633,0.5448199938952922,-0.75856781238541,-0.555495023727417,-2.914539337158203,0.155331090092659
1774472699821081000,5.4470810546875,2.87002001401782,-0.912610811497271,-1.2444419885762037,-0.6475282907485962,-3.279343366622925,-0.5919564366340637
1774472699831099100,5.45709912109375,2.0454121878832576,-0.8009148158580064,0.6627734424941242,-0.5436047911643982,-2.899291515350342,-1.167562484741211
1774472699841117200,5.4671171875,1.4661305369377136,-1.0485726488649845,2.9085993355199693,-0.2437746822834015,-2.4079415798187256,-1.5199538469314575
1774472699851135000,5.477135009765625,1.2488310173153876,-2.0056036168470976,4.2543744772836565,0.2023453265428543,-2.320448875427246,-1.6228092908859253
1774472699861153000,5.487153076171875,-0.4693348370611667,-1.2854264715239403,4.350094905155897,0.5786572098731995,-1.8023191690444944,-1.3655050992965698
1774472699871171000,5.497171142578125,-0.8050625831872225,-1.3632014928609133,2.6076900970578194,0.6839163899421692,-0.9095518589019777,-0.980979859828949
1774472699881189000,5.507189208984375,0.0334095176488161,-0.7006430082917213,0.924695363175124,0.587846577167511,0.2387115806341171,-0.6110438704490662
1774472699891208000,5.5172080078125,1.239229660755396,-0.1361114749714732,-0.2681863879032433,0.3869833052158355,1.1972531080245972,-0.3759301304817199
1774472699901226000,5.52722607421875,1.976494134479761,-0.20419015494138,-0.947988122087717,0.1333246976137161,1.920366287231445,-0.3168553411960602
1774472699911244000,5.537244140625,1.5881091493993995,-0.3310755364060401,-0.7769389700520783,0.0910769775509834,2.372617721557617,-0.3943278789520263
1774472699921262000,5.547261962890625,0.7712006455957889,-1.7227797779127954,0.5793354269593953,0.078702338039875,2.5506842136383057,-0.527366042137146
1774472699931280100,5.557280029296875,0.2273281616836786,-0.8215560373485088,0.5284023449165747,0.0738274976611137,2.0498523712158203,-0.8274056911468506
1774472699941298000,5.5672978515625,0.3303226722121238,-1.2626421005249022,2.3352175562679767,0.2618514597415924,0.7539252638816833,-1.144169569015503
1774472699951316200,5.577316162109375,0.0478717582434415,-2.5773268152371047,3.557401681937277,0.5563367009162903,0.0848412364721298,-1.508533596992493
1774472699961334000,5.587333984375,0.6213561210870743,-1.343770231682062,1.8620668141804635,0.5451048612594604,-0.1841673254966735,-1.61477530002594
1774472699971352000,5.59735205078125,0.4130149839460849,-0.1024137880310416,0.6023245632829144,0.5039634108543396,-0.4949275851249695,-1.7583781480789185
1774472699981370600,5.60737060546875,0.9131190532803536,-0.4960350663296878,0.5520635718153789,0.631109893321991,-0.5214276313781738,-1.9037641286849976
1774472699991388700,5.617388671875,-0.039306758993864,-0.4360962920650839,0.1430048146817833,0.7987104654312134,-0.3157325387001037,-1.8661476373672483
1774472700001407000,5.627406982421875,-0.5174754753738642,-0.2246652260847389,-1.0878217593874782,0.791263997554779,0.2175710648298263,-1.630614995956421
1774472700011424800,5.6374248046875,-1.0337474201768635,0.3018146628692746,-1.744992048112303,0.6892502903938293,0.684654712677002,-1.28575599193573
1774472700021442800,5.64744287109375,-2.0578928992718457,0.5748848772913218,-1.527755949115008,0.5152878165245056,0.5966846346855164,-0.7728814482688904
1774472700031460900,5.6574609375,-3.250554285597801,0.968602893962711,-1.5888982539504766,0.2207081317901611,0.2383325397968292,-0.1883183568716049
1774472700041479000,5.66747900390625,-3.238884890592098,1.5769911046661436,-1.8275784152537584,-0.0552400946617126,0.1264821738004684,0.2041474282741546
1774472700051496700,5.67749658203125,-1.776147503224015,1.2039325757943091,-1.9420785085283216,-0.2276272475719452,0.1819287836551666,0.3912761211395263
1774472700061515800,5.687515869140625,-0.9154694157987832,1.245923459305614,-1.3540034564048051,-0.2974569499492645,0.2168857008218765,0.4932586848735809
1774472700071533600,5.697533447265625,-0.3919523221731186,1.2218540169321,-0.5348322683662176,-0.3401695787906647,0.0425296537578105,0.4808237552642822
1774472700081552000,5.7075517578125,-0.1547667833417653,1.039275682079047,0.0364919938340783,-0.322323203086853,0.0402009859681129,0.4702347815036773
1774472700091570000,5.71756982421875,-0.3159323278099298,0.0073025780983269,1.1041713480986657,0.0498521998524665,0.4403741061687469,0.688060998916626
1774472700101587700,5.727587646484375,0.1130664072096347,-1.309650227676332,1.9623451976180075,0.4356355965137481,1.0885382890701294,1.0273422002792358
1774472700111605800,5.737605712890625,0.9224825094312428,-0.3102738636568188,1.2639200115062297,0.5912058353424072,1.181937575340271,1.0823805332183838
1774472700121623800,5.747623779296875,1.9412702608853576,1.5078404115505517,-1.0374154411651193,0.4356042742729187,0.6484941840171814,0.8600366115570068
1774472700131641900,5.757641845703125,1.0536609119147062,1.6485322000496088,-1.5418303594358265,0.2279552370309829,0.2191022932529449,0.6478400230407715
1774472700141660700,5.76766064453125,1.325519704720378,1.5229133313894272,-1.6960352711111306,0.1172971799969673,-0.4602727591991424,0.2239257842302322
1774472700151678700,5.7776787109375,1.4346943651884794,1.3395492529861628,-1.3005303710229694,0.1105311140418052,-1.1276915073394775,-0.2981986999511719
1774472700161697000,5.787697021484375,0.6143880356401205,0.9822320447340608,-0.6748537563882768,0.1526508778333664,-1.4319970607757568,-0.806178867816925
1774472700171714800,5.79771484375,-0.5275386042267084,0.6849617472961544,-0.6904615137562156,0.1947644203901291,-1.558983325958252,-1.0687885284423828
1774472700181732900,5.80773291015625,-1.883220222976804,0.606117635422945,-1.1602216635573654,0.2396557331085205,-1.6189409494400024,-1.0383182764053345
1774472700191750700,5.817750732421875,-2.1644126613169905,0.2199133553825318,-0.8008918003086,0.3576104938983917,-1.270894169807434,-1.0165826082229614
1774472700201769000,5.82776904296875,-0.9896072496771812,-0.4731963347949087,-0.381854414267838,0.3487509787082672,-1.2300612926483154,-1.2129918336868286
1774472700211787800,5.837787841796875,-0.835474088063836,-0.4249050359651446,-0.7501468977816402,0.3619982302188873,-1.3838741779327393,-1.3014154434204102
1774472700221805800,5.847805908203125,-2.291172078314424,0.1048380925685167,0.5677292333830147,0.4292212128639221,-1.473254680633545,-1.132314920425415
1774472700231823600,5.85782373046875,-2.869774514824152,-0.1057099069669842,0.5932803656816482,0.4614271223545074,-1.5185012817382812,-0.828515350818634
1774472700241842000,5.867842041015625,-3.333013957619667,-0.0596729629352688,0.5331424155831337,0.3292898535728454,-0.9621615409851074,-0.2536795139312744
1774472700251860000,5.87785986328125,-3.4300112735599275,-0.0178840317368507,-0.2127589535832404,-0.0274825878441333,-0.0433612652122974,0.6419680714607239
1774472700261877800,5.887877685546875,-2.5221657767683268,1.7152074429623785,-1.8829772080011664,-0.3697230219841003,0.844068706035614,1.49069082736969
1774472700271895800,5.897895751953125,0.5403308657824993,2.7417443472385403,-0.781310828460753,-0.5534460544586182,1.8042755126953125,1.637207269668579
1774472700281913900,5.907913818359375,2.440205286440253,1.9645988217636945,-0.0346582756008952,-0.7147433161735535,2.24409294128418,1.3253334760665894
1774472700291933000,5.917932861328125,3.1317472889095543,1.2797948953777551,0.0269995775412768,-0.7245988249778748,2.601045846939087,0.6556538343429565
1774472700301950700,5.92795068359375,4.684860528251528,0.5448433747708797,0.3180063576050102,-0.5784743428230286,2.224905252456665,-0.1663156598806381
1774472700311968800,5.93796875,4.507078780025243,0.328821035477519,0.7616369906976819,-0.334056407213211,1.182953715324402,-0.7741575241088867
1774472700321986600,5.947986572265625,1.7655682415425775,0.518985441545397,1.2703152655012906,-0.0930320769548416,-0.193608671426773,-0.9178028106689452
1774472700332004900,5.9580048828125,0.5961147123247384,0.0461857048526406,1.5121385471358897,0.0751019641757011,-1.6019920110702517,-0.7993705868721008
1774472700342023000,5.96802294921875,-0.343172216913104,0.170551943103224,1.4716438935317098,0.178284004330635,-2.670468330383301,-0.4506935775279999
1774472700352040700,5.978040771484375,-0.2615793908536434,0.4365944508455693,1.4234487485527991,0.2564761340618133,-3.203016757965088,-0.2540206611156463
1774472700362059800,5.988059814453125,-0.0962204863488674,0.4459565918222069,1.073719072820246,0.2981221079826355,-3.268324136734009,-0.1989997327327728
1774472700372077800,5.998077880859375,-0.169293905866146,0.2262853746324777,0.3052262248784304,0.3122448325157165,-2.9642326831817627,-0.3216209709644317
1774472700382096000,6.008095947265625,-0.1794230856925249,-0.2793433033421635,-0.6858347307384014,0.3234042823314667,-2.4748005867004395,-0.3963138461112976
1774472700392113700,6.01811376953125,-0.5278998387545347,-0.6151601890563965,-1.197669131485373,0.2879318594932556,-1.979621410369873,-0.3523276150226593
1774472700402131700,6.028131591796875,-0.6275625745117664,-0.5144833078205585,-1.3282817167796197,0.1791281402111053,-1.516369342803955,-0.2326052039861679
1774472700412150000,6.03814990234375,-0.7109300090283155,-0.054462680941075,-1.2167772981896996,0.035952404141426,-1.0292943716049194,-0.1154106631875038
1774472700422167800,6.048167724609375,-0.4810580080807208,0.1403083421394229,-1.080840156871825,-0.0861447378993034,-0.5943472385406494,-0.0502692088484764
1774472700432185900,6.058185791015625,0.1284001699417829,0.0653960167571902,-0.7460866626054048,-0.1592608094215393,-0.2289469838142395,-0.0360037535429
1774472700442204700,6.06820458984375,0.7937263656586409,-0.0436748910754919,-0.1795613251194358,-0.0708369389176368,0.3878243267536163,-0.1472399979829788
1774472700452222700,6.07822265625,1.211063888978958,0.2660828397527336,0.7181658055007457,0.0263869576156139,0.891382098197937,-0.2701200246810913
1774472700462240800,6.08824072265625,1.3460264861762523,0.0236655377477407,-0.1308912561051547,-0.1112617179751396,0.7133674025535583,-0.3236857652664184
1774472700472258800,6.0982587890625,0.1902420013487339,-0.9868658420145512,-1.1915769520901145,-0.3738552331924438,0.7308626770973206,-0.2512349486351013
1774472700482276600,6.108276611328125,-0.3085562460839748,-0.8305882157184183,-0.1888349110297858,-0.3560176193714142,0.9774205088615416,-0.2726829946041107
1774472700492295000,6.118294921875,2.103704802376032,-0.4106492777280509,1.0179035159654914,-0.2737550735473633,0.952309548854828,-0.6519781351089478
1774472700502313000,6.12831298828125,3.161834968659281,-0.7804607875026762,0.956437532133609,-0.2616054713726043,0.9355183243751526,-0.9256179332733154
1774472700512331800,6.138331787109375,0.6740548610955477,-0.6855819980863481,0.7956386290207504,-0.2238660007715225,1.026736617088318,-0.8571866750717163
1774472700522349800,6.148349853515625,-1.142377890765667,-0.4329731185432523,1.2344890420995651,-0.1503209471702575,1.1402008533477783,-0.5277712345123291
1774472700532367600,6.15836767578125,-1.5832003345698118,-0.7970227768555284,0.74424468800053,-0.1219976991415023,1.167704939842224,-0.2251458168029785
1774472700542386000,6.168385986328125,-1.6125176144689322,-0.6243010154325515,0.7745856118589639,-0.0883300155401229,1.2099685668945312,0.0908030867576599
1774472700552403700,6.17840380859375,-1.8074270231068128,-0.2335156912121921,0.6756069128431379,-0.0852057859301567,1.1184706687927246,0.3507972061634063
1774472700562421800,6.188421875,-0.8314601762473582,-0.0825698543980717,0.2644702899895608,-0.1323873996734619,0.9424830675125122,0.3970600366592407
1774472700572439800,6.198439697265625,0.3224117529571056,0.2300743185866623,0.3860761236160993,-0.1155576631426811,0.9278508424758912,0.2023228406906128
1774472700582458600,6.208458740234375,0.9907108270049094,0.5858393289607018,1.6511898749515412,0.1727359145879745,1.2618250846862793,-0.1357430815696716
1774472700592477000,6.218476806640625,1.3242647362232207,-0.2846588723417371,2.096185512787104,0.3975105285644531,1.461642861366272,-0.3574137985706329
1774472700602494700,6.22849462890625,0.7137427283614873,-1.6205907385483382,1.0409255681779237,0.452052891254425,1.471197485923767,-0.4213552176952362
1774472700612512800,6.2385126953125,0.2090332110583782,-2.164630541851372,0.5794086383260786,0.3799591958522796,1.4007035493850708,-0.3987762331962585
1774472700622530800,6.24853076171875,0.2828910589516162,-2.020922766532004,0.3783966384967789,0.3170295059680938,1.2356035709381104,-0.3838015496730804
1774472700632548900,6.258548828125,0.3537847963422537,-0.9415092083971948,0.5871250579223036,0.3439233303070068,1.1362683773040771,-0.3559044897556305
1774472700642568000,6.26856787109375,-0.0853635767698288,-0.5894998972948641,0.5802064741728827,0.3779596090316772,1.0540130138397217,-0.3109024167060852
1774472700652585700,6.278585693359375,-0.0628963088959455,-0.8169904829986393,0.2906113144727423,0.3838270306587219,1.187915325164795,-0.306438535451889
1774472700662603800,6.288603759765625,-0.6182184075832367,-0.8164911551743745,0.502071716145426,0.4515893161296844,1.480229139328003,-0.2528168559074402
1774472700672621800,6.298621826171875,-1.1163175668358802,-0.6661374390345066,0.7582138843812049,0.569306492805481,1.7285094261169434,-0.1664098352193832
1774472700682640000,6.308639892578125,-0.8488508715093135,-0.5582617323357612,0.8437857701394706,0.7083618640899658,1.889837861061096,-0.0816890895366668
1774472700692657700,6.31865771484375,-0.3372831588745117,-0.0658992170389741,0.8663852130256593,0.8157269358634949,1.9021592140197756,-0.0772509351372718
1774472700702675700,6.32867578125,0.4814022914737462,0.5904291409689932,0.8024585381686687,0.8626366257667542,1.7086679935455322,-0.1556634455919265
1774472700712694800,6.33869482421875,0.6468816074877977,0.9103517805241048,0.6572695843808353,0.8232725262641907,1.3650777339935305,-0.2512536346912384
1774472700722712800,6.348712890625,0.4050993885159492,1.1134157079145313,0.5786408688239753,0.7491223812103271,0.9740961194038392,-0.3800252079963684
1774472700732731000,6.35873095703125,0.3195136934280395,0.8058056566394866,0.7820064825747162,0.7278786301612854,0.5303965210914612,-0.5283311009407043
1774472700742748700,6.368748779296875,0.1330757605373859,0.8592506849706173,0.8299922225866466,0.7770786285400391,0.0583261810243129,-0.6179225444793701
1774472700752766700,6.3787666015625,-0.5772726492106914,0.9825026783689856,0.7070089631270616,0.8117556571960449,-0.2266829013824463,-0.6089603900909424
1774472700762784800,6.38878466796875,-0.7692500960499048,0.6964558588001877,0.7206929128255695,0.8745409846305847,-0.3328570127487182,-0.5308964848518372
1774472700772803800,6.398803955078125,-0.8323650161325931,0.2128186478812247,0.92514318000786,0.9039396643638612,-0.3452743589878082,-0.4295817911624908
1774472700782822000,6.40882177734375,-0.440525506684184,-0.2449185807688161,-0.2289410037077963,0.8262041211128235,-0.4389563798904419,-0.38044273853302
1774472700792839700,6.418839599609375,0.0940413887441158,-0.7233953767172991,-0.696820235133171,0.6897099018096924,-0.5199935436248779,-0.3506716191768646
1774472700802858000,6.42885791015625,-0.1455798528015613,-0.5634359566358849,-0.4639560666322708,0.6141746640205383,-0.5872460603713989,-0.3318561315536499
1774472700812875800,6.438875732421875,-0.0449076477408409,-0.7467471723407506,-0.4124663005547598,0.5312924981117249,-0.6033215522766113,-0.3192750811576843
1774472700822893800,6.448893798828125,-0.0200111068934202,-0.8008017108723521,-0.2533201696176081,0.4150635898113251,-0.4610390067100525,-0.3289607465267181
1774472700832912600,6.45891259765625,0.2719973244935273,-0.5439728024814278,0.1610110845588147,0.3026624917984009,-0.1727592796087265,-0.3727359771728515
1774472700842930700,6.4689306640625,0.798916335517168,-0.3853384204586967,0.3655455959584563,0.1871654689311981,0.0542352497577667,-0.4721866846084595
1774472700852949000,6.478948974609375,1.2409405563265083,-0.2211922162119299,0.4176419130943715,0.1240347623825073,0.1765793263912201,-0.5857722759246826
1774472700862966800,6.488966796875,1.354770349124074,-0.3656003948856144,0.5082761237435043,0.0854932367801666,0.117058478295803,-0.7016096711158752
1774472700872984800,6.49898486328125,1.244210956299305,-0.5051723125092685,0.1595000589413568,0.1000325456261634,-0.0796467438340187,-0.7464465498924255
1774472700883003000,6.5090029296875,0.850616127616167,-0.6093411275140941,0.0257046423599123,0.1579983681440353,-0.3798837959766388,-0.7254188060760498
1774472700893021700,6.519021728515625,0.8570230720490216,-0.5429692514620721,-0.1166483938822522,0.2012236416339874,-0.7575669884681702,-0.6486567258834839
1774472700903039700,6.529039794921875,0.6504337470114231,-0.3916876433549449,-0.2427249431820586,0.2112706750631332,-1.2018756866455078,-0.507584810256958
1774472700913057800,6.539057861328125,0.6900532252162694,-0.0829059910172596,-0.5888078599100932,0.197528064250946,-1.7515019178390503,-0.3440831005573272
1774472700923075600,6.54907568359375,1.935327426832914,0.8769489848770201,-0.1805029168184846,0.243066519498825,-2.0151844024658203,-0.1857030540704727
1774472700933094000,6.559093994140625,-2.0436825876116758,1.7004763222984969,-1.4829523462705314,-0.037322174757719,-1.1043260097503662,0.7316300272941589
1774472700943113000,6.569113037109375,-9.05219941367507,1.602046927728504,-1.910776776813716,0.0810630545020103,-0.8918285965919495,1.5044872760772705
1774472700953130800,6.579130859375,-4.440426333466172,0.4350518245134502,-0.7954284934014082,0.1053109243512153,-1.2520045042037964,1.4552135467529297
1774472700963148800,6.589148681640625,-1.3602595941901203,0.221895469110459,-1.7444971042022108,0.1334860920906067,-1.7914940118789673,1.0043803453445437
1774472700973166600,6.59916650390625,-1.2065589787751436,0.2173291475756093,-0.8000365717187523,0.1713506430387497,-2.0428473949432373,0.6203716993331909
1774472700983185200,6.60918505859375,-1.353922207862139,-0.0489343459736555,-0.5070789498481899,0.1960306912660598,-1.6825950145721436,0.415418267250061
1774472700993203000,6.619202880859375,-0.8977519728004932,-0.3308924349240958,-0.3899262231729924,0.2151658535003662,-1.0122835636138916,0.2926381230354309
1774472701003222000,6.629221923828125,0.1404752231389284,-0.6574678834319114,-0.2781393343798816,0.2340023964643478,-0.3927062749862671,0.1983939260244369
1774472701013240000,6.639239990234375,0.8784808706194162,-0.6772565797463059,-0.2858124262910336,0.2547454833984375,-0.023815780878067,0.1567121893167495
1774472701023257900,6.6492578125,0.8642378257334232,-0.4842237786352634,-0.2626747118096798,0.2547002136707306,0.0205002836883068,0.2143432646989822
1774472701033276200,6.659276123046875,0.5316752656400203,-0.4307223074091598,-0.48271015920192,0.222721442580223,-0.0871320962905883,0.3279149532318115
1774472701043294000,6.6692939453125,0.3838280524283647,-0.5133341012528165,-0.8071298179153352,0.218766912817955,-0.2015002071857452,0.3600145578384399
1774472701053312000,6.67931201171875,1.650669942730665,-0.5761472984425723,0.2776082962431013,0.3233857154846191,-0.0568885616958141,0.1576995849609375
1774472701063330800,6.689330810546875,2.6759517323791977,-0.3042949353776872,0.717872375512123,0.3802191615104675,0.1250865757465362,-0.1459854692220688
1774472701073349000,6.69934912109375,3.204122204768657,-0.8607111129119992,0.279894507484138,0.3897012770175934,0.1441014856100082,-0.4236850440502167
1774472701083367200,6.7093671875,3.550421029269695,-1.9010988478861748,-0.3343452787917107,0.332459032535553,0.0263956263661384,-0.6864399313926697
1774472701093385000,6.719385009765625,2.744434901496768,-2.086063347223401,-0.6804043762527405,0.2953663170337677,-0.2794103324413299,-0.7012969255447388
1774472701103403000,6.729403076171875,1.0394184515506029,-2.005134391900152,0.0524892619762569,0.3415391445159912,-0.6340820789337158,-0.4830854535102844
1774472701113421800,6.739421875,-0.290629544249177,-1.7833629875607788,0.0593763180762529,0.2751791179180145,-0.8691880106925964,-0.0718793272972107
1774472701123440000,6.749440185546875,-1.9433108268022536,-0.9989348307970912,-1.14896939798519,0.0428859628736972,-0.6077960729598999,0.359742671251297
1774472701133458000,6.7594580078125,-2.121228184106946,1.307445849499851,-0.5554920484267175,0.0578203201293945,-0.0401127040386199,0.5696893334388733
1774472701143476000,6.76947607421875,1.275174249839783,2.6969334378704426,0.7478120250932871,0.2772671580314636,0.4239995777606964,0.0485204122960567
1774472701153494000,6.779493896484375,4.435294815796613,2.467411857795715,-0.2657096225261688,0.3588830828666687,0.8015871644020081,-0.5248848795890808
1774472701163512000,6.789511962890625,-7.83364136954844,0.1930445280814543,-5.419536154526472,-0.0053648967295885,0.8994489908218384,0.4607009291648865
1774472701173531100,6.79953125,-9.19419731633663,-0.008895802106522,-2.0864977931179105,0.0575862154364585,1.5471173524856567,1.1478476524353027
1774472701183549000,6.809548828125,-7.581005163607001,1.361226685656607,-0.8800129755575209,-0.1286542415618896,1.0462357997894287,1.831522345542908
1774472701193567000,6.81956689453125,-4.842767363184691,1.9007529570579529,-2.5479350087970496,-0.4183591306209564,-0.2051598131656646,1.8217865228652956
1774472701203585000,6.8295849609375,-0.3669640113890171,0.2671607711825519,-1.2521300588607789,-0.5439535975456238,-0.9562106132507324,1.7238152027130127
1774472701213603000,6.83960302734375,-1.5266022490352391,-0.3343481283359229,0.2630813929144293,-0.5382436513900757,-1.095130443572998,1.6996759176254272
1774472701223622100,6.8496220703125,1.4186369643568992,0.372598217883706,0.0414405561521649,-0.5308744311332703,-0.8911656141281128,1.2858026027679443
1774472701233640000,6.859639892578125,4.37213313396275,0.934727950759232,0.8975963438473641,-0.3803595006465912,-0.7105081677436829,0.7974272966384888
1774472701243658000,6.869657958984375,4.5015100399822,0.9326774479702116,1.1838504494912925,-0.2500558197498321,-0.5901955962181091,0.4596327543258667
1774472701253676000,6.879676025390625,2.6874089459389445,0.4316176853463053,1.873631725898385,-0.1364970356225967,-0.7326856255531311,0.4860723614692688
1774472701263694000,6.889694091796875,1.2415630721390247,-0.1415713478125631,0.9886864815704524,-0.1831367015838623,-0.9940455555915833,0.5494672656059265
1774472701273711900,6.8997119140625,1.08694417283535,-0.4733972641944885,0.728509650991112,-0.1662957221269607,-0.9235458374023438,0.4900066554546356
1774472701283731000,6.90973095703125,0.4889648356825113,-0.1447533388495445,0.838188753850013,-0.1664903908967971,-0.650885820388794,0.4393075406551361
1774472701293749000,6.9197490234375,0.1356611008554697,-0.0036631986826658,0.3460062712952494,-0.1649142205715179,-0.4188354313373565,0.412772536277771
1774472701303767000,6.92976708984375,0.1542185018092393,-0.0745635119445621,0.1640701798684894,-0.1217952445149421,-0.3085840344429016,0.3905071914196014
1774472701313785000,6.93978515625,0.2201426340937614,0.1987169842272997,0.7421290110208094,-0.089601382613182,-0.166324034333229,0.4087162613868713
1774472701323803000,6.949802978515625,-0.0710246702939271,0.2889589806884527,0.1055989939384162,-0.1308953016996383,0.0167589802294969,0.4473033249378204
1774472701333821200,6.9598212890625,-0.2116290727704763,0.3153844846688211,0.2531190210223197,-0.0875036716461181,0.3604230880737304,0.5235505700111389
1774472701343840000,6.969840087890625,0.1358569156885147,0.6217011351324617,0.1547699982121586,-0.0958798453211784,0.6028746366500854,0.5555500984191895
1774472701353858000,6.979858154296875,1.028770800808072,0.8061046395860612,-0.2715354060702026,-0.0679147988557815,0.6780182719230652,0.5031416416168213
1774472701363876000,6.9898759765625,0.9661918872982262,0.8950397912323474,-0.2652953426368534,-0.033372800797224,0.6689581871032715,0.42442786693573
1774472701373894000,6.999893798828125,1.1169798301368952,0.5931241522066295,-0.139134914445877,-0.0193881597369909,0.6162291169166565,0.2149477154016494
1774472701383912200,7.009912109375,1.5429215156733989,0.3903995397731661,0.1130927106946706,0.0307482443749904,0.4153378009796142,-0.0488751381635665
1774472701393930000,7.019929931640625,0.7838859396457671,0.6523010021880269,0.1416561034865677,0.0569782145321369,0.1348986029624939,-0.2099607437849044
1774472701403949000,7.029948974609375,0.5778051486521959,1.2148299635142088,0.9057340575955808,0.1246446147561073,0.0173432063311338,-0.3839687407016754
1774472701413966800,7.039966796875,0.8171832290917634,0.0051227498412132,0.3038423693045973,0.0926142930984497,0.0070384908467531,-0.4390468895435333
1774472701423985000,7.04998486328125,0.4951835640668868,-0.9227418910197912,0.3218883136048913,0.172762930393219,-0.038361482322216,-0.4297727048397064
1774472701434003200,7.060003173828125,0.6358417425572872,-0.698936058243364,1.2093429104052484,0.3529415130615234,-0.1199040785431861,-0.488383799791336
1774472701444021000,7.07002099609375,1.063653898140788,-0.396606577719748,1.3032080657996237,0.4029807150363922,-0.0396049804985523,-0.6090742945671082
1774472701454039000,7.0800390625,1.1041279473483565,0.1669201624721288,0.5039145675331353,0.4287501275539398,0.0890955701470375,-0.6821177005767822
1774472701464057900,7.090057861328125,0.7348486447542906,0.5130129430070519,0.7066610995374619,0.459558367729187,0.2134015411138534,-0.7102633118629456
1774472701474076200,7.100076171875,0.619674451610446,0.0528540767006576,0.3026606121741235,0.4150413274765014,0.2555572986602783,-0.7581729292869568
1774472701484094000,7.110093994140625,0.4324731331318616,0.0824186093591153,-0.1640669649980962,0.3625586628913879,0.2741999626159668,-0.7436432838439941
1774472701494112000,7.120112060546875,-0.3677636373341083,0.4283946316465735,-0.3459584866307675,0.32918381690979,0.269024521112442,-0.7016764283180237
1774472701504129800,7.1301298828125,-0.2671282571524381,-0.2682433787874877,-0.4861123688608407,0.2941653728485107,0.2602430284023285,-0.7347443103790283
1774472701514148000,7.140148193359375,0.0959469301044941,-0.4223322628676891,-0.8836186718992889,0.2418979406356811,0.2287128567695617,-0.7509704828262329
1774472701524166100,7.150166259765625,-0.4919967507243156,-0.3248217367082834,-1.205612345574796,0.2181316316127777,0.2098187953233719,-0.7263780832290649
1774472701534185000,7.16018505859375,-0.4993617265343665,-0.4311135352164507,-0.763292941211164,0.1974649578332901,0.2348429858684539,-0.6994703412055969
1774472701544203000,7.170203125,-0.5998316870212554,-0.1443973650187253,-0.6125840549580752,0.1829813569784164,0.2400803565979004,-0.6799432635307312
1774472701554220800,7.180220703125,-0.3310100699543952,-0.3359397083763032,-0.4068699783850461,0.15421724319458,0.2429007589817047,-0.6795796155929565
1774472701564239000,7.190239013671875,-0.3457902904570102,-0.5216982807006687,-0.2082868496704846,0.1512795090675354,0.2873028516769409,-0.6567046642303467
1774472701574257000,7.2002568359375,-0.3429799092113971,-1.127135386513546,-0.1333556003920734,0.1709806323051452,0.2507531642913818,-0.621094286441803
1774472701584275000,7.21027490234375,-0.6466980676144362,-1.619767877858132,0.2951969252299517,0.1227859482169151,0.107085220515728,-0.4449083507061004
1774472701594293000,7.22029296875,-1.49899878731668,-0.1430615133050829,-0.7403301449052989,0.0211921259760856,0.1154068261384964,-0.2749404907226562
1774472701604312000,7.23031201171875,-1.7719126421332358,0.0248272750034928,-0.6588906097114086,-0.1746397018432617,-0.0025901179760694,-0.1356949806213379
1774472701614330000,7.240330078125,-1.075060258296132,-0.6171254977799951,-0.8334443358018994,-0.1945856511592865,-0.1546711474657058,-0.0656434297561645
1774472701624348000,7.250347900390625,-0.8935644579827785,-0.1300889998115599,-0.4921875971212983,-0.2552506029605865,-0.2039089947938919,-0.0477738864719867
1774472701634366000,7.260365966796875,-0.6641390317589044,0.3026844314411282,-1.1573201699621976,-0.3274306356906891,-0.1270335465669632,-0.0212396085262298
1774472701644384000,7.270384033203125,-0.4078869734078645,0.211334400672838,-1.2567848989292978,-0.3804696202278137,0.0588292516767978,-0.0864564329385757
1774472701654402000,7.280402099609375,0.7142068387418985,-0.3153708214696497,-0.5267576829820871,-0.4045462310314178,0.108776643872261,-0.2171392887830734
1774472701664419800,7.290419921875,0.9896464126437902,-0.2709977189969271,-0.5753205652948469,-0.4693497121334076,-0.0319570414721965,-0.2586606442928314
1774472701674439000,7.30043896484375,0.642722149720788,0.0878099470086395,-0.3600204758614301,-0.4452893435955047,-0.205235406756401,-0.2339167296886444
1774472701684457000,7.31045703125,0.1895890903979539,0.90928130174838,0.807530726866424,-0.2242446094751358,-0.1610695421695709,-0.1456230878829956
1774472701694475000,7.32047509765625,-0.876183699592948,1.7978186522841453,2.1140034935504195,0.049669075757265,0.1917733550071716,-0.0764427483081817
1774472701704493000,7.3304931640625,-0.5643062001317739,0.5993372545678168,1.8244573606237768,0.0753014683723449,0.4634368121623993,-0.0788747519254684
1774472701714510800,7.3405107421875,-0.2948503768146038,0.1801503039885312,0.2312114328578114,-0.0067964494228363,0.4906259179115295,-0.0759272873401641
1774472701724529200,7.350529052734375,0.0333235929310321,0.3839492676552385,0.597362228167802,-0.045503631234169,0.307833194732666,-0.0781667381525039
1774472701734547000,7.360546875,0.2034557031869888,0.5352338349044322,1.0143937542788684,0.0097644999623298,0.0579730942845344,-0.0713290348649025
1774472701744565000,7.37056494140625,0.6743915457040071,0.3481603805892169,0.8653495133023709,0.0107773002237081,-0.1708070933818817,-0.1715632230043411
1774472701754584000,7.380583984375,1.61112294524014,0.1310763303484767,-0.3409317445099353,0.0003029690124094,-0.3640347719192505,-0.32293900847435
1774472701764601900,7.390601806640625,1.2559499094098805,0.1448180746488273,0.6015712241649628,0.2241885364055633,-0.3359144628047943,-0.3445697426795959
1774472701774620200,7.4006201171875,-0.504793688455224,-0.0718082949522882,1.2009854894917458,0.343550443649292,-0.2984270453453064,-0.1786520481109619
1774472701784638000,7.410637939453125,-1.4583604874581098,0.1541277547858655,-0.5470117317859083,0.3016597032546997,-0.3559377491474151,-0.0136298006400465
1774472701794656000,7.420656005859375,-1.407103762951493,0.1905116120703518,1.097748402379081,0.5565417408943176,-0.2802818417549133,0.0291097369045019
1774472701804673800,7.430673828125,-1.0289473264187574,0.0475774514719843,2.152713894086331,0.6408584713935852,-0.0809516981244087,0.1065930724143982
1774472701814692000,7.440692138671875,-1.9250363344430923,0.6824713917851448,0.022353870627284,0.5593527555465698,-0.1226605996489524,0.1683633029460907
1774472701824710000,7.4507099609375,0.31578269020617,0.3483237179247662,0.7861686437554657,0.6136381030082703,-0.2451913058757782,-0.1324191689491272
1774472701834729000,7.46072900390625,1.5693506729155775,-0.7886310883462428,0.4704425060421228,0.5033210515975952,-0.3901738822460174,-0.2645696699619293
1774472701844747000,7.4707470703125,-0.1283423022747039,-1.11001196388565,0.8997361323550342,0.6676276922225952,-0.4474992454051971,-0.2007667273283004
1774472701854765000,7.48076513671875,-0.1951139912992715,-1.024561658680439,2.3165923507750037,0.8317911624908447,-0.5720089077949524,-0.1053269281983375
1774472701864783000,7.490783203125,0.1424573368668556,-0.5340863088371232,1.8794597013995047,0.926283836364746,-0.8176836371421814,-0.1269483268260955
1774472701874801000,7.50080078125,2.9055115986377,-0.3329658801972865,0.207388658721745,0.7391189932823181,-1.1924924850463867,-0.5156735181808472
1774472701884819000,7.51081884765625,3.4858582484662533,-0.6637199295639992,-1.2826064456671475,0.545763373374939,-1.5046749114990234,-0.6396293044090271
1774472701894837000,7.5208369140625,-0.4641407755494117,-1.575223802732676,-1.788882189373672,0.3070347607135772,-1.557542085647583,-0.4049015045166015
1774472701904855000,7.53085498046875,-0.6381541111528873,-0.9688945703856646,-2.732054435612261,0.021243754774332,-1.3590694665908811,-0.337134450674057
1774472701914874000,7.5408740234375,0.3554261338084936,0.5139294733300804,-2.508437695667148,-0.0903056636452674,-1.047939658164978,-0.3813686966896057
1774472701924892000,7.550891845703125,-0.3105295919835567,0.8081511237870901,-1.0574331239297985,-0.0235636550933122,-0.5979306697845459,-0.3069815337657928
1774472701934910000,7.560909912109375,-0.966584101486206,0.2824037868913263,-0.7656226993329822,0.055235993117094,-0.2575845122337341,-0.3128736019134521
1774472701944928000,7.570927978515625,-0.266106512889266,0.007019313310692,-0.3125350865870714,0.1391186416149139,-0.103667639195919,-0.3148792386054992
1774472701954946000,7.580946044921875,-1.6653601468622683,-0.2800938659811392,-0.5942746374160051,0.1192978397011756,-0.0016729752533137,-0.1695187538862228
1774472701964963800,7.5909638671875,-1.5706991649150848,-0.3998145069155842,-0.0849495891414582,0.2295082360506057,0.1280493289232254,-0.1282022148370742
1774472701974982100,7.600982177734375,-0.5674561885952949,0.0849530049412511,0.5202316422142088,0.2228756695985794,0.1356304138898849,-0.1482504606246948
1774472701984999700,7.610999755859375,0.5307002831280231,-0.178092640806362,0.4680163018085062,0.2774571478366852,0.1285645067691803,-0.2662279903888702
1774472701995018800,7.621018798828125,1.0438386060804128,0.2560824374051764,0.9151131497070192,0.300334095954895,0.0929515585303306,-0.318621277809143
1774472702005036500,7.63103662109375,1.2852531607836484,0.1044228993637487,0.8208831065230071,0.321555495262146,0.0848161354660987,-0.3876139223575592
1774472702015054600,7.6410546875,1.7263994297146796,-0.4301071711855009,0.9963833196833728,0.4373940527439117,0.1105638891458511,-0.5455713272094727
1774472702025072600,7.65107275390625,1.843734015762806,-0.4992258251950144,0.9404530504077672,0.516845703125,0.0760762244462966,-0.7240422368049622
1774472702035090700,7.661090576171875,1.7964403496682644,-0.4523251404734328,0.7642392821505666,0.6365506649017334,0.0406156778335571,-0.9013988375663756
1774472702045108500,7.6711083984375,1.7514654819101094,-0.3535301639940589,0.8914468813069164,0.7465717196464539,0.0091373780742287,-1.0251543521881104
1774472702055126800,7.681126708984375,0.7051642851084471,-0.2857743227703496,0.4602227253228426,0.7989085912704468,0.0418449416756629,-1.056397557258606
1774472702065144600,7.69114453125,-0.3774602709621191,0.1097716765131801,0.5505073918819428,0.8120771050453186,0.125031441450119,-0.92420494556427
1774472702075162600,7.70116259765625,-1.022493035712838,0.5613757727030665,-0.0807850168079137,0.7303797006607056,0.2599920928478241,-0.627281129360199
1774472702085180400,7.711180419921875,-2.318040211495757,1.3574158951967954,-0.9211101981647312,0.6203999519348145,0.543431282043457,-0.2765132486820221
1774472702095199500,7.721199462890625,-2.146549087846279,1.7853508003771303,-1.0750601121656596,0.5122091174125671,0.6463101506233215,-0.0770010277628898
1774472702105217800,7.7312177734375,-1.346399995663762,1.6599050963267683,-1.0109180409923195,0.3933762013912201,0.561091959476471,-0.0299786552786827
1774472702115235600,7.741235595703125,-1.454572785612941,1.0158534515678883,-1.1415304801560937,0.2787245213985443,0.5834982395172119,-0.018558993935585
1774472702125253600,7.751253662109375,-1.456879308989644,0.6392893257278949,-1.055904160796851,0.2424333542585373,0.5104440450668335,-0.0352956317365169
1774472702135271400,7.761271484375,-1.0720119766414165,0.9544953850898892,-0.9879099442400038,0.1724718511104583,0.4675325155258178,-0.0169043727219104
1774472702145289700,7.771289794921875,-1.3529419646531342,0.7853815850310027,-1.447792916214466,0.1018099337816238,0.4621438682079315,0.0505047589540481
1774472702155307500,7.7813076171875,-0.8052800253301858,0.3357013695757836,-1.288754446902871,0.0773527771234512,0.3717465996742248,0.0250934716314077
1774472702165325600,7.79132568359375,-0.0655886167198419,0.0316471110861748,-0.6723718764446676,0.0705470666289329,0.239591509103775,0.0098157143220305
1774472702175343600,7.801343505859375,-0.2037210761249065,0.0752334470953792,-0.6417706942148507,-0.0150230852887034,0.256076842546463,0.0298828296363353
1774472702185362700,7.81136279296875,-0.2734305721670389,-0.5002284994315356,-0.9060656276375056,-0.0916915014386177,0.2952988147735595,0.079541727900505
1774472702195380700,7.821380615234375,-0.3211924402952194,-0.2421628157872706,-0.6217744926296174,-0.1883527338504791,0.3209638297557831,0.1124732866883277
1774472702205398500,7.8313984375,0.0277367327094078,-0.6587366612587123,-0.8728943026587367,-0.3128536343574524,0.232046440243721,0.1472011804580688
1774472702215416600,7.84141650390625,0.2514028647542,-1.065758250008896,-1.5976644748605786,-0.466078519821167,0.0474481619894504,0.0777911767363548
1774472702225434600,7.8514345703125,0.7451525966256857,-1.3955129861399531,-1.1670337547250091,-0.4972838461399078,-0.0486645214259624,-0.0045582870952785
1774472702235452700,7.86145263671875,0.3875707460880279,-0.9670978962272404,-0.1018150914855301,-0.4550640285015106,0.0797352120280265,-0.0641060769557952
1774472702245470500,7.871470458984375,0.0759475136488676,-0.6730993139363824,0.2418241584174335,-0.4168593883514404,0.3647187352180481,-0.034721553325653
1774472702255488500,7.881488525390625,-0.2485831311583518,-0.1218628040622919,0.5497112730681896,-0.35996875166893,0.4918849170207977,0.0435883291065692
1774472702265506800,7.8915068359375,-0.4591816918373108,0.0971073521859943,0.2038810889922082,-0.3448787629604339,0.67385333776474,0.0847432240843772
1774472702275525600,7.901525634765625,0.1344862118571996,-0.4675076946992427,0.4065190460555255,-0.3014491498470306,0.5665600895881653,0.0026336880400776
1774472702285543700,7.911543701171875,0.5650900439858436,0.1991433198805898,0.3263914702430367,-0.3669200539588928,0.4685696363449096,-0.027543656527996
1774472702295561500,7.9215615234375,0.354194546186924,-0.291072831037268,-0.8128773485913873,-0.4160678088665008,0.574689507484436,-0.0951094180345535
1774472702305579800,7.931579833984375,0.492389549434185,-0.3985697675514966,-0.3601907178618013,-0.4143998622894287,0.7273467183113098,-0.1881607919931411
