time,seconds_elapsed,accel_x,accel_y,accel_z,gyro_x,gyro_y,gyro_z
1774472687676942800,0.07494287109375,0.0087695819109678,0.1611784039497375,0.7005092989094555,0.090937502682209,0.0085011413320899,0.0587553456425666
1774472687686970600,0.084970703125,0.0025625439643859,0.1198398468673229,0.7387891990736126,0.091646172106266,0.0253562871366739,0.0372327454388141
1774472687696999000,0.0949990234375,-0.049763855600357,0.0907873553842306,0.7992186063993721,0.1014173179864883,0.003076089778915,-0.0137506425380706
1774472687707025700,0.105025634765625,-0.1498264043301344,0.1023041901767253,0.846465583807975,0.1265730112791061,-0.0304413884878158,-0.060335986316204
1774472687717053700,0.1150537109375,-0.108828623509407,0.118267482984066,0.8861497978121041,0.1494136452674865,-0.0426682122051715,-0.0948769748210907
1774472687727081700,0.125081787109375,-0.026531448572874,0.1339753397256136,0.9378440369531512,0.1745086163282394,-0.0361586473882198,-0.1214076429605484
1774472687737109800,0.13510986328125,-0.0225695592045784,0.1283855568945408,0.9711099083475768,0.197123646736145,-0.0269515663385391,-0.1472677290439605
1774472687747137800,0.1451376953125,-0.0690858111858367,0.0450929411798715,0.9085967535503208,0.2056414932012558,0.0024686378892511,-0.1760852634906768
1774472687757165600,0.15516552734375,-0.0639513709068298,0.0342313554257154,0.920736834807694,0.1928795427083969,0.0405398793518543,-0.2082093358039856
1774472687767192800,0.16519287109375,-0.0799158327579498,0.0821177267163991,0.9327757937781512,0.1672785729169845,0.0566373541951179,-0.2230138480663299
1774472687777220600,0.175220703125,-0.102772976732254,0.1153314295321703,0.9524982929885388,0.13674096763134,0.0294837951660156,-0.213833749294281
1774472687787249000,0.185248779296875,-0.1530360140264034,0.1440174257904291,0.9847304374210536,0.1103756725788116,-0.0113049140200018,-0.1985152512788772
1774472687797276700,0.195276611328125,-0.2737637496441603,0.1831780543118715,1.0122938593901694,0.0891663208603859,-0.0556654259562492,-0.1822138726711273
1774472687807305000,0.205304931640625,-0.5685428147882223,0.1471200679808855,1.0395469733010978,0.0823784545063972,-0.0853476896882057,-0.1772132515907287
1774472687817331700,0.215331787109375,-0.6881710647314786,0.1351952369093894,0.93030436216332,0.0950470864772796,-0.0191066302359104,-0.1599777340888977
1774472687827359700,0.22535986328125,-0.4781260462820529,0.2344581596940755,0.7351550803549587,0.1244987174868583,0.1119840070605278,-0.1343591958284378
1774472687837388000,0.235387939453125,-0.3734937054187059,0.3539689207375049,0.6451767032660544,0.1600846350193023,0.1874324828386306,-0.1005860492587089
1774472687847416000,0.245416015625,-0.4920651397854089,0.3802332428067922,0.6091853524304927,0.2092929184436798,0.1823865920305252,-0.0640117973089218
1774472687857444000,0.255444091796875,-0.64885436886549,0.3286164528161287,0.619412804999575,0.2481409162282943,0.1205607280135154,-0.0324431285262107
1774472687867471000,0.26547119140625,-0.7383966926246881,0.2800029362946749,0.77233637162745,0.2629992067813873,0.0659579336643219,-0.0029169260524213
1774472687877499100,0.2754990234375,-0.7515034269571303,0.2332113745033741,0.8729220674484968,0.2601571679115295,0.0504961349070072,0.0207281522452831
1774472687887527200,0.285527099609375,-0.6513187131524085,0.2881225298643112,0.8751770798336714,0.2477724105119705,0.1174370795488357,0.0490884222090244
1774472687897555200,0.29555517578125,-0.43214054017663,0.3657534665554762,0.7358118637632578,0.2519848644733429,0.2164733260869979,0.0714341402053833
1774472687907583000,0.3055830078125,-0.3494406296581029,0.3760854754775762,0.5812591980962082,0.267439991235733,0.2774285674095154,0.1000122427940368
1774472687917610200,0.3156103515625,-0.3548351821780204,0.3875321676433086,0.5394947072193026,0.2827247679233551,0.2852929234504699,0.1379600316286087
1774472687927638000,0.325637939453125,-0.3234241448700428,0.3844885621637106,0.5581600255269556,0.287924587726593,0.2713081240653991,0.1874484866857528
1774472687937666300,0.335666259765625,-0.3073924630016088,0.3585024725139141,0.6379544238623232,0.2639147937297821,0.2220986634492874,0.2360763847827911
1774472687947694000,0.345694091796875,-0.4267120853871107,0.3565490003585815,0.7455887960858643,0.2175222486257553,0.1823067814111709,0.2869835197925567
1774472687957722000,0.35572216796875,-0.3877805894464254,0.3951923270076513,0.7776631196081638,0.1890726238489151,0.1794771701097488,0.3373845219612121
1774472687967749000,0.3657490234375,-0.2599403914749622,0.3746265088409185,0.6616751989286392,0.1839452385902404,0.2237879037857055,0.377071738243103
1774472687977777000,0.37577685546875,-0.1402566119521856,0.3558282848685979,0.4885812066597864,0.2020082175731659,0.3060069680213928,0.3978085219860077
1774472687987805200,0.38580517578125,-0.1173585514456033,0.3643342474073171,0.3877052957205101,0.2277953326702118,0.4028711915016174,0.4112561643123626
1774472687997833000,0.3958330078125,-0.0561070871472358,0.303680749002099,0.3768224114499986,0.225493311882019,0.5143123269081116,0.4160985052585602
1774472688007861200,0.405861328125,-0.2827794152706861,0.1125350768119096,0.6092940735019743,0.1541570872068405,0.5514360070228577,0.4224533438682556
1774472688017888000,0.415887939453125,-0.981839538285136,-0.0642541532456874,0.8223601933382451,0.0186677388846874,0.6593834757804871,0.4661528766155243
1774472688027916300,0.425916259765625,-1.2114905899584292,-0.1069528927654027,0.8592380446847527,-0.1484903544187545,0.6373966336250305,0.4622151255607605
1774472688037944000,0.435944091796875,-2.53519593873322,-0.3679179511129856,0.6140052468676119,-0.4234104454517364,0.8332760334014893,0.4736171662807464
1774472688047972000,0.44597216796875,-1.5638234339267014,0.1993500214338302,0.757433474593237,-0.8724318742752075,1.259790301322937,0.492036372423172
1774472688058000100,0.456000244140625,-1.418670866626501,0.8492109369933605,0.7003351113863289,-1.4096771478652954,1.6453688144683838,0.4817842841148376
1774472688068027100,0.466027099609375,-1.9385440507918597,1.9341800103634597,0.3071105042550712,-1.892792105674744,1.8916773796081543,0.4621927440166473
1774472688078055200,0.47605517578125,-1.852092678785324,2.8252053052574397,-0.4102113977674395,-2.208489418029785,2.0611977577209477,0.4478777050971985
1774472688088083000,0.4860830078125,-1.649479856163263,2.95245338255465,-1.9324941031031309,-2.015431880950928,1.998258113861084,0.495130181312561
1774472688098111200,0.496111328125,-1.2543851443111895,2.724467633745074,-4.463938141956925,-1.7056097984313965,1.928450107574463,0.6371392011642456
1774472688108139000,0.506138916015625,-0.9449866021841764,1.7575281429499388,-3.0597637104555964,-1.6580862998962402,1.96645188331604,0.6909955143928528
1774472688118166300,0.516166259765625,-0.2220762325048446,0.7127443649739027,-0.2203976317681372,-1.9455392360687256,1.9981272220611568,0.7755853533744812
1774472688128194000,0.526194091796875,1.5745008952856063,1.0560270565241574,2.32092964932695,-2.439182758331299,1.7938716411590576,0.8877878189086914
1774472688138222300,0.536222412109375,1.36529641931355,0.7902642425060272,2.898245407027006,-2.761359691619873,1.1348730325698853,0.9656500816345216
1774472688148250000,0.54625,0.2457902855694294,0.152956519049406,0.6801055394366383,-2.77890682220459,0.229808896780014,0.9175171256065368
1774472688158278100,0.556278076171875,-1.242674248251319,-0.7131909396976233,-0.5028676888287067,-2.713792562484741,-0.6440216898918152,0.7972724437713623
1774472688168306200,0.56630615234375,-1.3027017237126826,-1.0853431673794984,-0.0347062794610857,-2.793792963027954,-1.3568875789642334,0.6805194616317749
1774472688178333000,0.5763330078125,-0.2773819401413202,-0.3315361396551132,1.1895406239569186,-3.057697296142578,-1.8536731004714968,0.5621097087860107
1774472688188361200,0.586361328125,1.2122417005866766,0.5723316856771707,1.998459005789459,-3.2999961376190186,-2.100400924682617,0.3916822969913482
1774472688198389000,0.596388916015625,1.9855495475947853,1.3725328003078698,2.018985953250527,-3.357731342315674,-2.166952133178711,0.1227652207016944
1774472688208417300,0.606417236328125,1.7465420540332792,1.804554098019004,1.395712892626226,-3.0461418628692627,-2.07837176322937,-0.2538670003414154
1774472688218445000,0.616445068359375,1.0608493621140718,-1.4382383214056491,0.7574085593476891,-0.917499303817749,-1.999876618385315,-0.7262054085731506
1774472688228472300,0.626472412109375,-1.229363515779376,-10.687674125361442,3.759036891698837,0.658355712890625,-2.1980092525482178,-1.3283411264419556
1774472688238500000,0.6365,-1.6088894870996475,0.7710372717276215,3.778539756809175,0.5936741828918457,-1.762043595314026,-2.061135053634644
1774472688248528100,0.646528076171875,1.1442770023852586,5.262652817422151,1.7331977115526795,0.5936797857284546,-1.616543889045715,-2.0786783695220947
1774472688258556200,0.65655615234375,1.3741373128950596,1.0953230018630624,0.4881104108102619,0.7172050476074219,-1.4686462879180908,-1.5345619916915894
1774472688268584000,0.666583984375,1.4500883336752652,-1.0938722185328602,1.2561303805433213,0.5800862908363342,-0.7623911499977112,-0.7452828288078308
1774472688278611200,0.676611083984375,3.827389712435007,0.0629521307364106,2.133105084383488,0.2852489352226257,0.5935958623886108,0.0744559168815612
1774472688288639000,0.686638916015625,6.042649348413944,1.0723290797665714,1.4893734653592108,0.1885032206773758,2.020381212234497,0.7687092423439026
1774472688298667300,0.696667236328125,4.37386799493134,0.9743605807065964,-0.6451593137398361,0.2140942215919494,2.53016209602356,1.2129298448562622
1774472688308695000,0.706695068359375,0.5716337665408849,0.4723170677423476,-2.0412018767118454,0.2610388398170471,2.293661832809448,1.4039394855499268
1774472688318723300,0.716723388671875,-1.7113988444596528,0.2932970098927617,-3.1537951623275875,0.4867669343948364,1.922830939292908,1.4446042776107788
1774472688328750000,0.72675,-2.024105195960402,0.4072597814202308,-3.242669669827819,0.7324568629264832,1.922054886817932,1.39589524269104
1774472688338778000,0.736778076171875,0.1356172617137432,0.2183481518924236,-1.861438891540468,0.6964319944381714,2.0469391345977783,1.2209051847457886
1774472688348806100,0.74680615234375,1.7703227425932884,1.4222025478839873,0.1119163603916764,0.5484558343887329,2.0698070526123047,0.9903408885002136
1774472688358834000,0.756833984375,2.47562731295526,1.8607564622342585,1.340432027170062,0.61424720287323,1.898951768875122,0.7508634328842163
1774472688368862200,0.7668623046875,1.7065899828732012,1.54864515401721,0.5750345148950815,0.8925214409828186,1.2926397323608398,0.4950859844684601
1774472688378890000,0.776889892578125,-0.3986889369517564,1.518199162349105,0.0278375627353787,0.9579721093177797,0.606051504611969,0.3312360346317291
1774472688388917200,0.786917236328125,-0.8152689199030398,1.3831827891379591,0.26292846737504,0.8134562373161316,0.2923915982246399,0.3736817538738251
1774472688398945000,0.796945068359375,-0.3566062835037708,0.9115379215687512,-0.7674421698451042,0.8129409551620483,0.6919168829917908,0.5187903642654419
1774472688408973300,0.806973388671875,0.0794189891517162,1.0731436110198498,-2.0328411678627134,0.9052512049674988,1.3530973196029663,0.664323627948761
1774472688419001000,0.8170009765625,-0.3395768227696418,1.041167341044545,-1.053306983910501,0.9154583811759948,1.4142879247665403,0.6925976872444153
1774472688429029000,0.827029052734375,-1.8844313523322345,1.259975511664152,-0.1249780865386128,0.8533289432525635,0.8038811087608337,0.5214887857437134
1774472688439056100,0.83705615234375,-2.115500454109907,1.2543465658664703,0.2424137948736548,0.813288688659668,0.2808701694011688,0.3003051280975342
1774472688449084200,0.847084228515625,-0.7874906861394644,0.8573392983913422,0.2940896215751767,0.654354453086853,-0.1165296584367752,0.0040875850245356
1774472688459112200,0.8571123046875,-0.6407762763500213,0.7812421471387148,0.1711196599885821,0.3947406113147735,-0.3670848906040191,-0.30695840716362
1774472688469140000,0.867139892578125,-0.2583095754027366,0.5270815081089735,-0.2559983758509159,0.2088599652051925,-0.428698182106018,-0.5894249677658081
1774472688479168300,0.877168212890625,0.0885860459476709,0.120781511631608,-0.5447688482299446,0.1071592941880226,-0.5188187956809998,-0.7801164388656616
1774472688489195000,0.887195068359375,0.2757493705034256,-0.1334632985502481,-0.6108861649990082,0.2026221752166748,-0.6667739152908325,-0.7495670318603516
1774472688499223300,0.897223388671875,0.9118132313787936,-0.3623568098545074,-0.8693123525187373,0.3952818214893341,-0.9396084547042848,-0.4819479882717132
1774472688509251000,0.9072509765625,0.5468552991151809,-0.382555548274517,-0.7367191148012876,0.4564051032066345,-1.0352325439453125,-0.0455965176224708
1774472688519279000,0.917279052734375,0.0482931985259056,0.3121434569209814,-1.838815556322038,0.4681763350963592,-0.4098870158195495,0.4725866019725799
1774472688529307100,0.92730712890625,0.0464075309097766,0.5621516524463892,-3.0932378177732227,0.4618092477321625,0.3191581070423126,1.0665208101272583
1774472688539334100,0.937334228515625,-0.715895522481203,-0.0273655613094568,-1.8476026738896965,0.5364784002304077,0.5197217464447021,1.5151373147964478
1774472688549362200,0.947362060546875,-2.1378870579630136,-0.8030313696205615,0.1293672614082694,0.6644476056098938,0.2628446817398071,1.9004594087600708
1774472688559390000,0.957389892578125,-1.770127512282133,-0.3265548441112041,0.2445017070636153,0.6816272735595703,-0.03880001232028,2.0190370082855225
1774472688569418200,0.967418212890625,-1.7788637764453887,-0.1009948611438274,0.8438315820425748,0.5690757036209106,-0.3148052394390106,1.7872079610824585
1774472688579446000,0.977446044921875,-1.953635236939788,-0.4520516938269138,0.8350649227410555,0.5932186841964722,0.0172821078449487,1.2413769960403442
1774472688589474300,0.987474365234375,-1.5064374128848312,0.0338841494232416,0.1965516228869557,0.6028838157653809,0.6536707878112793,0.6863545775413513
1774472688599501000,0.9975009765625,-1.3047528110235929,-0.0339338337838649,1.0627031732872128,0.6063670516014099,0.7859978079795837,0.4681847989559173
1774472688609529000,1.007529052734375,-0.8252040384620427,-0.1668131949663162,1.4739166607692835,0.5425118803977966,0.3737767040729522,0.5251240134239197
1774472688619557000,1.01755712890625,-0.2336240469574928,-0.0061222822725772,2.256646123856306,0.4830245673656463,-0.0744583308696746,0.5474777817726135
1774472688629585200,1.027585205078125,0.0831768803805112,-0.0061912558555603,2.286063941520452,0.3863256275653839,-0.2845560908317566,0.4515251517295837
1774472688639613200,1.03761328125,0.4371908093035221,0.2008873140037059,2.0849279134526846,0.2273753732442855,-0.3958690464496612,0.2446734607219696
1774472688649640200,1.04764013671875,0.8783230497092008,0.3152811704248189,1.9887281776309007,0.0541391521692276,-0.5593189597129822,-0.0483339205384254
1774472688659668200,1.057668212890625,1.077456798043847,0.3202566207498312,1.821605478323996,0.0189519580453634,-0.7562834024429321,-0.3523661196231842
1774472688669696000,1.067696044921875,1.1367127046108243,0.2846580686241388,1.623077294667065,0.0773564055562019,-0.889444887638092,-0.5645105838775635
1774472688679724300,1.077724365234375,1.0686462996006012,0.2721972309798002,1.4704814256235956,0.1038495376706123,-1.0483614206314087,-0.6564947962760925
1774472688689752000,1.087751953125,0.7552361837446689,0.2115957550227642,1.4479694418251514,0.1182079687714576,-1.221318244934082,-0.72722327709198
1774472688699780400,1.0977802734375,0.5188368268549441,0.1160638354599475,1.3129573063977062,0.1778421103954315,-1.4579659700393677,-0.8764997124671936
1774472688709807000,1.10780712890625,0.6243547183811664,0.1353513042539358,1.2518791528396307,0.2550080120563507,-1.772212028503418,-1.083814024925232
1774472688719835100,1.117835205078125,1.1697340997248888,-0.4607680842459201,2.3174266096420584,0.3498795926570892,-2.199645757675171,-1.3545174598693848
1774472688729863200,1.12786328125,0.6582791998147964,-0.8024269739866257,2.2382908213458954,0.4830254018306732,-2.692359447479248,-1.6924139261245728
1774472688739891000,1.137890869140625,0.449033807310462,-0.9839905788391828,1.6798191725865006,0.6581429243087769,-2.953108549118042,-2.004115581512451
1774472688749919200,1.147919189453125,0.5916565638720989,-0.8783931923359632,1.0723800793014466,0.798819363117218,-2.8907992839813232,-2.1899938583374023
1774472688759946000,1.157946044921875,0.5692465791434049,0.0859668033599853,0.0777601160287857,0.7898479700088501,-2.8329827785491943,-2.293163061141968
1774472688769974300,1.167974365234375,-0.7177069558173418,1.5316367360711096,-0.3301637553233653,0.6500359773635864,-2.789144992828369,-2.294041872024536
1774472688780002000,1.178001953125,-1.4950526800394055,1.1989905893474817,-1.4544412681877612,0.6288949251174927,-2.341965436935425,-2.019982099533081
1774472688790030000,1.188030029296875,0.5716074630558491,-0.5360445667654276,-1.6709288869053125,0.6297063827514648,-1.509993553161621,-1.4929815530776978
1774472688800058000,1.19805810546875,1.7990005555450914,-1.4218331300497054,-0.8009328629713505,0.7160495519638062,-0.6766522526741028,-0.8919810652732849
1774472688810086000,1.2080859375,2.0617706174880266,-1.6403981395632028,-0.6093087596144526,0.9427798986434937,-0.1395573914051056,-0.3635505437850952
1774472688820113200,1.218113037109375,1.3528911112487316,-1.666006043550372,-0.2132005598708987,1.2157576084136963,-0.1549302786588668,0.0053360862657427
1774472688830141200,1.22814111328125,-0.1145697975099086,-2.2635031501442198,0.1746741375997662,1.4105414152145386,-0.4747919142246246,0.23521588742733
1774472688840167700,1.238167724609375,-0.4394803815454244,-2.8661849658995866,0.5284753005549311,1.4816828966140747,-0.6441848874092102,0.4189349412918091
1774472688850196000,1.248196044921875,0.4520136999040842,-3.235326905849576,0.7222633039474486,1.4412065744400024,-0.4455162584781647,0.5777794122695923
1774472688860223700,1.2582236328125,1.407256907686591,-3.981306016427278,0.4973686530210077,1.3871644735336304,-0.0227426197379827,0.6721188426017761
1774472688870250800,1.268250732421875,1.7145330508321523,-4.830109541663528,0.0272898291921243,1.2811753749847412,0.2048370093107223,0.6803786158561707
1774472688880278800,1.27827880859375,1.0330559307813645,-4.279361911284924,-0.2026395279658958,1.130946159362793,0.3785939216613769,0.5704212784767151
1774472688890306800,1.288306884765625,0.969344213849306,-3.342923357215524,-0.2659584461880848,0.9479555487632751,0.6713853478431702,0.3902080953121185
1774472688900334800,1.2983349609375,1.461312323001027,-2.686967631912231,0.027276567851752,0.8017438054084778,0.9809554219245912,0.1761404871940612
1774472688910362600,1.308362548828125,1.6539046868681906,-2.417957798796892,-0.1356925554396584,0.7574738264083862,1.1391868591308594,-0.034357625991106
1774472688920391000,1.318390869140625,1.5998200454592704,-2.05471485375762,-0.4001196273420005,0.7474215030670166,1.171560525894165,-0.2335778176784515
1774472688930417700,1.328417724609375,1.6623428448677062,-1.4401923780828714,-0.1744029925081879,0.75829017162323,1.1109546422958374,-0.3609355092048645
1774472688940446000,1.338446044921875,1.8841192176431416,-0.9405436513006686,-0.0938867827042937,0.7880703806877136,0.9142017364501952,-0.4104693531990051
1774472688950473700,1.3484736328125,1.7840017238557335,-0.4176572567939758,-0.2093987199025228,0.7714914083480835,0.6269891858100891,-0.4312052428722381
1774472688960501800,1.358501708984375,1.462502409568429,0.4544909036725759,0.1463467637871392,0.6385539174079895,0.2612720727920532,-0.4317944943904876
1774472688970529800,1.36852978515625,1.0444172827512026,1.3300100018769505,0.5544804236987605,0.4532819986343384,-0.1938951760530471,-0.3537755906581878
1774472688980556800,1.378556884765625,1.0869546942293644,1.8181594295233487,0.82710921449624,0.2989142835140228,-0.4416151940822601,-0.1123358607292175
1774472688990584800,1.388584716796875,2.0577719032406807,1.5895038186281918,0.9443114794015884,0.2199704647064209,-0.5049321055412292,0.2525347769260406
1774472689000612600,1.398612548828125,2.577391989427805,1.9875988813400267,0.9101427408833056,0.1361424922943115,-0.4135143756866455,0.5893601775169373
1774472689010641000,1.408640869140625,2.920284804877639,2.983815320023894,1.0472199190817773,0.041488692164421,-0.2924369573593139,0.7471799254417419
1774472689020668700,1.418668701171875,2.40076642549932,3.714266022080183,0.7738733719363808,-0.0301043558865785,-0.2237225323915481,0.6496935486793518
1774472689030697000,1.428697021484375,1.4986100802600384,3.7486002533584832,0.6546790564309806,-0.072564996778965,-0.4124301373958587,0.2400892972946167
1774472689040723700,1.4387236328125,-0.1522036548554897,3.286170373380184,0.902772723571956,-0.1197652593255043,-0.8505761027336121,-0.4311454892158508
1774472689050751700,1.448751708984375,-1.5710405256986617,2.721338103547692,1.4342569966845211,-0.2102775871753692,-1.3333874940872192,-1.1909544467926023
1774472689060779800,1.45877978515625,-2.35067231503129,2.709253698000312,1.8196204419866204,-0.3173680305480957,-1.6578747034072876,-1.840953350067139
1774472689070807800,1.468807861328125,-2.524765730133653,3.071657269605994,1.8732862734615805,-0.3522115051746368,-1.751196026802063,-2.264394044876098
1774472689080835800,1.4788359375,-2.6347657355099914,3.332011502578854,1.3905191233754155,-0.2706660032272339,-1.7700767517089844,-2.449446201324463
1774472689090862800,1.48886279296875,-3.021602322104573,3.5880209843456745,0.8294545355133712,-0.0629314556717872,-1.798140287399292,-2.3992340564727783
1774472689100891000,1.498890869140625,-3.1322277659028765,3.578336917938292,0.4456088012978434,0.2753000855445862,-1.8118720054626465,-2.159101247787476
1774472689110918700,1.508918701171875,-3.0026065297335385,3.2212334985673428,-0.0392035908803343,0.6850458383560181,-1.7911432981491089,-1.8213297128677368
1774472689120947000,1.518947021484375,-2.966117750769853,2.780399656586349,-0.1808984189420938,1.0364357233047483,-1.8133050203323364,-1.474700689315796
1774472689130974700,1.528974609375,-3.1900095082640645,2.400780454024672,0.1495369198642671,1.262633204460144,-1.6854168176651,-1.1964584589004517
1774472689141003000,1.5390029296875,-3.103224374258518,2.16060976190269,0.5004023216284811,1.3426083326339722,-1.4054315090179443,-1.041196584701538
1774472689151029800,1.54902978515625,-3.544512682008743,2.1344909857839345,0.5682138750948011,1.302958607673645,-1.069248914718628,-1.0247286558151243
1774472689161057800,1.559057861328125,-3.8962797087877994,2.59929636272192,0.5430443625248969,1.1944326162338257,-0.6357910633087158,-1.073360800743103
1774472689171085800,1.5690859375,-3.731269179329276,3.1305516493842003,0.3569249940641224,1.043739676475525,-0.1746199578046798,-1.1200846433639526
1774472689181113600,1.579113525390625,-3.394750575086474,3.629149990330636,0.1342678929314017,0.848831295967102,0.3156021237373352,-1.0743458271026611
1774472689191142000,1.589141845703125,-2.760934785398841,3.9808094650819896,0.0067113342069089,0.65082848072052,0.7966387867927551,-0.8593810796737671
1774472689201169000,1.5991689453125,-2.070270150285959,3.473288397489488,-0.1040181544877588,0.5655443072319031,1.1992912292480469,-0.4775953292846679
1774472689211197000,1.609197021484375,-1.6293115128815172,1.9379554372489447,-0.0816921947807073,0.640499472618103,1.3441342115402222,-0.0807427540421485
1774472689221224700,1.619224609375,-1.718698353818059,0.8558706871435046,0.0296906432561576,0.7458406686782837,1.310970425605774,0.2305106520652771
1774472689231252700,1.629252685546875,-1.5188286924242973,0.7853238634943962,0.1223185119405388,0.8157020807266235,1.2131152153015137,0.4404146373271942
1774472689241280800,1.63928076171875,-1.068003325521946,0.6699979869201779,0.1579080039769411,0.8209225535392761,1.1258524656295776,0.5648042559623718
1774472689251308800,1.649308837890625,-0.4894926589488982,0.4415396521627903,0.3539876254379749,0.7616952061653137,1.0227830410003662,0.5889623165130615
1774472689261335800,1.659335693359375,-0.1039595561683177,0.292915901620686,0.5391539309576153,0.6767523288726807,0.8998587727546692,0.5179728865623474
1774472689271363800,1.66936376953125,0.0921101284205913,0.1484419642344117,0.5363846123747528,0.6008927226066589,0.7629418969154358,0.3566428422927856
1774472689281391900,1.679391845703125,0.2104904241293668,-0.024125556474924,0.4491179784625768,0.5550662875175476,0.6031131744384766,0.1494864821434021
1774472689291419600,1.689419677734375,0.1706745465695857,-0.319738442094624,0.2873211503535509,0.538904070854187,0.3759577572345733,-0.0657933428883552
1774472689301448000,1.699447998046875,-0.0426151528894901,-0.6319289530277252,0.1768615646414458,0.5215065479278564,0.1720133125782013,-0.2297973930835724
1774472689311474700,1.709474609375,0.0720867465674877,-0.8282917753443122,0.2744640068680047,0.4818957149982452,0.0116843590512871,-0.3236961662769317
1774472689321502700,1.719502685546875,0.1364449447095394,-0.9585697218567132,0.269420459742844,0.4365976750850677,-0.1147800460457801,-0.3646835684776306
1774472689331530800,1.72953076171875,0.1700689818918705,-0.9693515203729272,0.1864936086006462,0.3624398410320282,-0.1640184223651886,-0.367010623216629
1774472689341558800,1.739558837890625,0.2821428709328174,-0.796031135469675,0.3108902419894933,0.2517736256122589,-0.2597652077674866,-0.375984251499176
1774472689351586800,1.7495869140625,0.0720540133416652,-0.6689280196011066,0.3789434952571988,0.1243251040577888,-0.3859950602054596,-0.3946442008018493
1774472689361614600,1.759614501953125,0.0429179352283477,-0.5775766005933285,0.4434827490545809,0.0055261342786252,-0.4248819947242737,-0.404127836227417
1774472689371641900,1.769641845703125,0.1739566369801759,-0.4803147884979843,0.3785473355464637,-0.0969754680991172,-0.4275853633880615,-0.401176780462265
1774472689381669600,1.779669677734375,-0.0107546182483434,-0.298206993766129,0.3739278590522706,-0.1785910278558731,-0.4723823666572571,-0.3976203799247741
1774472689391698000,1.789697998046875,-0.3250678204238414,-0.2697527604371309,0.3758062201447785,-0.2438177019357681,-0.4896388649940491,-0.370576798915863
1774472689401725700,1.7997255859375,-0.2659673966795206,-0.0838861976936459,0.499803771213442,-0.3048033714294433,-0.4751981794834137,-0.3109713792800903
1774472689411754000,1.80975390625,-0.151128719100356,0.1935425041988492,0.6001612112365663,-0.3441902101039886,-0.4212273359298706,-0.2328286617994308
1774472689421781800,1.81978173828125,-0.0669493836790323,0.4631318907678127,0.6647133245155215,-0.3518385291099548,-0.3228368461132049,-0.1698100119829177
1774472689431808800,1.829808837890625,-0.0847024825125932,0.6829910317450761,0.6168082485243678,-0.3280029594898224,-0.218932569026947,-0.1278995722532272
1774472689441836800,1.8398369140625,-0.094400869706273,0.8603054547205566,0.6542224717698991,-0.2871615588665008,-0.1223668381571769,-0.1255349963903427
1774472689451864800,1.84986474609375,-0.0942290202707052,1.0141776273101568,0.8225980937473475,-0.2409786134958267,-0.0331717133522033,-0.1635742634534835
1774472689461892900,1.859892822265625,-0.0567401243537664,1.1140934610456228,0.9466315929122268,-0.1708000302314758,0.0232881065458059,-0.2388179153203964
1774472689471920600,1.869920654296875,-0.0338853184670209,1.035742101125419,0.9804087748296558,-0.0715277642011642,0.045377429574728,-0.3188784122467041
1774472689481949000,1.879948974609375,0.0377472545921802,0.928183351421356,1.0767748071290553,0.0337160490453243,0.0715730339288711,-0.40387624502182
1774472689491975700,1.8899755859375,0.1008078141391277,0.9144485483184456,1.1735999813728033,0.1302282214164734,0.0502522960305213,-0.469295471906662
1774472689502003700,1.900003662109375,0.0261421569943428,0.8973968757525086,1.2103946114152668,0.2109629064798355,0.0192840062081813,-0.5064315795898438
1774472689512031700,1.91003173828125,0.1737906327635049,0.992776527363062,1.256882660215348,0.2633824646472931,0.0253552123904228,-0.5121232867240906
1774472689522059800,1.920059814453125,0.3003244243115187,1.1427367872059344,1.2365098804026842,0.3003980219364166,0.0070997863076627,-0.4759373664855957
1774472689532087800,1.930087890625,0.2177051778137683,1.1892425177931785,1.254469169332832,0.3284935653209686,-0.0108784157782793,-0.4298804104328155
1774472689542114800,1.94011474609375,0.2433610125958919,1.2007961774647236,1.2935751450575887,0.356965959072113,0.0078414846211671,-0.3654156923294067
1774472689552142800,1.950142822265625,0.2175707377791404,1.1240607283085584,1.262976739306748,0.383303552865982,0.0124143986031413,-0.2879118621349334
1774472689562170600,1.960170654296875,0.0994891327559947,0.9300231340691448,1.2703607120782137,0.4011001884937286,-0.004131251014769,-0.2010611742734909
1774472689572199000,1.970198974609375,0.0631330402612686,0.7461544671446084,1.3148064413957297,0.3913247883319855,-0.0023277578875422,-0.124542698264122
1774472689582226700,1.980226806640625,0.0773456900089979,0.6686208533480763,1.3491130540147422,0.3583499789237976,-0.0044479556381702,-0.0449680909514427
1774472689592255000,1.9902548828125,-0.0056073184877634,0.5906997015386819,1.2417695544965563,0.3212689161300659,-0.0153754381462931,0.0273447204381227
1774472689602281700,2.00028173828125,0.003815758895874,0.4920993343159556,1.0995622468680142,0.2854691445827484,-0.0151451090350747,0.0911665856838226
1774472689612309800,2.010309814453125,0.0900146174460649,0.4610851873710751,0.9592959903046488,0.2454181164503097,-0.0154162188991904,0.1179920807480812
1774472689622337800,2.020337890625,0.1286988606274128,0.4460591754138469,0.8988171178139746,0.2067600637674331,-0.0038710450753569,0.1042826622724533
1774472689632365800,2.03036572265625,0.1524234350860119,0.3520376604139805,0.8626739374175667,0.1828043907880783,-0.0104394657537341,0.0429300889372825
1774472689642393900,2.040393798828125,-0.0086158526539802,0.1515124577209353,0.7740972438201308,0.1651159971952438,-0.0231627654284238,-0.0388406589627265
1774472689652421600,2.050421630859375,-0.0139770874261856,0.035666356664896,0.7472768953032791,0.1439670473337173,0.005819883197546,-0.1225645840167999
1774472689662449000,2.060448974609375,0.0356873994529247,0.1126975738972425,0.7737719573885202,0.1135215610265731,0.0543254092335701,-0.1788322180509567
1774472689672476700,2.0704765625,-0.0616138678699731,0.2110650091469287,0.6847523423291743,0.0954906195402145,0.0708090439438819,-0.1923629492521286
1774472689682505000,2.0805048828125,-0.1943254712700843,0.2681049932301044,0.6942524304717779,0.0754069164395332,0.0819127932190895,-0.1716639995574951
1774472689692532700,2.09053271484375,-0.1964052001535892,0.409765919022262,0.7879822690486907,0.0601089186966419,0.0943500250577926,-0.139358252286911
1774472689702561000,2.10056103515625,-0.2687456292212009,0.521834255105257,0.7836724430255592,0.0737906768918037,0.0940802171826362,-0.1114451214671135
1774472689712588800,2.1105888671875,-0.3538391568779945,0.5054346167072653,0.7439718624085188,0.1099950224161148,0.0951188504695892,-0.1038785502314567
1774472689722615800,2.12061572265625,-0.3695294779628515,0.4743775074034929,0.7286248018033802,0.1562451422214508,0.1095220744609832,-0.1108162254095077
1774472689732643800,2.130643798828125,-0.3784872759222984,0.5132680868119001,0.7072275012485683,0.1909274905920028,0.11668411642313,-0.1241022050380706
1774472689742671600,2.140671630859375,-0.5230348630666732,0.4884443189397454,0.6554442686498164,0.2223810851573944,0.094437651336193,-0.1278415918350219
1774472689752700000,2.150699951171875,-0.6488596295624971,0.42403702095896,0.6364081442683934,0.2416442632675171,0.0929577350616455,-0.1121185570955276
1774472689762727700,2.160727783203125,-0.6509434500992298,0.4125779077030718,0.5791004491597413,0.2585636377334595,0.0858036875724792,-0.0774120092391967
1774472689772756000,2.170755859375,-0.6643015288442373,0.4040016564071178,0.4864408701628446,0.2749497890472412,0.085157610476017,-0.0195348635315895
1774472689782782700,2.18078271484375,-0.5822925231993198,0.4235748102746903,0.4332938018649816,0.2849940061569214,0.0780054628849029,0.0497771725058555
1774472689792810800,2.190810791015625,-0.5190460856914519,0.4444000100299716,0.3985555198304354,0.2913829386234283,0.0592216551303863,0.1202697232365608
1774472689802838800,2.2008388671875,-0.5132207405388355,0.4202992957353592,0.352199719107896,0.2899668216705322,0.0282879322767257,0.1914290338754654
1774472689812866600,2.210866455078125,-0.5282932219862938,0.4377212629184127,0.3408953580223023,0.2802281677722931,-0.0105809029191732,0.2596656084060669
1774472689822894800,2.220894775390625,-0.4861661448746919,0.4137096882119774,0.3845759481862187,0.2603655457496643,-0.020220186561346,0.3186367154121399
1774472689832922600,2.230922607421875,-0.404428357386589,0.4161301933571696,0.4233396863445639,0.2415265887975692,-0.0018153470009565,0.3533558249473572
1774472689842950400,2.240950439453125,-0.3966331734657287,0.4002402580469846,0.3784744164407253,0.2384193688631057,0.0312920063734054,0.3696696758270263
1774472689852978200,2.250978271484375,-0.3942605991154909,0.3810390062317252,0.3008762129753828,0.2464557290077209,0.071181371808052,0.3555346727371216
1774472689863006500,2.26100634765625,-0.3761860132426023,0.291267257630825,0.2897531998060643,0.2658968865871429,0.1034247279167175,0.3191547989845276
1774472689873034200,2.2710341796875,-0.364065951859951,0.2396694646015763,0.3005896511189639,0.2874884605407715,0.104916363954544,0.2624166905879974
1774472689883062000,2.28106201171875,-0.3567547520637512,0.2024061941340565,0.3573356206916272,0.3294455707073211,0.1025909334421157,0.209762156009674
1774472689893090300,2.29109033203125,-0.3151636815249919,0.1055789740636944,0.3450684059232473,0.3810144960880279,0.0987687706947326,0.1625006347894668
1774472689903117000,2.301116943359375,-0.3148755122333765,0.0750926503852009,0.3140450527586043,0.4244151413440704,0.106935366988182,0.1220555379986763
1774472689913145300,2.311145263671875,-0.2624415606409311,0.0658852615788578,0.2808241895496845,0.4589917659759521,0.1228847727179527,0.09650170058012
1774472689923173000,2.321173095703125,-0.2385883913666009,-0.0284203310593962,0.2555836575701832,0.4748474359512329,0.1203244104981422,0.095362402498722
1774472689933201400,2.331201416015625,-0.1842155806660652,-0.0740522014215588,0.3110834264740347,0.462658941745758,0.0920437648892402,0.1159334555268287
1774472689943229200,2.341229248046875,-0.1245306350320577,-0.0957932008475065,0.3990507560014724,0.4294279515743255,0.0516942031681537,0.1426293104887008
1774472689953257200,2.35125732421875,-0.0905558847159147,-0.0711217009276151,0.4336743256151676,0.3767772614955902,0.0279473289847373,0.1694782376289367
1774472689963284200,2.3612841796875,0.015378770917654,0.0194651634484529,0.4228967648826539,0.3343432545661926,0.0058479038998484,0.1883669644594192
1774472689973312300,2.371312255859375,-0.1026285998255014,0.0443938529998064,0.3194863670296967,0.3079260289669037,-0.0244069378823041,0.182925596833229
1774472689983340300,2.38134033203125,-0.1867173343539238,-0.0300368263453245,0.2817271297387778,0.3018751740455627,-0.0232162941247224,0.1639177799224853
1774472689993368000,2.3913681640625,-0.1163251167446374,-0.0275020471706986,0.2811092901013791,0.3048395216464996,0.0230657160282135,0.1400111019611358
1774472690003396400,2.401396240234375,0.0013075754672288,0.0040010523349046,0.2556716281145811,0.3040226399898529,0.102441020309925,0.1019090414047241
1774472690013424000,2.411424072265625,0.1085387006521225,0.013487550343573,0.2662729554973542,0.2886087894439697,0.1835507899522781,0.0701436549425125
1774472690023451400,2.421451416015625,0.1221492928534746,-0.0193693018585443,0.2798503760814667,0.306035578250885,0.3840282261371612,-0.0544812157750129
1774472690033479200,2.431479248046875,-0.495296961313486,-0.5572033823892474,-0.7173933598235249,0.36984384059906,0.8720521926879883,-0.3592672049999237
1774472690043507500,2.441507568359375,-1.056268464064598,-0.5053539526864886,-1.0650929910331963,0.3641064167022705,0.9813629984855652,-0.5195518136024475
1774472690053535200,2.45153515625,-0.708763770905137,-0.2000041014283895,-0.6351750953420996,0.3237459659576416,1.093147873878479,-0.5890371203422546
1774472690063563300,2.461563232421875,-0.4160053979337215,-0.4456432880893349,-0.3044787675119936,0.2201517522335052,0.8730553984642029,-0.4986399114131927
1774472690073591300,2.47159130859375,-0.4299199415177107,-0.5157349153168499,0.2092049143634736,0.1131289005279541,0.669215977191925,-0.3513444662094116
1774472690083619300,2.481619384765625,-0.1866395929425954,-0.467849859200418,0.3541417930863797,0.0356139354407787,0.5106572508811951,-0.2064404189586639
1774472690093646300,2.491646240234375,-0.3002782470822334,-0.2709003230370581,0.2950385928630828,0.0079498197883367,0.4227047860622406,-0.117633044719696
1774472690103674000,2.501674072265625,-0.4628443059980869,0.0320905440047383,0.2024330821409821,0.0294693671166896,0.3667336404323578,-0.0657316222786903
1774472690113702400,2.511702392578125,-0.6125228262901306,0.1708675849236547,0.2924127744041383,0.1092930883169174,0.2498546987771988,-0.001757965888828
1774472690123730200,2.521730224609375,-0.410678065431118,0.119450701419264,0.5962808626718819,0.2120942771434784,0.0928153023123741,0.1046393141150474
1774472690133758200,2.53175830078125,0.0540787961900234,0.0411731373876333,0.8651178234383463,0.315342366695404,-0.084862545132637,0.202658012509346
1774472690143786200,2.5417861328125,0.2935615060478448,0.2215378878444433,0.9175327780693768,0.3676998913288116,-0.4301618933677673,0.3219793438911438
1774472690153813200,2.551813232421875,0.6552396859884262,-0.1226570962451398,0.8027826555564999,0.3255487084388733,-0.6027296185493469,0.36627197265625
1774472690163841300,2.56184130859375,0.9194611157834528,-0.1080190606921911,0.7821021249689162,0.2693479359149933,-0.6284254193305969,0.2866823971271515
1774472690173869000,2.571869140625,0.585037437993288,-0.1453241244748234,0.4746446339070796,0.1847265213727951,-0.6681651473045349,0.1431689113378524
1774472690183897300,2.5818974609375,-0.3505979829996824,1.047139401191473,0.4057157668486237,-0.2884294986724853,-0.774345338344574,0.3356014490127563
1774472690193925000,2.591925048828125,-0.8942641306847333,3.422416288386285,0.1959687084324657,-0.4213848710060119,-0.655623733997345,0.6768205165863037
1774472690203953200,2.601953125,-1.0694722290307284,-1.125754965005815,-0.1635118153333664,-0.1595456600189209,-0.4770910739898681,0.8182907104492188
1774472690213980200,2.611980224609375,-1.2463058827519415,-1.448766437421739,0.3351245195358991,0.0561940856277942,-0.4066129028797149,0.803785502910614
1774472690224008400,2.622008544921875,-1.02015787076354,0.2625307002291083,0.4988942551530897,0.2057536542415619,-0.3666548430919647,0.7135904431343079
1774472690234036200,2.6320361328125,-0.1942167501986026,0.6993368941292166,0.9243881969220936,0.2959701120853424,-0.3511232733726501,0.563549816608429
1774472690244064300,2.642064208984375,0.4368681532204151,0.542084431451559,1.478375686004758,0.321990042924881,-0.4812636971473694,0.4036730229854584
1774472690254092300,2.65209228515625,0.8513152157962321,0.3664113459423184,1.5510970772139727,0.2987712621688843,-0.7555357217788696,0.2116420418024063
1774472690264120300,2.662120361328125,0.755759915357828,0.2102493088498711,0.9721721307516098,0.2403403669595718,-0.5995743274688721,-0.1046146303415298
1774472690274147300,2.672147216796875,0.3377396704703569,0.2757271586716175,0.5936234800308943,0.1616716533899307,-0.2467657029628753,-0.4303802251815796
1774472690284175000,2.682175048828125,-0.1764408550113439,0.1560243821874261,0.2892433505877852,0.0561477541923522,0.0349591895937919,-0.6615036129951477
1774472690294203400,2.692203369140625,-0.6149228731691837,-0.5268053215160966,-0.2771577759966254,-0.0803885161876678,0.0171857830137014,-0.7842369675636292
1774472690304231200,2.702231201171875,-0.0164431852787733,-1.061583813868463,-0.4950516082502901,-0.2295733094215393,0.1008215621113777,-0.8665759563446045
1774472690314259200,2.71225927734375,0.6680436379820108,-1.051421608555317,-0.6612588001474737,-0.2413495332002639,0.2505442202091217,-1.04250967502594
1774472690324287200,2.722287353515625,0.8565764973253012,-0.3891597688451409,-0.5033167477704584,-0.0789221599698066,0.4017603695392608,-1.3448566198349
1774472690334314200,2.732314208984375,0.8891635926753282,-0.1142839663058519,-0.1974118929781019,0.0822670012712478,0.4312695264816284,-1.5755398273468018
1774472690344342300,2.74234228515625,1.0801531975209713,-0.4600976376384496,0.5019292389348149,0.0734680071473121,0.3024998307228088,-1.6409728527069092
1774472690354370300,2.752370361328125,0.8384148176908492,-0.1922910428330302,1.3881699299007653,0.002162406919524,0.1564816236495971,-1.5488085746765137
1774472690364398300,2.7623984375,-0.5049930104196071,-0.4323478993169963,1.155779954782873,-0.0230388455092906,-0.1956450045108795,-1.1553655862808228
1774472690374426000,2.772426025390625,-1.5298141968190668,-0.5274763526454568,0.9134254888810216,-0.0476166270673275,-0.1291149854660034,-0.8054264783859253
1774472690384454100,2.7824541015625,-1.3630986170083284,0.0571418370224535,0.9288228183686732,-0.1356206089258194,-0.1244624182581901,-0.6186032891273499
1774472690394482200,2.792482177734375,-1.4838532406330107,-0.4078454723536968,0.8419048517636954,-0.1405189633369445,-0.0213669352233409,-0.6209825277328491
1774472690404509200,2.80250927734375,-1.2033400167286394,-0.9615113282665608,0.7981614254966378,-0.1009055525064468,0.05377709120512,-0.7860696911811829
1774472690414537200,2.812537109375,-1.3428764977127312,-1.1372948884129523,0.5397291004970669,-0.0203934051096439,0.1373968869447708,-0.9873670935630798
1774472690424565200,2.822565185546875,-1.051790441867709,-1.468227801477909,0.3614024317391217,0.0812256261706352,0.1972961574792862,-1.171463131904602
1774472690434593300,2.83259326171875,-0.8076835793405771,-1.5560073533482848,0.2334498594343662,0.2033568620681762,0.223571702837944,-1.28916335105896
1774472690444621300,2.842621337890625,-0.5737777928322554,-1.8064933955185116,0.2486976974487304,0.3383695781230926,0.2809495031833648,-1.3425683975219729
1774472690454649000,2.852649169921875,-0.5360509965062141,-1.9795871320590372,0.4915960609689354,0.5044426918029785,0.4000418186187744,-1.3384056091308594
1774472690464676000,2.862676025390625,0.0476467173159122,-2.5947131265848875,0.1826962621442973,0.7460417747497559,0.564069926738739,-1.1681973934173584
1774472690474704400,2.872704345703125,1.0877250940799712,-2.8976088626891374,-0.1067357428833842,0.8511343598365784,0.7054017186164856,-0.9381101131439208
1774472690484732200,2.882732177734375,1.0636644195348024,-2.0543311151370407,-0.0528616754852235,0.8352801203727722,0.7804471850395203,-0.8080435395240784
1774472690494760200,2.89276025390625,0.5140986924171448,-1.46718632960096,0.0181723471589386,0.8686167597770691,0.8153333067893982,-0.7785785794258118
1774472690504788200,2.902788330078125,0.4222720571130514,-1.706160797675699,-0.2136032954528927,0.9514442682266236,0.8706737756729126,-0.7674902677536011
1774472690514816300,2.912816162109375,0.7887924163877964,-2.0240476205542683,-0.2418941549137234,1.0002150535583496,0.9504642486572266,-0.7495357990264893
1774472690524843300,2.92284326171875,0.9800210906863212,-1.9611577413991093,-0.3591358019813895,1.0125480890274048,0.8127793073654175,-0.6968351006507874
1774472690534871300,2.932871337890625,0.4429606248766183,-1.9493556599244477,-0.5946608602546155,0.9857823252677916,0.4442095756530761,-0.657501757144928
1774472690544899300,2.9428994140625,-0.2630190682679414,-2.222645362316072,-0.73339493881464,0.9809133410453796,0.1609205901622772,-0.7451049089431763
1774472690554927400,2.95292724609375,-0.2115016469985246,-2.3513570824250576,-1.024569257465005,1.0366594791412354,0.0679602846503257,-0.9322313666343688
1774472690564955100,2.962955078125,0.359166489380598,-2.100552475824952,-0.9318909737676382,1.1541357040405271,0.2091831862926483,-1.2542608976364136
1774472690574983400,2.9729833984375,1.125969192278385,-2.3528764009468257,-0.7599829398803413,1.2631733417510986,0.4122459888458252,-1.6304340362548828
1774472690585011200,2.98301123046875,1.357636844471097,-2.347715072660893,-0.7415443430006503,1.338757872581482,0.5340003967285156,-1.9308806657791135
1774472690595038200,2.9930380859375,1.0996358966261148,-2.153132850150764,-0.8076070069730281,1.4351691007614136,0.6217020153999329,-2.158110380172729
1774472690605066200,3.003066162109375,0.8804945485293865,-2.114726839388907,-0.892152691488713,1.5397320985794067,0.681000828742981,-2.3249053955078125
1774472690615094300,3.01309423828125,0.6900789441794156,-2.119229557635635,-0.8537573482513428,1.6676636934280396,0.7877339124679565,-2.4370250701904297
1774472690625122300,3.023122314453125,0.5201794736355543,-1.924595458807796,-0.9641801821496336,1.7951982021331787,0.8830884099006653,-2.475003480911255
1774472690635150000,3.033150146484375,0.4054173684239387,-1.594926282068342,-0.8725281727600842,1.8855271339416504,0.825283408164978,-2.431383848190308
1774472690645178400,3.043178466796875,0.5299427427589893,-1.2778151197373866,-0.5212814435280859,1.9266005754470823,0.6626273393630981,-2.3159520626068115
1774472690655205400,3.053205322265625,0.8940759146362542,-0.8883519840314984,-0.133782812828198,1.9449890851974487,0.598440945148468,-2.140695810317993
1774472690665233200,3.063233154296875,1.236565994504094,-0.5463396046780049,-0.2042666542436927,1.9228785037994385,0.6557444334030151,-1.9036543369293213
1774472690675261200,3.07326123046875,1.356879304102063,-0.4282563922196626,-0.4346914667684584,1.8327385187149048,0.6871159076690674,-1.6018058061599731
1774472690685289200,3.083289306640625,1.1173095004826783,-0.5251411876961588,-0.5700005393158644,1.7294844388961792,0.5646650791168213,-1.2682507038116455
1774472690695317200,3.093317138671875,0.683142422914505,-0.6250090906366705,-1.046136873085424,1.6633262634277344,0.3679019808769226,-0.9885969758033752
1774472690705345300,3.10334521484375,0.3887994111001491,-0.6225324713900685,-0.8717669060640036,1.6033750772476196,0.1116350591182708,-0.7770544290542603
1774472690715373300,3.113373291015625,0.2686696413755416,-0.6309218218117952,-0.394822434249334,1.5867338180541992,-0.0948038697242736,-0.6131312847137451
1774472690725400300,3.123400390625,0.3260702754646539,-0.5092208572477102,-0.347930298160389,1.5992050170898438,-0.2855154871940613,-0.4547908902168274
1774472690735428400,3.133428466796875,0.5898012913942337,-0.5319815551102162,-0.037748569766432,1.5740203857421875,-0.2515628337860107,-0.3388105034828186
1774472690745456000,3.1434560546875,0.902398337301612,-0.6147925247877836,0.2417990970414131,1.5519342422485352,0.0617114268243312,-0.2541336119174957
1774472690755484400,3.153484375,0.897607011371851,-0.4753831773146986,0.0986360778569243,1.525727152824402,0.4088867008686065,-0.1887732446193695
1774472690765512200,3.16351220703125,0.5143494523078203,-0.4098001135528087,0.0539846653328975,1.4580522775650024,0.6128491163253784,-0.1480652987957
1774472690775540200,3.173540283203125,-0.0684101038813591,-0.4937096921220421,0.4760561812054366,1.4021722078323364,0.6174244284629822,-0.1509215533733368
1774472690785567200,3.183567138671875,-1.1441595134854317,-0.3160834267184138,1.2029659957844765,1.3500901460647583,-0.4626290202140808,-0.005986513569951
1774472690795595300,3.19359521484375,-4.857572133606672,2.613326349379122,4.018268842643499,1.607603907585144,-1.0351747274398804,0.1410868167877197
1774472690805623300,3.203623291015625,-1.8373299939394,1.5011436903908848,0.1481570646121166,1.7690271139144895,-0.8958760499954224,0.0817197561264038
1774472690815651000,3.213651123046875,0.5232493826001883,0.5625476660266518,1.710819729397446,1.8513129949569704,-0.6957085728645325,-0.0310573913156986
1774472690825679400,3.223679443359375,0.136913731265068,0.8491855102911591,1.6111751138187944,2.024515390396118,-0.9147709012031556,-0.0940708070993423
1774472690835707000,3.233706787109375,-0.6578501607477665,0.194881936109066,1.1304095858786254,2.1368188858032227,-0.9953781366348268,-0.152201235294342
1774472690845735000,3.24373486328125,-0.4566670786678791,-0.0930538390114903,1.5696579852990806,2.2840576171875,-1.246097445487976,-0.1418318450450897
1774472690855761700,3.25376171875,-1.2190823602616787,-0.0305175955995917,1.4588118844874205,2.3641159534454346,-1.537715196609497,-0.0488667674362659
1774472690865790000,3.2637900390625,-1.4752186832785603,0.1648953786462545,1.9660475592672824,2.323336124420166,-1.964811444282532,0.0480338707566261
1774472690875817700,3.273817626953125,-2.182107307961583,0.5780117771402001,2.45722919421643,2.1801540851593018,-2.266071319580078,0.129927396774292
1774472690885846000,3.283845947265625,-1.90062786937356,0.9738733817115426,2.617064366863668,2.017384529113769,-2.3939197063446045,0.2049067169427871
1774472690895873800,3.293873779296875,-1.1459130791544914,0.9012424452647566,2.421026246456801,1.8256174325942995,-2.297109842300415,0.2693603038787842
1774472690905901800,3.30390185546875,-0.3462117307394742,0.6727233202308416,2.4029987145960328,1.6328996419906616,-1.9133849143981931,0.3267313241958618
1774472690915928800,3.3139287109375,0.2814385220557451,0.564953265863657,2.163664473298192,1.454822063446045,-1.3541961908340454,0.4187107980251312
1774472690925956900,3.323956787109375,0.584254178661108,0.4061915676668286,1.7287069760046898,1.309540629386902,-0.786955714225769,0.5480497479438782
1774472690935985000,3.33398486328125,0.55097851652503,0.1859668082475662,1.2490665796369314,1.226868987083435,-0.2984254360198974,0.670367419719696
1774472690946013000,3.344012939453125,0.3788660461068153,-0.0700143242076039,1.0751873187419023,1.2197909355163574,0.0462104864418506,0.7291787266731262
1774472690956041000,3.354041015625,0.1626373705863952,-0.2756660761341452,1.149249749296531,1.2669538259506226,0.2586886584758758,0.7182232737541199
1774472690966069000,3.364069091796875,-0.0209235455632209,-0.3930573608055711,1.376415194699168,1.342312574386597,0.349368542432785,0.6478023529052734
1774472690976096800,3.3740966796875,-0.2193663890242576,-0.455012881720066,1.5741558812402188,1.428117752075195,0.2918605208396911,0.5333902835845947
1774472690986123800,3.384123779296875,-0.429227283078432,-0.4522615371853113,1.6605913250252604,1.4954042434692385,0.0844564363360405,0.3900451958179474
1774472690996151800,3.39415185546875,-0.6358002415031194,-0.4633993095323443,1.7919577974267302,1.5203546285629272,-0.1835656911134719,0.2040915787220001
1774472691006179800,3.404179931640625,-0.8181833460450172,-0.4788964461326598,1.7775497712373731,1.535605788230896,-0.475454568862915,0.0086080953478813
1774472691016208000,3.414207763671875,-1.0209159956544638,-0.5721256417110562,1.555684405004233,1.5271466970443726,-0.7572545409202576,-0.1999504417181015
1774472691026236000,3.42423583984375,-1.193814648014307,-0.8716399186834692,1.4646289002031088,1.508557677268982,-0.9927034974098206,-0.4275998771190643
1774472691036264000,3.434263916015625,-1.3453344122588633,-1.3655790356472133,1.3007722169548273,1.528796911239624,-1.0979444980621338,-0.6716956496238708
1774472691046291700,3.444291748046875,-1.5956278544664382,-2.013513074797392,0.8242322708204388,1.6179041862487793,-1.2093183994293213,-0.9061477184295654
1774472691056318700,3.454318603515625,-1.85152276994288,-2.7002351097643373,0.4759714985966682,1.755025863647461,-1.4018806219100952,-1.1273202896118164
1774472691066347000,3.464346923828125,-2.024530727896094,-3.392067327351868,0.6224050456181168,1.9219043254852293,-1.5470317602157593,-1.386019229888916
1774472691076374800,3.474374755859375,-2.161909738585353,-3.992224300804734,0.9176997321341186,2.1548123359680176,-1.6210817098617554,-1.6715444326400757
1774472691086402800,3.48440283203125,-2.284859241905808,-4.057947649820148,1.1484083300363273,2.4143524169921875,-1.7846674919128418,-1.920369863510132
1774472691096430800,3.494430908203125,-2.3161317475259304,-3.785862939304113,1.9480708808109164,2.6553597450256348,-2.0768418312072754,-2.1378626823425293
1774472691106459000,3.504458984375,-2.265413952201605,-3.62236339893043,2.4692872962787744,2.8911447525024414,-2.5389280319213867,-2.308837413787842
1774472691116486000,3.51448583984375,-2.171070950162411,-3.5045319692760706,2.540443776258826,3.0835418701171875,-3.1029844284057617,-2.4448390007019043
1774472691126514000,3.524513916015625,-2.0576339560747146,-3.487307570491731,2.4583266340643166,3.256755113601685,-3.705954551696777,-2.5456409454345703
1774472691136542000,3.5345419921875,-1.7904717966526746,-3.2902494593873617,2.3168377038381998,3.400542020797729,-4.232032775878906,-2.593504905700684
1774472691146570000,3.544570068359375,-1.3505360725551845,-2.791627445304393,2.5542174500674006,3.5127031803131104,-4.622162342071533,-2.5920965671539307
1774472691156597800,3.55459765625,-0.8391302724838257,-2.1250129633426664,2.760832201807201,3.5864264965057373,-4.926354885101318,-2.521800756454468
1774472691166626000,3.5646259765625,-0.3762245916873216,-1.5167700063288212,3.0064781104698777,3.5974507331848145,-5.198716640472412,-2.4038984775543213
1774472691176653800,3.57465380859375,0.0753664988905191,-1.1790256596833466,3.256238176453113,3.5588536262512207,-5.476817607879639,-2.35089373588562
1774472691186680800,3.584680908203125,0.4664665881484747,-1.5379682771801948,2.6035285934641954,3.4753873348236084,-5.572175025939941,-2.334700107574463
1774472691196708900,3.594708984375,0.935419732415676,-1.4038064749717711,3.1746590866580604,2.9380650520324707,-6.485081672668457,-2.4395194053649902
1774472691206737000,3.60473681640625,-4.671308388239145,4.648143785750865,8.094373788183928,2.2831599712371826,-6.310810565948486,-1.517640471458435
1774472691216765000,3.614764892578125,1.9204010758578776,6.676824619063734,6.675113138970732,2.3022401332855225,-5.457566261291504,0.2250101715326309
1774472691226792700,3.624792724609375,2.8994682268202303,5.690795227873325,3.978406495593488,2.1635353565216064,-4.690364360809326,1.0175868272781372
1774472691236821000,3.634821044921875,3.457338256424665,2.5899603790998458,4.435722685819864,2.0842154026031494,-3.542771816253662,1.9712225198745728
1774472691246848800,3.644848876953125,4.56118797135353,1.8130717509955168,2.8820898065179583,1.491592288017273,-2.8897664546966557,2.282423496246338
1774472691256875800,3.654875732421875,2.9640438671052456,2.2536633086532354,1.4772501891061662,0.6739059090614319,-2.6343061923980717,1.914750933647156
1774472691266903800,3.66490380859375,1.7909686402589082,1.7208090623617172,1.92952575481683,-0.0092998007312417,-2.3597192764282227,1.3533411026000977
1774472691276931800,3.674931884765625,1.1253636276006698,1.356853585138917,2.3550746416434643,-0.4464116096496582,-1.9471503496170044,0.7738953232765198
1774472691286959900,3.6849599609375,1.1256401064544916,0.8838368446946143,1.959977591703832,-0.8934119939804077,-1.4947943687438965,0.169266402721405
1774472691296987600,3.694987548828125,1.393722887852788,-1.047279101923108,1.9604069230318069,-1.3499810695648191,-1.19365131855011,-0.1978527307510376
1774472691307016000,3.705015869140625,1.9130682487517596,-2.868520715370774,1.4451517540559171,-1.6115049123764038,-1.530604600906372,-0.1236085593700409
1774472691317043700,3.715043701171875,2.226609882032871,-3.792645731312036,-0.6943176046624779,-1.579570174217224,-2.5170297622680664,0.1879450678825378
1774472691327071000,3.725071044921875,0.9316425519645214,-5.232202149578929,-3.068092270600796,-1.364501714706421,-3.895822525024414,0.4550736248493194
1774472691337098800,3.7350986328125,-0.3287608297228813,-6.52871437100172,-3.9431443358153104,-1.0711675882339478,-5.17753791809082,0.6546067595481873
1774472691347127000,3.745126953125,-0.6509212382674217,-6.08682049857378,-4.264780428224801,-0.9533540606498718,-6.235861778259277,0.8340118527412415
1774472691357154800,3.75515478515625,-1.0848638594299551,-5.777261797448992,-4.33811629807055,-0.8871987462043762,-6.827831268310547,0.9577447175979614
1774472691367182800,3.765182861328125,0.4451423528298735,-6.943892670461535,-4.318886112421751,-0.780174970626831,-6.763484954833984,1.014385461807251
1774472691377211000,3.7752109375,2.472053546121717,-7.387276489186286,-3.7338954361796377,-0.7297980785369873,-6.239445686340332,1.0163182020187378
1774472691387239000,3.785239013671875,2.8217078185305,-5.714592283046246,-1.8130694129079576,-0.9963534474372864,-3.950707674026489,-0.0657965913414955
1774472691397266000,3.795265869140625,-0.730653238891065,-2.4182874691426752,-0.3174257812380791,-1.4939587116241455,-2.998272180557251,-1.2320683002471924
1774472691407293700,3.805293701171875,-0.2154234966173767,-1.6458803703665732,-0.2430523850381374,-1.8017897605896,-1.6805673837661743,-2.442984104156494
1774472691417322000,3.815322021484375,1.6243153120294211,-3.934757031220197,-0.096788057103753,-1.975780248641968,-0.7905765771865845,-3.2041237354278564
1774472691427349800,3.825349853515625,1.242550914132595,-5.0217152325809,-0.5598392838507891,-2.2613117694854736,-0.5794747471809387,-3.4865219593048096
1774472691437378000,3.8353779296875,0.7005234735652804,-4.683381103348732,0.1354699621975421,-2.4842844009399414,-0.7808552384376526,-3.385406970977783
1774472691447405800,3.84540576171875,0.6839585616029799,-3.629752924659848,0.6038900225013494,-2.6125526428222656,-1.159249186515808,-3.032210111618042
1774472691457433900,3.855433837890625,1.1912972583658992,-4.25650301374495,1.852282648399472,-2.6099886894226074,-1.4706746339797974,-2.5078694820404053
1774472691467460900,3.8654609375,1.6593763962775467,-4.005632063910365,2.470366615948081,-2.605215311050415,-1.8432005643844604,-1.8887780904769895
1774472691477488600,3.875488525390625,1.4903371958248317,-3.581583060252666,3.618568682822585,-2.643963575363159,-2.1819751262664795,-1.248632788658142
1774472691487517000,3.885516845703125,1.3362848443627358,-3.4721222763195634,4.605431017705798,-2.7057671546936035,-2.2962305545806885,-0.5905660390853882
1774472691497544700,3.895544677734375,1.4130436743944883,-3.683537998600304,5.18814731927514,-2.7051987648010254,-2.1539082527160645,0.0722534656524658
1774472691507573000,3.905572998046875,0.9975536786369978,-4.265383654814959,5.092683788773417,-2.652790069580078,-1.8709720373153689,0.7354292869567871
1774472691517600800,3.915600830078125,-0.0462117891419678,-4.944361943787336,4.456760213151574,-2.711364269256592,-1.5542614459991455,1.3419581651687622
1774472691527628000,3.9256279296875,-1.1855588608443737,-5.403414456287026,3.637822833868861,-3.0671839714050293,-1.1369352340698242,1.87327253818512
1774472691537655800,3.93565576171875,-1.9173878655165435,-5.9591106489837165,3.069794398343563,-3.9060423374176025,-0.3967699110507965,2.2841031551361084
1774472691547683800,3.945683837890625,-2.881861842980981,-7.191848609632253,3.4652450840264555,-5.170337677001953,0.4164000153541565,2.4685559272766118
1774472691557712000,3.9557119140625,-4.131078060221672,-6.725606477889418,2.963375174063444,-6.042392253875732,1.2529428005218506,2.428924322128296
1774472691567740000,3.965739990234375,-5.566954913192987,-3.489332938839495,0.4130032935082912,-6.082525730133057,1.9178729057312007,2.149441719055176
1774472691577768000,3.975767822265625,-7.807665216770768,-1.9655701510138808,-1.223455168518424,-5.675264835357666,2.225290060043335,1.6171696186065674
1774472691587796000,3.9857958984375,-9.690898299229143,-1.5707643391057848,-2.43506383189857,-5.323788642883301,2.302891731262207,1.0761494636535645
1774472691597823700,3.99582373046875,-9.83654712561369,-0.8539859693754464,-4.09464013466239,-4.857890129089356,1.668188214302063,1.4805529117584229
1774472691607850800,4.005850830078125,-11.87402676693201,-1.7233548013217743,-5.44376692494154,-4.022736549377441,-0.0678313970565795,2.199328899383545
1774472691617879000,4.015879150390625,-14.32729202595353,-0.8062936593521386,-3.983863299694657,-3.721925973892212,-0.5202800631523132,1.6871180534362793
1774472691627906800,4.02590673828125,-12.69886197208166,3.3273820892125365,-2.975253827905654,-4.066251277923584,0.0996068343520164,0.4991645812988281
1774472691637934800,4.035934814453125,-13.93864692863226,5.629977478817105,-3.312712927868962,-4.329334735870361,0.3663946092128753,-0.6244726181030273
1774472691647963000,4.045962890625,-16.249986765706538,5.583989050102233,-3.915663623693585,-4.34808349609375,0.4193896353244781,-1.8057146072387693
1774472691657991000,4.055990966796875,-15.49995048869252,5.015265033528208,-6.912507352116704,-3.988616704940796,0.4580028057098388,-2.9937775135040283
1774472691668018000,4.066017822265625,-14.497580788075924,3.9328260631576177,-8.844770130681992,-3.374876976013184,-0.1481563448905944,-4.190865993499756
1774472691678045700,4.076045654296875,-12.80108549823761,4.158175910505652,-8.467989658677578,-2.665695905685425,-0.757357656955719,-5.36054277420044
1774472691688074000,4.086073974609375,-10.802594636005162,4.984707982701063,-8.317250815677642,-2.044087171554565,-1.5434108972549438,-6.388631820678711
1774472691698101800,4.096101806640625,-8.148334510952234,5.0692719335258,-6.882213336139917,-1.486354112625122,-2.245401620864868,-7.245566368103027
1774472691708129800,4.1061298828125,-3.873030350625515,4.811718144926428,-5.600605253860354,-0.6678496599197388,-0.8937075138092041,-5.086783409118652
1774472691718157800,4.11615771484375,26.028390329909325,3.9699122234925626,-7.706493830016255,0.5357169508934021,0.6832891702651978,-0.7345433831214905
1774472691728185900,4.126185791015625,31.33171067328453,4.777880757254362,-12.105806062805652,0.9571600556373596,1.8629584312438965,3.464670419692993
1774472691738214000,4.1362138671875,20.453531511723995,12.6353431473732,-5.455639149042963,0.650700032711029,1.1333996057510376,4.752752304077148
1774472691748241000,4.146240966796875,3.360339186918736,13.12682785692215,-2.014342511358857,0.8180450201034546,0.575386643409729,4.447997570037842
1774472691758269000,4.15626904296875,5.045886966285109,5.565023652869463,-4.365393596574664,1.5103598833084106,1.1005280017852783,4.749731063842773
1774472691768297000,4.166296875,13.134688507294657,-0.6047670975968241,-5.107137261539697,1.80694842338562,1.3967300653457642,5.6648054122924805
1774472691778324700,4.17632470703125,10.107240381771325,-5.339708584573865,-2.369799624827504,1.1228866577148438,0.9381284117698668,5.65261173248291
1774472691788353000,4.18635302734375,2.294455922290682,-5.472762133279442,2.429388124349713,0.8451102375984192,0.8758975267410278,5.051571369171143
1774472691798380800,4.196380859375,2.7133088186100123,-4.505631796087324,1.9667571688413616,0.5194045305252075,0.86146479845047,4.279539108276367
1774472691808407800,4.20640771484375,4.029179528236389,-4.136917726160585,0.8080302008211612,0.4406941533088684,1.0619075298309326,3.584871768951416
1774472691818435800,4.216435791015625,4.041581913691759,-1.9790303749591112,0.5659457840323447,0.569324791431427,0.9569910168647766,2.903919219970703
1774472691828463900,4.2264638671875,3.1665304329991337,-2.1774118436217305,0.4531710532456636,0.7234097123146057,0.7465329170227051,2.1704084873199463
1774472691838491600,4.23649169921875,3.1953999691307544,-2.7730148070320486,0.0054670332342386,0.7970772981643677,0.5316120982170105,1.4710170030593872
1774472691848519700,4.246519775390625,2.8816648591041565,-2.4758397866621613,-0.6722276456683873,0.7254268527030945,0.3864423632621765,0.8055105209350586
1774472691858547700,4.256547607421875,2.790828403881192,-1.5104580467030404,-1.0066980852097271,0.5504047274589539,0.3842918574810028,0.2313063889741897
1774472691868575700,4.26657568359375,2.784755805969238,-0.4224091274961828,-0.9304746772289276,0.2815080881118774,0.5411754846572876,-0.2252681255340576
1774472691878602800,4.276602783203125,2.503371059927344,0.3399342579051852,-0.645002954134345,-0.0749959647655487,0.7235332727432251,-0.5415344834327698
1774472691888630800,4.286630859375,1.9378987386256452,0.5200304205536842,0.2207090358048677,-0.5041766166687012,0.9190098643302916,-0.6863607168197632
1774472691898658800,4.296658935546875,1.4424258362233635,0.474865875442326,1.3526263228327036,-1.0430821180343628,1.1307047605514526,-0.6507523655891418
1774472691908686800,4.306686767578125,1.2756886291027068,0.3743368782445788,2.535553666129708,-1.729827880859375,1.4818124771118164,-0.4137287139892578
1774472691918715000,4.31671484375,1.5758248373657464,-0.1287365622892975,2.7681320034265515,-2.215998888015747,2.08978271484375,-0.0944692566990852
1774472691928743000,4.326742919921875,1.8090917414486407,-1.1074819339513775,1.6966607095330952,-2.485522747039795,2.8421549797058105,0.2528961300849914
1774472691938770700,4.336770751953125,2.0003376591429114,-1.4983856238543989,1.2606751843661068,-2.6763665676116943,3.417840480804444,0.5646920800209045
1774472691948797700,4.346797607421875,0.9961948113739488,-1.5050120562568303,1.8897633610099556,-2.7496225833892822,3.3256020545959477,0.5557979941368103
1774472691958825700,4.35682568359375,-2.281674474389851,-2.043115016856789,3.1589643816590307,-2.790175199508667,2.461779356002808,0.1073373779654502
1774472691968853800,4.366853759765625,-5.012085818970203,-2.4152429868802425,3.390141035464406,-2.9004876613616943,1.0442993640899658,-0.8328971862792969
1774472691978881800,4.3768818359375,-8.893483600446581,-2.6717206706807017,4.3471325482189656,-3.079357147216797,-0.1482117176055908,-2.1737170219421387
1774472691988909800,4.386909912109375,-8.885646330949664,-3.2346593818515537,3.9122950240433214,-3.2129836082458496,-0.9971693754196168,-3.507820844650269
1774472691998937900,4.396937744140625,-8.150639865285157,-3.820226981198788,2.7840041108191014,-3.389243125915528,-1.7250232696533203,-4.66240930557251
1774472692008965600,4.406965576171875,-7.825307256445289,-3.72409943383038,2.385134556603432,-3.5700325965881348,-2.2908849716186523,-5.6077070236206055
1774472692018993000,4.416992919921875,-6.613868688935041,-3.1910973035007717,2.132207258760929,-3.700907468795776,-2.6681628227233887,-6.36647891998291
1774472692029020700,4.427020751953125,-4.93743419035077,-2.757514747822285,1.3828075260847803,-3.715731143951416,-2.97715425491333,-6.925187587738037
1774472692039048700,4.437048583984375,-3.433387471994757,-2.5978163532972336,0.263062907409668,-3.570679187774658,-3.299388885498047,-7.264106750488281
1774472692049076700,4.44707666015625,-2.169535411158204,-2.476649349479377,-1.116875200718641,-3.285752534866333,-3.659306764602661,-7.41356086730957
1774472692059104800,4.457104736328125,-0.8571016902431845,-2.262621691134572,-2.951692919576168,-2.8422462940216064,-3.978675365447998,-7.447445392608643
1774472692069132800,4.4671328125,0.8525748604685067,-1.6958143218368291,-4.851294953033328,-2.1952145099639893,-4.11985969543457,-7.382972240447998
1774472692079160600,4.47716064453125,2.9140526324898004,-0.661888622483611,-6.35185616736114,-1.405866265296936,-4.082022190093994,-7.1589202880859375
1774472692089188900,4.48718896484375,5.036490192386507,0.5789592871233821,-7.004990405502915,-0.5842797756195068,-3.968806028366089,-6.655849933624268
1774472692099216000,4.4972158203125,6.853610341989993,1.6170900369510053,-6.805158153510093,0.1899184286594391,-3.872904539108277,-5.819283962249756
1774472692109244000,4.507243896484375,8.315420093119144,2.1551585107594726,-6.159510471731424,0.9227776527404784,-3.7426888942718506,-4.638978004455566
1774472692119271700,4.517271728515625,9.6335958648175,2.500939156605303,-5.315019548997283,1.5912166833877563,-3.508497476577759,-3.2449450492858887
1774472692129300000,4.527300048828125,10.528908627772331,2.6603818228036165,-4.483934635803103,2.12622594833374,-3.2156524658203125,-1.788038969039917
1774472692139327700,4.53732763671875,10.42499232622385,2.654760183529556,-3.539164306718111,2.481720209121704,-2.921318769454956,-0.4066163301467895
1774472692149355800,4.547355712890625,9.37337081118226,2.588824945329129,-2.341860063022375,2.7136940956115723,-2.7605621814727783,0.766304612159729
1774472692159383800,4.5573837890625,7.425041279435157,2.01676550072208,-1.428869020035863,2.867297410964966,-2.787626028060913,1.6434690952301023
1774472692169410800,4.567410888671875,5.056791806659102,1.0004409245111048,-0.6239239257484674,2.966373920440674,-3.0120527744293213,2.197696685791016
1774472692179438800,4.57743896484375,2.4788965438842774,-0.0153251410342752,-0.1693932745873927,2.994050979614258,-3.341639518737793,2.432060480117798
1774472692189466600,4.587466552734375,0.2695391176864504,-0.8345261396892368,-0.5944651915520429,2.881774663925171,-3.457537174224853,2.3523733615875244
1774472692199495000,4.597494873046875,-1.2693721394322812,-1.4175465387716888,-0.6326467459082603,2.7181546688079834,-3.234714269638061,2.0213212966918945
1774472692209522700,4.607522705078125,-2.53804957459867,-1.5796894038394094,-0.7062170090317725,2.5874834060668945,-2.883662700653076,1.482758641242981
1774472692219551000,4.617551025390625,-3.618924656653404,-1.3748913461327552,-0.5946972467422486,2.5310614109039307,-2.599210500717163,0.8425742387771606
1774472692229578800,4.627578857421875,-4.916048287972807,-1.1879747628796844,0.0593225420624017,2.52297306060791,-2.6906774044036865,0.2017054557800293
1774472692239605800,4.637605712890625,-6.357047890785336,-0.7353317520961165,0.3823194014310836,2.6289823055267334,-3.1051230430603027,-0.4048680961132049
1774472692249633800,4.6476337890625,-7.048593984907865,0.1897260329169221,0.2369821252137422,2.926587581634521,-3.5939090251922607,-0.9803270697593688
1774472692259661600,4.65766162109375,-6.604070348498225,0.884548938486725,0.0578618218600749,3.303318500518799,-4.115229606628418,-1.4763938188552856
1774472692269689900,4.66768994140625,-5.637247177559137,0.9177157334208488,-0.7640133644402026,3.651021718978882,-4.602226257324219,-1.8047279119491575
1774472692279717600,4.677717529296875,-4.440623317342997,0.477282508129999,-1.1810457673341035,3.886420488357544,-4.719387054443359,-1.8706400394439695
1774472692289746000,4.687745849609375,-3.31323958209157,-0.209321161154285,-1.2712731507480144,3.918586254119873,-4.341638088226318,-1.7222778797149658
1774472692299773700,4.697773681640625,-2.2913421741843223,-0.6317626565501093,-1.9129928454279896,3.635720014572144,-3.2768747806549072,-1.6085667610168457
1774472692309801700,4.7078017578125,-2.074391029608249,-0.9312693347379564,-1.0087152702510356,3.268543243408203,-2.081357002258301,-1.3439151048660278
1774472692319828700,4.717828857421875,-2.3214159715391696,-1.9594648198761044,-0.5814017118394375,2.925140142440796,-1.1742353439331057,-0.9334779977798462
1774472692329856800,4.727856689453125,-2.541600252817571,-2.3934005729064345,0.5886977140665054,2.643418550491333,-0.9023240208625792,-0.4617606699466705
1774472692339884800,4.737884765625,-2.6914509148061274,-2.053345026709139,1.4236568383455277,2.528860092163086,-0.9886913895606996,-0.0779930278658866
1774472692349912800,4.747912841796875,-2.496029757253825,-1.0922937171697615,1.7453952220857143,2.4698925018310547,-1.1904265880584717,0.0560793206095695
1774472692359940900,4.75794091796875,-2.122180516395718,-0.2059285230413079,1.357842011654377,2.3937013149261475,-1.4158682823181152,0.0501119717955589
1774472692369969000,4.767968994140625,-1.929967507234961,0.2591203072637319,0.1038514196187257,2.48501968383789,-1.6814258098602295,-0.0175540186464786
1774472692379996700,4.77799658203125,-1.235243513728678,0.259592016428709,-1.4434206924796105,2.666706323623657,-1.808404326438904,0.0119183845818042
1774472692390023700,4.788023681640625,0.3786676009252667,-0.4994710321277379,-1.789758679947257,2.7781548500061035,-1.6668972969055176,0.2040319144725799
1774472692400051700,4.7980517578125,1.3208031975924968,-1.0841326225459575,-0.6692407388120889,2.8153133392333984,-1.58029043674469,0.3567953407764435
1774472692410079700,4.808079833984375,1.1934276945233344,-0.8652247909441589,0.8051666280835866,2.6919925212860107,-1.636945724487305,0.5270366072654724
1774472692420107800,4.818107666015625,1.1109233065769075,-0.6792074215531348,2.22420632802248,2.42112135887146,-1.6874775886535645,0.5615589022636414
1774472692430135800,4.8281357421875,1.008373617206514,-0.572760140222311,2.320565346059203,2.120978355407715,-1.7158570289611816,0.4862488806247711
1774472692440163800,4.838163818359375,1.1084534093320368,-0.8331053131058812,1.0993997497826813,1.923028349876404,-1.7573879957199097,0.3722133636474609
1774472692450191600,4.848191650390625,1.6161729221060872,-1.1960977905154226,-0.3673807754963636,1.7962325811386108,-1.553469181060791,0.3504538238048553
1774472692460218600,4.858218505859375,2.3232412872701884,-1.6996809341371055,-0.8503075000584125,1.680327296257019,-1.074459433555603,0.4069165587425232
1774472692470247000,4.868246826171875,2.1272642494007945,-1.823451690712571,-0.8259843751847743,1.4648555517196655,-0.4802424907684326,0.5456611514091492
1774472692480274700,4.878274658203125,1.1824588490024208,-1.7158172454237937,-0.6326350554704666,1.2450541257858276,-0.0869311690330505,0.7340286374092102
1774472692490302700,4.888302734375,0.2089107537224888,-1.672580161243677,0.0492366168558597,1.114150881767273,0.0184514131397008,0.8846475481987
1774472692500330800,4.898330810546875,-0.4297659199997782,-2.550515672940016,0.4414379453539848,1.0278639793395996,-0.1886884570121765,0.9022291898727416
1774472692510358800,4.90835888671875,-0.778750038062036,-2.7688907128393647,0.3132920424342155,0.9514463543891908,-0.4893340170383453,0.6623974442481995
1774472692520386800,4.91838671875,-0.9842182501152156,-2.5188088675558564,0.0605745879501104,0.5993479490280151,-0.524217426776886,0.4860029816627502
1774472692530414800,4.928414794921875,-0.3863537715137005,-3.926300168520212,0.4589619116067886,0.1663767248392105,-0.3377241492271423,0.5261384844779968
1774472692540441900,4.93844189453125,0.3197419492259621,-3.398941597035527,-0.7890221334904431,-0.0714358389377594,-0.0547084361314773,0.6942108273506165
1774472692550470000,4.948469970703125,0.7475956058636307,-2.6769015804499388,-1.951956490072608,0.0474962033331394,-0.0022796080447733,0.7645086646080017
1774472692560497700,4.95849755859375,0.4988987851977348,-2.9877456452101465,-2.83380186868906,0.2856618762016296,-0.2639666199684143,0.6644979119300842
1774472692570526000,4.96852587890625,-0.2401908581271767,-3.709953419578075,-2.9371617053985597,0.5904066562652588,-0.6674147248268127,0.3859610855579376
1774472692580553700,4.9785537109375,-1.1294646331787108,-4.372307906007767,-1.9830752664357425,0.6858373284339905,-1.1255781650543213,-0.0254799723625183
1774472692590582000,4.98858203125,-1.6252812344521284,-4.217855595442653,-0.5843734211266041,0.4453523755073547,-1.4797859191894531,-0.3946392238140106
1774472692600609800,4.99860986328125,-1.3525363064616918,-3.6950808446168897,-0.0733481448054313,0.1836850494146347,-1.6125389337539673,-0.704498291015625
1774472692610636800,5.00863671875,-0.8291419624328613,-3.4283465552181003,-0.5953624326527118,0.0866835191845893,-1.62259840965271,-0.9051286578178406
1774472692620664800,5.018664794921875,-1.050703231152892,-3.192596017625928,-1.3414526023894549,0.1266218721866607,-1.6879467964172363,-1.0059325695037842
1774472692630692600,5.028692626953125,-1.6498668096542357,-2.8647417813539504,-1.6676900511145591,0.2336273342370987,-1.788151741027832,-1.0542360544204712
1774472692640721000,5.038720947265625,-2.114157807329297,-2.7031571346908807,-1.4578776723772289,0.3598001897335052,-1.9286757707595823,-1.1375786066055298
1774472692650748700,5.048748779296875,-2.4470289949804545,-2.979247865977883,-0.4835971711695194,0.4366807341575622,-2.105992794036865,-1.3180567026138306
1774472692660777000,5.05877685546875,-2.7358754552051425,-3.4787551384627817,0.8522305770754813,0.4029837548732757,-2.1862127780914307,-1.5472168922424316
1774472692670804700,5.0688046875,-2.9836914013832807,-3.650816170954704,2.199162487658858,0.2185733318328857,-2.1073343753814697,-1.7871421575546265
1774472692680832800,5.078832763671875,-3.4147406391918658,-3.534161383864283,3.211695270371437,-0.0755589604377746,-1.9063432216644287,-2.046747922897339
1774472692690859800,5.08885986328125,-4.006171577614546,-3.365070891615748,3.26474881516695,-0.3667123317718506,-1.6778264045715332,-2.4027633666992188
1774472692700887800,5.0988876953125,-4.598500926181674,-3.1250726334512238,1.844595016506314,-0.4113709032535553,-1.5204399824142456,-2.8294074535369877
1774472692710915800,5.108915771484375,-4.959952311629056,-2.9152123239189383,0.2493523619651794,-0.3556457161903381,-1.432294845581055,-3.341707706451416
1774472692720943600,5.118943603515625,-5.098821853137016,-2.846094364029169,0.1273427698433399,-0.3112731873989105,-1.38421630859375,-3.889650583267212
1774472692730972000,5.128971923828125,-4.619419795569777,-3.0430680117204782,1.0029197357147932,-0.4364953637123108,-1.1941312551498413,-4.298104286193848
1774472692740999700,5.138999755859375,-3.310083748409152,-2.546939860279858,1.811692863857746,-0.8553357720375061,-0.7846196293830872,-4.4027605056762695
1774472692751027700,5.14902783203125,-0.8526438340514898,-1.3044748708650469,1.2968459834218025,-1.1012279987335205,-0.2425601333379745,-4.044105052947998
1774472692761054700,5.1590546875,3.8293092823207378,-2.1529171615734697,-0.874581525093317,-0.4976818859577179,-1.3130446672439575,1.313659429550171
1774472692771082800,5.169082763671875,33.07644772372245,-0.607753127670288,-7.0866674027144905,0.7793537974357605,0.9809786081314088,3.1969919204711914
1774472692781110800,5.17911083984375,11.946086625492573,3.609865444146096,-6.974409973800182,-0.1575824916362762,2.2596242427825928,1.637068748474121
1774472692791138800,5.189138916015625,-1.7354168489068746,7.314820909306406,3.059495707169175,-1.3486855030059814,2.121786117553711,0.1865041404962539
1774472692801166800,5.199166748046875,-3.1490882998108862,5.23042754112184,3.993632414036989,-1.540680766105652,1.232330322265625,-0.2965258955955505
1774472692811195000,5.20919482421875,-0.10430968478024,1.502190276834369,-0.0568278026372194,-0.8852956295013428,0.1950986981391906,0.4665140211582184
1774472692821222700,5.21922265625,5.177382179632783,1.1543766638562083,-4.301687724861503,-0.4135025441646576,0.2046469300985336,0.8917060494422913
1774472692831250700,5.229250732421875,3.998315018895268,3.034545682568848,-3.441018405264616,-0.481280654668808,0.7195192575454712,0.5262734293937683
1774472692841279200,5.239279296875,1.805993190911412,3.909943492481112,-1.0870569855600596,-0.7246789932250977,1.1343554258346558,0.2545769214630127
1774472692851307300,5.249307373046875,1.666472492018342,2.5153362230092284,0.1308119072586298,-0.9737048149108888,1.311952829360962,0.2743754386901855
1774472692861335000,5.2593349609375,1.6383084738075733,0.8480766722664237,0.9065332451492548,-1.272479772567749,1.430532693862915,0.3702718615531921
1774472692871363000,5.269363037109375,1.514442440164089,0.1017258057668805,1.2288351079910993,-1.5395692586898804,1.5910016298294067,0.4959051311016083
1774472692881391000,5.27939111328125,1.2703256407648325,0.0775628398910164,0.6768336781591177,-1.7631014585494995,1.706271409988403,0.5636931657791138
1774472692891419100,5.289419189453125,0.6610632775753736,0.0639253596827387,0.0246650701791048,-1.7807780504226685,1.9515950679779053,0.4241771697998047
1774472692901447200,5.299447265625,-0.1503039587140083,-0.3864540170177817,-1.0209580812305212,-1.572640895843506,2.1318485736846924,0.0876393541693687
1774472692911475200,5.30947509765625,-1.389260063225031,-0.9275716492637992,-1.806084960848093,-1.305783748626709,1.8533620834350584,-0.2471395134925842
1774472692921502200,5.319502197265625,-2.6618068871706724,-0.9716305712208152,-1.5663655196249484,-1.2913893461227417,1.2925376892089844,-0.4179908633232116
1774472692931530200,5.3295302734375,-2.933070636692643,-0.8995248276919126,-0.5615612853378057,-1.2400462627410889,0.8620300889015198,-0.4526337385177612
1774472692941558000,5.33955810546875,-2.3191192389041184,-1.3950705030694603,-0.1367582484424114,-1.087790608406067,0.62784743309021,-0.4332030415534973
1774472692951586300,5.34958642578125,-1.4709908364504576,-0.8925131953641772,-0.9557137479037046,-0.9571837782859802,0.5223703384399414,-0.3625636696815491
1774472692961614000,5.359614013671875,-0.6681751554071903,-0.9024488984450696,-0.8666758665353059,-0.7276160717010498,0.3967027068138122,-0.3226175904273987
1774472692971642400,5.369642333984375,-0.3529150277704,-0.8006739928394555,-0.3596259235858917,-0.5125171542167664,0.0932548940181732,-0.3740170300006866
1774472692981670100,5.379670166015625,-0.8258797457665205,-0.7549220032289624,-0.3157031952291727,-0.4383339881896972,-0.2760395109653473,-0.5265064239501953
1774472692991698200,5.3896982421875,-1.100084809437394,-0.9162032830312848,0.0362824427366256,-0.4126623868942261,-0.5405928492546082,-0.7678858637809753
1774472693001725200,5.39972509765625,-0.944949777305126,-0.86098934533149,0.6417132649391889,-0.3746558725833893,-0.800775945186615,-1.002912521362305
1774472693011753000,5.4097529296875,-1.1944091067761182,-0.6274412862196564,0.1360077223360538,-0.4042536616325378,-0.9837583303451538,-1.2351263761520386
1774472693021781200,5.41978125,-0.8845803565382957,-0.1451680571302771,-0.8950029663532972,-0.3467006087303161,-0.866372287273407,-1.4898673295974731
1774472693031809000,5.42980908203125,0.6368973890900611,0.4169325957812368,-1.4103279856950044,-0.2560435235500335,-0.5743404626846313,-1.6434742212295532
1774472693041837300,5.43983740234375,1.972833273884654,0.8030746242403983,-1.4844506220042704,-0.2594848573207855,-0.16091188788414,-1.6170985698699951
1774472693051865000,5.449864990234375,2.780920757851004,1.171133006737381,-0.4726145893841981,-0.3347153663635254,0.2231200188398361,-1.4522136449813845
1774472693061893000,5.45989306640625,2.7081051124870776,1.3921853030219673,0.719455845311284,-0.5184493064880371,0.507896900177002,-1.1406745910644531
1774472693071920000,5.469920166015625,0.7912725427657366,2.304103602210432,0.5294628502875566,-0.7515080571174622,0.5640239715576172,-0.8101038336753845
1774472693081948200,5.4799482421875,-0.9847188931137324,2.673474528610706,0.2520721423178911,-0.7744967341423035,0.4993964731693268,-0.5333992838859558
1774472693091976200,5.48997607421875,-1.9156606033325196,2.649630127164721,0.3280757700681686,-0.5244454741477966,0.2724025845527649,-0.2722821533679962
1774472693102004000,5.50000390625,-2.5795062051028013,1.8418664683252568,-0.1940057377964258,-0.1478286981582641,0.015961717814207,-0.0356064811348915
1774472693112032300,5.5100322265625,-2.712111425518989,0.47636444343701,-0.1205161386936903,0.0999018028378486,-0.1954216659069061,0.0707233846187591
1774472693122060000,5.52006005859375,-2.795754169845581,-0.7126178159847855,0.5440437488257884,0.1615345329046249,-0.3188842236995697,0.0106065198779106
1774472693132088000,5.530088134765625,-2.233199197295308,-1.0801596272617575,1.1931348490566014,0.1664112508296966,-0.4230595827102661,-0.1083776131272316
1774472693142116000,5.5401162109375,-1.5312491980582474,-0.9817650117442012,1.2087298930734396,0.2497189193964004,-0.6068206429481506,-0.1649391651153564
1774472693152143400,5.550143310546875,-1.3101982169479132,-1.2624674746103584,0.7979705790996551,0.3020398318767547,-0.6925879716873169,-0.211424320936203
1774472693162171100,5.560171142578125,-0.4305103086262941,-1.3610466529145837,0.7877192341983318,0.1309620887041092,-0.5109361410140991,-0.2182177603244781
1774472693172199200,5.57019921875,0.2646031225889921,-1.0552034651815891,0.8663070332229137,-0.1524745523929596,-0.2352021783590316,-0.1208078786730766
1774472693182227200,5.580227294921875,0.5355465541154146,-1.2555524345248936,0.6504010137856007,-0.4065243899822235,0.0932390913367271,0.0439682900905609
1774472693192255200,5.590255126953125,0.9716834704518318,-1.2170770117886365,0.1997702926725149,-0.6575855016708374,0.589867353439331,0.1844764649868011
1774472693202283300,5.600283203125,1.7193115172803402,-0.6909719474963844,-0.5326952563375235,-0.867728054523468,1.3072645664215088,0.3242375254631042
1774472693212311300,5.610311279296875,3.070082567635178,-0.2733171749204397,-1.1971908464491368,-0.9684366583824158,1.9619615077972408,0.471484363079071
1774472693222339000,5.620339111328125,3.148600224032998,0.2286466969363391,-1.4944523760586976,-0.9046457409858704,2.3522348403930664,0.530589759349823
1774472693232366000,5.630365966796875,2.361344515693188,0.5320445373438298,-1.696784628173709,-0.7923341393470764,2.539116382598877,0.5378738045692444
1774472693242394000,5.64039404296875,1.8723285343453289,0.888816240542382,-1.7908920678913591,-0.7335067987442017,2.740938425064087,0.5782356262207031
1774472693252422100,5.650422119140625,1.7768799091517924,1.5453376369044185,-1.6976912216246127,-0.8138711452484131,3.113682508468628,0.603924572467804
1774472693262450200,5.6604501953125,1.908606008645892,1.5431449491657316,-1.6205097822666168,-0.9797983765602112,3.4951376914978027,0.6178321242332458
1774472693272478200,5.670478271484375,1.660961035120487,1.718974248149991,-1.2651426851689815,-1.073299765586853,3.672077894210816,0.5898720026016235
1774472693282506200,5.68050634765625,1.151732286827266,1.7474081693433223,-0.5642606074243783,-1.0262699127197266,3.5835213661193848,0.5294416546821594
1774472693292534000,5.690533935546875,-0.0778130152598023,1.2790741798877716,-0.0538531707406043,-0.8627040982246399,3.187622308731079,0.3990017473697662
1774472693302561000,5.70056103515625,-1.8245476692557332,0.316141367450729,0.6436117920368909,-0.6011015176773071,2.507773399353028,0.2084451019763946
1774472693312589000,5.710589111328125,-3.291101692302525,-0.6919817821260541,1.3827426441550257,-0.2984327673912048,1.776760458946228,0.0414434596896171
1774472693322617000,5.7206171875,-4.145466943319142,-1.5731239078439772,1.288489658486843,0.0613488443195819,1.071799874305725,-0.0457345843315124
1774472693332645000,5.73064501953125,-4.092743068869412,-1.8453791526213288,0.7941857998639344,0.5155326128005981,0.5153488516807556,-0.0992840379476547
1774472693342673200,5.740673095703125,-3.170454036183655,-1.7563775116100906,1.114628298574686,0.9539805054664612,0.051435250788927,-0.1503394842147827
1774472693352701200,5.750701171875,-2.58214619821757,-1.9641228748150168,1.40207395209074,1.2764724493026731,-0.4083792269229889,-0.2206721305847168
1774472693362729000,5.76072900390625,-2.4155270645186304,-1.631027669149637,1.5205308201670646,1.3735201358795166,-0.8111312389373779,-0.3673736751079559
1774472693372757200,5.77075732421875,-2.1936510307610035,-1.3405511235050855,1.950600399288535,1.2520568370819092,-1.221318244934082,-0.516319215297699
1774472693382784300,5.7807841796875,-2.3992659578084945,-1.2407149308770895,1.921527449539304,0.9994381666183472,-1.5746222734451294,-0.5782315731048584
1774472693392812300,5.790812255859375,-2.541703713192045,-1.2246617678292095,1.7090110725402832,0.7410698533058167,-1.7402961254119873,-0.6238072514533997
1774472693402840000,5.800840087890625,-2.066884307239949,-1.2448793570801615,1.4088655119270086,0.57889324426651,-1.607248306274414,-0.6861691474914551
1774472693412868400,5.810868408203125,-1.244885786820948,-0.9327804699532688,0.4497673822820186,0.4635486006736755,-1.08366596698761,-0.7102494835853577
1774472693422896000,5.820896240234375,0.1965899090707302,-1.0234123425148427,-0.1283703593254089,0.2560441493988037,-0.2370402216911316,-0.5304490923881531
1774472693432924200,5.830924072265625,2.4896532079592344,-1.0140328120119868,-0.3084557083189487,-0.08644700050354,0.8001939654350281,-0.1403412520885467
1774472693442952200,5.8409521484375,4.714044244898855,-0.6270343128539622,0.0193143568009138,-0.512556791305542,1.716610312461853,0.4328279793262481
1774472693452980000,5.85097998046875,5.795596495562791,0.0569312630116939,0.4565817384719848,-0.9291450381278992,2.131819009780884,1.0609225034713743
1774472693463007200,5.86100732421875,5.884302368497848,0.805115482418239,0.5896054765611887,-1.3010690212249756,2.4436702728271484,1.4573262929916382
1774472693473035000,5.871034912109375,4.831315702582896,0.9000083734251558,-0.1908703623801469,-1.4943227767944336,2.6738100051879883,1.506407618522644
1774472693483063300,5.881063232421875,2.8789097151771186,0.8597584883622824,-1.5426444522976874,-1.5157489776611328,2.7226178646087646,1.4185222387313845
1774472693493091000,5.891091064453125,1.1259902350664135,0.9347131915815174,-2.184261271125078,-1.3973915576934814,2.704756736755371,1.2962268590927124
1774472693503119000,5.901119140625,-0.4071674269616603,0.7167378185242415,-2.2978040636748074,-1.3254523277282717,2.8425815105438232,1.2106592655181885
1774472693513147100,5.911147216796875,-1.0788896073259413,0.4602839539907872,-1.7624673529177903,-1.3543567657470703,3.082765817642212,1.1690309047698977
1774472693523175200,5.921175048828125,-1.5713444770812988,0.4575027988396585,-0.8277408634632826,-1.3758718967437744,3.033391237258911,1.1294176578521729
1774472693533203200,5.931203125,-2.5431717399179936,0.7741092265188694,0.0912631562024354,-1.2337900400161743,2.5725698471069336,0.9347638487815856
1774472693543230000,5.94122998046875,-3.8893537089169024,0.128136112178117,0.222929634463787,-0.9488033056259156,1.763485312461853,0.5849440693855286
1774472693553258200,5.95125830078125,-4.238486295539141,-0.0573302722666412,0.3851730372965335,-0.7264432907104492,0.9206108450889589,0.2158946990966797
1774472693563286000,5.9612861328125,-3.660519234323501,-0.1302779465124011,0.9510767357528208,-0.6031665802001953,0.2970178425312042,-0.0492083430290222
1774472693573314300,5.971314208984375,-3.10879720595479,0.0392997812638059,1.219070669823885,-0.5115616321563721,-0.1555001437664032,-0.2104229778051376
1774472693583342000,5.981342041015625,-2.8396085091412067,-0.0785952516786754,1.2875152604967357,-0.4778856635093689,-0.5448257923126221,-0.4394369721412658
1774472693593370000,5.9913701171875,-2.508779640972614,0.0044807256106287,2.0374024844288825,-0.439443826675415,-0.866314709186554,-0.7719940543174744
1774472693603398100,6.001398193359375,-1.9326117381334305,0.4782108384886756,2.5614023931354284,-0.3389467597007751,-1.0980185270309448,-1.201022982597351
1774472693613426200,6.01142626953125,-2.286363216727972,-0.1418556081140413,2.878838695767522,-0.1956388652324676,-1.3329925537109375,-1.7732806205749512
1774472693623453200,6.021453125,-3.24759075961709,-3.009071634094417,4.142592556926608,-0.5854273438453674,-1.8658688068389893,-2.335444211959839
1774472693633481200,6.031481201171875,-2.7416379642546174,-0.6251050252918153,8.671426657164096,-0.4645598232746124,-3.288881063461304,-1.4132505655288696
1774472693643509200,6.04150927734375,6.914250980913638,-0.1367872553411871,2.082480228039622,0.482668787240982,-2.5780038833618164,-0.06282789260149
1774472693653537300,6.051537353515625,9.934244114255904,1.9530485230930148,-1.6756746201276778,0.9112893342971802,-0.8002647161483765,0.3182237148284912
1774472693663565000,6.06156494140625,5.918032788664102,3.035169951947033,-0.7598609209358692,0.9646209478378296,0.1219216138124466,0.448265016078949
1774472693673593000,6.071593017578125,2.8404595730125903,0.0101834307642653,-0.2898345944792032,1.002966284751892,0.3510921597480774,0.5450400710105896
1774472693683621000,6.08162109375,0.7299373457066715,-1.862585138966143,-1.0573580128669735,0.9802218079566956,0.3278337121009826,0.7042595148086548
1774472693693648100,6.091648193359375,0.0625835896849632,-0.2403855039164423,-0.3185235133469105,0.7507529854774475,0.3880873024463653,0.7828407883644104
1774472693703676200,6.10167626953125,0.8709446298956871,0.9629143999975174,0.0628390257507562,0.4672938287258148,0.513974666595459,0.7544251680374146
1774472693713704200,6.1117041015625,1.4729272113405167,0.2900486025560647,-0.2810650125682354,0.2484136819839477,0.2972327470779419,0.8752593994140625
1774472693723732200,6.121732177734375,0.2053833102487027,-0.2089103883963078,-0.9557324526041746,0.1169291585683822,0.038367636501789,1.0425890684127808
1774472693733760000,6.131760009765625,-1.262788230997324,0.2228055696927011,-2.3701158511698246,0.0065666763111948,0.0694527626037597,1.084050536155701
1774472693743788300,6.141788330078125,-1.1793594216823575,0.6586080664429813,-3.328320246845484,-0.1468479186296463,0.3249018490314483,1.185048222541809
1774472693753816000,6.151816162109375,0.460477284605801,0.5029890501860529,-2.882550409767032,-0.4375092983245849,0.7980683445930481,1.3973956108093262
1774472693763844400,6.16184423828125,1.59970416399464,0.1695778373740613,-1.5181810421705244,-0.9476605653762816,1.1993277072906494,1.4095574617385864
1774472693773871000,6.17187109375,0.8089316797055304,-0.6563488893393427,-0.4488157806456089,-1.3481755256652832,1.1479835510253906,0.9862985610961914
1774472693783899100,6.181899169921875,-2.668261762398481,-0.9013661447096616,-0.9895365225285292,-1.3858379125595093,0.5908811092376709,0.3378832936286926
1774472693793927200,6.19192724609375,-4.387113845473528,0.0687567253619432,-2.1400895364433525,-1.2235695123672483,-0.0679277926683425,0.1318752169609069
1774472693803955200,6.201955078125,-1.704458816063404,0.8667673442110418,-2.688889539885521,-1.1117650270462036,0.167773425579071,0.2687276303768158
1774472693813983200,6.211983154296875,0.3743581402283161,0.6416669415794313,-2.3864012155383825,-0.9758642315864564,0.7305141687393188,0.5230982899665833
1774472693824011000,6.222010986328125,-0.1539408539116382,0.2824643579721451,-1.7328209871947764,-0.8690469861030579,1.0545313358306885,0.5831491351127625
1774472693834039300,6.232039306640625,-1.6306759331025182,-0.0711852950825821,-0.3942378027617931,-0.7969545722007751,1.123106598854065,0.3948655724525451
1774472693844066600,6.242066650390625,-2.199163072180748,-0.8827465652398765,0.5619856482297182,-0.7136668562889099,0.9525960087776184,0.1510558426380157
1774472693854093600,6.252093505859375,-2.001875243973732,-1.1806304645314811,0.9908335766017436,-0.6022924184799194,0.783997654914856,-0.0548325330018997
1774472693864121600,6.26212158203125,-1.2651239804685117,-1.1066909297041594,0.9437661204785108,-0.471861183643341,0.7532629370689392,-0.1731922030448913
1774472693874149600,6.272149658203125,-0.4011269777536392,-0.999860494274646,0.7942080116957425,-0.3639737963676452,0.7508382201194763,-0.2931638062000274
1774472693884177700,6.282177734375,-0.3809796407273039,-0.8648192788831889,0.854049609196186,-0.2817593514919281,0.6413359642028809,-0.3429841101169586
1774472693894205700,6.292205810546875,-1.1721218716442583,-0.892805310178548,0.7676157728463411,-0.2833249270915985,0.4989466965198517,-0.3945188820362091
1774472693904233700,6.302233642578125,-2.209842287105322,-1.237785161035508,0.9195213215380906,-0.2875979542732239,0.2554450929164886,-0.4285197257995605
1774472693914261500,6.312261474609375,-1.3491817353367803,-0.4814009397668763,0.7690951977491378,-0.2758781909942627,0.0118658915162086,-0.462436318397522
1774472693924289800,6.322289794921875,-1.2926631447792052,0.2441427923570387,0.4583364731848239,-0.2665038704872131,-0.1190985143184661,-0.5018758773803711
1774472693934316500,6.332316650390625,-0.2655611904988065,0.33890871424973,-0.568045386660099,-0.1371770054101944,0.2425724267959594,-0.6037477254867554
1774472693944344800,6.3423447265625,0.6089326563110574,0.640482261839509,-1.8626129037559032,0.2328508496284485,0.5330175757408142,-0.6635703444480896
1774472693954372600,6.35237255859375,0.109229605525732,1.240217795009911,-2.100804989281297,0.428672581911087,0.7014803290367126,-0.5554366707801819
1774472693964401000,6.36240087890625,-0.2413911738276481,0.6230610253088176,-0.4941103818774223,0.4551457464694977,1.0586999654769895,-0.3014733791351318
1774472693974428700,6.3724287109375,0.8022399269819259,0.1815090981863439,0.6941407867908478,0.3757936656475067,1.4451218843460083,0.0746608301997184
1774472693984456400,6.38245654296875,1.384923495325446,0.1807470643052831,1.3334165954500437,0.297960102558136,1.7644128799438477,0.3818165063858032
1774472693994484700,6.392484619140625,1.89236565246284,0.1449797680165618,1.0984604231059552,0.2729344964027405,2.038757562637329,0.5791438817977905
1774472694004512500,6.402512451171875,2.167913947436213,0.3894589709874242,1.5335615666538476,0.297664076089859,1.8319509029388428,0.638081431388855
1774472694014539800,6.412539794921875,0.807985777157545,0.1633965731895528,3.294653539565205,0.0669135302305221,1.3260353803634644,0.5433813333511353
1774472694024567600,6.422567626953125,-0.9790934544473886,-0.5866540063444524,4.729350242841243,-0.2958175241947174,1.0510350465774536,0.4443691968917846
1774472694034595800,6.432595947265625,-0.962781859659031,-0.5329853983905166,3.820270235818625,-0.6087806224822998,0.8094552755355835,0.5093519687652588
1774472694044623600,6.44262353515625,-0.71769175824821,-0.4202760609902441,2.918383355170488,-0.7439680099487305,0.5236368775367737,0.6131465435028076
1774472694054651600,6.452651611328125,-0.6445077910285443,0.3029630657194182,1.2821025877982375,-0.7129694223403931,0.2437878400087356,0.7031641602516174
1774472694064679700,6.4626796875,-0.1308872375171631,0.5210336062468588,0.6265367385953664,-0.6929659247398376,-0.1961834132671356,0.7822446227073669
1774472694074707700,6.472707763671875,-0.6504957063317298,-0.6262599674805999,0.9267173705220222,-0.6341739296913147,-0.5215779542922974,0.4925430417060852
1774472694084734700,6.482734619140625,-1.944554104861617,-1.2397827645935118,0.5045411749988794,-0.5303421020507812,-0.3453606069087982,-0.0836294740438461
1774472694094762500,6.492762451171875,-0.9300889658469708,-0.6712646458551287,0.0100192897111177,-0.3725048303604126,0.0300903245806694,-0.3114083707332611
1774472694104790800,6.502790771484375,1.6537988884061574,-0.3112574678666889,-0.3659802610486745,-0.2467538118362426,0.6227357983589172,-0.0944302454590797
1774472694114818600,6.512818603515625,3.735106565535068,0.4694225884098559,-0.240449509063363,-0.1714959740638733,0.9328821897506714,0.0672970712184906
1774472694124846600,6.5228466796875,3.1834149323046206,1.0868481651149688,-0.032243981000781,-0.0438400134444236,0.6250007748603821,0.1474430412054062
1774472694134874600,6.53287451171875,2.9958921267867087,1.251523325139284,-0.0515098224848508,0.1787169575691223,-0.3268488943576813,0.2120056897401809
1774472694144902700,6.542902587890625,1.4422452189594506,1.532138694243878,-0.4710404719352722,0.3055407106876373,-1.1657090187072754,0.2671866416931152
1774472694154930700,6.5529306640625,1.018563295048475,2.818389487762749,-0.8784294326931238,0.5616486668586731,-1.8636858463287356,0.4880356788635254
1774472694164957700,6.562957763671875,0.5385463935185224,3.295743380628526,-1.8271160584390165,0.8432795405387878,-2.205348253250122,0.5092498660087585
1774472694174985700,6.57298583984375,-0.2505804424554109,3.735916712874174,-1.807382014921308,1.1688064336776731,-2.6812477111816406,0.3463259935379028
1774472694185013800,6.583013671875,-1.4383745150059462,2.5590076069533825,-1.5511942539781332,1.5702677965164185,-3.545975923538208,0.1880596578121185
1774472694195041500,6.59304150390625,-2.1446739416241645,0.6672736034575849,-1.4705810866057871,1.966232657432556,-4.370565891265869,-0.0281041618436574
1774472694205069600,6.603069580078125,-3.61799994302392,-1.5444935872957108,-1.3060679852753876,1.926273822784424,-3.973917007446289,-0.008486253209412
1774472694215097600,6.61309765625,-5.0705005985379215,-4.232662119430303,-1.7055752528727053,1.58635413646698,-2.237367391586304,0.1777042597532272
1774472694225125600,6.623125732421875,-6.7366907664835445,-5.073416193723678,-2.876298363634944,1.269466996192932,-1.0992721319198608,-0.0299394819885492
1774472694235153700,6.633153564453125,-7.275248192852735,-3.972888901215792,-3.188896578586101,1.1091591119766235,-0.920789897441864,-0.5070478320121765
1774472694245180700,6.6431806640625,-4.268357702189683,-2.530522686225176,-2.889039771786332,0.9470157027244568,-0.9286526441574096,-1.0006301403045654
1774472694255208700,6.653208740234375,-0.4477706555068492,-1.620130719821155,-1.666944201183319,0.8166393637657166,-0.6886621713638306,-1.3104290962219238
1774472694265236700,6.66323681640625,2.0154710769973696,-1.500210793454945,-0.8358452594637871,0.7210933566093445,-0.408844381570816,-1.314670443534851
1774472694275264800,6.6732646484375,1.514624664863199,-0.9356552216719836,-0.9956026906996964,0.5592613220214844,-0.7095870971679688,-1.1390602588653564
1774472694285292500,6.68329248046875,-0.721158557575941,0.6090905868191272,-0.9523369649469852,0.3132219910621643,-1.3101729154586792,-0.9613956809043884
1774472694295320800,6.69332080078125,-1.9367931154713036,4.185195434856414,1.0510153658419847,0.1462099999189376,-1.901771903038025,-1.0100345611572266
1774472694305348600,6.7033486328125,-1.9135478489622475,4.960065708875656,0.6597492723673581,0.0700603649020195,-2.171029567718506,-1.1583521366119385
1774472694315375600,6.713375732421875,0.8625380360782146,3.202880680274963,-0.3580500525712967,-0.0973953828215599,-1.5414456129074097,-1.2168141603469849
1774472694325403600,6.723403564453125,4.271562635710835,0.0117475017432123,0.4880804540634155,-0.4749991297721863,-0.739861011505127,-1.2026687860488892
1774472694335431700,6.733431640625,3.520250347411632,-1.9007462350562212,2.183948551914096,-0.8744163513183594,-0.624849796295166,-1.060655117034912
1774472694345459700,6.743459716796875,0.0482686486065387,-1.174031285462156,1.4366986907482149,-1.0433882474899292,-0.9773271679878236,-0.6754120588302612
1774472694355487500,6.753487548828125,-1.411717394226789,0.0080060136599466,0.3262210821121931,-0.985563337802887,-0.9014264941215516,-0.407934159040451
1774472694365515800,6.763515869140625,-0.364755979950726,0.181501864727959,-0.6349900941640139,-0.9167243242263794,-0.2329570800065994,-0.3181089460849762
1774472694375543600,6.77354345703125,1.4821747860267758,-1.2987448027804491,-0.0622287848979234,-0.7927505970001221,0.5461059212684631,-0.1245587915182113
1774472694385571800,6.78357177734375,2.111401786619425,-3.148881379061937,1.0582932478904723,-0.5616318583488464,0.4913979470729828,-0.1192806735634803
1774472694395599600,6.793599609375,-0.5928653551399707,-2.8146158144429325,1.0730652850866318,-0.3414345979690552,0.1790536642074585,-0.1837166100740432
1774472694405627000,6.803626953125,-0.7678171406373381,-1.3600034274719657,-0.2946966475576162,-0.0024842265993356,-0.0809938833117485,-0.0824589803814888
1774472694415654700,6.813654541015625,0.3001230565205216,-3.1304055189117785,-1.123518876516819,0.3477257192134857,0.102675013244152,0.1969396471977234
1774472694425682400,6.823682373046875,0.8668672974541782,-2.648028244926035,-2.3222411703169343,0.4787162244319916,0.2576936185359955,0.4437691271305084
1774472694435710700,6.833710693359375,0.2626651402637362,-0.6714509622074664,-0.8836281703799963,0.4486588537693023,0.766914963722229,0.3556523025035858
1774472694445738500,6.843738525390625,1.3398163794897495,1.2285616978771985,3.0652070705533028,0.2692406177520752,1.1710405349731443,0.1622977256774902
1774472694455766800,6.853766845703125,1.0281009387224913,2.1607867259047926,3.3616461778640745,0.0851792767643928,1.4847880601882937,-0.0374339558184146
1774472694465794600,6.863794677734375,1.485145326270163,1.631238243160397,1.7747218543350696,0.0038061230443418,1.7818199396133425,-0.1733630299568176
1774472694475822600,6.873822509765625,2.0730396149992942,1.53047514494583,2.5711329290330407,-0.0105932159349322,1.5773298740386963,-0.0379810221493244
1774472694485849600,6.883849609375,0.8760942677438258,1.8182813023373483,2.4839520737081764,-0.0113673973828554,0.8330780267715454,0.1356360465288162
1774472694495877600,6.893877685546875,-1.3057085043132304,2.0931880845367905,1.4986726241022348,0.1219557672739029,0.1798363327980041,0.1137251481413841
1774472694505905700,6.90390576171875,-2.1370438851371407,1.8792635943055152,0.8138304115325212,0.25275319814682,0.1712801158428192,0.2914040684700012
1774472694515933700,6.91393359375,-1.4435330668129025,1.528613004335761,0.3435673537105321,0.1758084446191787,0.6382080316543579,0.572145938873291
1774472694525961700,6.923961669921875,-1.9383798001408576,0.9824263982623817,0.3691916243106126,-0.1193257197737693,1.4001154899597168,0.6567878723144531
1774472694535989800,6.93398974609375,-2.522276251405477,0.2647729992631822,0.374271119531989,-0.5319005846977234,2.2390408515930176,0.5909036993980408
1774472694546017500,6.944017578125,-1.5903566360652446,-0.5793258554134517,0.0031347908943891,-0.853356659412384,2.9869210720062256,0.4864031076431274
1774472694556044500,6.95404443359375,-0.600801920292899,-1.021781161116436,-0.6161106216490269,-1.0612472295761108,3.341026782989502,0.2850198149681091
1774472694566072600,6.964072509765625,-0.3433200278859585,-0.9250674113579094,-1.068484387037158,-1.157587647438049,3.453044891357422,0.0845653042197227
1774472694576100600,6.9741005859375,-0.1712941215063445,-1.0702805497389287,-1.0755804827779532,-1.2633641958236694,3.675439834594727,0.0176645126193761
1774472694586128600,6.984128662109375,-0.1052665288473479,-1.0406328688416628,-1.2712637983977797,-1.3191747665405271,4.172796249389648,0.1240127831697464
1774472694596156700,6.99415673828125,0.4936924487262964,-0.8100127529405057,-1.744095829924941,-1.4027806520462036,5.035660266876221,0.2999800145626068
1774472694606184700,7.004184814453125,0.9473756162125616,0.3588229366399347,-1.7666951997458933,-1.3030521869659424,5.710626125335693,0.3847218155860901
1774472694616212500,7.01421240234375,0.2729175080783665,-0.1058920220682397,-2.135377120968699,-0.9007058143615723,5.827548980712891,0.4890284836292267
1774472694626240800,7.02424072265625,-0.1240533729091286,-0.9730853000737726,-1.596114761200547,-0.451171725988388,5.7943925857543945,0.593280553817749
1774472694636267800,7.034267822265625,-0.0293783624365925,-1.3711800705246626,-0.5550953041940927,-0.098631352186203,5.682319641113281,0.6266310214996338
1774472694646295600,7.044295654296875,-0.026287118422985,-2.237844246622174,-0.1322808107674122,0.0774816200137138,5.586822509765625,0.7041473984718323
1774472694656323600,7.054323486328125,0.5955670153141022,-3.190070298540592,0.3216717482447624,0.2213478982448578,5.032527923583984,0.8160991072654724
1774472694666351600,7.0643515625,0.5939890984728932,-2.584674839912355,1.1670838774770498,0.4885061085224151,4.102764129638672,0.8722033500671387
1774472694676379600,7.074379638671875,0.7606032637357711,-1.8028214290075,-0.1190606791883707,0.8460909724235535,3.0474228858947754,0.9311811327934264
1774472694686407700,7.08440771484375,0.9414324168339372,-1.0094245875641703,-1.631988623136282,1.2451457977294922,1.9779391288757324,0.9915406107902528
1774472694696435700,7.094435791015625,0.4919710317611694,-0.8111386882305145,-1.265458911511302,1.4161313772201538,1.025130271911621,0.908583402633667
1774472694706463500,7.10446337890625,-0.9920084656000135,-1.154848226890713,-0.3112549836486578,1.3209489583969116,0.2785938084125519,0.6002426147460938
1774472694716490800,7.11449072265625,-2.17627670211196,-0.889004456590861,0.0842354495227336,1.0968738794326782,-0.0498904250562191,0.3876078128814697
1774472694726518500,7.1245185546875,-1.1677841347008944,-0.5759795041276141,-0.6170008484870195,0.7966379523277283,-0.0114881759509444,0.3796585500240326
1774472694736546800,7.134546875,-0.1555780997246503,-0.5908118566762656,-0.881017695620656,0.5326034426689148,-0.2040410786867141,0.4150744676589966
1774472694746574600,7.14457470703125,-0.6464125286713243,-0.397537136568129,-0.3663572776675224,0.3393676578998565,-0.907580018043518,0.3727909028530121
1774472694756603000,7.154602783203125,-1.3159881985262036,-0.4270943261703476,0.499649895825982,0.1522897332906723,-1.7617429494857788,0.2715101838111877
1774472694766630700,7.164630615234375,-0.7865843849495053,-0.7409279646679758,1.3255050916731357,0.0380244068801403,-2.5722830295562744,0.1682250797748565
1774472694776658700,7.17465869140625,-0.2508949152320623,-1.446268336995691,1.9524533336788412,-0.0304100979119539,-3.298246145248413,0.0512282326817512
1774472694786685700,7.184685791015625,-0.3366396002739668,-1.1109821971572935,2.508514268034697,0.1149015575647354,-3.949513912200928,-0.1895356476306915
1774472694796713500,7.19471337890625,-1.1707003144085406,-1.2279466347187755,2.021335146725177,-0.0616116411983966,-3.998667001724243,-0.5024512410163879
1774472694806741800,7.20474169921875,0.0881558378368616,3.0978838900133967,3.582372164803743,-0.1673319339752197,-4.178096294403076,-0.5201966762542725
1774472694816769500,7.21476953125,0.3092863139241933,2.0938521014034746,1.3340531397879123,0.1294536292552948,-4.3559250831604,-0.4094589352607727
1774472694826797800,7.2247978515625,0.7115368888802825,0.7507192908421159,-0.2086807443588972,0.4198814630508423,-4.499873638153076,-0.2994669377803802
1774472694836825600,7.23482568359375,0.8755962550938129,0.7593450803682208,0.2535679338335991,0.5887235403060913,-4.384296894073486,-0.1675472855567932
1774472694846852900,7.244852783203125,0.9784897894658148,0.0150748012687079,-0.0407125341385602,0.6751841306686401,-3.906722068786621,-0.1427607089281082
1774472694856880600,7.254880615234375,0.666407561212778,-0.6931852396316825,-0.320857509252429,0.6644806861877441,-3.5503346920013428,-0.1412499845027923
1774472694866908000,7.264907958984375,-0.5583528446853161,-0.4222881314650177,-0.2401853051692247,0.6353917121887207,-3.203863859176636,-0.1091354638338089
1774472694876935700,7.274935791015625,-0.982537457421422,-0.4785886588251218,-0.0510129788786172,0.6660864353179932,-2.9421043395996094,-0.1311416029930114
1774472694886964000,7.2849638671875,-1.9794301879316567,-1.032935519272089,-0.5902852755188942,0.704049289226532,-2.661830425262451,-0.1522551327943802
1774472694896991700,7.29499169921875,-1.9864076257288452,-0.6819950064450502,-1.105629584082961,0.6483514308929443,-1.9483740329742432,-0.2083373218774795
1774472694907019800,7.305019775390625,-0.7565829221785068,-0.0870069417963735,-0.5620189659774303,0.4810042381286621,-1.4752188920974731,-0.2548331916332245
1774472694917047800,7.3150478515625,-0.966671779769659,0.8524892280116677,-0.4406266289710998,0.3747843205928802,-1.1246832609176636,-0.1846591532230377
1774472694927075600,7.32507568359375,1.2566998509943486,0.0464548771828412,-1.0242582918196916,0.326046347618103,-0.6603901982307434,0.2276485115289688
1774472694937104000,7.335103759765625,2.033813520026207,-1.0724897502209991,-1.504215645182133,0.3675844073295593,-0.9220041036605836,0.2539854347705841
1774472694947131600,7.345131591796875,-2.1770319043934343,-0.2102793751945719,-0.5654010096311569,0.2418368905782699,-1.2642996311187744,0.1360321640968322
1774472694957159000,7.355158935546875,-1.8069418699383732,-0.4253738590532913,1.1038666660636662,-0.0915684252977371,-1.0706353187561035,0.0564972572028636
1774472694967186700,7.365186767578125,-0.823426580460742,1.3479679756328462,0.5781143607318401,-0.0629940405488014,-0.2915501594543457,-0.2044075727462768
1774472694977214700,7.375214599609375,-0.617827946960926,-0.7468259366653859,-0.7331669752776623,0.0595326274633407,0.134045124053955,-0.5756596326828003
1774472694987242800,7.38524267578125,-1.1164764837246388,-1.463272809419036,-0.3569318621963262,0.0696832612156868,0.1698193699121475,-0.6899694204330444
1774472694997270800,7.395270751953125,-0.8560883484821766,-0.7037322064787149,0.2490051559627056,0.0997472181916236,0.0026645802427083,-0.6306889653205872
1774472695007298800,7.405298828125,-0.1216681582730263,-0.3686099519651383,0.6408639546334743,0.1351712644100189,-0.0811991617083549,-0.5509528517723083
1774472695017326800,7.415326904296875,0.3127075205445289,0.4719504629196598,0.931259105604887,0.2368466854095459,-0.0376005284488201,-0.5223172903060913
1774472695027354600,7.425354736328125,0.3589454670410603,0.2864600765448063,1.0625707790791987,0.2856768071651459,-0.0584370978176593,-0.469450294971466
1774472695037381600,7.435381591796875,0.0742377871215343,0.6030955841880291,1.4354209258973598,0.24497652053833,-0.0964541286230087,-0.3736647367477417
1774472695047409700,7.44540966796875,0.2532195587873458,0.9256653772510588,1.898990039038658,0.1854958832263946,-0.1112831458449363,-0.2524176836013794
1774472695057437700,7.455437744140625,0.6178652832966297,0.9950083780683576,2.282202005395293,0.1217689588665962,-0.1904376000165939,-0.0799925252795219
1774472695067465700,7.4654658203125,0.623197365039587,1.1386167846664783,2.5453829862266777,0.1186048537492752,-0.5458167791366577,0.1999826729297638
1774472695077493800,7.47549365234375,-0.3366916227221488,0.9975618619434536,2.0243419273257253,0.143606036901474,-0.804757297039032,0.6450209617614746
1774472695087521800,7.485521728515625,-0.4260030603349208,1.1946220919396728,1.4776543859928846,0.225498229265213,-0.3887595534324646,0.810419499874115
1774472695097549600,7.495549560546875,-1.7116285615622997,0.8424621933855115,1.425619662851095,0.308736115694046,0.2356197386980056,0.7426505088806152
1774472695107577900,7.505577880859375,-3.031192572748661,1.033464730777964,2.352867194727063,0.5640890598297119,1.1573553085327148,0.6319325566291809
1774472695117604600,7.5156044921875,-1.5394213985979557,0.379940324274823,1.7315362080812453,0.7396368980407715,2.154054880142212,0.8508224487304688
1774472695127633000,7.5256328125,0.2193207963168621,-0.2665424200884997,0.9528133502870798,0.6077638268470764,2.98746395111084,0.903481662273407
1774472695137660700,7.53566064453125,1.1770599125683308,-0.0727178840778768,-0.153708214199543,0.3145126700401306,3.631200075149536,0.7414435148239136
1774472695147688700,7.545688720703125,0.2706418547639623,1.3003943235531448,-1.5213725316882132,-0.035402987152338,3.6892263889312735,0.2839078903198242
1774472695157716700,7.555716796875,-0.6711432844977826,0.6260540696449577,-2.6980226944118737,-0.0377702228724956,3.605398654937744,0.1216099709272384
1774472695167744500,7.56574462890625,0.1098304940283298,-0.7267660221941769,-2.6747908719062803,0.2790649831295013,3.0572471618652344,0.3404986262321472
1774472695177772800,7.575772705078125,-0.8047982331626117,-1.25888377090469,-2.171764193123579,0.5432705879211426,2.445033311843872,0.8232753872871399
1774472695187800600,7.585800537109375,-1.372367819004506,-1.65231098793596,-1.8293033393502236,0.6744701266288757,2.329122304916382,1.150905966758728
1774472695197827800,7.595827880859375,-1.5989695661097765,-1.6471207258164882,-2.792704719147086,0.6928854584693909,2.6116185188293457,1.162877082824707
1774472695207855600,7.605855712890625,-1.6026859562844038,-0.4382465289015322,-3.030407559850812,0.6573650240898132,3.0667898654937744,0.9310632348060608
1774472695217884000,7.6158837890625,-0.2994838818341493,-0.4832680122803896,-2.59530466273725,0.486009806394577,3.2589895725250244,0.7716778516769409
1774472695227911700,7.62591162109375,1.1897554357513784,-1.1158259108614177,-0.7770534632772207,0.1687058508396148,2.977165699005127,0.7009211182594299
1774472695237939700,7.635939697265625,1.8103993169158696,-1.7021017315432427,0.5812181719660758,-0.2080206274986267,2.4150726795196533,0.5527929067611694
1774472695247967700,7.6459677734375,1.746697244594991,-2.231517966210097,0.8352110532134771,-0.4650564193725586,1.66462504863739,0.3570827841758728
1774472695257995800,7.655995849609375,1.0067445546999574,-2.245264313620329,0.7150280919969082,-0.5832589864730835,0.5961021780967712,-0.030002748593688
1774472695268023800,7.66602392578125,-0.190618433445692,-1.987366387758404,0.4222071751832962,-0.5157158970832825,-0.7800732851028442,-0.4804777801036834
1774472695278050600,7.676050537109375,-0.9024418841823936,-1.2133856829900294,-0.2536485978543758,-0.2282624989748001,-2.214146375656128,-0.8307163119316101
1774472695288078800,7.686078857421875,-1.012599418208003,-0.2863542780827731,-1.290619656252861,0.2041381895542144,-3.385613441467285,-1.0523837804794312
1774472695298106600,7.696106689453125,-0.4243210985973477,-0.5751858329992741,-1.7570657861351966,0.5547120571136475,-4.148538589477539,-1.160984754562378
1774472695308135000,7.706135009765625,0.2521136433720588,-1.1586021725967526,-1.4970745412558315,0.6407513618469238,-4.591253757476807,-1.1135777235031128
1774472695318162700,7.71616259765625,1.1980290508389473,-1.1225399484820664,-1.312259241130948,0.6350760459899902,-4.573807716369629,-0.921240508556366
1774472695328190700,7.726190673828125,1.7384639615178108,-1.774424624954164,-1.150891452088952,0.4899052679538727,-4.7486772537231445,-0.5654919743537903
1774472695338218800,7.73621875,1.359684424650669,-1.6476472339086234,0.1736333963751792,0.1902325749397277,-4.899697303771973,-0.0656269192695617
1774472695348246800,7.746246826171875,1.7221376806169748,-0.5695119520813227,1.3968337133497,-0.2040545642375946,-4.437996864318848,0.3771845996379852
1774472695358273800,7.756273681640625,1.0640285766720772,-0.6320309520974755,0.4216781828731298,-0.7085107564926147,-2.8774573802948,0.697405219078064
1774472695368301600,7.766301513671875,-0.5331541060209274,0.6598778671830893,-0.3143552877515554,-0.9524009227752686,-0.8310968279838562,0.7513036131858826
1774472695378329900,7.776329833984375,-2.78411867710948,0.4618935811445117,-1.6913988434821363,-0.6182377934455872,0.0668140649795532,0.5609974265098572
1774472695388357600,7.786357666015625,-6.189808579361438,-2.2285214147426187,-2.410966332474351,-0.4422619342803955,0.1922225952148437,-0.1708102077245712
1774472695398385700,7.7963857421875,-6.6782888463974,-0.4409874251075089,-1.3968120860397817,-0.9439817667007446,-0.0525150559842586,-0.8775319457054138
1774472695408413700,7.80641357421875,-4.161529312586784,1.773167902891338,-0.3657528820335864,-1.4310299158096311,0.2630058825016022,-0.9824122786521912
1774472695418441700,7.816441650390625,1.4920049829065798,0.7431543354805559,0.6508709693849086,-1.775509476661682,0.9766815304756165,-0.4878641664981842
1774472695428469800,7.8264697265625,5.477033234727382,-0.2685997910097241,2.256616313239932,-2.096315860748291,1.5597773790359497,0.1937183588743209
1774472695438496800,7.836496826171875,6.172668059468269,-1.7783777464941144,2.294714865487814,-2.400375843048096,1.2645972967147827,0.9290911555290222
1774472695448524800,7.84652490234375,3.224828308188915,-3.552066166128218,-0.0232926127821207,-2.422003507614136,0.4010224938392639,1.3251090049743652
1774472695458552800,7.856552734375,-0.8380296177655457,-4.423257172000408,-2.701238733848929,-1.800743818283081,-0.0671260952949523,1.0549907684326172
1774472695468580600,7.86658056640625,-4.361946086469293,-4.825353871569037,-4.50956475162208,-0.8292028903961182,-0.7052961587905884,0.4670740067958832
1774472695478609000,7.87660888671875,-7.734612255519628,-5.217494409790635,-4.967614809080958,0.0948395729064941,-1.305900812149048,-0.231804147362709
1774472695488636700,7.88663671875,-6.166184542667866,-4.3168467155486345,-2.28953658606708,0.7179047465324402,-1.5512921810150146,-0.4938986003398895
1774472695498665000,7.8966650390625,-2.55112240666151,-2.770410762013495,0.1948468647956848,1.1132280826568604,-1.4244955778121948,-0.2072311788797378
1774472695508692700,7.906692626953125,1.0180243658661845,-0.991646719615534,2.1886446007758376,1.2445789575576782,-0.5298295617103577,0.2552485764026642
1774472695518719700,7.9167197265625,4.632952061837911,1.1246655623339117,3.196372029033303,1.2225693464279177,0.7157052755355835,0.6026908159255981
1774472695528747800,7.926747802734375,6.010144086128473,2.6655513343960044,3.2721330801993607,1.0151938199996948,1.6505626440048218,0.6861559152603149
1774472695538775800,7.93677587890625,4.544229822289943,4.85434060433954,3.624410979110002,0.6571758389472961,1.837990164756775,0.4375796318054199
1774472695548803800,7.946803955078125,1.999543586155772,6.906405528110265,3.52704424533546,0.3596229553222656,1.4464759826660156,0.0828196853399276
1774472695558831600,7.95683154296875,0.4488134425580501,7.293079617619514,3.209030435076356,0.2602975964546203,0.5806176066398621,-0.1845608353614807
1774472695568860000,7.96685986328125,-1.0531500397831202,6.274575359281897,2.6431986328125,0.3373122215270996,-0.5190473794937134,-0.3459174931049347
