time,seconds_elapsed,accel_x,accel_y,accel_z,gyro_x,gyro_y,gyro_z
1774472938805680600,0.0756806640625,0.0051554830670356,0.7542556482747197,0.242847071724385,-0.0158399268984794,0.3240154683589935,0.3090158700942993
1774472938815709000,0.085708984375,0.1321528004735708,0.682661069138348,0.0980658219546079,0.0032064672559499,0.4569564759731293,0.2627842128276825
1774472938825736700,0.09573681640625,0.1920534346848726,0.6881400850713253,-0.0761306151308119,0.0348640568554401,0.5875877141952515,0.1765871942043304
1774472938835765000,0.105764892578125,0.0494721791774034,0.7877794399529695,-0.1447488088048994,0.0604069642722606,0.5988954901695251,0.0734227299690246
1774472938845792800,0.115792724609375,-0.3804781574785709,0.9185808258175848,-0.0479777028359472,0.0300436746329069,0.5193654894828796,-0.0113027282059192
1774472938855820800,0.12582080078125,-0.6388701504677534,1.0109911062285304,0.0674640552029013,-0.0534679964184761,0.4251631200313568,-0.0570587627589702
1774472938865848800,0.135848876953125,-0.8344085046589375,1.0190835195302963,-0.2998452624924481,-0.2441149353981018,0.1411280632019043,-0.1507105231285095
1774472938875876900,0.145876953125,-1.8180337573170664,1.7680246947839855,-0.9866381707385182,-0.6054156422615051,-0.0897972956299781,-0.3365546762943268
1774472938885905000,0.15590478515625,-1.331526836180687,1.4777911641150712,-0.5097704539544881,-0.9747453331947328,-0.3048816621303558,-0.4990320801734924
1774472938895933000,0.165932861328125,-0.5694838950306177,1.05425975459069,-0.2745474473677575,-1.2716389894485474,-0.3981676697731018,-0.6186719536781311
1774472938905960700,0.175960693359375,0.2006628575980663,0.5571510676801205,-0.3817091605782509,-1.4482083320617676,-0.3810833394527435,-0.6682959794998169
1774472938915989000,0.185989013671875,0.3753098149299621,0.0908209653928875,-0.5193959220424295,-1.5391201972961426,-0.2669423818588257,-0.6660131216049194
1774472938926016800,0.196016845703125,0.1938017396569251,-0.3430819082811475,-0.647920741277188,-1.581831693649292,-0.2124104648828506,-0.5804769396781921
1774472938936045000,0.206045166015625,0.4245212973445653,-0.7869882895752787,-0.756383015692234,-1.666406750679016,-0.3444606363773346,-0.342805802822113
1774472938946072800,0.21607275390625,0.703989396110177,-0.8850582031831145,-0.4278600863784551,-1.7935431003570557,-0.4614972770214081,-0.0589745566248893
1774472938956100900,0.226100830078125,0.9515712412714956,-0.6079089027538895,-0.2436798692867159,-1.8608739376068115,-0.3590843379497528,0.1745654940605163
1774472938966129000,0.23612890625,1.1485562871396542,-0.5320826773971319,-0.5137652226790785,-1.828995704650879,-0.0932873710989952,0.3601086437702179
1774472938976157000,0.246156982421875,1.1757114205688235,-0.6795376764208078,-0.6562040009759366,-1.7265795469284058,0.1788437515497207,0.5693827867507935
1774472938986185000,0.25618505859375,1.1746522669047117,-0.6038876844137907,-0.5317950926274061,-1.6337788105010986,0.4725161492824554,0.7508849501609802
1774472938996212700,0.266212646484375,1.078428857946396,-0.3146960640132427,-0.3593710720419883,-1.5582401752471924,0.7860780954360962,0.8751118183135986
1774472939006240800,0.27624072265625,1.3481477161139248,-0.3149830642610788,-0.5281283868134021,-1.448903203010559,1.0604207515716553,0.9807260632514954
1774472939016268800,0.286268798828125,1.4954676905810833,-0.5553180070340633,-0.5909224043786525,-1.2932451963424685,1.2211792469024658,0.9995141625404358
1774472939026296800,0.296296875,-1.961639679697156,-2.460592240908742,0.5640411194548011,-0.9475069642066956,-0.0918269753456115,0.6859912276268005
1774472939036324900,0.306324951171875,-5.590699361395836,-4.1786362224712965,2.046648159419,-0.570062518119812,-1.0960861444473269,0.2858951985836029
1774472939046353000,0.316352783203125,-0.0454290412664413,-1.845365416356921,0.9698688222452998,-0.3534252345561981,-0.8073793649673462,0.02996526658535
1774472939056380700,0.326380615234375,1.623649833858013,1.0235244245871902,0.2801867684289812,-0.2677633464336395,-0.4338249266147613,-0.1999409049749374
1774472939066409000,0.336408935546875,0.4866349314302206,1.6324983262240886,0.0655310413137078,-0.1815470904111862,-0.4409390091896057,-0.328932374715805
1774472939076436700,0.346436767578125,-0.1031195982128381,0.8206149571061134,0.371261124061048,-0.087728701531887,-0.6357659697532654,-0.3516009151935577
1774472939086464800,0.35646484375,-0.0568242955058813,0.5279764111220836,0.5567690826252103,-0.0629675611853599,-0.5647125244140625,-0.30854132771492
1774472939096492800,0.366492919921875,0.1746533870726823,0.8858765338286757,0.4034691569656133,-0.0604953430593013,-0.1824561953544616,-0.1940477639436721
1774472939106520600,0.3765205078125,0.2474421444296836,0.294154211243987,-0.2089151376366615,-0.0431805215775966,0.1293727904558181,-0.0051715997979044
1774472939116548900,0.386548828125,0.3104565267473459,-0.0517082676663994,-0.3304758169472217,-0.0257709044963121,0.4360275268554687,0.1423361003398895
1774472939126576600,0.39657666015625,-0.1920247931122779,0.0853475024178624,-0.2941232315838337,-0.0203812718391418,0.487227588891983,0.2151145339012146
1774472939136604700,0.406604736328125,-0.8624749077141285,0.4065113011404871,-0.8308928977534175,-0.0406673662364482,0.4674181938171386,0.230476975440979
1774472939146632700,0.4166328125,-1.1421814914107322,0.690238810916245,-1.4309379352644085,-0.0987208187580108,0.5626441836357117,0.2916328907012939
1774472939156660500,0.426660400390625,-0.6066250004231929,0.7611006918638944,-1.2310592137813567,-0.1703087240457534,0.7149218320846558,0.4449878334999084
1774472939166688800,0.436688720703125,-0.4997966108202934,0.1843923985376954,-0.3740133453786373,-0.1529216766357422,0.737576425075531,0.6156032681465149
1774472939176716500,0.446716552734375,-0.7014712758094072,-0.6289715645268559,0.0427145216107368,-0.0241040326654911,0.5492219924926758,0.7674734592437744
1774472939186744600,0.45674462890625,-0.6644160951346159,-0.1414350080817937,-0.0943555692598223,0.1105075925588607,0.319125771522522,0.9014279842376708
1774472939196772600,0.466772705078125,-0.713068190100789,0.4035241020232439,-0.3958557593524456,0.2169331014156341,0.0052466583438217,1.054073452949524
1774472939206800600,0.476800537109375,-0.9189923292279244,0.3178206257745623,-0.6002475743457675,0.2525879740715027,-0.363256573677063,1.2528210878372192
1774472939216828700,0.48682861328125,-1.0419728122085332,0.6089852998137474,-0.9422808503568172,0.1450234204530716,-0.6647663712501526,1.4378316402435305
1774472939226856700,0.496856689453125,-0.9803542681634424,0.6636907034695148,-0.854210060454905,-0.0038540484383702,-0.9135581851005554,1.596787452697754
1774472939236884500,0.506884521484375,-0.9940870254397391,0.150852824768424,-0.5661974207058549,-0.0524143949151039,-1.290369153022766,1.7003860473632812
1774472939246912800,0.516912841796875,-1.1860305700093507,-0.2821580685019493,-0.3263292186617851,-0.0193984415382146,-1.7130963802337646,1.7385879755020142
1774472939256940500,0.5269404296875,-0.4122895922809839,-0.0044762686312198,-0.0345224473267793,0.0570252276957035,-1.8022598028182983,1.7339069843292236
1774472939266968800,0.53696875,0.5854115320026875,0.3663642919301986,0.1999745830729603,0.0992921143770217,-1.6111286878585815,1.699181318283081
1774472939276996600,0.54699658203125,0.8143442062735557,0.6556734012305736,0.143811527954787,0.0763159617781639,-1.2805103063583374,1.667795181274414
1774472939287024600,0.557024658203125,0.8209037109196186,0.7538555430412293,-0.4281652068048715,0.0689737126231193,-0.948807954788208,1.68982195854187
1774472939297052700,0.567052734375,0.8881663983315229,0.5001438168227672,-0.499737574109435,0.0352109558880329,-0.7103801965713501,1.7630146741867063
1774472939307080700,0.577080810546875,0.9862661225557326,0.1466068577617406,0.0504891011349856,-0.0705777630209922,-0.6744433641433716,1.7889190912246704
1774472939317108700,0.587108642578125,0.5431938539981842,-0.0681570059031248,0.2134188787966966,-0.1733392924070358,-0.8719449639320374,1.6847383975982666
1774472939327136800,0.59713671875,0.3374614380508661,-0.2180319255501031,0.0493583435393869,-0.2427321523427963,-1.070523977279663,1.3892301321029663
1774472939337164500,0.60716455078125,0.3724854051589966,-0.7029577149748801,0.4184199117295444,-0.2529738843441009,-0.9478920698165894,0.8725022673606873
1774472939347192800,0.61719287109375,0.7880839758574962,-1.1142670640468595,0.7909731214277446,-0.2143452316522598,-0.4138778150081634,0.2372156828641891
1774472939357220600,0.627220703125,1.0317875182807446,-1.3040946393758055,0.5277838111594318,-0.1481584906578064,0.2932950556278229,-0.3545072674751282
1774472939367249000,0.637248779296875,1.0652572416841983,-1.1798515891134738,-0.0619827011823654,-0.0888651907444,0.7929646372795105,-0.814124584197998
1774472939377276700,0.647276611328125,0.7790151187390089,-0.6741390322476625,-0.1223820786960423,-0.1492984443902969,1.0294387340545654,-1.0984008312225342
1774472939387304700,0.6573046875,0.7099293075531721,0.4296241734415292,0.0355076589718461,-0.2843497693538666,1.0260722637176514,-1.1305148601531982
1774472939397332700,0.667332763671875,-0.2065846488624811,-0.7968062114953994,0.0751527100093662,-0.0521322414278984,0.6240968704223633,-0.903525710105896
1774472939407360500,0.677360595703125,-0.1663736345052719,-1.7114239789009094,0.7162741465352476,0.1601595431566238,0.2313233911991119,-0.6226465106010437
1774472939417388800,0.687388916015625,-0.0387000252723693,-0.0981698668509721,0.8323639932192861,0.2496872991323471,-0.1356564611196518,-0.3454647362232208
1774472939427416600,0.69741650390625,0.0008323591709136,0.3841951321750879,0.309824074062705,0.2444386333227157,-0.5378179550170898,-0.0104459635913372
1774472939437444600,0.707444580078125,0.1774053161293268,0.0941238063305616,0.3831193196371197,0.293938547372818,-0.6181915998458862,0.2820721864700317
1774472939447472600,0.71747265625,-0.0629021541148424,-0.271056244251132,-0.0095678926818072,0.320343017578125,-0.5426837205886841,0.4046943783760071
1774472939457500700,0.727500732421875,-0.7316606623679399,0.709996527570486,-0.5640139391869307,0.163238063454628,-0.3635869324207306,0.4025004804134369
1774472939467528700,0.73752880859375,-0.8123159153163433,0.6407756918281317,-0.3153950060628354,0.0801511779427528,-0.1308242380619049,0.3953008651733398
1774472939477556700,0.747556640625,-0.7239566638618707,0.2617185070633888,-0.6652953621871769,0.1178458258509635,0.1101449504494667,0.4198181927204132
1774472939487584500,0.75758447265625,-0.8265887708187103,0.9600468086719512,-0.7675603893972933,0.0881108120083808,0.3497563600540161,0.5307400822639465
1774472939497612800,0.76761279296875,-0.7745271596699953,1.1280366462022064,-0.7648112368196248,-0.0067861387506127,0.4940698742866516,0.7820889353752136
1774472939507640600,0.777640625,-1.1240145510792732,0.896778743854165,-0.3335664764389395,-0.0401072390377521,0.3844183683395386,1.0392483472824097
1774472939517668600,0.787668701171875,-1.6364117002755405,0.5969780511558056,-0.051946898727864,0.0395279340445995,0.1703342944383621,1.2433172464370728
1774472939527696600,0.797696533203125,-1.5088082336694002,0.8209510571926831,0.7406934252597391,0.1408076882362365,0.0142986197024583,1.3475536108016968
1774472939537724700,0.807724609375,-1.4089233795940874,0.4548644131600856,0.7762431698076426,0.2158763408660888,0.1018772050738334,1.331696629524231
1774472939547752700,0.817752685546875,-1.6970049929261206,0.3094108170866966,0.3544575810372829,0.1557467728853225,0.2917830049991607,1.2287182807922363
1774472939557780700,0.82778076171875,-1.6608844627529382,0.0151186586767435,0.3047914867229759,0.1626504808664322,0.4775627255439758,1.0584006309509275
1774472939567808500,0.83780859375,-1.306199502700567,-0.1412011993259191,0.432113506039232,0.203531339764595,0.6115831732749939,0.7810444831848145
1774472939577836800,0.8478369140625,-0.8728378962963819,0.354009837269783,0.5505125064484775,0.2409213334321975,0.7255192995071411,0.5360323190689087
1774472939587864600,0.857864501953125,-0.3361480173647403,0.425372361215949,0.278597307280451,0.2545659840106964,0.7475842833518982,0.3975948691368103
1774472939597892900,0.867892822265625,-0.0619371084749698,0.3222556856125593,0.5812197794012725,0.2492071390151977,0.4821661412715912,0.3607186079025268
1774472939607920600,0.877920654296875,0.3681237028181552,0.1675146212339401,0.3637481180824339,0.3038487136363983,0.1813681572675705,0.3347694873809814
1774472939617948700,0.88794873046875,0.9581184709578752,0.4683393962830305,0.530980269113183,0.2883887887001037,-0.1257467865943908,0.348020851612091
1774472939627976700,0.897976806640625,1.3988883077919485,0.7829068654805421,0.3122441408164799,0.2884079217910766,-0.4314305484294891,0.3073304891586303
1774472939638004700,0.908004638671875,1.2872405352085827,0.5774778163939714,0.1427000595815479,0.3815133571624756,-0.7880331873893738,0.2950935065746307
1774472939648032800,0.91803271484375,1.5021253949046134,0.3843184662938118,0.0464640834026038,0.5251400470733643,-1.1758930683135986,0.37680384516716
1774472939658060800,0.928060791015625,1.6195435675829648,0.4732002803176641,0.0582810701854527,0.6622302532196045,-1.800280213356018,0.5118282437324524
1774472939668088600,0.938088623046875,1.552854296144843,0.3844903157293796,0.3215006294615566,0.94190913438797,-2.238287925720215,0.6373995542526245
1774472939678116600,0.94811669921875,1.5476310085386036,0.630133301782608,-0.0249586462981998,1.238147497177124,-2.459071397781372,0.7964943647384644
1774472939688144600,0.95814453125,1.032311834415793,1.1704062998980282,0.0474681458786129,1.297565460205078,-2.778040647506714,1.097443461418152
1774472939698172700,0.968172607421875,0.2031833159863948,0.769833448895812,0.0817667943868786,1.2121843099594116,-2.945231437683105,1.5499906539916992
1774472939708200700,0.97820068359375,0.1526350320100784,0.3770622115552425,-0.6383395507223903,1.1205998659133911,-2.7319107055664062,1.8017983436584477
1774472939718228500,0.988228515625,0.2403758593052625,1.812992840540409,-1.4703209743648766,0.9077296257019044,-1.9638270139694212,1.6314295530319214
1774472939728256800,0.9982568359375,-0.4562175813347101,1.5252829831302166,-2.512504214453697,0.9738709330558776,-1.2564363479614258,1.122450351715088
1774472939738284500,1.008284423828125,-2.0849919185996053,-0.2766612246513366,-3.817821089100837,0.9991672039031982,-0.6228594183921814,0.5200222730636597
1774472939748312800,1.018312744140625,-1.498146554401517,-0.6068091248184442,-2.024132376228273,0.6609581112861633,-0.2600975036621094,0.2317837923765182
1774472939758340600,1.028340576171875,-0.6896124957114458,-0.9688304191082716,-1.5005406099312006,0.4432212710380554,-0.4251892566680908,0.1735178232192993
1774472939768368600,1.03836865234375,-1.593354648837447,-0.5347451746046543,-1.1905112225547432,0.3325181305408478,-0.9573736190795898,0.2721020579338074
1774472939778396700,1.048396728515625,-1.298252927610278,0.0390583371907472,-0.1475880142861977,0.3533008992671966,-1.7347625494003296,0.6445624232292175
1774472939788424700,1.0584248046875,-0.4935726217389106,0.6344517495036125,0.6585248451389372,0.4892047941684723,-2.5992350578308105,1.2284770011901855
1774472939798452700,1.06845263671875,0.3307435279726982,0.6153524967581033,1.3973533533096312,0.718420684337616,-3.0121448040008545,1.881243109703064
1774472939808480800,1.078480712890625,1.447686533230543,-0.5316390252828598,1.1645273248620331,1.099200963973999,-1.6429249048233032,2.3222806453704834
1774472939818508500,1.088508544921875,0.3861503578960895,-0.9128823219150304,-1.7596514187142251,1.3549630641937256,-0.5405040383338928,2.509891986846924
1774472939828536800,1.098536865234375,-1.43409639929533,1.1363432867765426,-2.0810076712690293,0.9742452502250672,0.3001821041107178,2.548900842666626
1774472939838564600,1.108564697265625,-1.670004757797718,3.269139743602276,-0.5330176201596856,0.309157520532608,0.9316482543945312,2.4702818393707275
1774472939848592600,1.118592529296875,-0.7204840193152428,2.7125562466770408,-0.0036786154475063,-0.0747030079364776,1.807416319847107,2.349292278289795
1774472939858620700,1.12862060546875,0.6863748289644718,0.3428817095339298,-0.4284175010655075,-0.0333672910928726,2.4373326301574707,2.2028634548187256
1774472939868648700,1.138648681640625,0.241251473096013,-0.93418113053143,-0.2832259169291705,0.1802990138530731,2.4078168869018555,1.9788464307785036
1774472939878676700,1.1486767578125,0.0836848299026489,-0.62404959795475,1.362422325181961,0.4504993259906769,1.7950140237808228,1.802237033843994
1774472939888704800,1.158704833984375,0.6766460466325283,-0.3613105156719684,1.9630445780590176,0.6818212866783142,0.8014657497406006,1.6414207220077517
1774472939898732500,1.168732666015625,0.9727508074223996,-0.0703115535885095,1.7833102344602343,0.7804176211357117,-0.2368815541267395,1.5482542514801023
1774472939908760800,1.1787607421875,1.2989385717868804,0.4738204580426216,1.818130787950754,0.8384210467338562,-0.9753325581550598,1.4924523830413818
1774472939918788600,1.18878857421875,1.7219658311814068,1.0924135441571474,2.056090818285942,1.2375082969665527,0.002010537777096,1.446155667304993
1774472939928816600,1.198816650390625,0.5517576842039823,-0.0116547819584608,-0.3250220815859734,1.5206704139709473,0.761201024055481,1.462998867034912
1774472939938844700,1.2088447265625,0.2330336798489093,-0.0982113679051399,0.607274842634052,1.1946598291397097,0.932973861694336,1.5455371141433716
1774472939948872400,1.21887255859375,0.1034258876830339,0.3446902202606201,3.51063087067306,0.8132750391960144,1.0069013833999634,1.5965303182601929
1774472939958900700,1.228900634765625,0.5954249764949083,0.8836106347233057,0.082082655403018,0.7383744120597839,0.9291422367095948,1.4052530527114868
1774472939968928500,1.238928466796875,-1.4879802574351428,1.4295359595119952,-1.415416541005671,0.7336729168891907,0.8442916870117188,0.972762405872345
1774472939978956800,1.248956787109375,-1.7910984041184186,-0.2466682374477386,-0.4267968410611152,0.7911673784255981,0.8418343663215637,0.6033907532691956
1774472939988984600,1.258984619140625,-1.58222447527498,-1.1537602855235338,-0.1541311157867312,0.6159418225288391,1.1087692975997925,0.366385281085968
1774472939999012600,1.2690126953125,-0.8082929434105753,-1.091394137981534,0.0129096043251454,0.2664405107498169,1.6080776453018188,0.19046351313591
1774472940009040600,1.27904052734375,-0.6254650177106261,-1.2535060233891009,-0.7681839281231164,-0.0963725298643112,1.9650461673736568,-0.0967057719826698
1774472940019068700,1.289068603515625,-0.8045908740222454,-0.7788952917516231,-0.7639723017774522,-0.3953642845153808,2.3930153846740723,-0.6475058197975159
1774472940029096700,1.2990966796875,-0.6243620249047875,-0.3951484878659248,-0.7414002583548426,-0.1502363234758377,3.793479442596436,-2.0493338108062744
1774472940039124700,1.309124755859375,-1.5604127487003805,0.2494125677198171,-2.310198411954194,0.3610850274562835,7.49416971206665,-4.529984474182129
1774472940049152500,1.319152587890625,2.06500097771138,-0.2823100441932678,2.320858191525936,0.000107025145553,8.785181045532227,-5.800646781921387
1774472940059180800,1.329180908203125,-1.5725141053825615,1.192052314516902,2.4462540650852023,-0.6457663178443909,7.267753601074219,-6.511890411376953
1774472940069208600,1.33920849609375,-3.06925897629261,1.503300868424773,0.08730897521656,-1.2940267324447632,5.300441741943359,-6.865909099578857
1774472940079236900,1.34923681640625,-1.731231087654829,-1.298945001527667,-1.5337646880105138,-1.5538549423217771,3.752564668655396,-7.016427993774414
1774472940089265200,1.35926513671875,-1.6237258217036723,-5.417693741530179,-1.2777655815072355,-1.3032844066619873,3.0686659812927246,-6.835161209106445
1774472940099293200,1.369293212890625,1.003546927702427,-6.881546981185674,-1.5195514537408947,-0.8954069018363953,3.1162984371185303,-6.380008697509766
1774472940109321200,1.3793212890625,2.3102532108813523,-3.791190271806717,-2.636078863935172,-0.6527369618415833,2.780421257019043,-5.734523773193359
1774472940119349200,1.389349365234375,1.5920353829324243,-0.487654337605834,-3.0861867302179333,-0.6141120791435242,2.51720929145813,-4.817127704620361
1774472940129377000,1.399376953125,1.8478531415194277,1.618786027213931,-3.041350978669524,-0.6297080516815186,2.212524652481079,-3.5889534950256348
1774472940139405300,1.4094052734375,2.166697557383776,2.009271783965826,-3.057569123020768,-0.5507900714874268,1.6732330322265625,-2.0606274604797363
1774472940149433000,1.41943310546875,2.1399925058096647,1.4977572628229856,-2.0649659063979984,-0.4307689964771271,1.4223707914352417,-0.3717890977859497
1774472940159461400,1.42946142578125,2.611030055135488,1.9439695829719303,-1.1070260068774225,-0.3532427847385406,1.1509257555007937,1.1327069997787476
1774472940169489200,1.4394892578125,0.7853262015819549,1.7611100930899382,-0.6833566501870751,-0.2879648804664612,0.8671277761459351,2.22302508354187
1774472940179517200,1.44951708984375,-0.2014905405938625,0.7078343811005353,1.3877999275445938,-0.3104179799556732,0.6589871048927307,2.89151930809021
1774472940189545200,1.459545166015625,-1.0883961252093317,0.456568294468522,2.784959804108739,-0.4557511806488037,0.1851074248552322,3.180297374725342
1774472940199573200,1.4695732421875,-1.9841700759351253,0.6644359688788652,3.649629006996751,-0.6844642758369446,-0.5185977220535278,3.192957878112793
1774472940209601300,1.479601318359375,-1.6461621099174022,0.7472083601117133,3.2076728829875587,-0.8562977313995361,-1.123091697692871,3.062189817428589
1774472940219629300,1.48962939453125,-0.3558686168789863,0.3069008800923824,2.038770411781221,-0.8581312894821167,-1.6449801921844482,2.8602447509765625
1774472940229657000,1.499656982421875,-0.2576566644519567,-0.008178045758605,0.8483240711562335,-0.6782562136650085,-2.187394857406616,2.626961708068848
1774472940239685400,1.509685302734375,-0.5847434234827756,0.3548965569764375,0.2675460441730916,-0.3465757668018341,-2.5157575607299805,2.413958549499512
1774472940249713200,1.519713134765625,-0.6517389843910932,0.6955436393260955,0.0383143869556486,0.104512795805931,-2.886322021484375,2.238879919052124
1774472940259741200,1.5297412109375,-1.588526498028636,0.7749421702116728,-0.3992882180191576,0.6188206076622009,-3.5134406089782715,2.142301082611084
1774472940269769200,1.539769287109375,-1.7511276282578705,1.3895470634728668,0.0099732586123049,1.116256594657898,-3.825050354003906,2.223726511001587
1774472940279797200,1.54979736328125,-1.6953046187490224,2.1439169857770204,0.3476584224164485,1.6351892948150637,-3.946823835372925,2.4899556636810303
1774472940289825300,1.5598251953125,-1.5558336042165757,2.199279392036796,0.5002661280281842,2.184460401535034,-3.6240897178649902,2.917722463607788
1774472940299853300,1.569853271484375,-0.8412889118224381,2.3523662594676016,0.705068934975192,2.7548491954803467,-3.052448272705078,3.436314105987549
1774472940309881000,1.579881103515625,-0.9742162037998436,2.0398118836581705,0.1478032462057657,3.3646345138549805,-2.5386736392974854,3.930280923843384
1774472940319909000,1.5899091796875,-0.5041138894975186,1.3562877679497003,0.0705323567323386,3.9286789894104,-2.0599205493927,4.302412509918213
1774472940329937200,1.599937255859375,0.0177563137039542,1.1025134978890418,0.6881546981185674,4.365955352783203,-1.6805373430252075,4.462024211883545
1774472940339965200,1.609965087890625,0.5068400995910167,1.2816449071586131,1.1394922523267563,4.683633804321289,-1.3048334121704102,4.367763042449951
1774472940349993200,1.6199931640625,0.7961948015987873,1.6876842068731783,1.0027451098002491,4.909010410308838,-1.044471025466919,4.019175052642822
1774472940360021000,1.63002099609375,0.1018754433706402,1.8010925593882798,0.5197488271333277,5.062869071960449,-0.6962317228317261,3.4838993549346924
1774472940370049300,1.64004931640625,-0.0209188693881034,1.5120008922308683,0.9683750765562056,5.122354507446289,-0.0611757524311542,2.801084518432617
1774472940380077000,1.6500771484375,-0.5295663106620312,1.4233546405285595,1.3436363761693235,5.046535491943359,0.4985730350017547,1.9764788150787356
1774472940390105300,1.660105224609375,-0.2595604522466659,1.475094764637947,1.9501272288188336,4.72941255569458,0.8049187064170837,1.0653074979782104
1774472940400133000,1.670133056640625,1.1096779826909302,1.9203847092449664,2.23269183229506,4.181209087371826,0.6490478515625,0.1691195964813232
1774472940410161200,1.6801611328125,3.298130860286951,0.7352922968685627,1.241568332836032,3.6186132431030273,-0.1288315504789352,-0.6469167470932007
1774472940420189200,1.690189208984375,3.159193514239788,-0.5229746573120355,0.9149033063486218,3.070530891418457,-1.1005241870880127,-1.2121500968933103
1774472940430217200,1.70021728515625,3.016906273242831,-0.0954249520570039,-0.5860182657241821,2.578303813934326,-1.6887753009796145,-1.4837636947631836
1774472940440245200,1.710245361328125,2.4457716883957383,-0.3603291034191846,-1.0945230836570263,1.9890942573547363,-1.6887270212173462,-1.4400588274002075
1774472940450273300,1.720273193359375,1.9493074368685483,-1.490130421206355,-1.66078801664114,1.165217041969299,-1.3331608772277832,-1.1614892482757568
1774472940460301000,1.730301025390625,0.5832677979722619,-1.297439857661724,-1.1126835942476987,0.2541877031326294,-0.7237801551818848,-0.7835695743560791
1774472940470329300,1.740329345703125,-1.295328564596176,-0.8654290813446044,-1.12588560564816,-0.4702746272087097,-0.131377175450325,-0.4511462748050689
1774472940480357000,1.750357177734375,-2.6127941421985623,-1.604199867978692,-2.349344281297922,-0.8132948279380798,0.2959858775138855,-0.2341921329498291
1774472940490385400,1.760385498046875,-2.9764903839632866,-2.718970789894461,-2.8712732289493084,-0.8382890224456787,0.5982811450958252,-0.152066558599472
1774472940500413200,1.7704130859375,-3.0780344034224747,-2.7672674955517054,-2.7194424990594386,-0.7161881923675537,0.5898556709289551,-0.0944240391254425
1774472940510441200,1.780441162109375,-2.4703300833299755,-2.4467186138570307,-1.831294220906496,-0.5421847701072693,0.343737244606018,0.0307473335415124
1774472940520469200,1.79046923828125,-1.6031173334389923,-2.0444465577214954,-1.1110580388724802,-0.3463458120822906,-0.0149490032345056,0.2254246771335601
1774472940530497300,1.800497314453125,-0.9274988762885332,-1.449201029446721,-0.6452548830688,-0.1495710760354995,-0.2197329401969909,0.4256275594234466
1774472940540525300,1.810525390625,-0.5840618709594011,-0.8085083397269248,-0.4236334085941314,0.0549226813018322,-0.2944900095462799,0.5594569444656372
1774472940550553300,1.82055322265625,-0.1639066598698496,-0.4170762420356273,-0.0394452906817197,0.2183380424976349,-0.2465055137872696,0.5834220051765442
1774472940560581000,1.8305810546875,0.0483405447989702,0.1544061333358287,0.3026028906375169,0.3184009790420532,-0.3041131198406219,0.4764132499694824
1774472940570609400,1.840609375,0.0375888491600751,0.6378665263831615,0.4655851291388272,0.4021048545837402,-0.2995357513427734,0.3205841183662414
1774472940580637200,1.85063720703125,-0.0434293918818235,0.729120330235362,0.3882306713014841,0.496860921382904,-0.3203622102737427,0.1775446832180023
1774472940590665200,1.860665283203125,-0.1285144439712166,0.4859451956003904,0.1372504158735275,0.567870557308197,-0.3310910761356354,0.1015563160181045
1774472940600693200,1.870693359375,-0.1505780994802713,0.2778869670540094,0.5063841725170612,0.5624667406082153,-0.3726419806480407,0.090546540915966
1774472940610721000,1.880720947265625,-0.1409358263880014,0.3812012110561132,1.0450696091800928,0.4982734322547912,-0.326738178730011,0.1196319609880447
1774472940620749300,1.890749267578125,-0.15827362241894,0.6204080265820026,1.248473874440789,0.453865498304367,-0.3225373029708862,0.1362407654523849
1774472940630777000,1.900777099609375,-0.3008957944586873,0.5492530079066753,1.1700181773632763,0.4748151004314422,-0.3585561513900757,0.1428374201059341
1774472940640805000,1.91080517578125,-0.4294593382686376,0.4709147997289896,1.0531535469144582,0.5518427491188049,-0.4603850543498993,0.1514061391353607
1774472940650833200,1.920833251953125,-0.56380994104743,0.4490799845397472,1.1002496446102856,0.6786537170410156,-0.4922369122505188,0.181310161948204
1774472940660861200,1.930861083984375,-0.8643623288959265,0.3290221110075712,0.8423626785337924,0.851668655872345,-0.395943135023117,0.232422336935997
1774472940670889200,1.94088916015625,-0.8623150409772992,0.1435918938547372,0.5742717138290405,1.009358048439026,-0.1120382845401763,0.2677821815013885
1774472940680917200,1.950917236328125,-0.7910296739205718,-0.0551993246525526,0.7993868756383657,1.0516676902770996,0.1188948005437851,0.2502900063991546
1774472940690945000,1.960945068359375,-0.5902770922124385,0.0227419931620359,1.0496621976673604,0.9618448615074158,0.2620911598205566,0.1942260861396789
1774472940700973300,1.970973388671875,0.0797013132244348,-0.0351139834791421,0.7243178983896971,0.8164788484573364,0.2518827319145202,0.1313011795282364
1774472940711001000,1.9810009765625,0.3859583424553275,-0.1573480320066213,-0.1913157680600881,0.6363767385482788,0.1893477141857147,0.0886586457490921
1774472940721029400,1.991029296875,0.8199234677106142,-0.2234416756391525,-0.2488175244361162,0.3910357058048248,0.2354819178581237,0.0218370072543621
1774472940731058200,2.00105810546875,0.6556263472184538,0.0361480027019977,-0.0813484959095716,0.1091275364160537,0.3534829020500183,-0.0616623796522617
1774472940741086200,2.011086181640625,0.7148261396840214,0.1874725366353988,-0.2348573881447315,-0.1474595069885254,0.5377557873725891,-0.1629586368799209
1774472940751114200,2.0211142578125,0.7357222127184272,0.2575105339795351,-0.5319301171839237,-0.383571594953537,0.6940036416053772,-0.2739352583885193
1774472940761142300,2.031142333984375,0.7950564452186226,0.4916384388059377,-0.8525093940168619,-0.6073719263076782,0.8063523173332214,-0.3885622322559356
1774472940771170000,2.041170166015625,0.7894953039601444,0.5455939008772372,-1.072519926163554,-0.7982085347175598,0.9116995930671692,-0.4957440793514251
1774472940781198300,2.0511982421875,0.760834734404087,0.3487140689492225,-1.1687725612163542,-0.9513392448425292,0.9981447458267212,-0.6236280202865601
1774472940791226000,2.06122607421875,0.526127568385005,0.0048427638560533,-1.1548597711980342,-1.1014593839645386,1.1071186065673828,-0.7645063996315002
1774472940801254400,2.07125439453125,0.4017945017516612,-0.2669558231949806,-0.8155103274434804,-1.2646549940109253,1.2109774351119995,-0.8681409358978271
1774472940811282200,2.0812822265625,0.2170522668629884,-0.1938818191558122,-0.7871247754365205,-1.3860266208648682,1.2383776903152466,-0.8774935007095337
1774472940821310200,2.091310302734375,0.1814791414394974,-0.2794260131895542,-0.750748809197545,-1.456345796585083,1.229600191116333,-0.825468122959137
1774472940831338200,2.101338134765625,-0.1202192015737295,-0.0702560240089893,-0.4238391602993011,-1.486345648765564,1.2633850574493408,-0.7689656019210815
1774472940841366300,2.1113662109375,-0.4919169634863733,0.2941355065435171,-0.2565741299122572,-1.4469170570373535,1.3317772150039673,-0.7150051593780518
1774472940851394300,2.121394287109375,-0.7839280252218246,0.5597621269613504,-0.1710480560570955,-1.3981983661651611,1.482028603553772,-0.6423320174217224
1774472940861422300,2.13142236328125,-0.7513333310872315,0.8177315106242895,0.307774448056519,-1.374508500099182,1.7528156042099,-0.5377835035324097
1774472940871450000,2.1414501953125,-0.3376142905250191,1.0913409464895725,0.6111147130578756,-1.366767644882202,2.005712985992432,-0.4201337099075317
1774472940881478400,2.151478515625,0.2330751809030771,1.2886638460099695,0.93644761415869,-1.2782652378082275,2.0966854095458984,-0.3665581047534942
1774472940891506200,2.161506103515625,0.3382470354706048,1.143705339977145,0.9376394542917608,-1.0763170719146729,1.8027358055114744,-0.4141823053359985
1774472940901534200,2.1715341796875,0.1167091476261615,0.9243880507916212,1.0300704852297902,-0.7761199474334717,1.33489191532135,-0.4931705892086029
1774472940911562200,2.181562255859375,-0.0934603739857673,0.9072416856795548,0.9041936962857842,-0.4259190857410431,0.7966931462287903,-0.5287563800811768
1774472940921590300,2.19159033203125,-0.5652414351552725,1.0831254913300274,0.429622712136805,-0.0503878146409988,0.3779488801956177,-0.4364661574363708
1774472940931618300,2.201618408203125,-0.7192921791821718,1.1850140864431855,-0.3563245439529419,0.3664838075637817,0.1138364523649215,-0.2212412059307098
1774472940941646000,2.21164599609375,-0.7182803717911243,1.3451666544765233,-1.3180436697512865,0.8474235534667969,-0.043698314577341,0.0578769706189632
1774472940951674000,2.221674072265625,-0.454705130945146,1.3256173198759555,-2.303763556601107,1.373263239860535,-0.223602294921875,0.317291110754013
1774472940961702100,2.2317021484375,-0.3051309478104114,0.93367785718441,-3.21886004743427,1.8749974966049197,-0.4986128211021423,0.5256613492965698
1774472940971730200,2.241730224609375,-0.0588116699308156,0.2919131543189287,-3.8858918780252334,2.300009727478028,-0.7523196935653687,0.6832431554794312
1774472940981758200,2.25175830078125,-0.0259136089354753,-0.4222387393653392,-4.434010913465917,2.697943210601806,-0.8555952310562134,0.7535644769668579
1774472940991786200,2.2617861328125,0.157016608095169,-0.9304267464339732,-4.488161313587427,3.084707021713257,-1.079487442970276,0.7944581508636475
1774472941001814000,2.27181396484375,0.3348611924245953,-1.9208271923154592,-4.084751777854562,3.4861905574798584,-1.543038845062256,0.9261701107025146
1774472941011842300,2.28184228515625,1.3586854767411949,-2.3020558759003875,-3.15670871168673,3.88786244392395,-1.8970599174499512,1.167224407196045
1774472941021870000,2.2918701171875,1.7813462409108876,-1.961904468113184,-2.0975281595677138,4.274664878845215,-2.322944402694702,1.4738208055496216
1774472941031898400,2.3018984375,1.813313743057847,-1.9004940138608213,-0.6425012004464864,4.573704242706299,-2.494893312454224,1.81410551071167
1774472941041926100,2.311926025390625,2.4830270678177477,-1.6529788041949272,-0.1298053605645895,4.773184776306152,-2.84580397605896,2.0944981575012207
1774472941051954200,2.3219541015625,1.4926675384685395,-1.5046388390302656,-0.3136281425207853,4.957841396331787,-2.947053909301758,2.354551076889038
1774472941061982200,2.331982177734375,1.3401786369308828,-2.125877471217513,-0.4600304176211356,5.029802322387695,-2.3847193717956543,2.658271074295044
1774472941072010200,2.34201025390625,-0.284424552129209,-2.64948341217041,-0.5179074370503425,4.858175277709961,-1.4257363080978394,2.976562976837158
1774472941082038300,2.352038330078125,-1.67936777555719,-2.73851953997314,0.0319476284027099,4.448991775512695,-0.4695726037025451,3.140125036239624
1774472941092066000,2.362066162109375,-1.4428420158088209,-2.3470851041942837,0.4987450559407472,3.971702337265015,0.2137616723775863,3.123361587524414
1774472941102093800,2.37209375,-1.3049952414773405,-2.173774363902211,0.6976134313374758,3.574990510940552,0.5810526013374329,2.9367246627807617
1774472941112122000,2.3821220703125,-0.7516242768578231,-2.314565521122515,0.2555558927804231,3.3770627975463867,0.7010090351104736,2.6232810020446777
1774472941122150000,2.39214990234375,-0.1433269593082368,-2.8099977992534635,0.1299924075692892,3.3169403076171875,0.6162638068199158,2.254483222961426
1774472941132178200,2.40217822265625,-0.1339122113615274,-2.9911364566922187,0.4089689234256744,3.285966396331787,0.451704204082489,1.9487820863723757
1774472941142206000,2.4122060546875,-0.5432258565716445,-2.992813157732785,0.811615073570609,3.2204158306121826,0.3746373653411865,1.7855985164642334
1774472941152234000,2.42223388671875,-1.1729676748186348,-3.024092093093693,1.3785522067278624,3.1302196979522705,0.4739108383655548,1.7989461421966553
1774472941162262000,2.432261962890625,-1.8317232599735256,-3.002057079157233,1.7632909442603588,2.990638971328736,0.706537127494812,1.9201548099517824
1774472941172289800,2.442289794921875,-2.5042694700717925,-2.498523035374284,2.2173989860951897,2.783780574798584,1.0559799671173096,2.039523839950561
1774472941182318000,2.452318115234375,-2.62756968652606,-1.8608818421795963,2.366184941461682,2.575129985809326,1.3161659240722656,1.9848710298538208
1774472941192345900,2.462345947265625,-2.4301776672922077,-1.479307998418808,2.246051080083847,2.40714168548584,1.6460411548614502,1.75669527053833
1774472941202374000,2.472373779296875,-1.8670184452384708,-0.895570244847238,2.8097032002210613,2.178467273712158,1.986441969871521,1.421154260635376
1774472941212402000,2.48240185546875,-1.982866592121124,0.239784761544317,3.38058468708992,1.8924596309661863,2.235435485839844,1.0857594013214111
1774472941222430000,2.492429931640625,-1.7878999003380536,0.5352293048597871,3.3510306758254766,1.6604574918746948,2.524622678756714,0.8528227210044861
1774472941232458000,2.5024580078125,-1.4124775649443269,0.3984022289648651,2.7647704180389643,1.5031371116638184,2.6790504455566406,0.6780624389648438
1774472941242486000,2.512486083984375,-1.334199270260334,1.0271687724389136,1.5613023910164832,1.4840797185897827,2.6368162631988525,0.5310705900192261
1774472941252515000,2.52251513671875,-1.0939292094171047,0.951977483984828,1.132668397656083,1.6590862274169922,2.6623003482818604,0.3282820284366607
1774472941262542800,2.53254296875,-0.5573574039071798,0.6089430681072175,0.6920394305974245,2.018312931060791,2.530856847763061,0.0382057204842567
1774472941272571000,2.54257080078125,-0.9246408565089106,0.1994755475096404,0.3060813804030418,2.460123300552368,2.3367598056793213,-0.3040284514427185
1774472941282599000,2.552598876953125,-0.8424225920274854,0.3320726576846092,0.5776157635599375,2.766824960708618,2.1580018997192383,-0.6782998442649841
1774472941292627000,2.562626953125,-0.9468272616147996,0.5656455589767545,0.4093921172738075,2.877382516860962,1.810253620147705,-1.0211656093597412
1774472941302655000,2.572655029296875,-0.6835241157084703,-0.1990758441349491,0.7242085927963257,2.7140650749206543,1.524087905883789,-1.230009913444519
1774472941312682800,2.582682861328125,-0.5090490078121424,-0.1306225586989894,1.6090461389660835,2.192481756210327,1.4497097730636597,-1.1520202159881592
1774472941322711000,2.5927109375,0.0190115744620561,0.4220638577224686,2.019960935762525,1.48466956615448,1.2848303318023682,-0.8947249054908752
1774472941332738800,2.60273876953125,0.3078589114695787,0.7125142825450748,0.7517015798777341,0.9576794505119324,0.7472124695777893,-0.6700860261917114
1774472941342767000,2.61276708984375,0.2497498368501663,0.3137388363536447,-0.6130471424251794,0.6664489507675171,0.2307666987180709,-0.4811312556266784
1774472941352795000,2.622794921875,0.1053185695618391,-0.411550391286239,-1.505415668621659,0.4730436205863952,-0.0870516896247863,-0.2087949514389038
1774472941362823000,2.632822998046875,-0.3603367022037506,-1.0867726887259632,-0.9144353965759277,0.1924162060022354,-0.077783353626728,0.0996025651693344
1774472941372851000,2.642850830078125,-1.5718927586138247,-1.121903915600851,1.623341790822148,-0.3358911275863647,0.2413941919803619,0.3283191323280334
1774472941382879000,2.65287890625,-2.787124288666248,-0.8290523844532668,4.420249806877971,-1.033350110054016,1.00934100151062,0.3905239105224609
1774472941392907000,2.662906982421875,-3.1634605240345,-0.7239781450413167,5.186821039107442,-1.5312881469726562,1.693705677986145,0.2770403623580932
1774472941402935000,2.67293505859375,-2.971728576388955,-2.317481554699689,3.419172484159469,-1.6159441471099854,1.9610217809677124,0.0810194686055183
1774472941412962800,2.682962890625,-1.9253174894720315,-3.2054999228626486,2.250303476831317,-1.5698587894439695,1.81099796295166,-0.0174498073756694
1774472941422991000,2.6929912109375,-0.7873907328963279,-3.091167441239953,1.1492325789660214,-1.5608601570129397,1.3393486738204956,0.0857482179999351
1774472941433019000,2.703018798828125,0.2813222021996975,-3.264576088948548,1.0237824910014868,-1.6476932764053345,0.8673236966133118,0.3123572766780853
1774472941443047200,2.713047119140625,0.5427800125002861,-2.5288462774455547,0.7619616926074028,-1.723631501197815,0.3591035902500152,0.5372064113616943
1774472941453075000,2.723074951171875,0.7353910810679197,-2.031109229503572,-0.4600666579782962,-1.6689167022705078,-0.2075047343969345,0.6707525849342346
1774472941463103000,2.73310302734375,1.0324936207234858,-1.4253972522720693,-1.8456687832176684,-1.5334678888320925,-0.8390579223632812,0.6777068972587585
1774472941473131000,2.743131103515625,1.5281459713459014,-0.8481248953223228,-2.7567537003219127,-1.430383324623108,-1.421817660331726,0.571937620639801
1774472941483159000,2.753158935546875,2.039270031866431,-0.0340374402888119,-2.9594460179209707,-1.4201754331588743,-1.9105311632156368,0.2946250140666961
1774472941493187000,2.76318701171875,1.5788067757859825,0.8266155126951634,-2.816338692712784,-1.4241576194763184,-2.365907907485962,-0.0643558502197265
1774472941503215000,2.773215087890625,0.9216577490448952,1.460873931583762,-2.483468089583516,-1.3937270641326904,-2.49098801612854,-0.2330095916986465
1774472941513243000,2.783242919921875,0.875618466925621,1.7817076215691865,-1.9340087454497812,-1.3249503374099731,-2.3440895080566406,-0.1609297394752502
1774472941523271000,2.79327099609375,0.8540876031190157,1.6831471479654312,-1.487329392310977,-1.2862865924835205,-2.3205697536468506,-0.0126859527081251
1774472941533299000,2.803298828125,1.2489262943834063,1.2209861480563875,-1.061345036676526,-1.3146079778671265,-2.5411581993103027,0.0619638226926326
1774472941543327000,2.813326904296875,1.3769535393595695,0.5682137289643288,-0.5286959575682878,-1.4355642795562744,-2.8804399967193604,0.0494605489075183
1774472941553355000,2.82335498046875,1.3465961027577518,0.3792410168990492,0.0265010534346103,-1.6032037734985352,-2.9383816719055176,0.0050266152247786
1774472941563382800,2.8333828125,0.8765084015026688,0.2803321682490408,0.2558691965132951,-1.6862633228302002,-2.788511276245117,-0.1420888006687164
1774472941573411000,2.8434111328125,-0.2352291440665721,0.3010354951903223,0.5055822084844112,-1.6938461065292358,-2.4546058177948,-0.325030654668808
1774472941583438800,2.85343896484375,-0.9077440822437404,0.3483043191045522,0.3795020059227943,-1.6991338729858398,-1.955878496170044,-0.428173303604126
1774472941593467000,2.863466796875,-0.943107364308834,-0.1714513761609792,0.3136626293122768,-1.76369047164917,-1.4498534202575684,-0.4166896641254425
1774472941603495000,2.873494873046875,-0.5446636342898011,-0.3153928141057491,0.832726835182309,-1.9366707801818848,-1.1533842086791992,-0.3617070913314819
1774472941613523000,2.88352294921875,-0.1601549061208963,-0.5242123824134469,1.3221072659283877,-2.1242897510528564,-0.742024302482605,-0.3316419720649719
1774472941623551000,2.893551025390625,0.4196835019245744,-0.3535585863709449,0.8919751429647207,-2.2987072467803955,-0.754570484161377,-0.3979983329772949
1774472941633579000,2.9035791015625,0.8344320316649972,-0.7758674683630467,-0.3548439500063657,-2.397594928741455,-1.0323563814163208,-0.4177991151809692
1774472941643606800,2.913606689453125,1.2029229603603482,-0.535342555975914,0.0814835204660892,-2.561185121536255,-1.1784507036209106,-0.4758515059947967
1774472941653635000,2.923635009765625,0.2599175951212644,0.7604276149079203,0.7030272730797529,-2.6333255767822266,-0.8815951943397522,-0.6186621189117432
1774472941663662800,2.933662841796875,-0.4595135541401803,1.370216340059042,0.4276134181410074,-2.520561456680298,-0.3877559304237366,-0.8002047538757324
1774472941673691100,2.943691162109375,-0.8551319976054131,1.575163450847566,0.0364788420915603,-2.331540107727051,0.0120651302859187,-0.9636951684951782
1774472941683719000,2.953718994140625,-0.7016061542354524,1.2628759092807769,0.2437035424232482,-2.19386625289917,0.2451729476451873,-1.0856029987335205
1774472941693747000,2.963746826171875,-0.3517328322485089,1.2459256512627004,0.8291665123522282,-2.185804605484009,0.4220812916755676,-1.2149218320846558
1774472941703775000,2.97377490234375,-0.1983678785286843,1.3728008035942911,1.2972165702998637,-2.236328363418579,0.6835547685623169,-1.3616825342178345
1774472941713803000,2.983802978515625,-0.1489372004054486,1.0597259110420942,1.5246873553246258,-2.288949489593506,0.8659220337867737,-1.4970250129699707
1774472941723831800,2.993831787109375,-0.2766147551611065,0.6010942543029785,1.6702794830858707,-2.3620965480804443,0.9116125106811525,-1.574649453163147
1774472941733860000,3.003860107421875,-0.0121796826153993,0.2361351529955863,1.7209440869182346,-2.4533612728118896,0.8643299341201782,-1.5629712343215942
1774472941743888000,3.013887939453125,-0.0378869553238153,0.3234241448700428,1.3235153791606424,-2.4801342487335205,0.8368359804153442,-1.4766545295715332
1774472941753916000,3.023916015625,0.4898527244329452,1.3753063566744326,0.6602747575461864,-2.3923771381378174,0.7156328558921814,-1.4680553674697876
1774472941763944000,3.03394384765625,-0.4723898407176137,2.6433359954565763,0.5108984350711107,-2.0820908546447754,0.7157968878746033,-1.5293283462524414
1774472941773972000,3.043971923828125,-0.5833098835483193,1.8634341570109128,0.1460614988386631,-1.667228102684021,0.7761210203170776,-1.4792852401733398
1774472941784000000,3.054,-0.035412674164772,1.2989531848341225,0.6712415572404861,-1.392560601234436,0.7652803063392639,-1.3493852615356443
1774472941794028000,3.064028076171875,0.4876923315286636,1.6603040325164793,1.761177313107252,-1.3251014947891235,0.6101270318031311,-1.2857558727264404
1774472941804055800,3.074055908203125,0.0509752772167325,1.7403256637364626,2.656284908878803,-1.330004096031189,0.4691987037658691,-1.3186373710632324
1774472941814084000,3.084083984375,-0.6767240803048015,1.3350211080372332,3.3037562989532945,-1.361974835395813,0.5597065091133118,-1.3917118310928345
1774472941824111900,3.09411181640625,-1.534506446288526,0.909574512541294,3.6728894710749382,-1.407332181930542,0.6885145902633667,-1.4903178215026855
1774472941834140200,3.10414013671875,-2.22482124505043,0.2578834589451551,3.271390737399458,-1.4335154294967651,0.7222303152084351,-1.4975361824035645
1774472941844168000,3.11416796875,-2.1592320438086987,-0.3867945010185241,3.1021155362337827,-1.4720909595489502,0.748973548412323,-1.365045189857483
1774472941854196000,3.124196044921875,-2.34627144972384,-0.4670084399402141,3.0529782880991694,-1.4807966947555542,0.8571634292602539,-1.1456530094146729
1774472941864224000,3.13422412109375,-2.204637119677663,-0.4832902971774339,2.757422393363714,-1.3678046464920044,1.0014561414718628,-0.9059542417526244
1774472941874252000,3.144251953125,-1.8520391950324175,-0.9043938950330018,1.7207471030414103,-1.0554053783416748,0.943862795829773,-0.7399741411209106
1774472941884280000,3.154280029296875,-1.5201640326812862,-0.8348504032075404,1.0066004700541495,-0.6317355632781982,0.8108474612236023,-0.6753615736961365
1774472941894307800,3.164307861328125,-1.2576736644625663,-0.589078822338581,0.1389589733570814,-0.1858257949352264,0.4754477441310882,-0.5823882222175598
1774472941904336000,3.1743359375,-0.8696721257418394,-0.8620055366367101,-0.7490729849398136,0.1169018447399139,0.1195157319307327,-0.355910062789917
1774472941914364000,3.184364013671875,-0.4552408452570438,-1.2208341723650693,-0.884169437649846,0.1943339407444,-0.2488919049501419,-0.0925507172942161
1774472941924392000,3.194391845703125,-0.6010887013450265,-1.130564703375101,-1.072050555086136,0.1779432445764541,-0.3645857572555542,0.0958245173096656
1774472941934420000,3.204419921875,-0.6173872174561024,-0.7052350122570991,-2.060190070298314,0.2017480581998825,-0.3555699586868286,0.1574465632438659
1774472941944448000,3.214447998046875,-0.7879094960734248,-0.083404843917489,-3.1141473348110917,0.2715524435043335,-0.2142115086317062,0.1118095591664314
1774472941954475800,3.224475830078125,-0.7329720372274517,0.3517109126776456,-3.61854179481566,0.3006668388843536,0.0291289370507001,0.0008567934855818
1774472941964504000,3.234504150390625,-0.5797849242925643,0.5597387460857629,-3.33556364210248,0.1827729493379593,0.2267602533102035,-0.1490722447633743
1774472941974531800,3.24453173828125,-0.3581710486024618,0.7477548880785703,-3.276784120875597,0.0114520909264683,0.2391302436590194,-0.2587104737758636
1774472941984560000,3.25456005859375,-0.276789234945178,0.4048720095008611,-3.725321084579825,-0.1334933787584304,0.2284256666898727,-0.2860795259475708
1774472941994588000,3.264587890625,-0.2409352467536926,0.1536515155762434,-3.7339866215944286,-0.2400211840867996,0.3335314691066742,-0.3055801391601562
1774472942004616000,3.274615966796875,-0.7370861945480108,0.2141238121956586,-3.813419054749608,-0.2349625080823898,0.3426216542720794,-0.3988983631134033
1774472942014644000,3.28464404296875,-1.3982377349287272,0.2222258701086044,-3.688688513231277,-0.1220590248703956,0.6269774436950684,-0.494121640920639
1774472942024672000,3.294672119140625,-1.1854723516047,0.716786918362975,-3.8237516481935976,0.102896861732006,0.8663221001625061,-0.5509337782859802
1774472942034700000,3.304699951171875,-1.3420330326259136,0.8287666993796825,-4.479031081670523,0.4331714212894439,0.8450878262519836,-0.5455232262611389
1774472942044728000,3.31472802734375,-0.4867874916434287,-0.555611437022686,-4.925087918996811,0.7431026697158813,0.6764900088310242,-0.4353671073913574
1774472942054755800,3.324755859375,1.3686416380882265,-2.157888227984309,-4.773976735553145,0.6858845353126526,0.1068584397435188,-0.3204845190048218
1774472942064784100,3.3347841796875,2.055263135290146,-2.744647082942724,-2.5268542268455025,0.0880791544914245,-0.4776300489902496,-0.2905913591384887
1774472942074812000,3.34481201171875,2.761716291165352,-2.524979080623388,-1.054241342151165,-0.8273563981056213,-0.715620219707489,-0.3664653599262237
1774472942084840000,3.35483984375,3.5838171029150483,-2.6591432209193706,-0.8881061925768852,-1.650115966796875,-0.3619550764560699,-0.5541590452194214
1774472942094868700,3.36486865234375,4.344710874029993,-1.7439292411863805,-2.303331302663684,-2.2148871421813965,-0.1405452340841293,-0.9543423652648926
1774472942104896500,3.374896484375,2.8827538233846424,-0.6890238821685314,-3.6699236070066688,-2.5329036712646484,-0.0441859401762485,-1.450231671333313
1774472942114924500,3.384924560546875,2.1891209861159324,0.1697819816440343,-3.960999141457677,-2.748439073562622,0.8935462832450867,-1.7859174013137815
1774472942124952600,3.39495263671875,2.378241289958358,0.3450327500879764,-2.4682892251521347,-3.008753776550293,2.0742244720458984,-2.0012524127960205
1774472942134980400,3.40498046875,1.1426064388245345,0.5167798943251372,-0.563582269771397,-3.332258462905884,3.0594727993011475,-2.1080453395843506
1774472942145008600,3.415008544921875,1.3241232819259166,0.9092617933303118,0.2645344412669539,-3.529502391815185,4.098333835601807,-1.9940110445022583
1774472942155036400,3.425036376953125,2.092322407618165,0.9746043263345956,0.6621455198541283,-3.5050880908966064,5.02360200881958,-1.7575852870941162
1774472942165064400,3.435064453125,2.1400410211265086,1.448583774331212,1.027228539802134,-3.268767833709717,5.665509223937988,-1.6074399948120115
1774472942175093800,3.44509375,0.8250561544239521,2.701681216919422,1.3399164788633584,-2.847108602523804,6.251478672027588,-1.6589488983154297
1774472942185121500,3.45512158203125,1.0320096365988254,3.213196322584152,1.3629187303967774,-2.2068893909454346,6.966871738433838,-1.7243883609771729
1774472942195149600,3.465149658203125,0.7063245610594749,2.9370009618788955,1.169721386373788,-1.4836989641189575,7.413602352142334,-1.692982792854309
1774472942205177600,3.475177490234375,1.0195195728600024,2.1230483852714297,1.18500860655047,-0.7836495041847229,7.655964851379394,-1.5241509675979614
1774472942215205400,3.485205322265625,2.236759520125389,0.5366220743924379,1.0544093921944495,-0.1865112483501434,7.31870174407959,-1.2664387226104736
1774472942225233700,3.495233642578125,3.400038744622469,-0.6549708059191703,1.6392884247556327,0.1647666096687317,6.501603603363037,-0.9515926837921144
1774472942235261400,3.505261474609375,4.057292693042755,-0.4869838909983635,2.5229551735803484,0.285840779542923,4.992006301879883,-0.6234515309333801
1774472942245289500,3.51528955078125,3.113006932604313,-0.7653221089512109,3.1456802449330685,0.3869215846061706,3.4424586296081543,-0.2132866531610489
1774472942255317500,3.5253173828125,2.215433238980174,-1.5895359673321243,3.2687428532391785,0.5558376908302307,2.2396774291992188,0.2170764803886413
1774472942265345500,3.535345458984375,0.8485042500287294,-1.659070106807351,3.176691177007556,0.7757362127304077,1.4766498804092407,0.5650129318237305
1774472942275373600,3.54537353515625,-0.4292980102270841,-1.4509990187793969,3.403074751317501,0.9765918850898744,0.8603979349136353,0.7356950044631958
1774472942285401600,3.555401611328125,-1.5165823748022318,-1.0702695168882608,3.52696942653358,1.1168259382247925,0.5778834223747253,0.7266743183135986
1774472942295429400,3.565429443359375,-1.6645944231867789,-0.5942348899275064,3.8393712421298014,1.1559804677963257,0.7308267951011658,0.4917753636837005
1774472942305457700,3.575457763671875,-2.028295633387565,-0.2318511920660734,4.739270748353004,1.05711567401886,1.040725827217102,0.0028674760833382
1774472942315485400,3.5854853515625,-2.037878869768977,0.2902548657178879,4.973898419395089,0.9579011797904968,1.0430264472961426,-0.608057975769043
1774472942325513700,3.595513671875,-1.421029996973276,0.139164725062251,3.702454003733396,0.9677658081054688,0.6136533617973328,-1.165613055229187
1774472942335541500,3.60554150390625,-0.6467582733690739,0.0921253259897232,3.153447079542279,1.0453433990478516,0.0105000780895352,-1.4978387355804443
1774472942345569500,3.615569580078125,0.156819039696455,1.0480220292448996,3.039159606105089,1.1523619890213013,-0.62196284532547,-1.549275517463684
1774472942355597600,3.62559765625,0.3500058623254299,2.643856804460287,3.153206256523728,1.3763552904129028,-1.0751954317092896,-1.3501155376434326
1774472942365625600,3.63562548828125,0.7103893262803554,3.500972230967879,2.566868841847777,1.8291903734207156,-1.1917580366134644,-1.0467538833618164
1774472942375653600,3.645653564453125,0.9330442354559898,3.409503323060274,1.6184791532218454,2.453122138977051,-1.3493034839630127,-0.7396187782287598
1774472942385681700,3.655681640625,0.3134083622902631,2.9679876362949607,1.1606846779592337,3.067572116851806,-1.343837857246399,-0.4437697529792785
1774472942395709400,3.66570947265625,0.4222381548434495,3.1189754856199023,1.1438939944170414,3.491993904113769,-1.1631288528442385,-0.2399878799915313
1774472942405737700,3.67573779296875,0.0730804337799549,3.019504473042488,1.1301714662738145,3.7420942783355713,-0.9042998552322388,-0.1491088420152664
1774472942415765500,3.685765625,0.1957347535461187,2.308452298939228,1.1353101443365217,3.841319561004639,-0.6062374711036682,-0.1990107893943786
1774472942425793500,3.69579345703125,-0.111342652156949,1.616159770363569,0.5114940994093194,3.780778646469116,-0.7202441692352295,-0.3230294287204742
1774472942435821600,3.705821533203125,-1.0533692354917523,0.244058347210288,-0.5848302249833941,3.614615201950073,-0.7170518040657043,-0.3558736443519592
1774472942445849600,3.715849609375,0.3377250574231147,-1.2928233037769794,-0.5039862445298582,3.2053914070129395,-0.0198559165000915,-0.4296490550041199
1774472942455877600,3.725877685546875,0.4763461771279573,-0.1710071395248174,0.7058284481056034,2.494415521621704,0.7069939970970154,-0.6581916213035583
1774472942465905400,3.735905517578125,-0.2860281879335641,0.7106500230431556,0.5657482156336308,1.884023070335388,1.2682054042816162,-0.8739305734634399
1774472942475933400,3.745933349609375,-0.2485258480131626,-0.8021423118263482,-0.4491810337614267,1.5286859273910522,1.5650317668914795,-0.9665305018424988
1774472942485961500,3.75596142578125,0.080392802619934,-1.6768004092872142,-0.7402288034226745,1.236196994781494,1.646343231201172,-0.9586235284805298
1774472942495989500,3.765989501953125,0.2958288664579391,-1.0766405132248995,-0.2970126694150269,0.9567596912384032,1.291010856628418,-0.8937304019927979
1774472942506017500,3.776017578125,0.4497609525412321,-0.9420508409932256,-0.3006903350144624,0.8334305882453918,0.7585439085960388,-0.6933243274688721
1774472942516045600,3.786045654296875,0.7017185285687446,-1.3974033299311994,-0.63902563329041,0.8119903802871704,0.126594677567482,-0.3821577131748199
1774472942526073300,3.7960732421875,0.182069216287136,-1.4042185629040005,-0.344556437813118,0.7964769005775452,-0.3803635835647583,-0.0053507667034864
1774472942536101600,3.8061015625,-0.5228904861599206,-1.3050427338808774,0.1251305736865848,0.7736887335777283,-0.5881510376930237,0.366221934556961
1774472942546129400,3.81612939453125,-1.3210650633990764,-0.9698641460701822,0.2399581453498452,0.738000214099884,-0.589393675327301,0.6220177412033081
1774472942556157700,3.82615771484375,-1.8956302072167397,-0.773621150740981,-0.1944458827793598,0.6733466982841492,-0.3338193595409393,0.7242318987846375
1774472942566185500,3.836185546875,-1.964867994093895,-0.7061936281561851,-0.1391113874398171,0.5007568597793579,0.0133854635059833,0.6868579387664795
1774472942576213500,3.846213623046875,-1.7646248232126236,-0.4805468436881899,-0.2026487707182765,0.239101842045784,0.349053144454956,0.6006812453269958
1774472942586241500,3.856241455078125,-1.3104939850240944,-0.4408154295414686,-0.36647359752357,-0.0348322391510009,0.553629457950592,0.4754972159862518
1774472942596269600,3.86626953125,-0.9081839349657296,-0.3382517116457224,-0.2550024966813624,-0.2596772313117981,0.7443763613700867,0.2963680028915405
1774472942606297600,3.876297607421875,-0.4875619831472635,0.2499392219424247,-0.402911084691435,-0.3741033971309662,0.7419704794883728,0.0754888802766799
1774472942616325600,3.88632568359375,-0.1234288112699985,0.6255787072181701,-0.7931652246445416,-0.3351696133613586,0.6010860800743103,-0.1841778457164764
1774472942626354400,3.8963544921875,0.66892158986032,0.8418208267420529,-0.8134417775411158,-0.2154709249734878,0.3174599707126617,-0.4594938457012176
1774472942636381700,3.906381591796875,1.2187819160103797,1.4249275889337063,-0.6587170797754078,-0.0714452564716339,-0.1732440590858459,-0.6944463849067688
1774472942646410500,3.916410400390625,1.415629014712572,1.6298860978990792,-0.2028795107342302,0.106912761926651,-0.757745623588562,-0.7824955582618713
1774472942656438500,3.9264384765625,1.8431027321219444,1.4494637720361352,0.27919373880364,0.2989754378795624,-1.269489884376526,-0.708767831325531
1774472942666466600,3.936466552734375,1.8681237761318683,1.5452528812304138,0.6175716341122984,0.4841056168079376,-1.7047555446624756,-0.5394381880760193
1774472942676492500,3.946492431640625,1.8687462919443845,1.4955983312234282,0.7813024990238249,0.6342079639434814,-1.4555743932724,-0.4742504358291626
1774472942686520600,3.9565205078125,1.2688351099461317,1.8531041939154267,1.023423886822164,0.7574294805526733,-1.136281132698059,-0.5846690535545349
1774472942696548400,3.96654833984375,-0.5549918438196182,1.7198744118601084,1.6015740495197477,0.7954604029655457,-0.8354318737983704,-0.7208203077316284
1774472942706576600,3.97657666015625,-0.9629021981030702,0.7312617261782288,1.4425345572948456,0.7245358824729919,-0.659644603729248,-0.7528104186058044
1774472942716604400,3.9866044921875,-0.5053045605868101,0.385837930946052,1.3355994924470782,0.61604243516922,-0.7284297347068787,-0.6253863573074341
1774472942726632700,3.9966328125,-0.045196401554346,0.2075169612765312,0.9951663451090454,0.5102627277374268,-0.6729393005371094,-0.3858488202095032
1774472942736660500,4.006660400390625,0.2479015786349773,-0.0546010664984583,0.55097851652503,0.3716691136360168,-0.4679669737815857,-0.2064696550369262
1774472942746688500,4.0166884765625,0.1517769538760185,-0.355522287659347,0.3343015127152204,0.1774937659502029,-0.264259397983551,-0.1887356638908386
1774472942756716500,4.026716552734375,-0.1737403638809919,-0.6021937399774789,0.2526508189886808,-0.0075893169268965,0.0321095027029514,-0.3370521962642669
1774472942766744600,4.03674462890625,-0.6417302160739898,-0.731943863223493,0.3055114715605974,-0.1054863184690475,0.3091629445552826,-0.5428985953330994
1774472942776772600,4.046772705078125,-0.667207771679759,-0.8921613131865859,0.4214693624280393,-0.0977091565728187,0.3281974494457245,-0.6665294766426086
1774472942786800600,4.056800537109375,-0.5311228924542665,-0.7864546210899949,0.2219156351156532,-0.0195379257202148,0.1727809607982635,-0.6151123642921448
1774472942796828400,4.066828369140625,-0.246160287925601,-0.7848077306658029,0.2256669504731893,0.104566179215908,-0.062526598572731,-0.4632227122783661
1774472942806856700,4.076856689453125,0.2075561242431402,-0.6047796648174524,0.4824786885336041,0.2932308912277221,-0.3876897692680359,-0.309946596622467
1774472942816884500,4.086884521484375,0.2406003157109022,-0.4824935938417911,0.2986300414837897,0.4870330989360809,-0.6513058543205261,-0.2422956675291061
1774472942826912800,4.096912841796875,0.0057458501756191,-0.5422685558468103,0.157302877690643,0.611406683921814,-0.8130737543106079,-0.2190350890159607
1774472942836940500,4.1069404296875,-0.4506318901568651,-0.4895525724425911,0.2104427855953574,0.599298357963562,-0.4958370923995971,-0.1866538226604461
1774472942846968600,4.116968505859375,-0.9715794255554676,-0.3798690856695175,0.634953415415436,0.5834658741950989,0.0094082197174429,-0.2272851467132568
1774472942856996600,4.12699658203125,-0.489603133586049,-0.0489002245083451,1.538849443928897,0.6198912262916565,-0.0559644326567649,-0.3595040440559387
1774472942867025700,4.137025634765625,-0.7531506096422672,-0.0724240156978368,0.3344631330177188,0.5765208601951599,-0.0212354809045791,-0.3750806152820587
1774472942877053400,4.147053466796875,-0.8999065204858779,-0.8759767788439988,0.1463333015173673,0.4346157908439636,0.1018452122807502,-0.3279338181018829
1774472942887081700,4.157081787109375,0.1537263343781232,-0.9888286665201188,0.5487842213511467,0.3249859511852264,0.0348350219428539,-0.3493107259273529
1774472942897109500,4.167109619140625,0.0103881230235099,-0.710377051320672,0.3951392816461622,0.2815278470516205,-0.0611098334193229,-0.4058029651641845
1774472942907137500,4.177137451171875,-0.0905862798541784,-0.8595575589627027,0.0372667775988578,0.2485877275466919,-0.1837790310382843,-0.4303245544433594
1774472942917165600,4.18716552734375,-0.038376200145483,-0.7859364424347877,0.0507300702840089,0.2638694047927856,-0.285489946603775,-0.3893599808216095
1774472942927193600,4.197193603515625,-0.2543184599399566,-0.5672255947098136,0.5279597522482276,0.3744390606880188,-0.307155042886734,-0.2795029878616333
1774472942937221600,4.2072216796875,-0.4514543124556541,-0.3629126901715994,0.6148828334197401,0.5261856317520142,-0.2540495097637176,-0.1361105740070343
1774472942947249700,4.217249755859375,-0.4545312356829643,-0.124479781627655,0.6516375698432326,0.6694748997688293,-0.2140389829874038,0.0016614058986306
1774472942957277400,4.22727734375,-0.2782300814032554,0.2086173237338662,0.743617057621479,0.7481489181518555,-0.2029517889022827,0.0606425479054451
1774472942967305700,4.2373056640625,-0.2423743396461009,0.2128898864865303,0.6841083453372121,0.7367985248565674,-0.1430458426475525,0.0029110759496688
1774472942977333500,4.24733349609375,-0.0985147347658872,-0.111292383274436,1.01390144071728,0.6750710010528564,-0.1571336686611175,-0.2002083361148834
1774472942987361500,4.257361572265625,0.0157242233544588,-0.128920394423604,1.0465881970494986,0.6127620935440063,-0.1492499113082885,-0.4805694222450256
1774472942997389600,4.2673896484375,0.1477303088337183,-0.2008513659074902,0.9738286657869816,0.5837146639823914,-0.1722254306077957,-0.7526840567588806
1774472943007417300,4.277417236328125,0.435918889671564,-0.0275838802352547,1.0925082367032766,0.6139106750488281,-0.2889722883701324,-0.969713807106018
1774472943017445600,4.287445556640625,0.5502683224290609,0.1721133472010493,1.227134733814001,0.7121680378913879,-0.5290012955665588,-1.1162128448486328
1774472943027473400,4.297473388671875,0.4822971944868564,0.507063386952877,1.6304139211654662,0.865340530872345,-0.8279576897621155,-1.1204081773757937
1774472943037501700,4.307501708984375,0.1492331146121025,0.6745818075791001,1.7078396906733513,1.0632246732711792,-0.8351531028747559,-0.9680131673812866
1774472943047529500,4.317529541015625,0.2418886019557714,0.5654542011231184,1.1377788725376128,1.2263025045394895,-0.7538089752197266,-0.7100697755813599
1774472943057557500,4.3275576171875,-0.0044482115805149,0.3800476571068167,0.4537693113997578,1.3950872421264648,-0.4747929275035858,-0.4758808016777038
1774472943067585500,4.33758544921875,-0.5384896218299865,-0.1981789318278431,0.0418432917341589,1.486601710319519,-0.1727622598409652,-0.3644951581954956
1774472943077613600,4.347613525390625,-0.5536901135712862,-0.1066486491218209,-0.1783443505451083,1.47453773021698,-0.0181779488921165,-0.3455832004547119
1774472943087641600,4.3576416015625,-0.7519891646474599,0.503884610786289,-0.3031295448601245,1.4261789321899414,0.1818443536758422,-0.3908425569534302
1774472943097672400,4.36767236328125,-0.4196101444274187,0.2489478728175163,-0.3100798023894429,1.3557907342910769,0.3009865283966064,-0.5092064142227173
1774472943107700200,4.3777001953125,-0.1316764151334762,-0.046916064953804,-0.4400292475998401,1.2844446897506714,0.4195603132247925,-0.6634413003921509
1774472943117728500,4.387728515625,-0.2005237413883209,0.0248173381313681,-0.7185673720389604,1.2254387140274048,0.4948925077915191,-0.8109511137008667
1774472943127756300,4.39775634765625,-0.3493862691223621,0.0099433018654584,-1.2497177370220425,1.144185185432434,0.5372282266616821,-0.8734483122825623
1774472943137784600,4.40778466796875,-0.3235240981131791,-0.1048566511385142,-1.214460253418982,1.035913348197937,0.5034924745559692,-0.8004913926124573
1774472943147812400,4.417812255859375,-0.0813467423439025,-0.0096495796158909,-0.7886956780150532,0.9636831283569336,0.3725967705249786,-0.630607545375824
1774472943157840400,4.42784033203125,0.320896672219038,0.3060487933076918,-0.636373657476902,0.9329702854156494,0.2093490064144134,-0.4868481755256653
1774472943167868400,4.437868408203125,0.5527233143657445,0.3310651611424982,-0.459962613081932,0.895494282245636,0.2765879929065704,-0.3468569815158844
1774472943177896400,4.447896484375,-0.2109592106848955,0.0479369324341416,0.1402957749187946,0.8587213158607483,0.4391004741191864,-0.2615167796611786
1774472943187924500,4.457924560546875,-0.0893190363973379,-0.4163581568941473,0.3827133691847324,0.8032175898551941,0.5693734884262085,-0.2382034510374069
1774472943197952500,4.467952392578125,-0.249545254188776,-0.7074987194053828,0.5181529362440109,0.7159220576286316,0.6046058535575867,-0.2870799601078033
1774472943207980300,4.477980224609375,-0.0708417149424553,-0.494005606328696,0.3023167671725154,0.6240409016609192,0.8174371719360352,-0.3487779498100281
1774472943218008600,4.488008544921875,-0.3537883034735918,-0.0728026397518813,0.6358928882226348,0.5754813551902771,0.9672486782073976,-0.4002662897109985
1774472943228036400,4.498036376953125,-0.2380599835783243,0.1662785035677254,0.4900231125637889,0.5968012809753418,0.9651746153831482,-0.4264403879642486
1774472943238064600,4.508064697265625,-0.3003729396283626,0.3833344236925244,0.2236915587469935,0.7251829504966736,0.8315675854682922,-0.4613750278949737
1774472943248092400,4.518092529296875,-0.2139519627600908,0.0988853947091847,-0.1863914634004235,0.8752031326293945,0.7280531525611877,-0.5208982229232788
1774472943258120400,4.528120361328125,-0.3785959969937801,-0.4363813926167786,-0.5123568171858788,0.9374151229858398,0.8188774585723877,-0.6020672917366028
1774472943268148500,4.5381484375,-0.4532932183206081,-0.3585380552839488,-0.0353270417079329,0.947561740875244,0.9134241938591005,-0.7540509700775146
1774472943278176500,4.548176513671875,-0.3533937511980533,-0.0192214178204536,0.8278355560094117,0.9879488945007324,0.760599672794342,-0.881116509437561
1774472943288204500,4.55820458984375,-0.4187649257749319,-0.3629151743896305,0.9373010161176324,0.9998034238815308,0.6076961159706116,-0.9273796081542968
1774472943298232600,4.568232666015625,0.3501800498485565,-0.52694582596533,1.1233446889936924,1.0072904825210571,0.2662261724472046,-0.9199376702308656
1774472943308260400,4.57826025390625,0.3671113109052181,-0.329232758083567,1.2181795662030577,1.0828526020050049,0.0171002224087715,-0.8798105120658875
1774472943318288600,4.58828857421875,0.7786521306455135,0.0238978851988911,1.1823425291463732,1.1661964654922483,-0.2180278599262237,-0.8417531847953796
1774472943328316400,4.59831640625,0.6675771895140409,0.2774429861461743,0.6383195308476686,1.1930142641067505,-0.0940055176615715,-0.8104666471481323
1774472943338344400,4.608344482421875,0.2889478747725487,-0.0556915651489049,0.5876213170066475,1.155760407447815,0.0136075019836425,-0.843874990940094
1774472943348373500,4.61837353515625,0.2429588615357875,0.2598824324763379,0.6882333163127303,1.0688172578811646,0.1419865190982818,-0.8319495916366577
1774472943358400300,4.628400146484375,0.0515016391783952,0.2348040505222976,0.2995277209758758,0.8838785290718079,0.3896015584468841,-0.6908391714096069
1774472943368429300,4.63842919921875,0.2356885782718658,-0.263026539188344,0.228909001134336,0.643354058265686,0.5435605049133301,-0.4799999296665191
1774472943378457600,4.64845751953125,0.0772375534594058,-0.4401675966246053,0.0461520948439836,0.4169158637523651,0.5722169876098633,-0.2700976729393005
1774472943388485400,4.6584853515625,0.2527840899795294,-0.8095264307282865,-0.3601435177192091,0.1960085332393646,0.4540786147117615,-0.160376489162445
1774472943398513700,4.668513671875,0.3262660902976989,-1.2059344171360131,-0.5257026209712028,0.0069043831899762,0.2978522181510925,-0.1442715227603912
1774472943408541400,4.67854150390625,0.2259066044479608,-1.0837463266421108,-0.5190092608124017,-0.1092653647065162,0.1621721535921096,-0.156356930732727
1774472943418569500,4.688569580078125,0.2046054577440023,-0.992813352242112,-0.5014515384204685,-0.1698425859212875,-0.1101135537028312,-0.1657575964927673
1774472943428597500,4.698597412109375,0.3638695525050163,-0.7906288380347192,-0.505127450454235,-0.1816364079713821,-0.2120415121316909,-0.1362276673316955
1774472943438625500,4.70862548828125,0.3668757485836744,-0.1924000561654567,0.200239956010878,-0.0967612266540527,-0.4174972474575043,-0.1533900648355484
1774472943448653600,4.718653564453125,0.4679682248830795,0.724245783001557,0.0311006561845541,0.046789813786745,-0.3544967174530029,-0.3312085270881653
1774472943458681300,4.728681396484375,-1.5616314768403767,0.6694141226176172,-1.0120002832710742,0.1491960883140564,0.0746509209275245,-0.42222660779953
1774472943468709400,4.73870947265625,-1.51293028203547,-0.1200498180898837,-0.3430214102655649,0.2079089283943176,-0.3665949404239654,-0.5036160349845886
1774472943478737400,4.7487373046875,-0.3771107268720865,-0.1728399809751659,-0.9187827781304716,0.2242511808872223,-0.984451413154602,-0.5643692016601562
1774472943488765400,4.758765380859375,-0.4546060544848442,-0.2998484773628413,-1.2700754653960469,0.1902032047510147,-1.2174876928329468,-0.5833362340927124
1774472943498793500,4.76879345703125,-0.1208393792986869,-1.5619745911896228,-1.390956638009846,0.0045680156908929,-1.4720240831375122,-0.5943858027458191
1774472943508821500,4.778821533203125,0.1088631103008985,-2.114629516494274,-1.2952777111917733,-0.3382103741168976,-1.6208505630493164,-0.6242145299911499
1774472943518849300,4.788849365234375,-0.201653622201085,-2.057231366623193,-0.9535974864020944,-0.7330285310745239,-1.587070345878601,-0.6311240196228027
1774472943528877600,4.798877685546875,-0.8062099996566772,-1.8895146469458937,-0.1760316896885633,-1.0392332077026367,-1.3829971551895142,-0.5495615601539612
1774472943538905300,4.8089052734375,-0.9878817410588264,-1.9463117621839048,-0.2799389311477542,-1.2852931022644043,-1.302775263786316,-0.3315000832080841
1774472943548933600,4.81893359375,-0.9828758955955504,-2.4151653915993867,-0.3487158225148916,-1.484812617301941,-1.3474119901657104,0.0657535344362258
1774472943558961400,4.82896142578125,-0.6288350786656141,-2.520681967951357,0.6594441519409417,-1.5374735593795776,-1.1500104665756226,0.4366129040718078
1774472943568989400,4.838989501953125,0.1624596759319305,-2.236448992871493,2.097785056938231,-1.294460654258728,-0.8541468381881714,0.5898983478546143
1774472943579017500,4.849017578125,-0.1191875204384326,-1.5661895785361528,3.9203798385605215,-0.8099120259284973,-0.4717675447463989,0.6296331882476807
1774472943589045500,4.85904541015625,-0.5563502726912498,-1.2894376068614422,4.5336140279904,-0.2943887710571289,-0.2183411419391632,0.613328754901886
1774472943599073500,4.869073486328125,-0.1628045438468456,-1.4423551090747118,4.616503908123076,0.0890622958540916,-0.1533932536840438,0.5999084115028381
1774472943609101600,4.8791015625,-0.5047007494747638,-1.2924435106791554,3.623685002923012,0.368897944688797,-0.1041732355952262,0.468216985464096
1774472943619129300,4.88912939453125,0.210525495442748,-0.8221678856365382,3.0085329971730705,0.6219285726547241,0.0558099932968616,0.2709002494812011
1774472943629157600,4.89915771484375,-0.3997650417506694,-0.4978626836156472,1.6704916645318268,0.8302111625671387,0.4205131232738495,0.117664098739624
1774472943639185400,4.909185302734375,-0.5511053577750921,-0.295636503957305,0.7242717211604118,0.9582242965698242,0.7727379202842712,0.103743590414524
1774472943649213400,4.91921337890625,-0.6115875912666321,-0.0522413790292572,0.2145423298686742,0.9868138432502748,0.9708238244056702,0.245847463607788
1774472943659241500,4.929241455078125,-0.2582452779948711,-0.1140369601416867,-0.3542047753199934,0.8986842036247253,1.030849814414978,0.498320072889328
1774472943669269500,4.93926953125,0.008864274457097,-0.5823309555135667,-0.5304314030587672,0.7426719665527344,0.9586208462715148,0.7150812149047852
1774472943679297500,4.949297607421875,0.3540700430244207,-1.1073832228172569,0.133064362360537,0.5868996977806091,0.6546540260314941,0.7472132444381714
1774472943689325600,4.95932568359375,-0.109268768492341,-0.5134754459522665,0.7407672211483121,0.6398955583572388,0.3187141120433807,0.6547304391860962
1774472943699353300,4.969353271484375,-0.6551707124054431,-0.2592592773430049,1.4879618449956178,0.8863608837127686,0.0267157908529043,0.5934216380119324
1774472943709381600,4.979381591796875,-0.921992095565796,-0.0538643771212082,1.5151052879869935,1.2347053289413452,-0.1969018578529358,0.5981466174125671
1774472943719409400,4.989409423828125,-0.6190022514373064,0.2962843916730955,1.65707630264163,1.5482138395309448,-0.4526546895503998,0.5870741009712219
1774472943729437400,4.9994375,-0.2044359463959932,0.4575135759619995,1.882529610364139,1.7394205331802368,-0.6476452350616455,0.5174486637115479
1774472943739465500,5.009465576171875,0.1340899060159921,0.592059335986711,2.1419266887426374,1.8460094928741453,-0.8444454073905945,0.4120621681213379
1774472943749493200,5.0194931640625,0.1899386344879865,0.7761557107198983,2.085885944829881,1.869005560874939,-0.8578760027885437,0.4021860957145691
1774472943759521500,5.029521484375,0.289163563349843,0.8230228219654411,1.8143074302703144,1.7996920347213743,-0.7436816096305847,0.4759823083877563
1774472943769549300,5.03954931640625,0.7450105578064918,0.6236220932576805,1.4312369182109832,1.6805810928344729,-0.6977654695510864,0.4278059899806976
1774472943779577600,5.04957763671875,0.8555418935805559,0.8426754708100109,0.9008627982974052,1.5624308586120603,-0.4625020325183868,0.3454542756080627
1774472943789605400,5.05960546875,0.5542559307605028,0.8030125187896192,0.1001660091042518,1.4338030815124512,-0.5058205127716064,0.2202444225549698
1774472943799633400,5.06963330078125,0.7650117278277874,1.708796553006768,-0.2605626150265336,1.3215161561965942,-0.350266546010971,0.1684041321277618
1774472943809661400,5.079661376953125,1.0368430481046438,1.8899620984524488,-1.0313041186779737,1.1183435916900637,-0.2086883783340454,0.1776149421930313
1774472943819689500,5.089689453125,0.7596919941097497,1.5439019050128755,-1.8172741711214184,0.7830323576927185,-0.1753981560468673,0.1391775012016296
1774472943829717500,5.099717529296875,2.053582050335407,1.9090899927705525,-1.613679643985629,0.5441127419471741,-0.2882778346538543,0.0312904603779315
1774472943839745500,5.10974560546875,1.5874328575730323,2.706423443010449,-2.079138224135339,0.339128702878952,-0.2639727592468261,-0.0428687706589698
1774472943849773300,5.119773193359375,1.3611667721629142,1.4512379421018062,-2.804256625252962,-0.0158613417297601,-0.2697084248065948,-0.1170854791998863
1774472943859801600,5.129801513671875,0.4362760325461626,0.7912737118095159,-2.2397090175807475,-0.3989141583442688,-0.2329958528280258,-0.1743424832820892
1774472943869829400,5.139829345703125,-0.928713512775302,0.1776825621681287,-1.4711679465830323,-0.7234400510787964,-0.2081919759511947,-0.1391064673662185
1774472943879858400,5.1498583984375,-1.9035101468116045,-0.796475445171073,-1.4238213812574745,-0.9739552736282348,-0.2638069987297058,0.0217662192881107
1774472943889886500,5.159886474609375,-2.3456863433122632,-1.1491846481710672,-1.2207011936351655,-1.1064075231552124,-0.3803589344024658,0.2154400795698166
1774472943899914500,5.16991455078125,-2.150413946580887,-1.106602813029289,-0.9844202024281024,-1.1492661237716677,-0.532544732093811,0.3719553351402282
1774472943909942300,5.1799423828125,-1.9855314274162053,-1.1030755887512116,-0.5982134381696581,-1.1302684545516968,-0.846525251865387,0.5197581052780151
1774472943919970600,5.189970458984375,-1.106039918449521,-0.7746238249775022,0.0777425803720951,-1.0037057399749756,-1.246291160583496,0.6335282921791077
1774472943929998300,5.199998291015625,0.0752992788732051,-0.2544591287859715,0.6629340398833156,-0.7689018249511719,-1.7079706192016602,0.6773865818977356
1774472943940026600,5.210026611328125,1.134050207403302,0.0657710606146603,0.8447522040188312,-0.4717819392681122,-2.0536532402038574,0.6513433456420898
1774472943950054400,5.220054443359375,1.3843138389945029,0.5241267864892258,0.8509259242177009,-0.167444422841072,-1.8527913093566892,0.5685730576515198
1774472943960082400,5.23008251953125,1.2193360427618023,0.5711377997174859,0.7748162057444453,0.0308335777372121,-1.5853395462036133,0.4073095023632049
1774472943970110500,5.2401103515625,1.0644020861595869,0.7248587272681295,0.7449573663145304,0.0680469945073127,-1.1624841690063477,0.2597610652446747
1774472943980138500,5.250138427734375,0.6281634630143642,0.7280826577506959,0.4468389276146888,-0.0783777609467506,-0.6594542264938354,0.1074514836072921
1774472943990166500,5.26016650390625,1.3603881890058516,0.3564203324776143,0.428736869212985,-0.363198310136795,-0.3527180254459381,-0.0572328045964241
1774472944000194600,5.270194580078125,1.4710294148951768,0.4176883460519835,0.3498673306375742,-0.6721795797348022,-0.0678362697362899,-0.1803237795829773
1774472944010222300,5.280222412109375,1.4187638056069611,0.1162525629650801,-0.1200619651854038,-0.9517464637756348,0.206269308924675,-0.2640277445316314
1774472944020250600,5.290250732421875,1.2130267134845256,-0.2651827125752344,-0.5107563962519168,-1.1712952852249146,0.365370899438858,-0.292814552783966
1774472944030278400,5.3002783203125,0.4749965160846709,-0.1800899155708029,-0.4657160620421171,-1.2605713605880735,0.4983590245246887,-0.2483424097299575
1774472944040306700,5.310306640625,0.2278168219834566,0.0688553634308278,-0.6870715790569781,-1.2074943780899048,0.564961314201355,-0.165756493806839
1774472944050334500,5.32033447265625,0.1967050598829984,0.1710186838321387,-1.0618062244474886,-1.0784493684768677,0.6157773733139038,-0.0908508226275444
1774472944060362500,5.330362548828125,-0.2248527114808559,0.0217285783357918,-1.2699898329392074,-1.0018658638000488,0.7413843870162964,-0.1198809668421745
1774472944070390500,5.340390625,-0.6920832697391509,0.2755894307013601,-1.240234453883767,-0.913841962814331,0.7943048477172852,-0.234135627746582
1774472944080418300,5.350418212890625,-1.556618032592535,1.202377016915381,-0.5216451622739434,-0.7229607701301575,0.6608543395996094,-0.2494343519210815
1774472944090446600,5.360446533203125,-0.9970312621980904,0.8757128672108053,-0.9160752727374434,-0.596348226070404,0.5662303566932678,-0.1843517571687698
1774472944100470300,5.37047021484375,-0.0864157161712646,0.0317936068847775,-1.0921037475556137,-0.6434584259986877,0.446655809879303,-0.0633109286427497
1774472944110498300,5.380498291015625,0.210387548276782,0.0412277171190828,-0.631494653263688,-0.7735199928283691,0.1795295774936676,0.1348399668931961
1774472944120526300,5.3905263671875,1.3663310230582952,-0.0042745355140417,-0.4216925036594271,-0.961216151714325,0.0031436276622116,0.059145264327526
1774472944130554400,5.400554443359375,2.615844177418947,0.0713786713633686,-0.6200345170944929,-1.1274280548095703,0.0692717880010604,-0.3754821121692657
1774472944140582400,5.41058251953125,0.6041857905775309,0.9425844364132732,0.2404801964625716,-1.0980207920074463,0.1444944143295288,-0.8143935203552246
1774472944150610400,5.4206103515625,-0.5536228935539722,1.154586945606023,-0.1080804354906082,-0.9557148218154908,0.3115358352661133,-1.0747580528259275
1774472944160638200,5.43063818359375,-0.6542717177391052,0.8053907191630453,-0.2857730441287159,-0.7883127927780151,0.3779740929603576,-1.0613130331039429
1774472944170666500,5.44066650390625,-0.8461620708167552,1.2361717344895005,0.1406383047461509,-0.5945406556129456,0.4157331883907318,-0.8621610999107361
1774472944180694300,5.4506943359375,-0.4248141428112983,1.2054006025202573,0.7407502700135111,-0.4364970922470093,0.2839722335338592,-0.5922061800956726
1774472944190722600,5.46072265625,-0.0863116712749004,0.6590508417744189,1.3477072788700462,-0.3697010278701782,0.0223954934626817,-0.402509480714798
1774472944200750300,5.470750244140625,-0.089615388995409,-0.1588016648810356,1.7212790179610251,-0.3804030120372772,-0.2463454008102417,-0.4382559657096863
1774472944210778400,5.4807783203125,-0.5045429285645484,-0.9956867887865752,2.1699410693496466,-0.373357892036438,-0.478499561548233,-0.6283172369003296
1774472944220806400,5.490806396484375,-1.5197452227473258,-1.3851815617397427,2.6116066859796643,-0.2297621220350265,-0.6561163663864136,-0.7744942307472229
1774472944230834400,5.50083447265625,-2.6001141088455912,-1.7202284859947858,2.715164675609768,0.0031752521172165,-0.607292652130127,-0.7034040689468384
1774472944240862500,5.510862548828125,-3.2115140685856343,-2.064053759989142,2.9000550867974755,0.2651398479938507,-0.5813369154930115,-0.4469388425350189
1774472944250890500,5.520890380859375,-3.4163381375163797,-1.9537039182618257,3.628255379578471,0.5439155101776123,-0.4462504684925079,-0.0946513637900352
1774472944260918300,5.530918212890625,-3.4108377865344286,-2.06908868541643,3.799143276637792,0.7665154337882996,-0.2499034106731414,0.1887044161558151
1774472944270946600,5.540946533203125,-3.002517097884416,-2.260538016728312,4.121303685182332,0.9133592247962952,-0.1936284303665161,0.4254080355167389
1774472944280974300,5.550974365234375,-2.961551465767622,-2.503085813245177,3.879647430677712,0.8741725087165833,-0.0029775565490126,0.5757961273193359
1774472944291002600,5.561002685546875,-1.7169202382296322,-3.284421191625297,3.436575746642053,0.7431958913803101,0.0924251303076744,0.6156761646270752
1774472944301030400,5.571030517578125,-1.3437141175806522,-2.9185227636411786,3.6454473373979326,0.6861194372177124,0.1304412633180618,0.6009551286697388
1774472944311058400,5.581058349609375,-1.0304857880324123,-2.9207714193508028,2.5952593622908,0.6475728154182434,0.1883445084095001,0.6307151317596436
1774472944321086500,5.59108642578125,-0.6811316676139831,-2.9293150835514066,1.564622767610848,0.6360681056976318,0.2119495272636413,0.6336236000061035
1774472944331114500,5.601114501953125,-0.3478244266331196,-2.080999634093046,1.359063077881932,0.6717653870582581,0.4171450138092041,0.6846127510070801
1774472944341142500,5.611142578125,-0.2703706000745296,-1.9353326875299213,0.7154708673283457,0.6878212094306946,0.415998250246048,0.7931792736053467
1774472944351170300,5.62117041015625,-1.4938257685929537,-1.542012584134936,0.4130585308268666,0.5924158692359924,0.6508486270904541,0.9912912845611572
1774472944361198300,5.6311982421875,-1.244199265861511,-2.557391111667454,0.3068599635601043,0.4198997616767883,0.8044793605804443,1.13857901096344
1774472944371226400,5.641226318359375,-2.1796090614050625,-2.06427207891494,0.6065215400487184,0.2871624827384949,1.0009385347366333,1.297116994857788
1774472944381254400,5.65125439453125,-2.464901336279511,-2.7698914143145084,0.5265574842348695,0.1614157408475875,0.8804286122322083,1.4507650136947632
1774472944391282400,5.661282470703125,-1.871862378138304,-2.319718666101992,0.7941963212579488,0.1745949238538742,0.6742948889732361,1.6172988414764404
1774472944401310500,5.671310546875,-0.4030138144135475,-1.3447986979469655,0.9998322910934686,0.2809282839298248,0.2505478262901306,1.6300551891326904
1774472944411338200,5.681338134765625,1.224286943167448,-0.3095084322422742,0.971384779766202,0.4328128695487976,0.043220467865467,1.53869891166687
1774472944421366500,5.691366455078125,1.988183987751603,0.5625213625416159,1.1623118407696484,0.5906012654304504,-0.2305559962987899,1.3202301263809204
1774472944431394300,5.701394287109375,4.0721950786203145,1.8017424015991388,1.6096446893811225,0.8638924956321716,-0.6957321763038635,0.9697046875953674
1774472944441422300,5.71142236328125,4.287149496421217,3.597215513670444,1.5275035817891358,1.2003469467163086,-1.1165876388549805,0.6727758049964905
1774472944451450400,5.721450439453125,3.899443725776672,3.318697262975573,1.0337585260927675,1.2407926321029663,-0.7681721448898315,0.5424013137817383
1774472944461478400,5.731478515625,3.1991993614137173,2.1095659494943915,1.5150325150117276,0.979725420475006,-0.5942652821540833,0.4410924613475799
1774472944471506400,5.74150634765625,1.8669962334066628,2.66482272786051,2.5334309748873114,0.719196617603302,-0.1760656237602234,0.3908913433551788
1774472944481534500,5.751534423828125,0.8775771997779607,1.9332779469572008,2.27731277204901,0.4220420122146606,0.2413834035396576,0.3950027525424957
1774472944491562200,5.761562255859375,-0.3658692018896341,1.0236777154527603,1.5923127385690807,0.0846623703837394,0.2071556597948074,0.3814051747322082
1774472944501591600,5.771591552734375,-0.215738261654973,0.9846046190842984,1.4757649189844726,-0.2364887744188308,0.7293590903282166,0.4522518515586853
1774472944511619300,5.781619384765625,-1.1799205626964568,-0.019821137279272,0.978825743421912,-0.5298575758934021,0.8486934900283813,0.5122978687286377
1774472944521647400,5.7916474609375,-1.12961543982625,-0.1331245681151747,0.6023910161152481,-0.6928925514221191,0.8606324791908264,0.5514054894447327
1774472944531675400,5.80167529296875,-0.7618740143239497,-0.0359406435616314,0.0542281415328383,-0.7675742506980896,0.8230230212211609,0.5943170189857483
1774472944541703400,5.811703369140625,-0.9054121321648358,-0.3819922153033316,-0.5493924163773656,-0.8333370089530945,0.7537292242050171,0.602276086807251
1774472944551731500,5.8217314453125,-0.403089217737317,-0.4803678338594734,-0.7004691130295395,-0.8284695148468018,0.6294501423835754,0.5754449963569641
1774472944561759500,5.831759521484375,-0.5957476325780153,0.0166316935881972,-0.8582046830490231,-0.7215740084648132,0.3742039799690246,0.5478139519691467
1774472944571787300,5.841787353515625,-0.4760393031358718,0.1375968912236392,-1.319122404898703,-0.6149312257766724,0.3470695912837982,0.598213791847229
1774472944581815600,5.851815673828125,-0.6507365293502807,-0.1141018877372145,-1.781819119119644,-0.5918673872947693,0.2800348401069641,0.6222985982894897
1774472944591843300,5.86184326171875,-0.4512374548345804,0.1292883509531617,-1.7601669670209288,-0.6171205639839172,0.3551402390003204,0.612643837928772
1774472944601871600,5.87187158203125,-1.128113803091645,-0.1018802656762301,-1.7601693051084877,-0.764290452003479,0.4156878590583801,0.6535998582839966
1774472944611899400,5.8818994140625,-1.264984864258766,-0.9686885264195502,-1.519880831825733,-0.9702611565589904,0.4811313152313232,0.7206563949584961
1774472944621927400,5.891927490234375,-1.0644640454798937,-1.1041454830050468,-1.2328405442401766,-1.168287754058838,0.5706712603569031,0.7736291885375977
1774472944631955500,5.90195556640625,-1.5832418356239797,-1.4812015570804475,-1.138290036930144,-1.3779581785202026,0.8312892913818359,0.8186120986938477
1774472944641983500,5.9119833984375,-2.3107103069990877,-2.1277090705588457,-0.5315212441220879,-1.491668939590454,0.8309998512268066,0.8572660088539124
1774472944652011500,5.922011474609375,-2.0507634857833383,-1.5606006724879145,-0.1082154600471258,-1.476747989654541,0.8535741567611694,0.9279870390892028
1774472944662039600,5.93203955078125,-1.967924459055066,-1.3344167124032973,-0.054346214954555,-1.4021260738372805,1.1048458814620972,1.0447765588760376
1774472944672067300,5.9420673828125,-2.823679118603468,-1.428514215248823,0.4141977639898657,-1.213854432106018,1.0237185955047607,0.9793930053710938
1774472944682095600,5.952095703125,-2.2056460044592616,-0.6796358760982751,0.9870239551857112,-0.8496810793876648,0.9463948011398317,0.8929194211959839
1774472944692123400,5.962123291015625,-1.991893948185444,0.214423379664123,0.7337599727347492,-0.4796667993068695,0.7238059043884277,0.850686252117157
1774472944702151400,5.9721513671875,-0.8568278417378663,0.3662874273017049,0.8735112655133008,-0.1961832046508789,0.6129040718078613,0.8623603582382202
1774472944712179500,5.982179443359375,-0.6990355730950832,0.6736363434225321,1.4457292616829276,-0.018491230905056,0.0995770916342735,0.654439389705658
1774472944722207200,5.992207275390625,1.2321505161494015,1.2921233388140796,1.2091647773593663,-0.2376859337091446,-0.2761801481246948,0.1456383466720581
1774472944732235500,6.002235595703125,1.532723362264037,2.57953630798012,-0.044066228480637,-0.6944854259490967,-0.0869963839650154,-0.0545501448214054
1774472944742263300,6.01226318359375,3.277177504107356,2.465649816559255,-1.947263656081259,-1.1129634380340576,-0.0217094868421554,0.0292036309838295
1774472944752291300,6.022291259765625,3.18304317638278,2.7614930038034915,-4.431665811644495,-1.413611650466919,0.2344884723424911,0.199528768658638
1774472944762319400,6.0323193359375,3.129965666189789,3.900271116511524,-5.520090286165476,-1.5867688655853271,0.4573453664779663,0.2577374279499054
1774472944772347400,6.042347412109375,2.6464181793808934,4.069817828094959,-4.99610732859373,-1.7124617099761963,0.6692916750907898,0.1509678363800048
1774472944782375400,6.05237548828125,2.6882489038944244,4.350384828013182,-3.455493213079869,-1.7483545541763306,0.8313724994659424,-0.0323016569018363
1774472944792403500,6.062403564453125,1.6116957766920328,4.296303401474654,-1.577303531616181,-1.7258585691452026,0.90850830078125,-0.1812354773283004
1774472944802431200,6.07243115234375,0.4883282913446426,3.172614429087937,0.0889260915569961,-1.654914617538452,0.7757059931755066,-0.2831980586051941
1774472944812459500,6.08245947265625,0.3707645727157592,1.773568592646718,1.1822465214259923,-1.5646883249282837,0.5849016904830933,-0.3138220310211181
1774472944822487300,6.0924873046875,-0.0061228667944669,0.9192527337297796,1.3986404705107212,-1.5409690141677856,0.4869473874568939,-0.3179145753383636
1774472944832515600,6.102515625,-0.9254314223647117,-0.5092839856117963,1.6456106135144828,-1.569941520690918,0.4961036145687103,-0.2036143541336059
1774472944842543400,6.11254345703125,-1.3085375902593137,-1.4241975210934876,1.362990334328264,-1.623805284500122,0.5056613683700562,-0.0816214457154274
1774472944852571400,6.1225712890625,-0.4530243382513523,-1.463942379243672,0.528196629744023,-1.6766557693481443,0.6395275592803955,-0.0083344466984272
1774472944862599400,6.132599365234375,-0.934888402017951,-1.4742475001588462,0.4265793989181518,-1.612687110900879,0.5275740623474121,0.0616505481302738
1774472944872627500,6.14262744140625,0.5634358470380306,-0.8816331971704959,-0.6566743949666619,-1.533119559288025,0.4530148208141327,0.0868280753493309
1774472944882655500,6.152655517578125,0.6301917539715767,-0.2927142415687441,-1.6495432767882945,-1.4466853141784668,0.4463647603988647,0.0496874451637268
1774472944892683500,6.16268359375,-0.234237210419774,-0.2574544198781252,-1.199398293365538,-1.320178508758545,0.3849860727787018,0.0848640725016594
1774472944902711300,6.172711181640625,0.3571230008542537,-0.1601283103749156,-1.4972989976614712,-1.243227481842041,0.4682978689670563,0.144346684217453
1774472944912739600,6.182739501953125,-0.9152911366224288,-0.6106418348491192,-1.2330606167316436,-1.1608390808105469,0.5554929375648499,0.1850802600383758
1774472944922767400,6.192767333984375,-1.6174726065278051,-1.2648407796129584,-0.1385563108403235,-1.0526279211044312,0.5492015480995178,0.2619137465953827
1774472944932795600,6.202795654296875,-0.916542013466358,-1.535586058218777,-0.1516354995787143,-0.914760410785675,0.4216385781764984,0.3130839765071869
1774472944942823400,6.212823486328125,0.0977507646560668,-1.4220850589841605,-0.3429691686216741,-0.7550860643386841,0.1945070624351501,0.3015845715999603
1774472944952851500,6.2228515625,0.7717799067884683,-0.9499252276301384,-0.9579892185550184,-0.6134541034698486,0.0705377161502838,0.2759513854980469
1774472944962879500,6.23287939453125,0.7501034970313311,-0.7149155715331434,-1.127022719919309,-0.4976754784584045,0.0597411319613456,0.2148425132036209
1774472944972907300,6.2429072265625,0.1876899787783622,-0.8020157628372311,-0.8517003426562995,-0.3857968747615814,0.0833239555358886,0.148936465382576
1774472944982935600,6.252935546875,0.1008773722440004,-0.8084007876992225,-0.5065246039010584,-0.2759768068790436,0.0606982260942459,0.1172138676047325
1774472944992963300,6.26296337890625,0.4399468300133943,-0.7514598800763488,-0.5678730257678777,-0.1745817363262176,0.0223833266645669,0.1620689630508422
1774472945002991400,6.272991455078125,0.4779454290181398,-0.6861673236936331,-0.3566622514747083,-0.0785057842731475,0.0009899204596877,0.2058731317520141
1774472945013019400,6.283019287109375,0.2963713027715682,-0.8270788924232125,-0.0580561753883957,0.0141716860234737,0.0093932589516043,0.2397714406251907
1774472945023047400,6.29304736328125,0.1828144816964864,-0.8009460877791047,0.0739919956669211,0.0718568265438079,0.1748507171869278,0.2551404535770416
1774472945033075500,6.303075439453125,-0.0405851083666086,-0.8925289774551987,0.2930368976518511,0.1212736442685127,0.3685818314552307,0.3403757214546203
1774472945043103500,6.313103515625,-0.3027279783219099,-1.0147747164204717,1.1042313346575945,0.1575624346733093,0.4151656925678253,0.4700486958026886
1774472945053131300,6.32313134765625,0.3803355341374874,-1.1081032807201143,0.8340183362975716,0.159847155213356,0.4730100631713867,0.4934853017330169
1774472945063159600,6.33315966796875,1.04610012127161,-1.0024532872468233,0.4487376373754814,0.1765716075897216,0.5468461513519287,0.4379295706748962
1774472945073187300,6.343187255859375,0.9543857141703368,-0.5835442768260837,0.4694054546119645,0.2107330411672592,0.6631083488464355,0.3294507563114166
1774472945083215400,6.35321533203125,0.9149059366971254,-0.2120598654031753,0.5480875443238765,0.2577994167804718,0.7355575561523438,0.200547769665718
1774472945093243400,6.363243408203125,0.8336451190710067,0.3257332985952496,0.5620125362366437,0.31419238448143,0.7593396306037903,0.1457857191562652
1774472945103276000,6.373276123046875,0.6329734936445951,0.5410553806647658,0.6378960447385906,0.3578338027000427,0.6995380520820618,0.1893289685249328
1774472945113304000,6.383303955078125,0.4522855025827884,0.5182455829635262,0.5445584203496575,0.3712041974067688,0.6351721286773682,0.2125962078571319
1774472945123332000,6.39333203125,0.2623562204450368,0.5493403939291834,0.3967143124105408,0.3483410477638244,0.5638021230697632,0.1685509085655212
1774472945133360000,6.403360107421875,0.0626823738843202,0.5979238075733184,0.1800146035785786,0.2850041687488556,0.4935420453548431,0.1031090468168258
1774472945143388200,6.41338818359375,-0.1064057802766561,0.7353761757597327,0.0436231608882546,0.1779883205890655,0.3928959369659424,0.006069665774703
1774472945153416200,6.423416259765625,-0.2578746911168098,0.9405407286912202,0.0021552783377468,0.0665680542588234,0.3960835039615631,0.0265597589313983
1774472945163444000,6.43344384765625,-0.7681330747187137,0.8009244604691863,0.5258126937495544,-0.0384240299463272,0.3586359918117523,0.0751988217234611
1774472945173472000,6.443471923828125,-0.4234305794984102,0.9247373026207087,0.6335006593238562,-0.1096292361617088,0.3056494891643524,0.0720227360725402
1774472945183500000,6.4535,0.0022463176220655,1.3416042858198285,0.2494283132782205,-0.1806822717189788,0.2771755158901214,-0.0030372613109648
1774472945193528000,6.463528076171875,0.0353799409389495,1.577761358386278,0.2103663228256627,-0.2779398560523987,0.2402500063180923,-0.1066022664308548
1774472945203556000,6.47355615234375,-0.211541979008913,1.433193312975764,0.4941400463633238,-0.3907731175422668,0.4404118061065674,-0.1160810142755508
1774472945213584000,6.483583984375,-1.113684295722842,1.0490367592453955,1.4492976216889917,-0.4722440242767334,0.4016284644603729,-0.1732244491577148
1774472945223612200,6.493612060546875,0.3657598962962627,0.8162044471874833,0.5172592753399163,-0.618044912815094,0.3799245059490204,-0.1776216030120849
1774472945233640000,6.503639892578125,-0.6065028353482484,1.2786243902936576,0.27343652698379,-0.7289442420005798,0.5876425504684448,-0.138769268989563
1774472945243668000,6.51366796875,-1.15822427919507,0.4991831550970673,1.1171659272935242,-0.8572620749473572,0.8209483027458191,-0.1411539018154144
1774472945253696000,6.523696044921875,-1.3481541458547115,-0.1632765452727675,1.5728689101696014,-0.974136769771576,1.3782107830047607,-0.0486849695444107
1774472945263724000,6.53372412109375,-2.6974399260878563,-0.7022589190557599,3.2277073707565664,-0.911922574043274,1.924398183822632,0.0071652578189969
1774472945273752000,6.543751953125,-0.6936866132825613,-1.2423466237321494,3.2594396028429267,-0.8689059019088745,1.6400083303451538,0.1407265067100525
1774472945283780000,6.553780029296875,1.779912993237376,-0.926924583531916,-0.2958308392193168,-0.8916170597076416,1.097470760345459,0.2788135409355163
1774472945293807900,6.563807861328125,2.5113831014692782,-0.3286675984814763,-3.354256652134657,-0.993860125541687,0.5248134136199951,0.2991030514240265
1774472945303836200,6.573836181640625,1.8369290119230743,0.6350938467994331,-4.786457446941733,-1.0650064945220947,0.0139802955090999,0.2655218541622162
1774472945313864000,6.583864013671875,0.6492243712216615,1.011332759273052,-4.589982688683271,-1.283095121383667,-0.7531828880310059,0.2621870636940002
1774472945323892200,6.593892333984375,0.398656203725934,0.4510398864358663,-6.400254579827189,-1.550716996192932,-1.1195183992385864,0.1948459446430206
1774472945333920000,6.603919921875,-1.335924194356799,1.0868123631492257,-4.088172984474897,-1.7532418966293335,-1.3616667985916138,0.1949585825204849
1774472945343948000,6.613947998046875,-2.3857757771164176,0.0595648263856768,-2.313578848172724,-1.872193455696106,-1.4362972974777222,0.2419258058071136
1774472945353976000,6.62397607421875,-2.0158640218377117,-0.1322431091055274,-0.752176357782632,-1.935721516609192,-1.641326069831848,0.3203186094760895
1774472945364004000,6.634004150390625,-1.7188035677582023,0.2783157138600945,-0.004396262197569,-1.9634817838668823,-1.909353256225586,0.4094462394714355
1774472945374032100,6.6440322265625,-1.6166308950066566,0.7978770555973053,0.2876947329062968,-1.9536832571029663,-2.2768313884735107,0.5666395425796509
1774472945384060200,6.65406005859375,-1.37616911098361,1.2166694539010523,0.0770103936400264,-1.938008427619934,-2.3087306022644043,0.7122873663902283
1774472945394088000,6.664087890625,-1.0198755466908216,1.8135273858085277,0.5876417752727866,-1.9084068536758425,-2.365689992904663,0.8230730295181274
1774472945404116200,6.6741162109375,-0.969126187184453,1.656065664294362,0.221786273114942,-1.9489201307296755,-2.4692013263702397,0.8615930676460266
1774472945414144000,6.68414404296875,-1.128615907394886,1.660392295321822,0.1561434054572135,-2.055803775787353,-2.4392178058624268,0.9284730553627014
1774472945424172300,6.69417236328125,-1.4373714754432438,1.7836384435012935,0.55418425376378,-2.161951780319214,-2.227020502090454,1.0617595911026
1774472945434200000,6.704199951171875,-1.1451958707958458,1.6347592568933962,0.8396031506925821,-2.254536390304565,-2.089883089065552,1.19155752658844
1774472945444227800,6.714227783203125,-1.0524690717816352,1.6588918276309963,0.8374936842579395,-2.3553617000579834,-1.8353052139282229,1.3461976051330566
1774472945454256000,6.724256103515625,-1.3705588698863982,1.6000567768245937,1.1653487973127514,-2.431128978729248,-1.621822476387024,1.457858920097351
1774472945464284000,6.734283935546875,-0.9059984076201916,1.611173798644543,1.349721541301906,-2.5234475135803223,-1.5019675493240356,1.5035892724990845
1774472945474312200,6.744312255859375,-0.8969085077136755,1.5557418342798948,1.1107752764083445,-2.626864433288574,-1.443660020828247,1.5123050212860107
1774472945484340000,6.754340087890625,-0.5897083524137735,1.34030518592,1.426745013619214,-2.756560802459717,-1.48575758934021,1.517562985420227
1774472945494368000,6.764367919921875,-0.0382651409864425,1.0057195955663918,1.3558978918492792,-2.924210548400879,-1.5092853307724,1.4570870399475098
1774472945504396000,6.77439599609375,0.2782499551475048,1.049666289320588,1.800260492478311,-3.081578254699707,-1.495248794555664,1.3994122743606567
1774472945514424000,6.784424072265625,0.1508580854654312,1.5230466023802756,1.8574793402597307,-3.1624484062194824,-1.2878717184066772,1.3323687314987185
1774472945524453000,6.794453125,0.2439770986676216,1.497316533318162,1.6729476793818174,-3.20892596244812,-1.114444136619568,1.2082489728927612
1774472945534481200,6.804481201171875,0.6786883661150932,1.375149120286107,1.2672615770190954,-3.227134227752685,-1.0888221263885498,0.98941832780838
1774472945544509000,6.814509033203125,0.0937882907658815,1.400682789993286,1.2186257756005971,-3.2125110626220703,-0.9871233701705932,0.7873014211654663
1774472945554537000,6.824536865234375,0.1455728385388851,1.4750076708763835,1.3159282850325107,-3.172092199325561,-0.765150785446167,0.6754971742630005
1774472945564565000,6.83456494140625,0.6387041462510824,1.46593179949522,1.3538503116697072,-3.149470090866089,-0.581071138381958,0.6956741809844971
1774472945574593000,6.844593017578125,1.2585913638293742,1.556485346123576,1.2616761781021952,-3.1011476516723637,-0.5793288946151733,0.7229034304618835
1774472945584621000,6.85462109375,0.8789666083097457,1.6806290276646614,0.8848309702984988,-3.032899618148804,-0.564018964767456,0.7471081018447876
1774472945594649000,6.864649169921875,1.263606561642885,1.2789105137586594,0.7898990624554455,-2.957829713821411,-0.6423587799072266,0.6841280460357666
1774472945604676900,6.8746767578125,1.2176537887632846,0.8045937966316938,0.5516274819530547,-2.891621828079224,-0.4051576256752014,0.4449843466281891
1774472945614705200,6.884705078125,0.930839418888092,0.5515665455460548,0.5308423219472169,-2.7876272201538086,-0.4847637712955475,0.2210340946912765
1774472945624733000,6.89473291015625,0.9649293200165032,-0.1259101066917181,1.1956474163994193,-2.7592692375183105,-0.4028232395648956,-0.1239117458462715
1774472945634761200,6.90476123046875,1.1441741265326737,-0.6483183622926473,0.5051096225365996,-2.807213306427002,-0.3588523268699646,-0.3828551769256592
1774472945644789000,6.9147890625,1.2766630270928143,-0.1001835447609424,-0.2506602296933531,-2.8687784671783447,-0.3366340100765228,-0.6324201226234436
1774472945654817000,6.924817138671875,1.3526023574352264,-0.1022071595430374,-0.0288406022980809,-2.9226768016815186,-0.3233253955841064,-0.8469153642654419
1774472945664845000,6.934844970703125,1.0687111815303565,-0.2428670915991067,0.0987150796435773,-2.946259021759033,-0.274086058139801,-1.0291645526885986
1774472945674873000,6.944873046875,0.8589543323725461,-0.4824889176666736,0.2262795294135808,-2.919477701187134,-0.2342539727687835,-1.1750130653381348
1774472945684901000,6.954901123046875,0.9360077614367008,-0.6801736362367868,0.4813806641638278,-2.8553578853607178,-0.3114081919193268,-1.3153212070465088
1774472945694929200,6.96492919921875,0.6534025336891413,-0.6124369015723466,0.8623626795113086,-2.757629156112671,-0.4645513892173767,-1.4353793859481812
1774472945704957000,6.97495703125,0.0612976415276527,-0.4665718020886182,1.22140145085901,-2.614192247390747,-0.4398245215415954,-1.4918259382247925
1774472945714985200,6.984985107421875,-0.1146276651769876,-0.4439323925182223,1.3076777585595845,-2.3993866443634038,-0.0862592682242393,-1.4278757572174072
1774472945725013000,6.995012939453125,0.7789964140385389,-0.5728206382378935,0.9568278466254472,-2.168222665786743,0.0185958966612815,-1.3251508474349976
1774472945735041000,7.005041015625,0.8506038526564836,-0.5503855190679431,0.5892953876987099,-1.9510579109191892,-0.1958476901054382,-1.2595270872116089
1774472945745069000,7.015069091796875,-0.9471645307451486,-0.1475304023474454,0.6055027183949947,-1.7586352825164795,-0.4319199621677398,-1.1978344917297363
1774472945755097000,7.02509716796875,-1.2023334700345991,0.0574590862780809,0.7499579510807991,-1.592861294746399,-0.4887081384658813,-1.0902273654937744
1774472945765125000,7.035125,-0.5394102438062429,-0.337998613667488,0.6704670657366514,-1.448707103729248,-0.3283008635044098,-0.9375892877578736
1774472945775153200,7.045153076171875,0.0584095188707113,-0.7012731228888034,0.3998226171568035,-1.3579121828079224,-0.1433195769786834,-0.7399284243583679
1774472945785181000,7.055180908203125,0.2510989133715629,-0.8923314090564847,0.2439694998830556,-1.3367730379104614,0.0521840006113052,-0.5113773941993713
1774472945795209000,7.065208984375,0.2755821972429752,-0.9804264566168188,0.1856160951137542,-1.4117472171783447,0.2554593682289123,-0.2647289633750915
1774472945805237000,7.075237060546875,0.4788391629874706,-1.0439099177509543,0.3105351449415087,-1.5688542127609253,0.3937947750091553,-0.0449159517884254
1774472945815265000,7.08526513671875,0.6398708519428968,-1.099283429926634,0.8142810779094696,-1.7610596418380735,0.3067107498645782,0.089886337518692
1774472945825293000,7.09529296875,0.3304968597352504,-1.1169611254364251,1.531621246241033,-1.905529499053955,0.0638510137796402,0.1258115172386169
1774472945835320800,7.10532080078125,-0.2607078687161207,-1.0680170617863536,1.612979971283674,-2.008274793624878,-0.1993140280246734,0.0437091961503028
1774472945845349000,7.11534912109375,-0.2662736861497163,-0.943344387935102,1.1211717288687824,-2.146765947341919,-0.4273470640182495,-0.16098053753376
1774472945855377000,7.125376953125,-0.3184241446256637,-0.005391629910469,0.6594581804662942,-2.1423656940460205,-0.7370452880859375,-0.2890567183494568
1774472945865405200,7.1354052734375,-0.5840332293868065,-0.6567565202921628,0.5051379718482494,-1.9905328750610352,-0.7231074571609497,-0.2484213411808014
1774472945875433000,7.145432861328125,-0.2790489965707063,-1.9894176211997865,0.4091904572218656,-1.8379992246627808,-0.6432632207870483,-0.0898077338933944
1774472945885461000,7.1554609375,0.5817816510677337,-2.1041452396199105,1.001263200679421,-1.7661244869232178,-0.7583525776863098,0.1131162643432617
1774472945895489000,7.165489013671875,0.6043406888782977,-1.4252569670185449,0.8237947561860084,-1.7406784296035769,-0.9564573764801024,0.3017759025096893
1774472945905517000,7.17551708984375,0.3044914808630943,-0.676665335854888,0.5464969871968031,-1.685327172279358,-1.1151539087295532,0.4425572156906128
1774472945915545000,7.185545166015625,0.0710755236983299,-0.3596984043002128,0.5468737115547061,-1.568752408027649,-1.1937041282653809,0.5351526737213135
1774472945925573000,7.195572998046875,-0.290260126414895,-0.4323617817118764,0.6375432857781649,-1.4099700450897217,-1.207568645477295,0.5800373554229736
1774472945935601000,7.205600830078125,-0.5117816476464271,-0.6750432876110076,0.5462231386914849,-1.2677724361419678,-1.1612589359283447,0.6057900786399841
1774472945945629200,7.215629150390625,-0.6342547656267881,-0.685264529635012,0.3553343638718128,-1.1638699769973757,-1.0717884302139282,0.6335553526878357
1774472945955657000,7.225656982421875,-0.9260656286150216,-0.1806049889534711,0.3735249773398041,-1.0352752208709717,-0.9466928243637084,0.6479758620262146
1774472945965685200,7.235685302734375,-0.8037953397303819,0.0697831458002328,0.3762459267362952,-0.8660529851913452,-0.8282618522644043,0.6503930687904358
1774472945975713000,7.245713134765625,-0.4727759174257516,-0.2864253705576062,0.2743465179681777,-0.655371904373169,-0.7884699702262878,0.6509028077125549
1774472945985741000,7.255740966796875,-0.2496452074319124,-0.6900903423562645,0.2818275213733315,-0.4058357179164886,-0.8481060266494751,0.6173858642578125
1774472945995769000,7.26576904296875,-0.1245154374629259,-0.8659694718316197,0.2472659110799431,-0.1141554117202758,-0.9647399187088012,0.543146550655365
1774472946005797000,7.275797119140625,0.0829787274599075,-0.9484516479462384,0.3364671663165092,0.2257355749607086,-1.0778942108154297,0.4054366052150726
1774472946015825200,7.2858251953125,0.5063812499076128,-1.1756707962974906,0.6771870216414332,0.5731680989265442,-1.2652369737625122,0.1674421578645706
1774472946025853200,7.295853271484375,0.8210907579243183,-1.2617907443925738,1.1063739727094768,0.8446757793426514,-1.6548105478286743,-0.1761394441127777
1774472946035881000,7.305880859375,0.3513292198836803,-0.9802575297906996,1.303270171250403,0.9286924004554749,-2.083807945251465,-0.6277961134910583
1774472946045909000,7.315908935546875,-0.6186369252562522,-0.5016904617428779,1.2827964152812956,0.8234783411026001,-2.4087836742401123,-1.1339455842971802
1774472946055937000,7.32593701171875,-1.2818962515711785,-0.0285229146510362,1.0233277329713106,0.5106048583984375,-2.5077178478240967,-1.604381799697876
1774472946065965000,7.335965087890625,-1.2864327259570358,0.3839104700148105,0.7335531981162726,0.0571915693581104,-2.535489797592163,-1.916935920715332
1774472946075993000,7.3459931640625,-1.5737375096976756,0.9361310955554246,0.4730921437680721,-0.2912550866603851,-2.4781882762908936,-1.9669599533081052
1774472946086020900,7.356020751953125,-1.2964537692338227,0.2412821604952216,0.3062847940206527,-0.5718854069709778,-2.164499044418335,-1.8017421960830688
1774472946096049200,7.366049072265625,-0.5046230080634355,-1.0055364940844476,0.0879796044871211,-0.9212971925735474,-1.4600937366485596,-1.516810655593872
1774472946106072000,7.376072021484375,-0.2883826421052217,-1.4007044173032044,0.8832983539037406,-1.3633241653442385,-0.5489493608474731,-1.1848737001419067
1774472946116100000,7.38610009765625,0.2074152544677257,-0.7902281482793391,1.0553938731871544,-1.8318074941635127,0.2137256264686584,-0.8858087062835693
1774472946126128000,7.396128173828125,0.5329021770864725,0.1537348099455237,0.6217547650158405,-2.2443134784698486,0.6511753797531128,-0.6395553946495056
1774472946136156200,7.40615625,0.2670546073943376,0.5059877205453813,0.3631526364073157,-2.5253748893737797,0.733726441860199,-0.4590772092342376
1774472946146184200,7.41618408203125,0.0258732769250869,0.3476021621845662,0.4205734365016221,-2.665606737136841,0.5498217344284058,-0.339011400938034
1774472946156212000,7.4262119140625,-0.0339618908345699,0.1480830677941441,0.5083562032423913,-2.670746088027954,0.3187293708324432,-0.2600593268871307
1774472946166240300,7.436240234375,0.1711561926066875,0.1090495727837085,0.5737742857009173,-2.545567512512207,0.3558796048164367,-0.137329563498497
1774472946176268000,7.44626806640625,1.173430031633377,0.1895810532219707,0.4615592346236109,-2.364771604537964,0.1092876866459846,0.0696489065885543
1774472946186296300,7.45629638671875,1.943043115776777,-0.1617557654462754,0.4517588483601808,-2.144237279891968,-0.7365952134132385,0.2410831004381179
1774472946196324000,7.466323974609375,-0.0623591332793235,-0.2285867834426462,0.2161265303201973,-1.9260634183883667,-1.260850429534912,0.4276835918426513
1774472946206352100,7.47635205078125,-0.7215104397535324,0.1724322038918733,-0.5550071875192225,-1.7171961069107056,-0.7836914658546448,0.6413337588310242
1774472946216380200,7.486380126953125,1.1408008507072924,0.3511941953271627,-0.4880639413200318,-1.4912500381469729,0.0972364321351051,0.9144736528396606
1774472946226408200,7.496408203125,2.1402537870943545,-0.1376946525096893,-0.5617683522172272,-1.221180081367493,0.9251206517219543,1.2361162900924685
1774472946236436200,7.506436279296875,1.9026503151118757,-0.5434532355867326,-1.1475662531889974,-0.9163546562194824,1.4060832262039185,1.5302424430847168
1774472946246464300,7.51646435546875,1.042288454028964,-0.5985397475145757,-1.889752401224524,-0.6496617197990417,1.3772737979888916,1.7797400951385498
1774472946256492000,7.526491943359375,-0.249535901838541,-0.1866239569820463,-2.116630627183616,-0.4890928268432617,0.7210932970046997,1.8043622970581052
1774472946266520300,7.536520263671875,-2.0070944399267434,0.8711560806892812,-1.9289364106215536,-0.4896554052829742,-0.1935539543628692,1.8612935543060305
1774472946276548000,7.546548095703125,-2.7761300164431333,1.8757383427888157,-1.1580180890984832,-0.5903686881065369,-0.9710749983787536,1.8520886898040767
1774472946286576400,7.556576416015625,-2.125489348682761,2.213371922536194,0.1603008904628455,-0.6300305128097534,-1.2835956811904907,1.8960620164871216
1774472946296604200,7.566604248046875,-1.72617497330904,2.115117007750273,1.4334990179240703,-0.4462569952011108,-1.2118117809295654,1.9597859382629397
1774472946306632200,7.576632080078125,-0.7843050418406724,0.7271078213691711,1.6594398169025777,-0.0680779963731765,-0.9893353581428528,2.0073416233062744
1774472946316660200,7.58666015625,-0.7510521760582923,-0.6852858646839857,0.8413219373092055,0.3460741937160492,-0.8094526529312134,2.00142502784729
1774472946326688000,7.59668798828125,-0.610049129652977,-0.9031623074114322,0.2820996163129806,0.7198144793510437,-0.698857843875885,1.9266109466552732
1774472946336716300,7.60671630859375,-0.6436492014378309,-0.6530103195011615,0.0069141633026301,1.0248074531555176,-0.6703090071678162,1.7982122898101809
1774472946346744000,7.616744140625,-0.4795967033565044,-0.1507946648404002,0.1301592885687947,1.2562907934188845,-0.7765092253684998,1.586004614830017
1774472946356773000,7.626773193359375,-0.3454688034176826,0.6705673112407327,0.2929045034438371,1.336477279663086,-1.1769760847091677,1.126036524772644
1774472946366801200,7.63680126953125,-1.728579111841321,1.874047320961952,0.8550434425391257,1.4710217714309692,-1.4013874530792236,0.7197887301445007
1774472946376829200,7.6468291015625,-1.8244786956727503,2.0779390774786477,1.3196549043402075,1.724867582321167,-1.4648841619491575,0.4037689864635467
1774472946386857200,7.656857177734375,-0.6027648178637027,0.9473612223610282,1.264212418581545,2.0381875038146973,-1.5658472776412964,0.1710443943738937
1774472946396885200,7.66688525390625,-0.5217313792526722,-0.1793158259257674,1.0522415466360746,2.3031911849975586,-1.6874972581863403,-0.0171193964779377
1774472946406913300,7.676913330078125,-1.0975754569649696,-0.599616290704906,0.5537425744108856,2.366677761077881,-1.8158258199691768,-0.1452875584363937
1774472946416941000,7.686941162109375,-1.2869997121900318,-0.3259557091742753,0.1330289531204384,2.127528667449951,-1.892741560935974,-0.3130941390991211
1774472946426969000,7.696968994140625,-1.177450957712531,0.6121759125486016,0.4564129577763378,1.7352136373519895,-1.7961927652359009,-0.52960604429245
1774472946436997000,7.7069970703125,-1.1613900497496128,1.5143842802360652,0.6666142627660184,1.3807343244552612,-1.3755946159362793,-0.6703802347183228
1774472946447025200,7.717025146484375,-0.2736106049090623,1.754470508944988,0.0529633457614108,1.1084555387496948,-0.5853434205055237,-0.6991446018218994
1774472946457053200,7.72705322265625,1.3139344808667897,1.7702070072591305,-0.4781184840301051,0.8116811513900757,0.465390533208847,-0.5782381296157837
1774472946467081000,7.7370810546875,2.8310967013835904,1.959697605718672,-0.4781340103927999,0.3386242985725403,1.2490507364273071,-0.2987732589244842
1774472946477109200,7.747109130859375,3.1475317180186506,2.3075714244514702,0.2303993492899462,-0.1805142015218734,1.0354048013687134,0.014694657176733
1774472946487137000,7.757136962890625,0.6996621805608272,2.500588443471491,0.8821748297665267,-0.4185408353805542,0.4547320306301117,0.3706599771976471
1774472946497165300,7.767165283203125,-1.859817135557532,1.7525179135724902,0.4995928318765014,-0.3524348139762878,0.3495342433452606,0.7673223614692688
1774472946507193000,7.777193115234375,-0.8845745113193988,0.3405424529314041,-0.1965879545756615,-0.1928933411836624,0.5379799008369446,1.0681604146957395
1774472946517221000,7.78722119140625,0.1396335116177797,0.1950344963222742,-0.3992574210220947,0.0159983523190021,0.848259449005127,1.2965964078903198
1774472946527249200,7.797249267578125,0.4808668694227934,0.3466054062321781,-0.2424303441496565,0.2203549742698669,0.9853205680847168,1.3959497213363647
1774472946537277200,7.807277099609375,0.9751543614327908,-0.0846785171151161,0.1642422119671479,0.3993422985076904,0.8084456324577332,1.33523428440094
1774472946547305200,7.81730517578125,0.1843102732121944,0.2961924390733242,0.275292749309726,0.5796770453453064,0.6188197135925293,1.1883236169815063
1774472946557333200,7.827333251953125,-0.0923164646476507,0.5771531144842506,-0.0781798027455806,0.7157099843025208,0.5725715160369873,0.9747021198272704
1774472946567361000,7.837361083984375,0.5129337402909994,0.2935857637062669,0.011365635419311,0.778160572052002,0.5129913091659546,0.6570943593978882
1774472946577389300,7.847389404296875,0.1059650507718324,0.1814171821191907,0.2531131758034229,0.7702427506446838,0.549657940864563,0.2396427989006042
1774472946587417000,7.8574169921875,-0.3585533259183168,0.1378314306318759,0.1810621946690604,0.6597322225570679,0.526650607585907,-0.1699646711349487
1774472946597445400,7.8674453125,-0.576878096935153,0.3737155314758419,-0.0719938532528001,0.3832258284091949,0.2902239263057709,-0.427112340927124
1774472946607473200,7.87747314453125,-0.9813163911938668,1.3937830936074256,-0.3229541892707347,0.0071782232262194,-0.0418463982641696,-0.4842830300331116
1774472946617501200,7.887501220703125,-0.8917062628954648,2.2684072887986897,-0.1931696888310834,-0.2395745664834976,-0.0949990972876548,-0.4082540571689605
1774472946627529200,7.897529296875,0.0033902269601821,1.6447256473734977,0.0108815142973326,-0.3251373767852783,-0.0929505228996276,-0.275455892086029
1774472946637557200,7.90755712890625,0.5065875861346721,0.2755298825338482,-0.1698716874877922,-0.3598458170890808,-0.2362602800130844,-0.1186609491705894
1774472946647585300,7.917585205078125,0.0628097996562719,-0.1367708156630396,0.0320459742106497,-0.3680238723754883,-0.3427228033542633,0.0568748973309993
1774472946657613300,7.92761328125,-0.2036538561075925,0.2605722596377134,0.0752963927963748,-0.3294820487499237,-0.2476399391889572,0.2223086059093475
1774472946667641000,7.93764111328125,0.0529424856364727,0.6878107069864868,-0.0400215835991781,-0.2140160351991653,-0.0870772674679756,0.3640092015266418
1774472946677669400,7.94766943359375,0.1898661537736654,0.5769187212064862,-0.3474538397550583,-0.1159728169441223,-0.0524990558624267,0.48671755194664
1774472946687697200,7.957697265625,0.0261661223918199,0.464125285719335,-0.3511883501082659,-0.0498279780149459,-0.0540784373879432,0.6015969514846802
