time,seconds_elapsed,accel_x,accel_y,accel_z,gyro_x,gyro_y,gyro_z
1774472938239482000,0.068482177734375,0.148916888269782,0.3783382228404283,0.1592008385327644,0.0908648893237114,0.0554975308477878,0.0434841513633728
1774472938249501200,0.078501220703125,0.5178466467738151,0.3238330179318786,0.1274226666791364,0.0898185297846794,-0.0738247707486152,0.0217956323176622
1774472938259519000,0.08851904296875,0.9696709615856408,0.1559150765940546,0.2148442171583883,0.0934875980019569,-0.1840224713087082,-0.0516601875424385
1774472938269537300,0.098537353515625,0.8881348341494798,0.1426838390991091,0.3500127304576337,0.091024175286293,-0.2674715518951416,-0.1013015061616897
1774472938279556400,0.108556396484375,0.3836860136091709,0.1085942302316427,0.3495722201485187,0.1001273617148399,-0.2669682204723358,-0.0957460328936576
1774472938289574100,0.11857421875,-0.0295429053485393,0.058229193867743,0.1845971638621762,0.1013513505458831,-0.1882760673761367,-0.0310248304158449
1774472938299592200,0.12859228515625,-0.5405436317503451,-0.0004018587991595,-0.139344228081312,0.0921773016452789,-0.0706275627017021,0.0932208225131034
1774472938309611000,0.138611083984375,-0.8257382914692163,0.0682537442758679,-0.0756126922039315,0.1142311990261077,0.0469358190894126,0.2308820188045501
1774472938319629300,0.14862939453125,-0.787688839060068,0.0616281886562705,-0.0386873849865049,0.1280167698860168,0.1701055765151977,0.3603209555149078
1774472938329647000,0.158647216796875,-0.5461345836251974,0.0570195258170366,0.118799836295098,0.1537141501903534,0.2787540256977081,0.4514902830123901
1774472938339666200,0.168666259765625,-0.3087988226681947,0.0951838367775082,0.2790327943545766,0.1708732396364212,0.3883129060268402,0.5020211338996887
1774472938349684200,0.178684326171875,-0.257713947597146,0.0661582333013415,0.0745878061356022,0.1554298400878906,0.5032961964607239,0.5306764841079712
1774472938359702000,0.188701904296875,-0.0031739538609981,0.1434799579128623,-0.1111504905857145,0.1311186850070953,0.5212770700454712,0.5292679071426392
1774472938369721000,0.19872119140625,0.478636918413639,0.1576613357394933,-0.097265958547499,0.1058892235159874,0.4224252700805664,0.4768190681934356
1774472938379739400,0.208739501953125,0.6869605198979377,0.0026189503267407,-0.1519495248307939,0.067707285284996,0.3377742171287536,0.4065258800983429
1774472938389757200,0.218757080078125,0.437317650553584,0.0054033203482627,-0.0578792935846839,0.0530026368796825,0.3243226110935211,0.3390696346759796
1774472938399776300,0.2287763671875,0.1050812536746263,0.0493558593213558,0.0325257844836916,0.0585202425718307,0.3354741036891937,0.298588752746582
1774472938409794000,0.2387939453125,-0.3263818256318569,-0.0525324435308575,-0.0744420592556707,0.0640375092625618,0.362611711025238,0.272733986377716
1774472938419812000,0.24881201171875,-0.3747790690541267,-0.0263438170462846,-0.119073091145372,0.0879591777920723,0.3290964365005493,0.239948496222496
1774472938429830100,0.258830078125,-0.0617675971269607,0.0731339175328612,0.112890794914402,0.1209991574287414,0.2524890005588531,0.1836175769567489
1774472938439849200,0.26884912109375,0.1178285070449113,0.0542719806745648,0.3584530073489994,0.1565510630607605,0.1927229315042495,0.1022916734218597
1774472938449867300,0.2788671875,0.2623568049669265,0.0396694548264145,0.1730221691416576,0.1472097635269165,0.1321895569562912,0.0286246426403522
1774472938459885000,0.288885009765625,0.3701385497719049,0.0554898320317268,-0.1247462779435794,0.1202407926321029,0.084600917994976,-0.0328273810446262
1774472938469904100,0.298904052734375,0.4678372919797897,0.2084036809831857,-0.0723765050279907,0.1006937175989151,0.0619435459375381,-0.0749221071600914
1774472938479922200,0.308922119140625,0.2410936521857976,0.2604112238571047,0.045001609634608,0.0867448970675468,0.0937709212303161,-0.0870641320943832
1774472938489940200,0.318940185546875,-0.0198532859832048,0.2239958023905754,-0.0130676170316059,0.0675136819481849,0.1233479902148246,-0.0618328154087066
1774472938499959300,0.328959228515625,-0.3348135538905858,0.1613961383536458,-0.1717142283482477,0.0452633015811443,0.1790207624435424,-0.0072000459767878
1774472938509977000,0.33897705078125,-0.582611087629199,0.1823217297434806,-0.1470834166317712,0.0460638478398323,0.2090772092342376,0.0581938736140728
1774472938519995100,0.3489951171875,-0.4425923760861158,0.2353714751467108,0.0265081681619863,0.0556108839809894,0.1947957575321197,0.1070012152194976
1774472938530014200,0.35901416015625,-0.1873158847689628,0.1605842374488711,0.029819000609871,0.0577307604253292,0.1598180681467056,0.1260683834552765
1774472938540032300,0.3690322265625,-0.0736842448920011,0.1277577803850174,-0.0056511210968717,0.0544920414686203,0.0906604453921318,0.125278353691101
1774472938550050300,0.37905029296875,-0.0738607705026865,0.0770367701902985,-0.0245236706807278,0.0469531677663326,0.0189039725810289,0.1287668198347091
1774472938560069000,0.389069091796875,-0.168695355451107,0.0524479801177978,-0.0431021144225262,0.0447564274072647,-0.0415842719376087,0.1337233930826187
1774472938570087200,0.399087158203125,-0.1374725341916084,0.1266205930486321,0.0556534616282209,0.0548013374209404,-0.081409178674221,0.1260857135057449
1774472938580105000,0.40910498046875,-0.0139086983650922,0.2300888585686683,0.0725054834362119,0.0542396157979965,-0.0952482298016548,0.1057304888963699
1774472938590123300,0.419123291015625,-0.0176356099337339,0.165970606662333,-0.1517870734112337,0.0219330731779336,-0.0806237533688545,0.0832283794879913
1774472938600142300,0.429142333984375,-0.0555517913520336,0.2011672999888658,-0.1825994141736999,-0.0219278577715158,-0.0637941733002662,0.0717874392867088
1774472938610160000,0.43916015625,-0.2156196037113666,0.2812669648811221,-0.2013814541961997,-0.0664455220103263,0.0117160379886627,0.0746223703026771
1774472938620178200,0.44917822265625,-0.2062228298127651,0.328028423795104,-0.0095757197952363,-0.0858556032180786,0.1303353458642959,0.0809263288974762
1774472938630197200,0.459197265625,0.1151408753961324,0.1594870898619294,0.4687527993895113,-0.0551118031144142,0.1096905246376991,0.0696244090795517
1774472938640215000,0.469215087890625,0.3174123372346162,-0.0585597409963607,0.4378312991641461,-0.0246503185480833,0.0356270112097263,0.0406616106629371
1774472938650233300,0.4792333984375,0.3096539781928062,-0.0915998408108949,0.3456966208241879,-0.0046174898743629,-0.0745943039655685,0.0223497170954942
1774472938660252200,0.489252197265625,0.2562023739904165,-0.030002339553833,0.3835871928771957,0.0182411335408687,-0.2009019553661346,-0.0092429714277386
1774472938670270200,0.499270263671875,0.163911628305912,0.1620019952923059,0.5107850012918934,0.0147739648818969,-0.3398840725421905,-0.0525755323469638
1774472938680288000,0.5092880859375,0.2369131516307592,0.2802127796530723,0.5720915567783639,-0.0178788118064403,-0.4096134603023529,-0.0882094204425811
1774472938690307000,0.51930712890625,0.2772872475951909,0.2370192423537373,0.3118207277726382,-0.0657296925783157,-0.3649301528930664,-0.1258478611707687
1774472938700325400,0.529325439453125,0.2128472163885831,0.1200558277055621,0.0872614006146322,-0.1144565865397453,-0.2143149524927139,-0.1520103812217712
1774472938710343200,0.53934326171875,-0.0159480952382087,0.0516781647890806,0.0068013677025854,-0.1644057780504226,-0.0722012147307396,-0.1348284631967544
1774472938720362200,0.5493623046875,-0.3864326819688081,0.4225675329282879,0.0361617549494258,-0.1879480481147766,-0.0156658384948968,-0.0565185993909835
1774472938730380300,0.55938037109375,-0.3874444893598556,0.6136372172728181,0.1213073895360808,-0.1932344287633896,-0.0136445006355643,0.0263714883476495
1774472938740398000,0.569398193359375,-0.2291547925889492,0.5091694193214178,-0.1301970998285338,-0.217386245727539,-0.011165820993483,0.112924225628376
1774472938750417200,0.579417236328125,-0.0916103622049093,0.2913569817408919,-0.1470651229232549,-0.2534244060516357,-0.0282465368509292,0.1862556934356689
1774472938760435200,0.589435302734375,-0.0949520738482475,0.2122942586809396,-0.0294739134992472,-0.2737951576709747,-0.0642801448702812,0.2506654560565948
1774472938770453200,0.599453369140625,-0.1038823992788791,0.3086296035811305,0.3120483990486711,-0.2484394758939743,-0.0959083810448646,0.293433129787445
1774472938780472300,0.609472412109375,0.1308183369994163,0.2973652822449803,0.613333265890181,-0.2147695571184158,-0.1355724334716797,0.3099194467067718
1774472938790490000,0.619489990234375,0.3359130395650863,0.2318415474548935,0.5320668953061104,-0.1913028359413147,-0.2026864886283874,0.3112196028232574
1774472938800508200,0.629508056640625,0.3393359997510909,0.243707634076476,0.3184081798715517,-0.1955182254314422,-0.2874254584312439,0.3058051466941833
1774472938810526200,0.639526123046875,0.112351536938548,0.3987739848867058,0.0769181944450829,-0.2108228802680969,-0.4010457694530487,0.2663293778896332
1774472938820545300,0.649545166015625,-0.0599433043092489,0.5379755348280072,-0.0187690275605884,-0.2653962969779968,-0.502109169960022,0.2500165700912475
1774472938830563000,0.65956298828125,-0.1417453892052173,0.7073486434102058,-0.0369242203720379,-0.3131827116012573,-0.5598403811454773,0.253039538860321
1774472938840581000,0.6695810546875,0.1060299327015876,0.5270630956694483,-0.0465991992906667,-0.3966007232666015,-0.6013944149017334,0.2197875380516052
1774472938850600200,0.67960009765625,0.3716226508498191,-0.0367015449315309,-0.2458111274280585,-0.5260847210884094,-0.6893876791000366,0.1816734373569488
1774472938860618200,0.6896181640625,0.5232295088559389,-0.5077542918264866,-0.0972676390479318,-0.648426353931427,-0.7780126929283142,0.1398638486862182
1774472938870636300,0.69963623046875,0.971037573763728,-0.597206599214673,0.2487879878143779,-0.6877191662788391,-0.7962441444396973,0.0303171034902334
1774472938880655400,0.7096552734375,1.2505822448968886,0.0685498046129941,0.6597478110626339,-0.5765782594680786,-0.7914365530014038,-0.0953639969229698
1774472938890673200,0.719673095703125,0.2608037303060293,0.0471972199827432,0.4496437559023499,-0.427712082862854,-0.6936380863189697,-0.1570225656032562
1774472938900691200,0.729691162109375,-0.3318365839064121,-0.2739557650849223,-0.0688761504905298,-0.2874859273433685,-0.7186564803123474,-0.1522291451692581
1774472938910710000,0.7397099609375,-0.0519751019090414,-0.6469973428219556,-0.2363212501522153,-0.1716812998056411,-0.8135473132133484,-0.1303502172231674
1774472938920728300,0.749728271484375,0.1212158113956451,-0.6939820890977978,0.0407213384995236,-0.0855002328753471,-0.8557332158088684,-0.159466952085495
1774472938930746000,0.75974609375,0.1433136614352464,-0.554080281932652,0.0883679827501997,-0.0547404587268829,-0.8647216558456421,-0.2006767094135284
1774472938940765200,0.76976513671875,-0.0177776487529277,-0.4875064535677432,-0.0691012279506772,-0.0277550965547561,-0.7668389081954956,-0.2029153406620025
1774472938950783200,0.779783203125,-0.0136252052485942,-0.2980181931957602,0.4196239537570625,0.0651191845536232,-0.6350553035736084,-0.166775181889534
1774472938960801000,0.789801025390625,0.4056336415231227,-0.4576975907593965,0.4173404459297656,0.1527638584375381,-0.5241140127182007,-0.1471960544586181
1774472938970820000,0.799820068359375,0.8145511270225048,-0.673552464531362,-0.0298851429149508,0.1959667205810547,-0.4114713966846466,-0.1815345883369445
1774472938980838400,0.80983837890625,0.9404436980575324,-0.4141477873682975,-0.092324209562689,0.2183563858270645,-0.3656220138072967,-0.2349675744771957
1774472938990856200,0.819856201171875,0.6512865644484758,-0.0422232309624552,-0.0340488384656608,0.2033380270004272,-0.3805748522281647,-0.2651060223579407
1774472939000875300,0.829875244140625,0.1992453920155763,0.0978805285155773,-0.0694119744002819,0.1687766462564468,-0.4497943222522735,-0.2392452657222747
1774472939010893000,0.83989306640625,-0.3884925371080637,-0.0370969739899039,-0.0321347484726458,0.1542605459690094,-0.4706386029720306,-0.1618884354829788
1774472939020911000,0.8499111328125,-0.8308312306940555,-0.1192526946291327,0.0705467505838721,0.1771213859319687,-0.5038790106773376,-0.060323592275381
1774472939030929200,0.85992919921875,-0.8402642449498177,-0.0145098791286349,-0.1513989874090999,0.1958053261041641,-0.4420822262763977,0.0527275949716568
1774472939040948200,0.8699482421875,-0.3479962760686874,0.2297583114400506,-0.4151200664665549,0.2174630910158157,-0.3207266926765442,0.1284786760807037
1774472939050966300,0.87996630859375,0.1317839671611785,0.3038110973834991,-0.0399243063703179,0.2412467151880264,-0.3243123590946197,0.1250634491443634
1774472939060984000,0.889984130859375,0.3264829479187727,0.2748781406268477,-0.0505874469429254,0.2342309653759002,-0.3337669670581817,0.0689229518175125
1774472939071003100,0.900003173828125,0.1487356864839792,0.2328267590999603,-0.2364952184796333,0.2095887362957,-0.2493937760591507,0.0292354561388492
1774472939081021200,0.910021240234375,-0.1936947721511125,0.0989648166209459,-0.440765306789428,0.1960778683423996,-0.1193508952856063,0.0585858821868896
1774472939091039200,0.920039306640625,-0.5024824889034033,-0.0752761902585625,-0.4767530043631792,0.2023368328809738,0.0367580167949199,0.1031549423933029
1774472939101058300,0.930058349609375,-0.6363911931335926,-0.189508718638122,-0.276694980790466,0.2031320929527282,0.0504026599228382,0.1390572786331176
1774472939111076000,0.940076171875,-0.5650345144063234,-0.1158604218423366,-0.1413761175014078,0.2025113105773925,-0.0497590936720371,0.1566181629896164
1774472939121094100,0.95009423828125,-0.4278548256814479,-0.0943564460426568,0.0347048181563615,0.1783806234598159,-0.2127098590135574,0.1502619981765747
1774472939131113200,0.96011328125,-0.4238485126495361,-0.1120686283439397,0.1453982126243412,0.1452357172966003,-0.3260337710380554,0.1512729376554489
1774472939141131300,0.97013134765625,-0.7032686806201934,-0.2373702477484941,0.4830668636851012,0.1034524664282798,-0.2778419852256775,0.1768082529306411
1774472939151149300,0.9801494140625,-0.6957984908699989,-0.2455813189938664,0.4168194907955825,0.0871469974517822,-0.2371962964534759,0.2205591946840286
1774472939161168100,0.990168212890625,-0.4669920733273029,-0.1446817349180579,0.178218093816936,0.0820026919245719,-0.1972608566284179,0.2681204676628113
1774472939171186200,1.000186279296875,-0.3649742988765239,-0.1698085773900151,0.0705954850964248,0.053634438663721,-0.112136386334896,0.3059040904045105
1774472939181204000,1.010203857421875,-0.2810270186454057,-0.1701022996395826,-0.020472002403438,0.029983339831233,-0.0970959961414337,0.3432374596595764
1774472939191223000,1.02022314453125,-0.0756985073238611,-0.1543997035950422,0.0423912810057401,0.0376889295876026,-0.1068679317831993,0.365602433681488
1774472939201241300,1.030241455078125,0.0224555774360895,-0.3569540740281343,0.0546475359886884,0.0702656060457229,-0.0439488142728805,0.3709880113601684
1774472939211259400,1.04025927734375,0.1766641423732042,-0.5002145439714193,-0.0712562870927155,0.1102817356586456,0.0621248930692672,0.3614267110824585
1774472939221278200,1.0502783203125,0.3442103277891874,-0.5771247651726007,-0.1988695444405079,0.142222911119461,0.1753993481397628,0.3543038070201874
1774472939231296300,1.060296142578125,0.4490232859164476,-0.5515241677090525,-0.3141941058404743,0.1561794728040695,0.3177128136157989,0.3480691015720367
1774472939241314300,1.070314208984375,0.330954540374875,-0.3967448171466589,-0.4504240926250815,0.1411632150411605,0.4703935980796814,0.3493828475475311
1774472939251333000,1.0803330078125,0.2260726086646318,-0.264336580607295,-0.5576093328416347,0.0960830897092819,0.6065351963043213,0.3564285039901733
1774472939261351400,1.090351318359375,0.1774947479784488,-0.2294908926755189,-0.614146335838735,0.0378403328359127,0.7077941298484802,0.3748061656951904
1774472939271369200,1.100369140625,0.1178489653110504,-0.1944508512154221,-0.7315892045669257,-0.0214874371886253,0.8126787543296814,0.3902767598628998
1774472939281387300,1.11038720703125,-0.0159703070700168,-0.101629651916027,-0.9590187807984648,-0.0976368188858032,0.924319624900818,0.4013059437274933
1774472939291406300,1.12040625,-0.06618892070055,0.0549085250124335,-1.059978862889856,-0.2022673636674881,1.0253468751907349,0.4149354696273803
1774472939301424400,1.13042431640625,-0.130162503439188,0.1300701489806175,-1.0308449036683889,-0.3085725009441376,1.0626134872436523,0.4473585188388824
1774472939311442400,1.1404423828125,-0.1434445943385362,0.1777975303173065,-0.7723631865691393,-0.3827833533287048,0.999154567718506,0.475296676158905
1774472939321461200,1.150461181640625,-0.0057172086030244,0.069264382623136,-0.493450748924911,-0.4135424792766571,0.8490555882453918,0.4778599739074707
1774472939331479300,1.160479248046875,0.1311912619650364,-0.0461091324850916,-0.2478842621739953,-0.3934310972690582,0.6815323829650879,0.4433470070362091
1774472939341497300,1.170497314453125,0.1669213315159082,-0.0540957473248243,-0.1052202237538993,-0.3485474288463592,0.5399971008300781,0.3867151439189911
1774472939351516200,1.18051611328125,0.1969786161273717,-0.1171077915549278,-0.06038176879175,-0.2837079763412475,0.4238934516906738,0.3234115242958069
1774472939361534500,1.190534423828125,0.3035907326310872,-0.1425453074112534,-0.0390446374589577,-0.2120795994997024,0.3590210378170013,0.2589119076728821
1774472939371552300,1.20055224609375,0.2036725608080625,-0.1332245213583111,-0.1356011508291587,-0.1529387831687927,0.3455102741718292,0.2065411359071731
1774472939381571300,1.2105712890625,0.0775286453604698,-0.1145391101107001,-0.1633044196603819,-0.0999012291431427,0.3092431426048279,0.1582910269498825
1774472939391589400,1.22058935546875,0.1400344936341047,-0.0801774063035845,-0.1927051035266369,-0.0823552533984184,0.2518754601478576,0.1074004173278808
1774472939401607200,1.230607177734375,0.1583797131419181,0.006512450633943,-0.3103689945943653,-0.0942165479063987,0.2221891433000564,0.0635761097073555
1774472939411626200,1.240626220703125,0.1155260753214359,0.101627898350358,-0.3695478904023766,-0.1367805153131485,0.2128225266933441,0.0230404064059257
1774472939421644300,1.250644287109375,0.0465256043314933,0.1173655657082796,-0.4825052112143486,-0.1918829977512359,0.187820091843605,-0.0090786507353186
1774472939431662300,1.260662353515625,-0.0465133293718099,0.1149555819571018,-0.3568109026977792,-0.2290311604738235,0.1538850218057632,-0.0344393998384475
1774472939441681400,1.270681396484375,-0.0839268219649791,0.1460717279717326,-0.0308612579381093,-0.2354539781808853,0.1028008535504341,-0.0534222796559333
1774472939451699200,1.28069921875,-0.2461561962723731,0.1565422685816884,0.1162063126705586,-0.2256903052330017,0.0337730459868907,-0.0625289604067802
1774472939461717200,1.29071728515625,-0.2460194181501865,0.1271209437862038,0.1716501136034727,-0.2118405252695083,-0.0397211462259292,-0.0755488872528076
1774472939471736300,1.300736328125,-0.18553075491786,0.1417927354782819,0.1273041000670753,-0.2018323689699173,-0.1305636912584304,-0.0744913443922996
1774472939481754400,1.31075439453125,-0.23422610450387,0.1434492705136537,0.0194873022150248,-0.1885841935873031,-0.1787832528352737,-0.0676199793815612
1774472939491772400,1.3207724609375,-0.1282622227758169,0.1339300392791629,-0.0667442164957523,-0.1754369735717773,-0.1890532076358795,-0.0686277225613594
1774472939501791200,1.330791259765625,0.0741255589187145,0.1024818848311901,-0.0693914248025976,-0.1576198935508728,-0.1572766304016113,-0.0744800195097923
1774472939511809300,1.340809326171875,0.1424590904325246,0.1240603871718049,-0.0825533599209971,-0.1391537934541702,-0.0780944526195526,-0.0665667057037353
1774472939521827300,1.350827392578125,0.0226157364338636,0.0901136939063668,-0.1998662455939687,-0.123670794069767,0.0304396040737628,-0.0279522035270929
1774472939531845400,1.360845458984375,-0.1286713880985975,0.0747235248118639,-0.3388373295139521,-0.1184347495436668,0.1319350600242614,0.0324999541044235
1774472939541864400,1.370864501953125,-0.1428320153981447,0.1574488620325922,-0.3220813154263421,-0.1280758678913116,0.2289843559265136,0.0903567299246788
1774472939551882200,1.38088232421875,-0.162268537274003,0.2794493940651417,-0.200714752182085,-0.1454463303089141,0.3167557418346405,0.1416841000318527
1774472939561900300,1.390900390625,-0.1091167928010225,0.2878898901522159,-0.0305451046610251,-0.1552129983901977,0.3629207909107208,0.1847338378429412
1774472939571919000,1.400919189453125,0.0385562328875064,0.1587649130672216,0.1016710433723405,-0.1396984905004501,0.3639618158340454,0.2017857879400253
1774472939581937400,1.4109375,0.1409656370043754,0.0198366271093487,0.2403212065085768,-0.098301351070404,0.3347877562046051,0.1938274502754211
1774472939591955500,1.42095556640625,0.1416249776959419,-0.0919163594141602,0.3019592041728086,-0.0447715409100055,0.3022803962230682,0.1793611645698547
1774472939601974300,1.430974365234375,0.1729191106259822,-0.1895224549025297,0.2016318122280761,-0.0051174373365938,0.2680874764919281,0.1604704409837722
1774472939611992300,1.440992431640625,0.2756184376001357,-0.2283373387262225,0.1702468226768076,0.0273164026439189,0.2489542365074157,0.1309160143136978
1774472939622010000,1.451010009765625,0.1706336300373077,-0.1901116529673338,0.1111746934452094,0.0424906387925148,0.2863017320632934,0.1130001321434974
1774472939632029200,1.461029296875,-0.0960837082266807,-0.2134168329700827,-0.0392159480384085,0.0449737757444381,0.3550214171409607,0.1274906545877456
1774472939642047500,1.471047607421875,-0.1161918457537889,-0.2316998008966445,-0.0501066320228856,0.0538466684520244,0.3979155719280243,0.1520916074514389
1774472939652065300,1.481065185546875,-0.0182388365238904,-0.2951721561148762,0.1168857554352376,0.0709620043635368,0.4816370904445648,0.1688679307699203
1774472939662084400,1.49108447265625,-0.1054658690780401,-0.4064031645908951,0.3081715210827067,0.115433745086193,0.6028640866279602,0.1863041669130325
1774472939672102100,1.50110205078125,-0.2543669752568006,-0.5535182641357184,0.4090574054267257,0.1936467885971069,0.6550841331481934,0.2030096501111984
1774472939682120400,1.511120361328125,-0.2560398769050836,-0.6859399446785449,0.3901888926971703,0.2852525115013122,0.6364843845367432,0.2262888848781585
1774472939692139300,1.52113916015625,-0.3532710016012191,-0.669859747493267,0.1087781536974944,0.3527148962020874,0.5950666666030884,0.2303336858749389
1774472939702157300,1.5311572265625,-0.3209229757040739,-0.5349848285794258,-0.1837789976133964,0.3585772216320038,0.5358297824859619,0.2040787637233734
1774472939712175400,1.54117529296875,-0.0526771126985549,-0.3478285182863473,-0.1874471099331975,0.3153306841850281,0.452381819486618,0.1692803055047989
1774472939722194200,1.551194091796875,0.1477016672611236,-0.1807891133487224,-0.0985994173746555,0.2530755400657654,0.3202980458736419,0.1219974905252456
1774472939732212200,1.561212158203125,0.0094417820841073,-0.0728214905828237,-0.2190035835938528,0.1757128536701202,0.1984248757362365,0.102819800376892
1774472939742230500,1.57123046875,-0.0924824688643217,0.0418219566851854,-0.3603919395223259,0.0998248904943466,0.1217289417982101,0.1023390963673591
1774472939752248300,1.581248291015625,0.0876584097087383,0.1340963357567787,-0.4258111910246312,0.0320245325565338,0.1161131337285041,0.0947301760315895
1774472939762267400,1.591267333984375,0.2267956622421741,0.1936491794437169,-0.4996257842980325,-0.0308254398405551,0.1628759354352951,0.0835974887013435
1774472939772285200,1.60128515625,0.1895341453403234,0.2321680029302835,-0.5478204543529078,-0.0676771998405456,0.3051960468292236,0.0822557881474495
1774472939782303200,1.61130322265625,-0.1863297963410616,0.185228557100892,-0.4175642082156613,-0.0683695003390312,0.5054237842559814,0.1272075474262237
1774472939792322300,1.621322265625,-0.7837403936952352,0.1077975268959999,-0.5363070170938968,-0.0352576188743114,0.5631794929504395,0.2244992107152938
1774472939802340400,1.63134033203125,-1.0946581082135438,0.1515033976316452,-0.5802749728318304,-0.0171239282935857,0.4485344290733337,0.3239941000938415
1774472939812358400,1.6413583984375,-1.0329062931776043,0.3771376148790121,-0.3889102510634809,0.0073622404597699,0.2116217762231826,0.3745978772640228
1774472939822377200,1.651377197265625,-0.5532505531102418,0.5715607013046741,-0.2915502027580514,-0.0114458557218313,-0.1269485801458358,0.3555749356746673
1774472939832395300,1.661395263671875,-0.0286082548469305,0.6493418601214885,-0.470793292241171,-0.0873052030801773,-0.4254724383354187,0.2751229703426361
1774472939842413300,1.671413330078125,0.52149289432168,0.7586872009813785,-0.5833007138611749,-0.1954730600118637,-0.6324732899665833,0.143752172589302
1774472939852432100,1.68143212890625,1.1145061334997417,0.7316741063714027,-0.4860922028556466,-0.2752227485179901,-0.799483060836792,-0.0357448868453502
1774472939862450400,1.691450439453125,1.4450877489089966,0.6271785436302423,0.0673141984034329,-0.3082410991191864,-0.8781692385673523,-0.1901676058769226
1774472939872468200,1.70146826171875,1.01819972243309,0.5209329223513602,0.6357019687604158,-0.2848502993583679,-0.7644011378288269,-0.2474271655082702
1774472939882487300,1.7114873046875,0.2806231140196323,0.4499672887682914,0.5967708381459117,-0.1999357193708419,-0.4967467188835144,-0.1937777698040008
1774472939892505300,1.72150537109375,-0.7192945172697305,0.2855886274725198,0.1419238327783532,-0.1064358577132225,-0.201154738664627,-0.0409903600811958
1774472939902523400,1.7315234375,-1.1306868684500455,0.3027782472044229,-0.4558719097021967,-0.1017092242836952,-0.084231711924076,0.1083872690796852
1774472939912542500,1.74154248046875,-0.7013719070881604,1.366048114463687,-1.2030123922094702,-0.2295875549316406,-0.0767804533243179,0.1492486745119094
1774472939922560300,1.751560302734375,0.0844189893960952,0.454022701638937,-1.1326827184423804,-0.4988270103931427,-0.1408736854791641,0.1000409200787544
1774472939932578300,1.761578369140625,0.6363502766013145,-0.4165273759812116,-0.6818978296808899,-0.6166487336158752,-0.1311355829238891,0.040700364857912
1774472939942597400,1.771597412109375,0.4871323595583439,0.4675374322503804,0.4179063361842185,-0.5310181975364685,-0.1313090026378631,-0.0318814292550087
1774472939952615200,1.781615234375,0.4819780455350875,0.3123708359360694,0.4855320847548544,-0.4192911386489868,-0.1893571317195892,-0.0911878943443298
1774472939962633500,1.791633544921875,0.0043798225194215,-0.1043424180060625,0.0917983955902978,-0.287842184305191,-0.3016802966594696,-0.0860677063465118
1774472939972652300,1.80165234375,-0.3235457254230976,-0.3300958777189254,0.4808999679747968,-0.1315188556909561,-0.4354279637336731,-0.0166028756648302
1774472939982670300,1.81167041015625,-0.7532400414913892,-0.4824748891413211,0.8646762171506881,0.0132080167531967,-0.4543600976467132,0.0868950262665748
1774472939992688400,1.8216884765625,-1.0974901167690754,-0.0499666846960782,0.3465083755984902,0.1191461682319641,-0.3949625492095947,0.129924789071083
1774472940002707200,1.831707275390625,-0.668354603627324,0.3572521801918745,-0.7264424893282353,0.112561710178852,-0.3475977182388305,0.054738949984312
1774472940012725200,1.841725341796875,0.201565943917632,0.8279162200301885,-1.5870980726607142,-0.0713905468583107,-0.1633186787366867,-0.1128018423914909
1774472940022743300,1.851743408203125,0.277621009594202,0.9020674979120492,-2.461224985854328,-0.4082598388195038,0.1325683295726776,-0.2677476108074188
1774472940032761300,1.86176123046875,-0.275763399028778,0.8874678946733474,-2.887190929049253,-0.8047097325325012,0.3874323070049286,-0.3057786226272583
1774472940042780400,1.871780517578125,-0.9532458964854478,0.9014373833149673,-2.4916098949849603,-1.105873703956604,0.53428715467453,-0.1869680732488632
1774472940052798200,1.881798095703125,-1.2256553089112043,1.0430202754348517,-1.7281527031227946,-1.284640550613403,0.515700101852417,0.0255274008959531
1774472940062816300,1.891816162109375,-1.1022703367829323,1.1069079334557057,-1.5712687814965842,-1.383639574050903,0.2673695385456085,0.2521000802516937
1774472940072835300,1.90183544921875,-0.7632488098084926,1.480499254029989,-1.745797227015346,-1.475038766860962,-0.0512478500604629,0.4239283204078674
1774472940082853400,1.911853271484375,-0.1560036316603422,1.828902941855788,-1.636618913285434,-1.5337082147598269,-0.4090487360954284,0.5087537169456482
1774472940092871200,1.92187109375,0.4898123924225568,1.4817758498370646,-0.1604567386116832,-1.322295069694519,-0.9841996431350708,0.6319464445114136
1774472940102890200,1.93189013671875,0.8198673536092043,0.7933329824268818,2.189373207311332,-0.9854627847671508,-1.041185736656189,0.8380162715911865
1774472940112908300,1.941908203125,0.4203589169681072,-0.2652700620651245,2.6280370117768643,-0.669404149055481,-1.02947735786438,0.9563578367233276
1774472940122926300,1.95192626953125,0.5753086556613445,-2.05924665196836,2.9141309584230184,-0.5590962171554565,-1.2303825616836548,0.88157057762146
1774472940132945400,1.9619453125,1.25216513017416,-2.9897230827629566,3.7418089857831593,-0.535599946975708,-1.76504385471344,0.6274279952049255
1774472940142963500,1.97196337890625,1.5051239921987056,-3.196472566798329,6.850990514880419,-0.3636249005794525,-1.960465788841248,0.583772599697113
1774472940152981200,1.981981201171875,-1.773764407479763,-2.6636370252072807,7.89449594348371,-0.017425961792469,-1.644172191619873,0.774086058139801
1774472940163000300,1.992000244140625,-1.3491501711547371,-1.6060007799208162,4.994888600453734,0.259540319442749,-1.669007420539856,0.9291363954544068
1774472940173018000,2.00201806640625,0.2956225302308797,-0.3033914106667041,2.712563260939717,0.4774161875247955,-1.725353717803955,0.966710090637207
1774472940183036400,2.012036376953125,0.6145674838602543,1.2116396430402994,0.5111473683308809,0.5973899960517883,-1.4305983781814575,0.9539616703987122
1774472940193055500,2.022055419921875,1.6843319738358258,1.1249030243515967,-0.4786574497450143,0.4841289520263672,-1.0934282541275024,0.7024857997894287
1774472940203073300,2.0320732421875,2.58888953499794,0.5724146877855062,-1.4823919359087945,0.2170968055725097,-0.5739680528640747,0.2395361065864563
1774472940213090800,2.0420908203125,3.176300716385245,-0.7502741774231195,-1.552741629550606,0.0669398009777069,-0.2735051810741424,-0.219710037112236
1774472940223110000,2.05210986328125,3.0702637694209813,-1.1793734502077102,-1.976051213017851,-0.1113394722342491,-0.1584860533475875,-0.5834366083145142
1774472940233128000,2.0621279296875,1.5501140575259924,-1.2653402535676956,-3.545599015940726,-0.350673496723175,0.4010941386222839,-0.7047787308692932
1774472940243146000,2.07214599609375,-1.2716659494578837,-1.2723720519006252,-4.297520376048982,-0.437510222196579,1.100938320159912,-0.5869653224945068
1774472940253165000,2.0821650390625,-1.869956252256036,-0.1598269893407821,-2.4465727756455538,-0.328088641166687,1.0091993808746338,-0.4270107746124267
1774472940263182800,2.092182861328125,-0.6581219634264707,1.2990765189528464,0.3364546356284991,-0.1563385128974914,0.4599030017852783,-0.3505064249038696
1774472940273201000,2.102200927734375,0.3245224615007638,1.8701508980453012,0.7541207698486745,-0.0787212178111076,-0.0131532587110996,-0.459562599658966
1774472940283219700,2.1122197265625,0.5628665227174758,1.50453771674335,0.3829714721316472,-0.0644467994570732,-0.5191457271575928,-0.615278959274292
1774472940293238000,2.122238037109375,0.2493336572647094,1.2823603619515895,0.2611732760044746,-0.0836971923708915,-0.8551772832870483,-0.7332548499107361
1774472940303256000,2.132256103515625,-0.0512625697255134,1.1794494380533695,-0.1083362734152004,-0.1400118172168731,-0.9501157999038696,-0.7665270566940308
1774472940313273900,2.14227392578125,-0.3384989644050598,0.9521610238581896,-0.6258490485921502,-0.2462114840745926,-0.6451194286346436,-0.7126955389976501
1774472940323293000,2.15229296875,-0.3440145129561424,0.8815110320955515,-0.8906345420107245,-0.3423934578895569,-0.1449453979730606,-0.6342487931251526
1774472940333310700,2.162310791015625,0.9207938256919384,0.6800859579533338,-0.4408096573878079,-0.3907098770141601,0.0576793514192104,-0.638631284236908
1774472940343329000,2.1723291015625,1.775116406610608,0.1958428900957107,0.2731522666823118,-0.3627840578556061,0.2033519148826599,-0.6663328409194946
1774472940353348000,2.18234814453125,1.6597312010645866,-0.3823188169091939,0.7834747284963727,-0.2302582114934921,0.2982456684112549,-0.6998755931854248
1774472940363366000,2.192365966796875,1.2753045982211828,-1.1289356408685445,1.4800724069200455,0.0211161039769649,0.3341771960258484,-0.6833131313323975
1774472940373384000,2.202384033203125,0.5508218646585941,-1.491460208505392,1.610484939597547,0.271731287240982,0.4468733966350555,-0.6430010795593262
1774472940383402800,2.21240283203125,-0.4796592471987009,-1.7646809373140333,1.5999188296586273,0.5906243920326233,0.6620532274246216,-0.5951051712036133
1774472940393421000,2.222421142578125,-1.3217010232150554,-1.6595272029250858,3.842810861189663,0.8092323541641235,0.6504652500152588,-0.541031002998352
1774472940403439000,2.232439208984375,-1.6822674425214528,-2.775470091229677,0.4694122496789321,0.7865993976593018,0.8494051098823547,-0.4624997973442077
1774472940413458000,2.2424580078125,-2.318772617423534,-0.6963382968351245,0.691668113067001,0.724564790725708,0.8234190344810486,-0.3052079081535339
1774472940423476000,2.25247607421875,-2.08699799772501,0.2066457313999533,0.2208906394494697,0.5457174777984619,0.5241966843605042,-0.1626377254724502
1774472940433493800,2.26249365234375,-1.6825567808568476,0.2546130589723587,-0.2863284129891544,0.2923925518989563,0.0267669185996055,0.026087449863553
1774472940443512800,2.272512939453125,-2.173167045658827,1.0460308554276825,-0.924978929356858,-0.0406136959791183,-0.0992720276117324,0.4604966938495636
1774472940453531100,2.28253125,-1.3223387365967034,1.678313151937723,-1.1956910363454372,-0.1973287463188171,-0.1937391459941864,0.6515076756477356
1774472940463549000,2.292548828125,0.1800795037746429,0.7113181315630674,-0.8250951712600887,-0.1776949912309646,0.0605988502502441,0.5314996242523193
1774472940473568000,2.302568115234375,1.2902321182399987,0.0445201097279787,-0.715612029364705,-0.109162800014019,0.2130424529314041,0.2292745411396026
1774472940483585800,2.312585693359375,1.8859511092454195,0.4235919075399637,-0.6606633184723556,-0.1142224743962287,0.0590350925922393,-0.1252012550830841
1774472940493603800,2.322603759765625,1.1633178029417992,0.714487409248948,-0.5754817837385461,-0.0866459757089614,-0.289489597082138,-0.2993581295013428
1774472940503623000,2.332622802734375,-0.3330944750130176,0.1680973895579576,0.2759787040135823,0.0303001999855041,-0.6901455521583557,-0.2825918197631836
1774472940513641000,2.342640869140625,-1.1532996822744608,-0.6362772113651037,0.5342857038667426,0.1893844008445739,-0.8606474995613098,-0.1795988529920578
1774472940523659000,2.352658935546875,-1.190487549418211,-0.8419944297432899,0.6774116241775453,0.311648279428482,-0.8189558386802673,-0.0623687654733657
1774472940533677800,2.362677734375,-1.150949319756031,-0.6267366450816393,0.2190509298669174,0.3132317960262298,-0.5724461674690247,0.0107573801651597
1774472940543696000,2.37269580078125,-0.8997212270468473,-0.375610259181261,-0.2696500672476366,0.2110467553138733,-0.2923070788383484,0.0356186367571353
1774472940553714000,2.3827138671875,-0.5978273614615202,-0.2261965273052454,-0.4255820584438741,0.0832672268152237,-0.030926875770092,0.0256011541932821
1774472940563732700,2.392732666015625,0.0393780706644058,-0.1301706867456436,-0.2644904925273731,0.0020982034038752,0.1867379695177078,-0.017026450484991
1774472940573751000,2.4027509765625,0.8273387124031781,-0.0683838003963232,0.0259653756553307,-0.0032153353095054,0.2830932438373565,-0.0966696143150329
1774472940583768800,2.412768798828125,1.3900748867392538,0.0370429057151079,0.3625559856884181,0.0650856792926788,0.2807183563709259,-0.1788210719823837
1774472940593788000,2.422787841796875,1.7026391994208097,0.130164257004857,0.6402176195539534,0.1527958214282989,0.3090019226074219,-0.2882522344589233
1774472940603806000,2.432805908203125,1.846743718972802,0.1393389125853776,0.4785170914262533,0.2301095426082611,0.4685642123222351,-0.3925690352916717
1774472940613824000,2.442823974609375,0.9181547093600034,0.2094274710729718,0.3388921284411102,0.3081159293651581,0.4524323940277099,-0.3889466226100921
1774472940623842000,2.452842041015625,-0.0723217243671417,0.181534086497128,0.1807762538671493,0.3213975429534912,0.3168043792247772,-0.3214675486087799
1774472940633860900,2.46286083984375,-0.2081564282238483,0.2299135020017624,-0.0101863533737137,0.2957262694835663,0.2249135822057724,-0.3060957789421081
1774472940643879000,2.47287890625,0.1869371145844459,0.2939946367681026,0.2992249751696363,0.2652536034584045,0.242137610912323,-0.3453562557697296
1774472940653897000,2.48289697265625,0.1928799486368894,0.2913502597391605,0.0835053816825151,0.2109038084745407,0.3590202927589416,-0.3883228898048401
1774472940663915800,2.492915771484375,0.1115402205556631,0.2985562455952167,-0.2746628356420434,0.1619234383106231,0.4757335782051086,-0.4140992164611816
1774472940673934000,2.50293408203125,-0.1848643999636173,0.387130308844149,-0.3033768524183891,0.0967396572232246,0.5450165271759033,-0.3954728245735168
1774472940683951900,2.512951904296875,-0.6167682087749242,0.4424760562300682,-0.6247750626850873,0.0020325691439211,0.6097924709320068,-0.3419861793518066
1774472940693971000,2.522970947265625,-1.108050089228153,0.5402303280174732,-0.5626650453286245,-0.0995590314269065,0.6163180470466614,-0.2896001935005188
1774472940703989000,2.532989013671875,-0.6580290244460105,0.2379866260811686,0.1649520772695541,-0.0935347005724906,0.6189944744110107,-0.3257616460323334
1774472940714006800,2.5430068359375,0.2041162129223346,-0.0793964850589633,1.1175878059674054,-0.0099780205637216,0.5702197551727295,-0.4272792339324951
1774472940724025900,2.55302587890625,0.3094336134403944,-0.2627273918449878,0.8610798000939189,0.0598018988966941,0.5337721705436707,-0.4933650493621826
1774472940734044000,2.5630439453125,-0.2291261510163545,-0.108871585868299,0.5165609908774494,0.115417756140232,0.4538899064064026,-0.5156362056732178
1774472940744062000,2.57306201171875,-0.5424585254609584,0.1151987430632114,0.5129951881546527,0.1606000959873199,0.1446205079555511,-0.5059234499931335
1774472940754081000,2.5830810546875,-0.6367004052132368,0.0498038953498005,0.7755158053811639,0.162009447813034,-0.2647116184234619,-0.4640529453754425
1774472940764098800,2.593098876953125,-0.3514806110531091,-0.1282578388616442,0.6586830313753337,0.1045071184635162,-0.6113241910934448,-0.4127189517021179
1774472940774117000,2.6031171875,-0.0650555327564477,0.0862003198549151,-0.0041326291255885,0.0286621544510126,-0.6585270762443542,-0.3439691662788391
1774472940784136000,2.613135986328125,-0.169985979783535,0.4616331766426563,-0.5034567407630384,-0.0270579550415277,-0.3659523725509643,-0.2435739636421203
1774472940794154000,2.623154052734375,-0.4039525565683841,0.3713409112989902,-0.8336142124760896,-0.0456071346998214,-0.1337638944387436,-0.1063426062464714
1774472940804172000,2.633172119140625,-0.5843751746922731,0.2925911997109651,-0.6106655810508876,0.007839785888791,-0.0020500980317592,0.0128130679950118
1774472940814190800,2.64319091796875,-0.7159469604074955,-0.0122743751615285,-0.3525995320804417,0.1010631993412971,0.0325997583568096,0.0845354571938514
1774472940824209000,2.653208984375,-0.8295961359411478,-0.4342278678447008,-0.1429549293917603,0.1883771866559982,-0.0408577807247638,0.1204163581132888
1774472940834227000,2.66322705078125,-0.90570263954401,-0.4750102523490786,-0.1161077933326829,0.2101053893566131,-0.188162550330162,0.1674206256866455
1774472940844246000,2.67324609375,-0.7897469406336546,-0.3842313725322485,0.3527182630892843,0.2195689976215362,-0.3535093665122986,0.1856233179569244
1774472940854264000,2.68326416015625,-0.4995581258893012,-0.5777998879551887,0.4895877168212085,0.1793427467346191,-0.5093322992324829,0.172276884317398
1774472940864281900,2.69328173828125,-0.1095686282217502,-0.4706698850572109,0.1749315098943188,0.1535532176494598,-0.5183340311050415,0.1185564175248146
1774472940874301000,2.703301025390625,0.3701023094147443,-0.5259308767691254,0.1931036743901669,0.136949211359024,-0.4604904651641845,0.0710450932383537
1774472940884318700,2.713318603515625,0.3758142573207617,-0.5302551697090268,-0.0711678781569004,0.1512070447206497,-0.2730523943901062,0.0451233237981796
1774472940894337000,2.7233369140625,0.4748498010903597,-0.4908794371321797,-0.6380128760512918,0.1742841452360153,-0.0384862199425697,0.0436985343694686
1774472940904356000,2.733356201171875,0.6334872883856296,-0.1730921291053295,-0.9836164848297834,0.1928381025791168,0.1607239693403244,0.047674112021923
1774472940914374000,2.743373779296875,0.8354208965718746,0.0181447284996509,-0.98585834547244,0.1668461859226226,0.2687372267246246,0.033746313303709
1774472940924392000,2.753391845703125,0.6414975763618945,0.0106605102241039,-1.2138858145318925,0.0889363065361976,0.3050582110881805,0.0297821890562772
1774472940934411000,2.763410888671875,0.0180944596171379,0.0241270177796483,-1.3505926250480114,-0.0558736138045787,0.2772886455059051,0.0280306283384561
1774472940944428800,2.7734287109375,-0.5324924272418022,0.2645522691845893,-1.432366652893275,-0.1897231340408325,0.2019412666559219,0.0604254566133022
1774472940954447000,2.783447021484375,-1.3159417290359734,0.5506581985294818,-1.4662871888041495,-0.392769455909729,0.1625781506299972,0.1641579717397689
1774472940964465000,2.79346484375,-1.8709464323371647,0.5263821276679634,-1.6032802689157426,-0.6080490350723267,0.0262520872056484,0.2966156303882599
1774472940974484000,2.80348388671875,-1.7773603861451148,0.6365647961348295,-1.3643207061491909,-0.8103778958320618,-0.2131588906049728,0.4469124376773834
1774472940984501800,2.813501708984375,-1.6314590463042258,0.1228320144206285,-1.5103294518873094,-0.9805887937545776,-0.4534553289413452,0.5960176587104797
1774472940994520000,2.82352001953125,-1.0174790069431066,-0.1569493880778551,-1.2813416864283382,-1.0581583976745603,-0.7375839352607727,0.6670356392860413
1774472941004539100,2.8335390625,-0.0976625018507242,-0.5800210711359978,-1.0026121310703455,-1.1030302047729492,-0.9408515691757202,0.6559901833534241
1774472941014557000,2.843556884765625,0.3440150974780321,-0.7976692580655217,-0.1115346127987839,-1.0931973457336426,-1.1142534017562866,0.6109435558319092
1774472941024575000,2.853574951171875,-0.2228974857598543,-0.4105515164420008,-0.4311342857435345,-1.181707501411438,-1.679457187652588,0.7304465770721436
1774472941034593800,2.86359375,-0.9606243162989616,0.1213829846560955,-0.1183999137246981,-1.2199550867080688,-1.7909778356552124,0.7759578824043274
1774472941044611800,2.87361181640625,-0.0614975480139255,-0.1800359568938613,0.3627545039352029,-1.2620350122451782,-1.8646026849746704,0.7035067081451416
1774472941054630100,2.883630126953125,0.053186231264472,-0.2352574933782219,-0.2382435965169221,-1.3355292081832886,-1.705267310142517,0.6184357404708862
1774472941064649000,2.89364892578125,-0.1919727706640958,-0.1730693327516317,-1.2386369555592536,-1.4575930833816528,-0.9229206442832948,0.6790661811828613
1774472941074667000,2.9036669921875,0.2325689849466085,-0.0378746803641319,-2.593828160443902,-1.6370174884796145,-0.0932802110910415,0.8047114610671997
1774472941084684800,2.913684814453125,0.4369640148103237,0.5470663115173577,-1.7616992911547422,-1.7607249021530151,0.4128773808479309,0.8297597169876099
1774472941094703900,2.923703857421875,0.4392185157388448,1.1152537369966506,-1.0048707236520946,-1.99901819229126,0.4684303998947143,0.8106579184532166
1774472941104722000,2.933721923828125,-0.9020914633095264,0.9128355601638556,-0.6792126091849059,-2.232426166534424,0.1574327796697616,0.9661229848861694
1774472941114740000,2.943739990234375,-2.509628366756439,0.6578484071820974,0.4154061168663203,-2.483341932296753,-0.1502709835767746,1.16546893119812
1774472941124759000,2.953759033203125,-2.7662387370258568,0.5553425569534302,0.1941352459276095,-2.586190700531006,-0.5493952035903931,1.3908610343933103
1774472941134776800,2.96377685546875,-2.681305952888727,0.6399965241491794,0.3601392434028908,-2.628371000289917,-0.8094485998153687,1.5446758270263672
1774472941144795000,2.973794921875,-1.2354723540484904,0.6443617336213588,-0.5511078785257414,-2.661418914794922,-0.7837473154067993,1.5434916019439695
1774472941154814000,2.98381396484375,-0.2131248642861843,0.8964806376904249,0.4460551568258553,-2.631892204284668,-0.633586049079895,1.477640986442566
1774472941164832000,2.99383203125,0.5151368032932281,0.4197352321118116,0.6391182800099253,-2.5965261459350586,-0.3158786594867706,1.379435420036316
1774472941174850000,3.00385009765625,0.6242775614917278,0.469765045171976,0.4624306836958974,-2.523216009140014,-0.0783412083983421,1.3303216695785522
1774472941184869000,3.013869140625,-0.1890799718320369,0.9433364968895912,0.1179351822897791,-2.497692584991455,-0.1969494223594665,1.371284008026123
1774472941194887000,3.023886962890625,-1.0364110864281657,1.2997586559981107,-0.0274492210049182,-2.484983205795288,-0.382137656211853,1.4208956956863403
1774472941204905000,3.033905029296875,-1.3473533508658408,1.357231770801544,0.2946780159223824,-2.425403594970703,-0.7196837067604065,1.4314255714416504
1774472941214923500,3.043923583984375,-1.5863585063397885,1.4495897365033623,0.5645123902283609,-2.3234705924987797,-0.9722246527671814,1.433404564857483
1774472941224941600,3.053941650390625,-1.565135685569048,1.4438310268461705,-0.002307838550955,-2.246842861175537,-1.1844407320022583,1.3788948059082031
1774472941234959600,3.063959716796875,-0.0954874958992004,1.4915437951356172,0.1394913997333496,-2.209077835083008,-1.306328296661377,1.1591898202896118
1774472941244978700,3.073978759765625,1.768749209666252,2.0254162785589696,1.4824825368016958,-2.225938558578491,-1.4848169088363647,0.8063941597938538
1774472941254996500,3.08399658203125,2.393150689798593,1.6484569428563116,2.2002349391959606,-2.1386961936950684,-1.5185974836349487,0.4856894314289093
1774472941265014500,3.0940146484375,2.4448797079920768,1.069946860805154,3.014049714767933,-1.9541306495666504,-1.5476830005645752,0.1561824828386306
1774472941275033600,3.10403369140625,2.392064648127556,0.9134078070938588,2.8525705743059517,-1.765147686004639,-1.762209415435791,-0.1504096835851669
1774472941285051600,3.1140517578125,2.267525245267153,1.2706348528444766,1.5704044197522102,-1.4990575313568115,-1.8745747804641724,-0.4014065861701965
1774472941295069700,3.124069580078125,1.9646616578668357,0.8197299909651279,1.6052227812856434,-1.1196407079696655,-1.703781008720398,-0.537055253982544
1774472941305088500,3.134088623046875,2.508714174520969,0.2594131527304649,1.704006542251259,-0.7236183881759644,-1.4589366912841797,-0.6454461812973022
1774472941315106600,3.1441064453125,3.305267872560024,0.9461603221386672,0.7562700568370521,-0.5302973389625549,-1.520103096961975,-0.8900899887084961
1774472941325124600,3.15412451171875,3.361186743658781,2.17405610345304,-0.3482333727601915,-0.4804445207118988,-1.6746658086776731,-1.2030465602874756
1774472941335143700,3.164143798828125,2.719920053443313,2.554027480453253,-1.52611592682302,-0.5278064608573914,-1.9288376569747925,-1.491448163986206
1774472941345161700,3.17416162109375,2.6041595848441124,2.758808294764161,-2.4138933258369564,-0.6127650737762451,-1.9735337495803835,-1.7777338027954102
1774472941355179500,3.184179443359375,2.96437119936347,2.2018419360011814,-2.11496780853793,-0.5236355066299438,-1.4528071880340576,-1.9567269086837769
1774472941365197600,3.194197509765625,2.7381150508254763,0.4983931737631559,-0.1395689950142055,-0.1386681646108627,-0.2077076435089111,-1.9084820747375488
1774472941375216400,3.20421630859375,1.9016969599097968,-1.892093265262246,2.274001455543935,0.3761762678623199,1.139215111732483,-1.6487832069396973
1774472941385234700,3.214234619140625,-0.0321299992322921,-2.077085675519705,2.048501970592141,0.653531014919281,1.2865376472473145,-1.582341551780701
1774472941395252700,3.224252685546875,-2.7416917402684686,-1.018246484184265,1.4358553717918694,0.7710142135620117,1.0736533403396606,-1.2843729257583618
1774472941405271600,3.234271484375,-4.490931947344541,-1.2861422185778617,0.7037221234761178,0.6707496047019958,0.7971498966217041,-0.957577347755432
1774472941415289600,3.24428955078125,-4.717267006337642,-0.9228063345581292,0.1157069117810577,0.5402568578720093,0.3133603036403656,-0.5794438719749451
1774472941425307400,3.254307373046875,-5.403691519662737,-0.6687544165998697,0.3054028966195881,0.3704917728900909,-0.0533606633543968,-0.1852090656757354
1774472941435326500,3.264326416015625,-4.163134409695863,-0.8039601749032735,0.0335403044216334,0.1620086133480072,-0.3524650931358337,0.0649403110146522
1774472941445344800,3.2743447265625,-1.8226123172789808,-0.9623451487421988,-0.502208275071904,-0.1077469810843467,-0.5708684325218201,0.0274721812456846
1774472941455362600,3.284362548828125,-0.0384931045234203,-0.5166700042098761,0.1975591194290667,-0.2674189507961273,-0.540824294090271,-0.1939419656991958
1774472941465381600,3.294381591796875,1.3899112206101416,-0.5870692360818386,0.4149470479872078,-0.3824759423732757,-0.5287166833877563,-0.4712769091129303
1774472941475399400,3.3043994140625,2.5528748032867905,-0.4072416612416505,-0.2823123092155903,-0.4591605961322784,-0.4238842725753784,-0.803666889667511
1774472941485417700,3.314417724609375,3.1084529225617645,-0.3638298050165176,0.5953730271119624,-0.3911999762058258,-0.1684205830097198,-1.1307414770126345
1774472941495436500,3.3244365234375,3.2541286369532343,-0.46505789039433,1.7911039570763707,-0.160980612039566,0.0044148378074169,-1.3974082469940186
1774472941505454600,3.33445458984375,2.6373224342554806,-1.346071786622703,3.1267431970119475,0.1779491901397705,0.3683386147022247,-1.5112173557281494
1774472941515472600,3.34447265625,1.326511638367176,-1.9989397750437257,4.078089981877803,0.5690714716911316,0.5170969367027283,-1.5534363985061646
1774472941525491700,3.35449169921875,1.8870722222298384,-1.0946309279456734,3.886254866118729,0.8824415802955627,0.2733086049556732,-1.714073657989502
1774472941535509500,3.364509521484375,1.9733973375082012,-0.5273150246039032,3.1840029613256453,1.1751378774642944,-0.1338602304458618,-1.8102912902832031
1774472941545527800,3.37452783203125,0.8996808950364589,-0.2559872699350118,2.845694843317568,1.471386194229126,-0.2542274296283722,-1.7737367153167725
1774472941555546600,3.384546630859375,-0.1006003088682889,0.0414735816389322,1.3578563324406745,1.6127281188964844,-0.3965962827205658,-1.5709197521209717
1774472941565564700,3.394564697265625,-0.9871785612255334,-0.612050240342319,-0.2359874881532043,1.613759160041809,-0.4423072338104248,-1.4415700435638428
1774472941575582500,3.40458251953125,-0.2438455812424421,-0.5825134724736213,-0.3516674388621002,1.6666224002838137,-0.2765789926052093,-1.4726531505584717
1774472941585601500,3.4146015625,-0.7369868258267641,0.0543310173854231,-1.171566283588111,1.6523162126541138,-0.2268980294466018,-1.3093658685684204
1774472941595619600,3.42461962890625,-1.8908049790173769,0.1142871811762452,-2.441919104620814,1.6017742156982422,-0.2421960234642028,-1.1183210611343384
1774472941605637600,3.4346376953125,-4.531474385613203,0.7954439832314848,-1.2178986303698272,1.697650671005249,-1.1407569646835327,-0.0857920721173286
1774472941615656700,3.44465673828125,-6.520130082529783,1.3939774471357465,-0.3451626966105773,1.731863260269165,-1.214908242225647,0.466172844171524
1774472941625674500,3.454674560546875,-0.1246323418408632,0.2822299646943807,-1.342839672833681,1.7829809188842771,-0.6043674349784851,0.3716348707675934
1774472941635692500,3.464692626953125,0.4892839846342802,0.0455623122572898,-0.5288019752260297,1.905838966369629,-0.0045324824750423,0.4856562614440918
1774472941645711600,3.474711669921875,-0.2831131772696971,-0.4640490056127309,-1.051551372414827,2.037632465362549,0.5184736847877502,0.7094674110412598
1774472941655729400,3.4847294921875,-0.4963496852368116,-0.3409241457253694,-0.8606763338595628,2.1838958263397217,1.0903606414794922,0.9903494119644164
1774472941665747700,3.494747802734375,-0.7669716297239064,0.4105152760848403,-1.1368440759055316,2.246927261352539,1.8280742168426516,1.2585800886154177
1774472941675766800,3.504766845703125,-0.4607604854613542,0.7199228783011437,-1.2946347371131182,2.2791006565093994,2.641049385070801,1.4246829748153689
1774472941685784600,3.51478466796875,-0.0571422754138708,1.2545473491355776,-0.7732420882955193,2.4012577533721924,3.4121134281158447,1.4197653532028198
1774472941695802600,3.524802734375,0.2239455335080623,2.108886881189048,0.1560560377010144,2.581401824951172,4.113461971282959,1.317527174949646
1774472941705821400,3.534821533203125,-0.911314634206891,2.059188784301281,0.538015318849124,2.826775550842285,4.52807092666626,1.3049217462539673
1774472941715839700,3.54483984375,-0.7991852155864239,1.9722800239160656,0.4577675141904503,3.19476318359375,4.684061527252197,1.260373830795288
1774472941725857500,3.554857421875,-0.0558779545664787,1.3944862734407186,-0.5661641029581427,3.5100011825561523,4.903496742248535,1.1129968166351318
1774472941735876600,3.564876708984375,1.5101929660260676,1.6307769092589617,-2.307173072783649,3.706195116043091,5.144507884979248,0.7211059331893921
1774472941745894700,3.574894775390625,3.129390496650338,2.3297680586904286,-3.742130765083432,3.8527002334594727,5.054126739501953,0.205129787325859
1774472941755912400,3.584912353515625,2.252643902477622,2.5325594527497888,-4.495272606897354,3.801493883132935,4.957401752471924,-0.3593213558197021
1774472941765931500,3.594931640625,0.0189116212189197,2.551635032358765,-5.654942993247508,3.354975700378418,4.91294527053833,-0.9171143174171448
1774472941775949800,3.60494970703125,-1.887589524102211,2.40561561909616,-5.719919615548849,2.533559083938598,4.861508846282959,-1.3558905124664309
1774472941785967600,3.614967529296875,-2.891833201897144,1.3259960900604724,-3.296442468808592,1.668136477470398,4.909137725830078,-1.704310417175293
1774472941795985700,3.624985595703125,-2.0693243938684462,0.7649442155495285,1.9963053348869084,1.3051774501800537,4.981386184692383,-2.0624382495880127
1774472941806004500,3.63500439453125,-1.611993882855773,0.8771984295934439,4.244669952610135,1.109068512916565,4.627225875854492,-2.152129411697388
1774472941816022500,3.6450224609375,-2.472636314445734,0.6427589745998382,5.471568539580702,0.8753093481063843,3.6888835430145264,-1.9396427869796755
1774472941826040600,3.65504052734375,-0.5671645121723413,-0.3190107123419642,3.740476860396564,0.4292267262935638,3.016485929489136,-1.9591264724731443
1774472941836059600,3.6650595703125,1.1528431706786155,-0.4571966554999351,1.644489500530064,-0.0131933018565177,2.6189939975738525,-1.918056964874268
1774472941846077700,3.67507763671875,1.349374627560377,-0.800037156240642,0.6424529773905873,-0.2832503318786621,2.247011423110962,-1.746353268623352
1774472941856095500,3.685095458984375,1.6305068601459265,-1.6070163867041467,0.9115545804426074,-0.3037108778953552,1.8751938343048096,-1.41109299659729
1774472941866114600,3.695114501953125,2.3697189608067277,-2.4639175859391687,0.6030231765389442,-0.2900502681732178,1.2857650518417358,-1.022829532623291
1774472941876132600,3.705132568359375,3.3759394916325807,-2.640156780898571,-0.374092255833745,-0.3133689165115356,0.5015267133712769,-0.8289157152175903
1774472941886150700,3.715150634765625,4.175853606015443,-2.23467774541527,-1.3205875090152024,-0.3575352728366852,-0.1350053399801254,-0.913239359855652
1774472941896169700,3.725169677734375,5.115099034199118,-1.664673041380942,-1.609037663398683,-0.4005354642868042,-0.5768365263938904,-1.255683660507202
1774472941906187500,3.7351875,5.7567339732050895,-0.8980562164440751,-1.11250385376662,-0.3624818921089172,-1.1301997900009155,-1.6613012552261353
1774472941916205600,3.74520556640625,6.450524046862125,0.142087334510684,-0.4907844523251056,-0.3262176513671875,-1.872819304466248,-2.1265017986297607
1774472941926224600,3.755224609375,6.97046094391346,0.7097662259459495,-0.6174398244261742,-0.3524702489376068,-2.7567386627197266,-2.642162084579468
1774472941936242700,3.76524267578125,5.777393314874172,-0.0803857883572578,-1.0516603857472535,-0.3612834513187408,-3.213075399398804,-3.139236688613892
1774472941946260700,3.7752607421875,1.488084594592452,-0.6681793931908905,-1.7212684965670109,-0.586266279220581,-3.339160203933716,-2.811330318450928
1774472941956279600,3.785279541015625,-5.011182148128747,-0.7558307886369526,-4.075025625871121,-1.0365716218948364,-3.3304505348205566,-2.194225549697876
1774472941966297600,3.795297607421875,-5.713422070223093,-1.637014634604752,-1.8724924927353856,-1.09196937084198,-3.2959864139556885,-1.5488064289093018
1774472941976315400,3.8053154296875,-7.043353746166825,-2.054034324147552,0.6935948433458805,-1.0278226137161257,-2.58601188659668,-1.023170828819275
1774472941986334500,3.81533447265625,-6.025139995208383,-1.3981380739465354,-0.2317489007353782,-1.0256972312927246,-1.7819403409957886,-0.7038381099700928
1774472941996352800,3.825352783203125,-3.331900443419814,-0.911930135756731,-1.6980895732924342,-1.0156805515289309,-1.1524369716644287,-0.6916632056236267
1774472942006370600,3.83537060546875,-0.9247060306996108,0.4801750877663492,-2.974490442317724,-0.9352688789367676,-1.072656273841858,-0.7011953592300415
1774472942016389600,3.8453896484375,-1.3059183476716278,2.0260748885981736,-3.117133364884555,-0.8269333243370056,-1.1513782739639282,-0.643108069896698
1774472942026407400,3.855407470703125,-1.246951779440045,2.772034271562099,-3.071076839369536,-0.6586859226226807,-1.382013916969299,-0.6362261772155762
1774472942036425500,3.865425537109375,-1.3232435764819384,3.715738724981248,-1.9013306108154355,-0.4799129366874695,-2.6878724098205566,-0.4918924272060394
1774472942046444500,3.875444580078125,-2.086660144072771,3.863494460517168,-1.036531205676496,-0.323486179113388,-3.765345335006714,-0.3938871622085571
1774472942056462600,3.885462646484375,-2.8803853406876323,2.542553900280595,0.2634539525538683,-0.3462846875190735,-3.3801164627075195,-0.3168911933898926
1774472942066480600,3.895480712890625,-1.0224281537830828,1.4285941486172378,-0.4317359048984944,-0.5363358855247498,-2.4602837562561035,-0.5774401426315308
1774472942076499700,3.905499755859375,-0.3917968393504619,0.5936283023364841,-0.4256144994087517,-0.7912448644638062,-1.547481656074524,-0.7085709571838379
1774472942086517500,3.915517578125,-1.220308687186241,0.1082902788490056,0.1101134756881743,-1.0196398496627808,-0.9543648362159728,-0.6589816808700562
1774472942096535800,3.925535888671875,-2.820254404851794,0.2076685716416686,1.5286748175255953,-0.950078547000885,-1.4231605529785156,-0.2375995516777038
1774472942106554600,3.9355546875,-3.1328309924930333,0.236834752632305,2.3311605359621344,-0.8771401643753052,-1.3286958932876587,-0.0505730882287025
1774472942116572700,3.94557275390625,-2.3372914399325846,-0.2619086228080093,1.5289400443330403,-0.7630932331085205,-1.1896655559539795,0.0376047082245349
1774472942126590500,3.955590576171875,-2.532560329532623,-0.1631215739067643,0.6287313260301948,-0.6661118268966675,-1.077867865562439,0.1497911661863327
1774472942136609500,3.965609619140625,-2.273797749665379,-0.067945335913822,-0.0062133763558231,-0.5596112012863159,-1.0793776512145996,0.2532509863376617
1774472942146627600,3.975627685546875,-2.417866028860211,-0.568729496466741,0.5657421877516433,-0.4198028743267059,-0.9956738352775574,0.4385096728801727
1774472942156645600,3.985645751953125,-2.2421125715911385,-0.9862547243788836,0.6941200362637638,-0.3154644668102264,-0.9609946608543396,0.606566309928894
1774472942166664700,3.995664794921875,-1.4773147787749767,-1.363852650246024,0.8571099466148764,-0.317671924829483,-0.8868008852005005,0.7675449252128601
1774472942176682800,4.005682861328125,-0.9645563950508832,-1.539773573036492,0.0759850143813528,-0.365193098783493,-0.712597131729126,0.9258946180343628
1774472942186700500,4.015700439453125,-0.8526654613614082,-0.9152909904919564,-0.2400114829722791,-0.3674784898757934,-0.4708974361419678,1.1116962432861328
1774472942196719600,4.0257197265625,-0.6246060627937317,-0.3289651201233267,-0.1418582201962359,-0.3349301517009735,-0.4304083585739136,1.253175139427185
1774472942206737400,4.0357373046875,-0.781161483117938,0.3158030023418366,-0.3203765208024531,-0.3163303136825561,-0.6399628520011902,1.3774280548095703
1774472942216756000,4.045755859375,-0.4755862986713647,0.7052170382089913,-0.5132318099221215,-0.3600090742111206,-0.7258487343788147,1.400166630744934
1774472942226775000,4.055775146484375,0.5879828437954187,0.8240563297316431,-0.6704873048070817,-0.4537767767906189,-0.6499276161193848,1.3332350254058838
1774472942236793000,4.06579296875,0.8228203581959008,0.8902927428357302,-0.4663417561924085,-0.5353235602378845,-0.4424125254154205,1.261595368385315
1774472942246811000,4.075810791015625,1.3149842821806668,0.8969913636915385,-0.1716118274196982,-0.4761890470981598,-0.1142226979136467,1.0600372552871704
1774472942256830000,4.085829833984375,3.017023762142658,0.7530246451750398,0.1627732353931292,-0.2984454333782196,0.2636819779872894,0.7211875915527344
1774472942266847700,4.09584765625,3.360618588382005,0.3626085926584899,0.2045203732764348,-0.2163540571928024,0.5754532217979431,0.4073257446289062
1774472942276866000,4.105865966796875,3.4872727914392945,0.0790937027201056,0.2576703641837463,-0.1462495476007461,0.7887691855430603,0.1633785963058471
1774472942286885000,4.115885009765625,3.2705577937066552,-0.0248858733229339,1.035462626596913,-0.0616216771304607,0.7246183753013611,0.0004060772480443
1774472942296903000,4.12590283203125,3.1004367893666025,-0.2476341598704457,1.492236161313951,-0.0223248712718486,0.4852220118045807,-0.1093571707606315
1774472942306921000,4.1359208984375,2.48726455925703,-0.5495614893339574,1.3114140224784612,-0.0693634673953056,0.3661774694919586,-0.2065428346395492
1774472942316939800,4.145939697265625,1.8119255035698412,-0.6953275123573839,1.1708148806989191,-0.1097827926278114,0.4198854565620422,-0.3026504516601562
1774472942326957800,4.155957763671875,1.5046113665014504,-0.3488184061065316,1.3496627968519923,-0.0771273449063301,0.5144484639167786,-0.4574292600154876
1774472942336976100,4.16597607421875,1.609682683303952,0.2424453590556979,1.5054910719454289,0.0272238217294216,0.626866340637207,-0.6302159428596497
1774472942346995000,4.175994873046875,1.049932831302285,0.5425833208844065,1.4653480082578956,0.1528911888599395,0.7423081398010254,-0.7272034883499146
1774472942357013000,4.186012939453125,0.0289396787583827,0.7824979924187063,1.3762790010988712,0.2427920401096344,0.8210269212722778,-0.735683023929596
1774472942367030800,4.19603076171875,-0.8636433669716119,0.8751001421399414,0.9507350827082992,0.2678615152835846,0.8555710315704346,-0.6697751879692078
1774472942377049900,4.2060498046875,-1.3268869014203548,0.6219073252290487,0.5927608718521893,0.2632305324077606,0.8156515955924988,-0.5770924091339111
1774472942387068200,4.216068115234375,-1.5320353799998758,0.354917161373049,0.4087006278783083,0.2636070251464844,0.6872970461845398,-0.4960951507091522
1774472942397087000,4.2260869140625,-1.6105395923942327,-0.1371612762853503,0.4902473132411017,0.3202103674411773,0.4786018431186676,-0.3979001343250274
1774472942407105000,4.23610498046875,-2.0198568908661603,-0.1581684084787964,0.0153419825712218,0.2818011343479156,0.2170275598764419,-0.2060174196958542
1774472942417122800,4.246122802734375,-2.77328222579658,0.6705898153334856,-0.6131302906639874,0.1622323989868164,-0.2028882205486297,0.0678133368492126
1774472942427142000,4.256141845703125,-2.4165315653860566,0.6407854825697838,-1.0209206718295811,-0.0355926603078842,-0.4874060750007629,0.1467417180538177
1774472942437160000,4.266159912109375,-1.343992350000143,0.7308354635901748,-0.4115052004376426,-0.0370400883257389,-0.3939416408538818,0.1503146141767501
1774472942447178000,4.276177978515625,-1.5879893224120138,0.8286047868162393,-0.3261023876359686,-0.0325401052832603,-0.1633577793836593,0.1949976533651352
1774472942457197000,4.286197021484375,-1.517903978794813,0.0786674401320517,-1.0128625261235982,-0.0207215268164873,-0.0708025321364402,0.3388698697090149
1774472942467214800,4.29621484375,-1.3125175998061895,-0.8035248522259294,-0.8048622383095324,-0.0150633519515395,-0.045366033911705,0.4681668877601623
1774472942477233000,4.30623291015625,-0.1204027414470911,-1.154325079799443,-1.1154594887018203,-0.0448358952999115,-0.0874586328864097,0.4824307858943939
1774472942487252000,4.316251953125,0.8902350212991237,-0.7080801725551485,-0.6201706376295536,-0.0112463468685746,-0.0328148081898689,0.3691734671592712
1774472942497269800,4.326269775390625,1.6702467498600482,-0.7609909478791058,-0.6714524235121906,-0.0979889705777168,0.0981549248099327,0.2526963949203491
1774472942507288000,4.3362880859375,1.6624223398447036,-0.8042844384215772,-1.366344905453175,-0.2185562402009964,0.2590277791023254,0.1698277294635772
1774472942517307100,4.34630712890625,1.5928858622819184,-0.6115121879428624,-1.121102316894382,-0.3110153377056122,0.4094173014163971,0.0846324041485786
1774472942527325000,4.356324951171875,1.6320435681939125,-0.7458114989258349,-0.8804230907283723,-0.373244434595108,0.3883590996265411,0.0182093046605587
1774472942537343000,4.366343017578125,1.7286591913402078,-0.0496067653425037,-0.5849413206750527,-0.3434766829013824,0.2401571124792099,-0.0322884917259216
1774472942547361800,4.37636181640625,0.8093658333390951,0.1580007968269288,0.5370763209659606,-0.2105038315057754,0.2692130208015442,-0.0212683249264955
1774472942557379800,4.3863798828125,0.329074717977643,0.1559896031349897,0.9147104141250252,-0.0441385582089424,0.4368768334388733,-0.0607646033167839
1774472942567398000,4.39639794921875,-0.1965647746294736,0.3323249519452452,1.5080511316917835,0.182148277759552,0.5249742269515991,0.0200386382639408
1774472942577417000,4.4064169921875,-0.8565279820084571,0.1686931634940207,1.4978691987648605,0.314137727022171,0.6610899567604065,0.0551987588405609
1774472942587435000,4.41643505859375,-0.5653051480412483,-0.0653475014403462,1.3494058994814753,0.4143261611461639,0.5389525890350342,0.1145627498626709
1774472942597452800,4.426452880859375,-0.7363350839197635,-0.3601534545913338,1.4315943533465263,0.450035959482193,0.4696150422096252,0.1024096831679344
1774472942607471900,4.436471923828125,-0.4549760568410158,-0.5218957760341465,1.2509671525612474,0.4044756293296814,0.1311176568269729,0.1534500867128372
1774472942617490000,4.446489990234375,-0.4483610226154327,-0.8993643764331937,0.6958957406993955,0.2955659329891205,-0.1481731086969375,0.1534165292978286
1774472942627508000,4.456508056640625,-0.421077294370532,-0.7662345476210117,0.5842001103863119,0.2068128585815429,-0.3668996691703796,0.2368453741073608
1774472942637527000,4.466527099609375,-1.0397042827546596,-0.6006976562008262,0.113620314765349,0.097899429500103,-0.3430294990539551,0.3839756846427917
1774472942647544800,4.476544921875,-0.6223287655115127,-0.3564011163204908,-0.5787661757040768,-0.0234269499778747,-0.2287707179784774,0.4499495327472687
1774472942657563000,4.48656298828125,0.2149205155313014,0.24072087335065,-1.600024774251133,-0.3103609681129455,-0.3377145230770111,0.4070979356765747
1774472942667582000,4.49658203125,0.8555950850725174,1.924511872177571,-2.7249446036070584,-0.525972843170166,-0.5969269275665283,0.2763045132160187
1774472942677600000,4.50660009765625,1.3496177886664866,1.3062898113325236,-0.6790180364608764,-0.316740483045578,-0.389462411403656,-0.0715788975358009
1774472942687618000,4.5166181640625,3.5390696141719817,-0.5763441361889243,0.9135513072177768,-0.1015535071492195,0.224963441491127,-0.5483710169792175
1774472942697636900,4.526636962890625,3.608422551861405,-0.9252649797566236,0.502228331479244,0.0162165369838476,0.7426931262016296,-0.7976061701774597
1774472942707655000,4.536655029296875,1.899016342523694,-0.9044150839515028,0.6122909172303974,0.0781371444463729,0.9263246655464172,-0.772727906703949
1774472942717672700,4.546672607421875,0.1145528463751077,-0.4129404574051499,0.3835826993651688,0.068109281361103,0.928955078125,-0.600875735282898
1774472942727691800,4.55669189453125,-0.9130541713505984,-0.3213571293376386,0.2187181542485952,0.0294368080794811,0.7073825001716614,-0.4080848693847656
1774472942737710000,4.5667099609375,-1.451103648197651,-0.4012961968407034,-0.1567215706713497,-0.0354580357670784,0.3131379783153534,-0.2708668410778045
1774472942747728000,4.576727783203125,-0.922323519477248,-0.1432718681201338,0.0862025848772376,-0.0682944878935813,-0.0261944849044084,-0.241078570485115
1774472942757747000,4.586746826171875,-0.6249211200922727,-0.2255943236283958,-0.0506568589173257,-0.1107026636600494,-0.2984829843044281,-0.2679490745067596
1774472942767765000,4.596764892578125,-0.2580991475224495,-0.1296824648372828,-0.1650895860441029,-0.1541933417320251,-0.5275468230247498,-0.2994016706943512
1774472942777783000,4.606782958984375,0.2193424236267805,-0.1637393404789268,0.1113368800032883,-0.1201597452163696,-0.6867154836654663,-0.3976054787635803
1774472942787801900,4.6168017578125,1.3235329148173332,-0.1551796019263565,0.4482852539654821,-0.068097323179245,-0.8159351348876953,-0.548491358757019
1774472942797820000,4.62681982421875,1.9704858339756728,-0.0155418525248765,0.381618413554877,-0.0518200807273387,-1.0922378301620483,-0.6720247864723206
1774472942807838000,4.636837890625,2.021980458891392,0.2462245853334665,-0.054367367340438,-0.1156532168388366,-1.6544666290283203,-0.7068279385566711
1774472942817857000,4.64685693359375,1.543206762355566,0.3906172741770744,-0.2363844515815377,-0.1630670577287674,-2.39957594871521,-0.6858174204826355
1774472942827874800,4.656874755859375,0.954349473813176,0.0510308067962527,-0.2779711199398152,-0.2355291545391082,-3.050855159759521,-0.6427556872367859
1774472942837893000,4.66689306640625,0.1183539922237396,-0.2921720975160599,-0.1462894806419499,-0.257476806640625,-3.44527006149292,-0.5131289958953857
1774472942847912000,4.676911865234375,-1.4086106603831052,0.0223928874634206,0.6333255219526589,-0.2723499834537506,-3.575723171234131,-0.2604458928108215
1774472942857930000,4.686929931640625,-2.749233241689205,0.2077083921954035,0.396351506980136,-0.3405575156211853,-3.107922077178955,0.0074526770040392
1774472942867947800,4.69694775390625,-3.0110476103425023,-0.0267442876059561,0.0419519397404044,-0.4070607125759125,-2.2940587997436523,0.143723577260971
1774472942877966800,4.706966796875,-2.4691326902389523,-0.2699835004530846,-0.6158508016690611,-0.4258445203304291,-1.7432916164398191,0.2036612033843994
1774472942887985000,4.71698486328125,-1.782321223422885,0.0535606175348162,-0.098020813769102,-0.2866638302803039,-1.5686945915222168,0.2207574993371963
1774472942898003000,4.7270029296875,-0.859672709774971,0.3274592456050217,0.48879941598773,-0.1448646038770675,-1.5888334512710571,0.2104587852954864
1774472942908022000,4.73702197265625,-0.3025005993068218,0.4672372802600264,0.2527896429374814,-0.0939250886440277,-1.6095582246780396,0.147299125790596
1774472942918040000,4.7470400390625,0.6942243734210729,0.3607065584294497,-0.0987596494376659,-0.0838053375482559,-1.4396778345108032,-0.0403195060789585
1774472942928057900,4.757057861328125,1.4431371993631124,0.2661334008961916,-0.1806640256643295,-0.0805583745241165,-1.261884689331055,-0.2122417390346527
1774472942938077000,4.767076904296875,0.9648521631270648,0.2003267575114965,-0.2542227444805204,-0.0987264588475227,-1.3041908740997314,-0.2503478229045868
1774472942948094700,4.7770947265625,0.649148967897892,0.0484755693554878,-0.2675115573816001,-0.103275142610073,-1.3367018699645996,-0.2689854204654693
1774472942958113000,4.787113037109375,0.7140338202625512,0.0865318898968398,-0.0078054130539298,-0.0827429667115211,-1.2532637119293213,-0.2781283259391784
1774472942968132000,4.797132080078125,0.0944505540668964,-0.0743785107664763,0.0356710328400135,-0.0681627765297889,-1.1654638051986694,-0.2012906670570373
1774472942978150000,4.80714990234375,-0.1931499977499246,-0.196926374483481,0.0131198860749602,-0.0403870791196823,-1.058681607246399,-0.1494490355253219
1774472942988168000,4.81716796875,-0.3281669554829597,-0.19686295385845,0.1086845388635993,-0.0054639289155602,-1.0247117280960083,-0.0898505747318267
1774472942998186800,4.827186767578125,-0.4140291294246911,-0.1538517873886972,0.2216907403185963,0.0500794909894466,-0.9808425903320312,-0.0937606245279312
1774472943008205000,4.837205078125,-0.3903267667979002,-0.1466172330252826,0.3300648980587721,0.0862502604722976,-1.0521153211593628,-0.0770644694566726
1774472943018223000,4.84722314453125,-0.5304746576786041,-0.1761545123506337,0.2767535791099071,0.1022161692380905,-1.1430559158325195,-0.085987389087677
1774472943028242000,4.857241943359375,-0.0497667782098054,-0.287918677855283,0.3785147484511136,0.1289769262075424,-1.065292477607727,-0.2007107734680175
1774472943038260000,4.867260009765625,0.7679881132900714,-0.3470844219207763,0.5182108039110899,0.1864348948001861,-0.8190880417823792,-0.394305557012558
1774472943048277800,4.87727783203125,1.140374734249711,-0.2750060778554529,0.5694201821446419,0.2354315817356109,-0.692875862121582,-0.5202393531799316
1774472943058296800,4.887296875,0.8045423587054014,-0.2052518658887595,0.5570692346155643,0.2999716699123382,-0.7350376844406128,-0.5346787571907043
1774472943068315100,4.897315185546875,0.7085077503174543,-0.0841465291302651,0.6801160608306527,0.3784539103507995,-0.8624858260154724,-0.5082410573959351
1774472943078333000,4.9073330078125,0.6642565206587314,-0.070111062580347,0.7765712327182293,0.4431284964084625,-1.0023616552352903,-0.4508392512798309
1774472943088352000,4.91735205078125,0.512777672946453,-0.3465027495753019,0.6300169819265604,0.4744623005390167,-1.1506335735321045,-0.3809286057949066
1774472943098369800,4.927369873046875,0.16635843693614,-0.492537214276567,0.6607853374168277,0.536803662776947,-1.3308032751083374,-0.287773072719574
1774472943108387800,4.937387939453125,-0.2046709241956472,-0.4554682973373681,0.9220303817495704,0.5871379971504211,-1.55928635597229,-0.211992859840393
1774472943118407000,4.947406982421875,0.1270183601945638,-0.5014301303062587,0.9706474054023624,0.619502604007721,-1.6353139877319336,-0.2490214407444
1774472943128425000,4.957425048828125,0.3876268601894378,-0.5925731672603637,1.0259703564345837,0.6821174621582031,-1.6993952989578247,-0.3483887910842895
1774472943138443000,4.967443115234375,0.3218745773404836,-0.7551794851213693,1.0808274435207248,0.735618531703949,-1.6802308559417725,-0.5136579275131226
1774472943148461800,4.9774619140625,0.240897252830863,-0.9039828300140798,0.8130483212441205,0.7393778562545776,-1.649154782295227,-0.5722311735153198
1774472943158480000,4.98747998046875,-0.0053489598125219,-0.8788983653791248,0.4981637489214539,0.7002666592597961,-1.6846009492874146,-0.589186429977417
1774472943168498000,4.997497802734375,0.3315244492173195,-0.4825614714462309,0.3337430020496249,0.5814269185066223,-1.811722040176392,-0.586701512336731
1774472943178517000,5.00751708984375,0.3178764476150274,-0.3556478137351572,-0.3060322805643081,0.2711648941040039,-2.018249988555908,-0.5553150773048401
1774472943188535000,5.01753515625,-0.1971972273141145,0.0285163205134682,-3.669748834961653,-0.6834721565246582,-2.2950570583343506,-0.4233242869377136
1774472943198552800,5.027552734375,-0.9000900603592396,0.4194742430880666,-5.317491492068768,-1.3796967267990112,-2.034240961074829,-0.2438178956508636
1774472943208572000,5.037572021484375,-0.8346674478560686,0.4843614335402846,-0.5812766241550446,-1.5137149095535278,-1.664319634437561,-0.0820800065994262
1774472943218589700,5.047589599609375,-0.3636994566351175,1.0840103113405406,0.0309019187420606,-1.5731092691421509,-1.4608429670333862,-0.0700566321611404
1774472943228607700,5.057607666015625,0.4911439332872629,1.6123241377234458,-1.4237182131439448,-1.5977604389190674,-1.4297757148742676,-0.1814453303813934
1774472943238626800,5.067626708984375,0.1309223818957805,1.8491320754140612,-2.3790140278965235,-1.5765275955200195,-1.465308666229248,-0.2547432482242584
1774472943248644900,5.077644775390625,-0.6605325316995382,2.1270245954260227,-2.391964694884419,-1.377807855606079,-1.3694581985473633,-0.3286917805671692
1774472943258662700,5.08766259765625,-0.7496388021290302,1.7478218647107482,-1.7469494657903908,-1.0449764728546145,-1.1332597732543943,-0.4463020265102386
1774472943268681700,5.097681640625,-1.1111685135096312,0.745567534102127,-1.555083078110218,-0.7248983383178711,-0.7714079022407532,-0.495919793844223
1774472943278699500,5.107699462890625,-1.784694966816902,0.1601286026358604,-1.2408230674266814,-0.5446068644523621,-0.4168295562267303,-0.4483360052108764
1774472943288717800,5.1177177734375,-1.8879846608996391,-0.1752916849762201,-1.1465648210614918,-0.5497307777404785,-0.1128520965576171,-0.4669038355350494
1774472943298737000,5.12773681640625,-0.60506374245584,-0.4284433661591261,-0.8608218798100948,-0.5835486650466919,-0.0821157544851303,-0.5065543055534363
1774472943308754700,5.137754638671875,-0.7810317192584276,-0.3685506229933351,0.2497217797994613,-0.5841720104217529,-0.0506085306406021,-0.4205391407012939
1774472943318772700,5.147772705078125,-0.4521130686253309,-0.3291804433744401,0.6735586020112038,-0.5916917324066162,0.2853018343448639,-0.3664183914661407
1774472943328791600,5.15779150390625,0.103614103731513,-0.4919952894195914,0.6346212608516216,-0.5903782844543457,0.6206490993499756,-0.2722429037094116
1774472943338809900,5.167809814453125,-0.019243045130372,-0.4712852404765784,1.0071569348931313,-0.5124054551124573,0.7275773882865906,-0.1250081658363342
1774472943348828000,5.177827880859375,0.5954974572092294,-0.236891597386077,1.2904454687297344,-0.4586063027381897,0.8855612277984619,-0.1042406931519508
1774472943358846700,5.1878466796875,0.1799637684404849,-0.3070625003948807,0.981858827507496,-0.4048070013523102,1.058027744293213,-0.0073753930628299
1774472943368864800,5.19786474609375,-0.3977513638406991,0.0273290286913514,0.5581476775020361,-0.4182661175727844,1.1242468357086182,0.0383129902184009
1774472943378882600,5.207882568359375,-0.3481786468982696,0.0769885471343994,-0.1983510735243558,-0.4780218601226806,1.056512475013733,0.057216640561819
1774472943388901600,5.217901611328125,-0.5564829591602086,-0.1692083464745432,0.2229641212552785,-0.4688135385513305,0.9525270462036132,0.0654940158128738
1774472943398920000,5.227919921875,-0.6446060637712479,-0.4646799969926476,0.4112409600108861,-0.4621255397796631,0.8503921627998352,0.0473261959850788
1774472943408937700,5.237937744140625,-0.5938777470529079,-0.395760628414899,0.2203103918761015,-0.4322168529033661,0.8275920748710632,0.0530079118907451
1774472943418956800,5.247956787109375,-0.6793441996753216,-0.4748262010190636,0.2523842770069837,-0.3860323131084442,0.7788687348365784,0.0774421468377113
1774472943428974600,5.257974609375,-0.6711585551321506,-0.5717767552081495,0.6071101535916328,-0.1995197087526321,0.8758401870727539,0.146061822772026
1774472943438992600,5.26799267578125,-0.5568816030889749,-0.0330573432102799,2.0529151108592747,0.123249277472496,1.064027190208435,0.178361177444458
1774472943449011700,5.27801171875,0.1034516066461801,0.0799329300232231,2.4909435400307176,0.3320037424564361,1.25036358833313,0.1337513625621795
1774472943459029800,5.28802978515625,0.8497796767920255,-1.0059803653944284,0.9914122532725334,0.3624391555786133,1.380954384803772,0.1028951779007911
1774472943469047800,5.2980478515625,0.6811866126716136,-1.4298358192414045,0.9249468537181617,0.426455557346344,1.4051271677017212,0.1157686412334442
1774472943479066600,5.308066650390625,0.6757417912691831,-1.4052417684718963,1.2236167888209224,0.4852219223976135,1.3956633806228638,0.1263091564178466
1774472943489084700,5.318084716796875,0.856602800810337,-0.7878818774141371,1.1425295741960406,0.5678611993789673,1.5358620882034302,0.0862351208925247
1774472943499102700,5.328102783203125,1.1869529455512762,0.1771788869623094,0.7857084788978099,0.6022831201553345,1.6070350408554075,0.0129012465476989
1774472943509121500,5.33812158203125,1.2570803747445345,0.7553777111072093,0.5177972546741366,0.7501601576805115,1.755833625793457,-0.043756041675806
1774472943519139800,5.348139892578125,0.9645639938354492,1.5835945945844054,0.8264999234914779,0.7870990037918091,1.644644021987915,-0.1449069082736969
1774472943529157600,5.35815771484375,2.1585855625987054,0.1372420133713632,-0.9658446812957524,0.6439670920372009,1.594565749168396,-0.4063144028186798
1774472943539176700,5.3681767578125,1.9591566307097672,-0.4521930019937455,-1.0393658445805312,0.5270601511001587,1.7580348253250122,-0.5293260812759399
1774472943549194800,5.37819482421875,0.0672615183681249,-0.3057605509508401,-0.8262304589003324,0.4059205651283264,1.7816805839538574,-0.3891929388046264
1774472943559212800,5.388212890625,-1.4348516015768051,0.3580683919455856,-1.0908365040987729,0.3478879034519195,1.5120669603347778,-0.0584616251289844
1774472943569232000,5.39823193359375,-2.546297178462148,0.1643189669977873,-0.7716112722232937,0.2966451942920685,1.0273224115371704,0.3534106016159057
1774472943579249700,5.408249755859375,-3.5322757162481544,-0.2317171173576265,-0.9461664596185088,0.2011660486459732,0.698962390422821,0.7051180601119995
1774472943589267700,5.418267822265625,-3.610411095330119,0.1035261331871151,-1.1539192754775285,0.0518592707812786,0.599845290184021,0.878507673740387
1774472943599286800,5.428286865234375,-2.48083131133914,0.5995199907235801,-1.8816276930883529,-0.1655260473489761,0.6264246702194214,0.8923118710517883
1774472943609304600,5.4383046875,-1.5873124460637569,0.9538784222353248,-1.86945444021374,-0.2981699705123901,0.8432672023773193,0.8076322078704834
1774472943619323000,5.448322998046875,-0.9772311677068471,1.4109797276020049,-1.904333445893228,-0.3680033683776855,0.9080118536949158,0.6417942047119141
1774472943629342000,5.458342041015625,-0.2353080545216798,1.083966399133578,-1.5035966365009543,-0.3749013245105743,0.7692874670028687,0.5226614475250244
1774472943639359700,5.46835986328125,0.0619014526396989,0.904727291705832,-0.8599263922750949,-0.3834559321403503,0.5362217426300049,0.4448201656341553
1774472943649377800,5.478377685546875,0.2334890224009752,0.8821149162728339,-0.5226245287001132,-0.39183109998703,0.4419615268707275,0.4096432626247406
1774472943659396600,5.488396728515625,0.5470704031705856,0.9996860144905746,0.2483577979698777,-0.325445145368576,0.4608625173568725,0.3805418312549591
1774472943669414700,5.49841455078125,1.1252426315695048,0.7929702865943312,0.6765306035593152,-0.3497518897056579,0.185532197356224,0.3036551773548126
1774472943679432700,5.5084326171875,1.7006535785615444,-0.2045018512390553,0.3080114716827869,-0.378655195236206,0.1023986935615539,0.2745513617992401
1774472943689451800,5.51845166015625,0.8929524635642766,-0.6502658430986106,1.0761544832736254,-0.3027706742286682,0.0900528281927108,0.2783065438270569
1774472943699469800,5.5284697265625,0.9489864854753016,-0.0621001900821924,1.920765525256097,-0.225332885980606,-0.0206132344901561,0.2419522553682327
1774472943709487600,5.538487548828125,0.768249979096651,-0.1803739566765725,0.6703349637895822,-0.2549924850463867,0.0327588245272636,0.2579549252986908
1774472943719506700,5.548506591796875,0.1367038879066705,0.2785324253506958,0.688325086249411,-0.2286516577005386,0.0878138169646263,0.2638487815856933
1774472943729524700,5.558524658203125,0.3494084809541702,0.4333974083699285,0.5472843381822109,-0.2489037662744522,0.1709503829479217,0.2174011319875717
1774472943739542800,5.568542724609375,0.4556383201420307,0.5681194748096168,0.1306795130506158,-0.2671876847743988,0.3797398209571838,0.1398924887180328
1774472943749561900,5.578561767578125,0.9496206917256116,0.6103709089532494,0.1566661872223019,-0.2773041129112243,0.4318898916244507,-0.0103159248828887
1774472943759579600,5.58857958984375,1.2046499302834273,0.3422353744544089,-0.0106461894378066,-0.2621975839138031,0.6422431468963623,-0.1442974358797073
1774472943769597700,5.59859765625,0.9200164115786552,0.4694207617789506,-0.11537848354429,-0.2597035467624664,0.7751253843307495,-0.2911115288734436
1774472943779616800,5.60861669921875,1.0107149196356535,0.721855161537975,0.0105079500108957,-0.288122147321701,0.7612665295600891,-0.3885576426982879
1774472943789634800,5.618634765625,0.3959691565990448,0.8867596002735197,0.0437894573658704,-0.3182139694690704,0.7882072925567627,-0.4595783054828644
1774472943799652900,5.62865283203125,0.6005155776321888,0.7519725057736039,0.3018599633157253,-0.2754891514778137,0.8871999382972717,-0.6047695875167847
1774472943809671700,5.638671630859375,1.5484505082279445,0.955117097184807,0.8255003910601139,-0.1777627617120742,0.7538046836853027,-0.8040736317634583
1774472943819689700,5.648689697265625,1.0558411785632371,0.0348961029447615,1.0882068862475454,-0.1050912290811538,0.599866509437561,-0.9065874814987184
1774472943829707500,5.65870751953125,-0.3027057664901018,-1.005753278640285,0.6609991262979805,-0.0791847854852676,0.6682828068733215,-0.8521491289138794
1774472943839726600,5.6687265625,-0.6737789667636156,-1.9115221883535385,0.4752683187633753,-0.0733308941125869,0.6648518443107605,-0.7256063222885132
1774472943849745000,5.678744873046875,-0.6509264989644289,-2.13859827497229,0.5385404752343893,0.020679123699665,0.4994595050811767,-0.5777609944343567
1774472943859762700,5.6887626953125,-0.3536158695161342,-1.5639828622721137,0.8218750401698053,0.1367261111736297,0.1806244999170303,-0.427302747964859
1774472943869781800,5.69878173828125,-0.0314741656720638,-1.4339413548640907,0.9015766456551848,0.2551263570785522,-0.1076940596103668,-0.2891769707202911
1774472943879799800,5.7087998046875,-0.454423683655262,-1.0476061419203877,1.0341368578858674,0.3222222924232483,-0.1043166369199752,-0.0956634506583213
1774472943889817600,5.718817626953125,-1.5667074649304151,-0.08265935931243,0.5231003295183182,0.2834728062152862,-0.1176089867949485,0.1695806086063385
1774472943899836700,5.728836669921875,-1.387457982239127,0.9790144709270449,0.4697356729470193,0.297532171010971,-0.5884457230567932,0.3143234252929687
1774472943909854700,5.738854736328125,-0.6970581355422735,1.143518877494335,1.1498062872007488,0.4287523627281189,-1.0840998888015747,0.4167718887329101
1774472943919872800,5.748872802734375,-0.0523696541845798,0.5481268534209579,1.305558574448526,0.5813301801681519,-1.4242678880691528,0.2812276482582092
1774472943929891800,5.758891845703125,0.6908721403837204,-0.2952990704301744,0.9891384631216524,0.6349116563796997,-1.267283916473389,0.1857166886329651
1774472943939909600,5.76890966796875,-1.0906570558786393,-0.7745467411532998,-0.2490679920658469,0.6305296421051025,-0.9545812010765076,0.1906419396400451
1774472943949927700,5.778927734375,-1.0179355185389518,-0.3408746805604547,-0.5355988688245416,0.6446943879127502,-0.7324797511100769,0.1745753586292266
1774472943959946800,5.78894677734375,-0.4264209934860468,-0.294705926842615,-0.6949716846570372,0.650535523891449,-0.5592672228813171,0.1696538478136062
1774472943969964800,5.79896484375,-0.434967872557044,-0.5250787169191986,-0.8008382434904575,0.6499331593513489,-0.5135496258735657,0.1715295016765594
1774472943979984000,5.80898388671875,0.4031593603640794,-0.8148246102016419,-0.6274836640566587,0.6412094831466675,-0.521304726600647,0.0677003189921379
1774472943990001700,5.819001708984375,1.4717717576950788,-0.9867310366537422,-0.3530743099853396,0.6281546354293823,-0.4280621409416199,-0.1415212154388427
1774472944000019700,5.829019775390625,1.8630910426616667,-0.815439819490537,-0.3464841179400682,0.5538555979728699,-0.191902607679367,-0.2743852436542511
1774472944010038500,5.83903857421875,0.4288105189710855,-0.8396361761793494,-2.239579253721237,0.2169397473335266,0.5932868123054504,-0.1810352057218551
1774472944020056800,5.849056884765625,-1.1448019030421972,-0.1565915876161307,-4.653713402576744,-0.1519442796707153,1.37934148311615,-0.014974595978856
1774472944030075000,5.859074951171875,0.402287253704667,0.985930387795344,-3.306701704755425,-0.1557225286960601,1.6484001874923706,-0.0578203313052654
1774472944040093700,5.86909375,2.414955109849572,1.5774632522225378,-0.5814625021159648,0.0138489147648215,1.646659255027771,-0.3191110491752624
1774472944050111700,5.87911181640625,3.243991858342289,1.2015229573693125,-0.1543929815933108,0.0573847331106662,1.3466187715530396,-0.683918833732605
1774472944060129500,5.889129638671875,2.637116098028421,0.932659985378757,-0.7412522281862794,-0.0367521494626998,0.8157362341880798,-0.9331129789352416
1774472944070148600,5.899148681640625,1.816387159153819,0.8291627129599451,-0.2674113118775189,-0.0784190148115158,0.220134750008583,-1.0527751445770264
1774472944080167000,5.9091669921875,1.0473042363643643,0.4713506338629871,0.9523007245898246,-0.1085505485534668,-0.2100690901279449,-1.051927924156189
1774472944090184700,5.919184814453125,-0.8036784353524447,0.2529377096386626,0.8344367078401148,-0.1295923143625259,-0.3965361714363098,-0.8792161345481873
1774472944100203800,5.929203857421875,-1.5785872878164051,0.5232835040654987,1.368243724811822,-0.0924303010106086,-0.493427038192749,-0.7408812046051025
1774472944110221600,5.9392216796875,-1.0868886432558298,1.0991454096954316,0.5442968468040228,-0.2136689275503158,-0.451628029346466,-0.7383658289909363
1774472944120239600,5.949239501953125,-0.8364344575285911,1.561700158162415,-1.4168576797246932,-0.2918092608451843,-0.3600416481494903,-0.7436005473136902
1774472944130258700,5.9592587890625,-0.8162287048459053,1.32888698919639,-0.891495250493288,-0.3038781881332397,-0.1488634943962097,-0.7905965447425842
1774472944140276700,5.96927685546875,-0.4137479743957519,0.4505672274228185,-1.3536524510100485,-0.3930096626281738,-0.0605386979877948,-0.8233901858329773
1774472944150294800,5.979294677734375,-0.1976806269168853,-0.3299609992928802,-1.8262351839512585,-0.5437845587730408,-0.1589903533458709,-0.8351550698280334
1774472944160313600,5.989313720703125,-0.0289729965060949,-0.5630452402852475,-1.3811509910494089,-0.6674873232841492,-0.2472682744264602,-0.7727558612823486
1774472944170331600,5.99933154296875,-1.2961340357601645,-0.5883659248288721,-0.3278694338411093,-0.6718834638595581,-0.5043530464172363,-0.4516099691390991
1774472944180350000,6.009349853515625,-3.1132249592691656,-0.7617689465142786,0.9774433491528034,-0.555400550365448,-0.9586097598075868,-0.0036207393277436
1774472944190368800,6.01936865234375,-4.701369764503836,-0.5637930995104834,2.386392447710037,-0.3816719353199005,-1.6043765544891355,0.4312252402305603
1774472944200386800,6.02938671875,-2.423904724502563,-1.144246680312231,1.949464673256874,-0.3161581754684448,-1.9584810733795168,0.3810105621814728
1774472944210404600,6.039404541015625,-0.8674316533386707,-1.5500006602793932,1.0923352182239294,-0.3307018876075744,-2.051347017288208,0.3182097673416137
1774472944220424700,6.0494248046875,-1.5045517452687025,-1.503859525220841,0.758296448098123,-0.3495658636093139,-1.9067261219024656,0.3269896805286407
1774472944230442500,6.0594423828125,-0.5729039326071739,-1.5925338339738546,0.220840845490992,-0.4500622451305389,-1.487339735031128,0.2601892054080963
1774472944240460500,6.06946044921875,0.1299064828515052,-1.5216339591033756,0.0482075660690665,-0.5333510041236877,-1.1574478149414062,0.2664654850959778
1774472944250479400,6.079479248046875,0.0237286661118268,-1.118959021255374,0.2721013693898916,-0.6453096866607666,-1.0394221544265747,0.4184427559375763
1774472944260497700,6.08949755859375,0.0906529153496027,-0.8912192100308834,0.1287102588042616,-0.7895252108573914,-1.1337132453918457,0.6894888877868652
1774472944270515500,6.099515380859375,1.2820862211853266,-0.4358834895646199,0.519866754424572,-0.8113782405853271,-1.2917399406433103,0.8459082245826721
1774472944280534500,6.109534423828125,1.7197615991353987,0.0514951363723725,0.7855427669420838,-0.7929542064666748,-1.3207741975784302,1.027919888496399
1774472944290552600,6.119552490234375,0.6674328126072884,0.4570043477982282,1.098932424531877,-0.7022592425346375,-1.325962781906128,1.2332103252410889
1774472944300570400,6.1295703125,0.5008277074337005,0.336896862970665,0.5070055192857981,-0.6340647339820862,-1.1779568195343018,1.2648396492004397
1774472944310589400,6.13958935546875,1.7299147443592546,0.5228877827461809,-0.2851359152689576,-0.5705603361129761,-0.870856761932373,1.086391806602478
1774472944320607700,6.149607666015625,2.100914294874668,0.619924700044468,-0.7550543974369764,-0.4730838537216186,-0.5993655920028687,0.7487775087356567
1774472944330625500,6.15962548828125,2.472066990125179,1.0453772868897766,-0.9967565369099378,-0.3493043780326843,-0.3642080724239349,0.3653920590877533
1774472944340644600,6.16964453125,2.1289368587881325,0.498121151888743,-0.2410691022664308,0.0179029311984777,-0.1833645403385162,-0.1616312861442566
1774472944350662400,6.179662353515625,4.065532113599777,0.2643998551018536,1.4377207272723316,0.444607675075531,-0.2918771505355835,-0.7969657778739929
1774472944360680700,6.1896806640625,4.272593147802352,-0.0898194602001458,2.334636833770573,0.946484625339508,-0.4682154059410095,-1.3121284246444702
1774472944370699500,6.199699462890625,3.256857185134292,0.1909970574997365,3.5459359928101297,1.4064661264419556,-0.6492200493812561,-1.6246633529663086
1774472944380717600,6.209717529296875,1.6585054586619137,0.9495540562301874,2.4460025745421645,1.5691235065460205,-0.4971682429313659,-1.67453134059906
1774472944390736600,6.219736572265625,-0.4059872772663832,1.971745770908892,1.132157233263552,1.4128479957580566,0.043907806277275,-1.560285568237305
1774472944400754400,6.22975439453125,-1.3408528829306363,2.717894100573659,-1.5915063906222582,0.945466160774231,0.556267499923706,-1.486961007118225
1774472944410772500,6.2397724609375,-0.1269599080055952,2.8893925307467576,-1.0828355684727429,0.6575114727020264,0.6400322914123535,-1.499746322631836
1774472944420791600,6.24979150390625,-0.313218392676115,2.6363512511357663,-0.2307587206542491,0.4799348711967468,0.5142221450805664,-1.499645709991455
1774472944430809600,6.2598095703125,-0.9507049798309802,2.152110521365702,-1.1237018318682908,0.2446581125259399,0.4282423257827759,-1.4442611932754517
1774472944440827600,6.26982763671875,-1.5755840143471955,1.845671413566172,-2.4137132930949328,0.0261090025305748,0.4733951389789581,-1.437517523765564
1774472944450846700,6.2798466796875,-0.9987094245433806,1.3023432656638323,-1.9884090286791325,-0.0824521109461784,0.677003800868988,-1.5399494171142578
1774472944460864500,6.289864501953125,-1.667266857266426,1.0715919976636767,-1.0427557792797684,-0.0919683873653411,1.051603078842163,-1.600614309310913
1774472944470882600,6.299882568359375,-1.7079904973208904,1.1051466959368437,-0.4397977769315243,-0.0649691596627235,1.3862006664276123,-1.6371971368789673
1774472944480901400,6.3099013671875,-1.0932932496011256,0.4053985906582325,-0.1022659039929509,-0.056244108825922,1.4372804164886477,-1.6537632942199707
1774472944490919700,6.319919677734375,-1.216125848543644,-0.5715069983560591,-0.0682072747856378,-0.09855917096138,1.2369847297668457,-1.6244471073150637
1774472944500937500,6.3299375,0.1650531995564699,-1.813012275893241,0.1012333460748195,-0.1627493351697921,0.7344124913215637,-1.7346113920211792
1774472944510956500,6.33995654296875,0.4545382499456405,-1.7736700071945786,0.8810527669340371,-0.0919380486011505,0.3597112596035003,-1.7078717947006226
1774472944520974600,6.349974609375,-0.6324345644623041,-1.0139473256856202,1.7094135158613324,0.0440738461911678,0.4413781464099884,-1.631476640701294
1774472944530992400,6.359992431640625,-0.8234107253044843,-1.0005445310160517,1.082977315030992,0.1411915272474289,0.820084810256958,-1.6014729738235474
1774472944541011500,6.370011474609375,-0.1228238311141729,-0.7509360023327172,0.954735842782259,0.3090383410453796,1.049376130104065,-1.667644500732422
1774472944551029500,6.380029541015625,0.6481628794699907,-0.4495516937047243,0.8078560132980346,0.4339788258075714,1.1313680410385132,-1.7335193157196045
1774472944561047600,6.390047607421875,0.6188906077563763,-0.5817737600222229,0.6803051536619663,0.5734195113182068,1.093305587768555,-1.7433176040649414
1774472944571066600,6.400066650390625,0.6679156276881695,-0.5554908793829381,0.5468491616353393,0.6450350284576416,1.0766512155532837,-1.732139229774475
1774472944581084400,6.41008447265625,0.0799292767614126,-0.2952273934334516,0.2562739779219031,0.7238898873329163,1.206549882888794,-1.6968052387237549
1774472944591102700,6.420102783203125,-0.1042535706788301,-1.1359800064221024,0.2107745017677545,0.7726622223854065,1.2691617012023926,-1.7374204397201538
1774472944601121800,6.430121826171875,0.0473433504551649,-1.264354457400739,0.3118824678972363,0.8528971076011658,1.317522048950195,-1.8119477033615112
1774472944611139600,6.4401396484375,-0.354548766452074,-0.3907385624691843,0.7170815173953771,0.9968899488449096,1.471304416656494,-1.8661035299301147
1774472944621158700,6.45015869140625,0.0197936647504568,-1.2633502487942576,1.3742977641537786,1.182751178741455,1.5554590225219729,-2.030515670776367
1774472944631176400,6.460176513671875,0.632324674347043,-1.7282269374027848,1.7777924939520655,1.5112276077270508,1.5302703380584717,-2.188852548599243
1774472944641194500,6.470194580078125,0.6898766996055841,-0.9000628800913691,2.0416766546167437,1.9153550863265991,1.5510454177856443,-2.294022798538208
1774472944651213600,6.480213623046875,0.771271372744441,-1.192527530813217,2.400725508967042,2.20169997215271,1.3704115152359009,-2.402933120727539
1774472944661231600,6.490231689453125,2.0801666904002425,-1.923909668500721,2.032850374082476,2.405901908874512,0.894267737865448,-2.4990408420562744
1774472944671249700,6.500249755859375,2.044412070930004,-0.8211772671639919,1.8601089581109584,2.526652574539185,0.3957374095916748,-2.4844958782196045
1774472944681268500,6.5102685546875,1.5740075588107107,-0.4642462817505002,1.2040670158289373,2.5540168285369877,0.0683659613132476,-2.383348226547241
1774472944691286500,6.52028662109375,1.653393230214715,-0.7591787838906049,0.7284332247540354,2.442044973373413,-0.2328088730573654,-2.3539814949035645
1774472944701304600,6.5303046875,1.3384300396978854,-1.2824568080633878,0.8973071516424417,2.4163005352020264,-0.4965808689594269,-2.1521008014678955
1774472944711323400,6.540323486328125,-0.4153226763665676,-0.9321773894935844,1.6853616091445087,2.535599708557129,-0.5366290211677551,-1.900692343711853
1774472944721341700,6.550341796875,0.0258943197131156,-1.3538567414104938,1.042555361336842,2.360811710357666,-0.8276923298835754,-1.8865158557891848
1774472944731359500,6.560359375,0.0955950479269027,-1.7863205221921203,-0.4653248707674443,2.1939032077789307,-1.317952036857605,-1.8401261568069456
1774472944741378600,6.570378662109375,-1.2408581387400626,-1.6940198396354913,0.1762216593027114,2.1652605533599854,-1.6624436378479004,-1.6607880592346191
1774472944751396600,6.580396728515625,-1.6842442955523729,-1.6386171013653277,1.0485162425026298,2.141689777374268,-1.9248334169387815,-1.4577842950820925
1774472944761414400,6.590414306640625,-1.1979793664783238,-2.0469424661904574,-0.5746522375792265,1.8943538665771484,-2.0504653453826904,-1.4205783605575562
1774472944771433500,6.60043359375,-1.304413203805685,-2.061083804267645,-1.3877312462225555,1.7222647666931152,-2.0657544136047363,-1.2813512086868286
1774472944781451500,6.610451416015625,-2.443756256920099,-1.0758008475303649,-0.942621407422796,1.5583971738815308,-1.5476064682006836,-0.788028359413147
1774472944791469600,6.620469482421875,-3.548968492373824,1.4480162035763262,-1.2976369876690208,1.3958979845046997,-0.7360531091690063,-0.1816393435001373
1774472944801488600,6.630488525390625,-4.480346840444207,3.7289480429053294,-1.468388252736628,1.3253653049468994,0.1701063364744186,0.25434410572052
1774472944811506400,6.64050634765625,-1.8217986628085372,3.946868909296393,-1.7095310047611594,1.1876574754714966,0.8450816869735718,0.3348827362060547
1774472944821524700,6.650524658203125,-1.2782932586431504,3.014392244595289,-2.8969419232130047,1.0286084413528442,1.3571572303771973,0.4385433495044708
1774472944831543600,6.66054345703125,-2.440813189205527,0.4277683164417743,-1.694312392841279,1.0815051794052124,2.0048375129699707,0.5996375679969788
1774472944841561600,6.6705615234375,-2.090339709368348,0.0957704044938087,-0.4310634489970281,1.285159945487976,2.775351285934448,0.7039381265640259
1774472944851580700,6.68058056640625,-1.6010452033400535,0.6379951211988926,-1.0318679631058123,1.1980741024017334,3.2219958305358887,0.8016199469566345
1774472944861598500,6.690598388671875,-2.937653872829676,3.07166428386867,-5.141759662109613,0.7210326194763184,3.264108657836914,0.8904497027397156
1774472944871616500,6.700616455078125,-0.8777823669612407,6.630724546667933,-4.052627039319277,0.2074373662471771,2.6563966274261475,0.9384961128234864
1774472944881635600,6.710635498046875,-3.876186768829822,10.206756402534246,-2.4755054401412604,-0.1287374496459961,1.9515801668167116,0.8902763724327087
1774472944891653600,6.720653564453125,-3.17054785194695,9.92966380072832,-1.0525831266153602,-0.2132397443056106,1.013111233711243,0.8566707968711853
1774472944901671700,6.730671630859375,-3.3980478630661963,3.958497972291708,-0.5231545439235866,-0.1638580858707428,0.0383785739541053,0.8123550415039062
1774472944911690500,6.7406904296875,-1.6873539520055054,0.0586813215494155,-0.0716405371699482,-0.1426670551300048,-0.5425284504890442,0.6225066781044006
1774472944921708500,6.75070849609375,3.766772454386949,-1.6462936273425817,0.1417971924576908,-0.1839604377746582,-0.7785620093345642,-0.2278315871953964
1774472944931726300,6.760726318359375,2.63264216748476,-3.423879054415226,-0.4439717016153037,-0.263984739780426,-0.7275082468986511,-0.0125583000481128
1774472944941745400,6.770745361328125,1.4024959768950938,-2.2015701333224773,-0.379999214855209,-0.3447727859020233,-0.4911918342113495,0.1868645250797271
1774472944951763700,6.780763671875,1.7224287725180387,0.4463783243656158,-1.747499062497169,-0.5575363636016846,-0.7563137412071228,0.4774315059185028
1774472944961781500,6.790781494140625,1.2265198167860507,-0.3564320959806442,-2.1911741192534566,-0.6565037369728088,-0.989279329776764,0.5808295011520386
1774472944971800600,6.800800537109375,3.05706175802052,-1.229236674529314,-0.916571751017496,-0.6316526532173157,-1.0449581146240234,0.3252767324447632
1774472944981818600,6.810818603515625,3.307780147641897,-0.7076666233181953,-1.03953111814484,-0.7619693875312805,-1.5808560848236084,-0.0254016667604446
1774472944991836700,6.820836669921875,3.037334144243598,0.2686065130114555,-1.7371425036557018,-0.9274720549583436,-2.08866548538208,-0.451466292142868
1774472945001855500,6.83085546875,3.517894139674305,0.4286830931991338,-1.1542561792816963,-1.045815110206604,-2.4104015827178955,-0.7876565456390381
1774472945011873500,6.84087353515625,1.8263970965147016,0.9036953913748264,-0.8789379667371511,-1.0288671255111694,-0.5326465964317322,-0.8738539218902588
1774472945021891600,6.8508916015625,-8.066419613331556,3.717170511350036,-2.2003521358348426,-0.9039856195449828,3.307692289352417,-0.6501188278198242
1774472945031910700,6.86091064453125,-1.950948774334788,0.461566541147232,-0.149593399291858,-1.0742281675338743,4.110357284545898,-0.3868871629238128
1774472945041928400,6.870928466796875,0.5814572414189577,-0.823267517441511,0.6777585379190743,-1.2210519313812256,4.027318000793457,-0.004570678807795
1774472945051947500,6.880947509765625,-0.7815192105144262,0.3729530226707458,1.434580237289518,-1.2200905084609983,3.185070753097534,0.410723328590393
1774472945061965600,6.890965576171875,0.1444680921673774,0.759309132272005,2.5458552799135443,-1.0135319232940674,1.8379535675048828,0.7294163703918457
1774472945071983600,6.900983642578125,0.4024222782611846,1.0430845728427172,3.084656159649789,-0.6874595284461975,0.0764541178941726,0.8676965832710266
1774472945082002700,6.911002685546875,0.2684977919399738,0.3771113113939762,3.864899943400919,-0.4442932307720184,-1.162012219429016,0.8532311320304871
1774472945092020500,6.9210205078125,-0.7096417227834463,-1.1149433558732271,3.9676577225640415,-0.343887597322464,-1.512137770652771,0.7407705187797546
1774472945102038500,6.93103857421875,-1.1803899337738752,-2.563933372917772,3.3555344169855115,-0.2641730606555938,-1.5791062116622925,0.6915947198867798
1774472945112057300,6.941057373046875,-1.5829074891030788,-3.255086083808541,2.8372295050501823,-0.1598616689443588,-1.6102519035339355,0.7440592050552368
1774472945122075600,6.95107568359375,-2.4488988805055616,-3.1423715587764978,2.2445447671741245,-0.0210747644305229,-1.545445680618286,0.8844690322875977
1774472945132093700,6.96109375,-3.228331347873807,-2.219933473008871,1.3127809269174933,0.1618567258119583,-1.3926739692687988,1.0942813158035278
1774472945142112500,6.971112548828125,-2.600786893540621,-1.758349980726838,0.945973129003495,0.41716068983078,-1.36068594455719,1.2426270246505735
1774472945152130600,6.981130615234375,-1.5200164409041403,-2.4614088179886338,1.3244817399747668,0.5865706205368042,-1.2144732475280762,1.285452365875244
1774472945162148400,6.9911484375,-0.5848579897731542,-1.3251578856706618,1.9968074391901487,0.6399262547492981,-1.2515838146209717,1.3024550676345823
1774472945172167400,7.00116748046875,-0.4136258093208074,0.5186000954896212,2.744358329129219,0.7077146172523499,-1.3873183727264404,1.363013744354248
1774472945182185700,7.011185791015625,-0.6398240901917219,1.0365858584731815,3.502964281567931,0.9132055044174194,-1.386590838432312,1.3278675079345703
1774472945192203500,7.02120361328125,-0.4438239637076854,0.6998854679226875,3.5890763386175037,1.1869360208511353,-1.3238255977630615,0.9783495664596558
1774472945202222600,7.03122265625,0.7131798337817191,-1.638653926244378,2.8110204202994704,1.4686129093170166,-1.541161060333252,0.6235076189041138
1774472945212240400,7.041240478515625,-0.5148194079071283,0.1398608906328678,1.1810250168070195,1.4251254796981812,-1.5555249452590942,0.4505837559700012
1774472945222259500,7.051259521484375,-0.9609043022841216,-0.7666010428458452,-0.29055852483958,1.433073878288269,-1.3228652477264404,0.2705508768558502
1774472945232277500,7.061277587890625,-0.4838169514000415,-1.6601289682105185,-0.3166556005831807,1.5816948413848877,-1.0988101959228516,0.1415690779685974
1774472945242295600,7.071295654296875,-0.4279483491837978,-2.213635541908443,0.965041840480268,1.7690945863723757,-1.1306743621826172,0.0592300035059452
1774472945252314600,7.081314697265625,-0.2950754177421331,-4.889201197579503,2.704144976684451,2.1159234046936035,-1.247646689414978,-0.1014285236597061
1774472945262332400,7.09133251953125,-0.6308107626527547,-3.953012818878889,4.775315290680528,2.462562799453736,-1.2481300830841064,-0.117210678756237
1774472945272350500,7.1013505859375,-1.6385329302132128,-0.1004459950894117,3.7535625519409774,2.565351247787476,-1.1615735292434692,0.1752639263868332
1774472945282369500,7.11136962890625,-2.8122376871347425,1.7128414444833993,-0.606741831735894,2.2852489948272705,-0.7018313407897949,0.8146044611930847
1774472945292387600,7.1213876953125,-3.4912639069020748,2.1832982713118194,-5.111249373033642,1.6520652770996094,0.1424181163311004,1.327892541885376
1774472945302405600,7.131405517578125,-3.114526689517498,5.102809461468458,-6.563498684135079,0.9960935115814208,0.589593768119812,1.7510405778884888
1774472945312424700,7.1414248046875,-3.967438819116354,7.718544333294034,-8.34015822853446,0.1734192669391632,0.8123350739479065,2.3407022953033447
1774472945322442500,7.1514423828125,-4.756224805763363,5.534762954640388,-7.64850165977478,-0.2300637513399124,0.7888510227203369,2.868717193603516
1774472945332460500,7.16146044921875,-4.3898178437352176,4.457535289177298,-4.803074235221743,-0.3958133459091186,0.8570182919502258,3.0543651580810547
1774472945342479400,7.171479248046875,-2.964753476679325,2.878530068209767,-2.054263310597837,-0.3648301064968109,0.8943619132041931,3.029026746749878
1774472945352497700,7.18149755859375,-2.3308108457416297,2.523158879458904,-0.0471469145676121,-0.2562298476696014,0.8008863925933838,3.012363910675049
1774472945362515500,7.191515380859375,-1.977809308731556,2.062649153888225,0.8510020581938326,-0.1595608443021774,0.6915766596794128,2.9757003784179688
1774472945372534500,7.201534423828125,-1.4163666813373563,1.7134093074992298,0.9628088207311928,-0.0882042944431305,0.5380221605300903,2.901158809661865
1774472945382552600,7.211552490234375,-0.7833972793459891,1.494845467029512,0.8558999863032251,-0.0886208191514015,0.2674367129802704,2.813822031021118
1774472945392570400,7.2215703125,-0.2456955930233001,1.069696685436368,0.8544179310519248,-0.1083579808473587,-0.019684674218297,2.685962438583374
1774472945402589400,7.23158935546875,0.389608973917365,1.0509411315619943,1.365506116541475,-0.0819455459713935,-0.312597781419754,2.5012989044189453
1774472945412607700,7.241607666015625,1.2252987505584954,1.1711791839666663,1.7802463168449698,-0.0131635032594203,-0.5320884585380554,2.237810611724853
1774472945422626600,7.25162646484375,2.005558316400647,0.8507005910292267,1.756822332768142,0.0553348623216152,-0.6922608017921448,1.95988130569458
1774472945432644600,7.26164453125,2.2593775946468115,0.5894739591360092,1.5127014417156577,0.0560809038579463,-0.7027214169502258,1.7334598302841189
1774472945442662400,7.271662353515625,2.3436101215600966,0.3911497736185789,0.9698479986529795,-0.0197976157069206,-0.6484856009483337,1.5341140031814575
1774472945452681500,7.281681396484375,2.2255226713180543,0.8193731403514742,1.0520033539660274,0.0182533748447895,-0.5374302864074707,1.3667885065078735
1774472945462699800,7.29169970703125,2.21262461130023,1.1438825231749563,1.4476558458313344,0.1115811914205551,-0.4997845888137817,1.2487765550613403
1774472945472717600,7.301717529296875,2.1321412077873942,0.7704656823847442,1.4817749730542302,0.1587012112140655,-0.5333840250968933,1.1589345932006836
1774472945482736600,7.311736572265625,2.214511447960138,0.3210565389558673,1.4406994508221744,0.1662656515836715,-0.6069874167442322,1.0176589488983154
1774472945492754400,7.32175439453125,2.4727298379480835,0.2289175497669726,1.525960736261308,0.1719903796911239,-0.7462831139564514,0.8219342827796936
1774472945502772500,7.3317724609375,2.524988432973623,0.3696579266481101,1.8803546044126151,0.3074808418750763,-0.875434398651123,0.658943235874176
1774472945512791600,7.34179150390625,2.0703104822963474,-0.0335596667092293,1.5570781974501906,0.4204119145870209,-0.9126179814338684,0.5670450329780579
1774472945522809600,7.3518095703125,1.7907704873383044,-0.5358141920756548,0.9771410782705992,0.4826681017875671,-0.875503659248352,0.5278616547584534
1774472945532827600,7.36182763671875,1.6351649150848389,-0.6056492872588336,0.9690843938693404,0.5376116633415222,-0.75889652967453,0.5021672248840332
1774472945542846500,7.371846435546875,1.8311399071276184,-0.3264259935671463,1.0904209090352055,0.5765708088874817,-0.7464901804924011,0.450069397687912
1774472945552864500,7.381864501953125,2.5838141314297918,-0.3196459780381992,0.3951232072941958,0.5292202830314636,-0.7527722120285034,0.3678778707981109
1774472945562882600,7.391882568359375,2.294382272532582,-0.1004668186817318,0.5650282307960093,0.4547183215618133,-0.5089914798736572,0.2771490216255188
1774472945572901400,7.4019013671875,1.9690046555072067,-0.3517186941253021,0.3902228680320084,0.3833659589290619,-0.1905031949281692,0.2271568179130554
1774472945582919700,7.411919677734375,1.6511340531110763,-0.6386047044645995,-0.0633612960591912,0.3215265572071075,-0.0022864232305437,0.2262449562549591
1774472945592937500,7.4219375,1.3868383890360594,-0.9017876580573618,-0.2283865846954286,0.2586043775081634,0.054283607751131,0.2468885779380798
1774472945602956500,7.43195654296875,1.1930857492178677,-1.0312133716546,-0.0761570647463202,0.2307615429162979,0.0917145982384681,0.2406080514192581
1774472945612974600,7.441974609375,1.014870870271325,-0.8571051973745226,0.2826742013305425,0.2527402937412262,0.1632257550954818,0.2254232317209243
1774472945622993400,7.451993408203125,0.6780155814200639,-0.7798452859528362,0.4474608589053154,0.3216935396194458,0.2905645370483398,0.214893102645874
1774472945633011500,7.462011474609375,0.386977456369996,-0.8028806360382587,0.462266944501549,0.4213060736656189,0.4245002865791321,0.2126308679580688
1774472945643029500,7.472029541015625,0.1754383999705314,-0.7308097446270286,0.4382184718508273,0.5339985489845276,0.5064460039138794,0.2394401133060455
1774472945653048600,7.482048583984375,-0.0840156692922115,-0.5254799546638503,0.5424079643175006,0.6710295677185059,0.5847596526145935,0.2974008619785309
1774472945663066600,7.492066650390625,-0.4430950649112463,-0.2219334630332887,0.6262311797775327,0.8121227622032166,0.6667762398719788,0.3435505330562591
1774472945673084400,7.50208447265625,-0.6563748274981975,-0.1441507333138957,0.413990258719027,0.935815930366516,0.6966149806976318,0.3695656359195709
1774472945683103500,7.512103515625,-0.7062368827760219,-0.0687836133688688,0.4325877724874764,1.052184820175171,0.6878819465637207,0.3901292383670807
1774472945693121800,7.522121826171875,-0.9839169290810824,0.0140221138780005,0.4076816600941121,1.154504418373108,0.7536666989326477,0.42249596118927
1774472945703139600,7.5321396484375,-1.6802052492946384,0.1458523496000096,0.1570752064146101,1.2462610006332395,0.9796180725097656,0.5109006762504578
1774472945713158700,7.54215869140625,-1.93596981638968,0.3242966899208724,-0.2700963862430304,1.3032993078231812,1.214622139930725,0.6246768832206726
1774472945723176400,7.552176513671875,-1.551860024410486,0.503313496367447,-0.604754895702377,1.307846188545227,1.3749252557754517,0.6977329850196838
1774472945733194500,7.562194580078125,-0.9372077848762274,0.6929184053890407,-0.8522518390592188,1.2552505731582642,1.3875298500061035,0.7121730446815491
1774472945743213600,7.572213623046875,-0.4114052106618881,0.938885070438683,-1.0150234304845331,1.158339023590088,1.2676717042922974,0.7042447924613953
1774472945753231600,7.582231689453125,-0.040099370676279,1.1183327791158109,-1.0985656370460986,1.027713418006897,1.049365758895874,0.7072058320045471
1774472945763249700,7.592249755859375,-0.0416454310745,1.3488413974665103,-1.0492550781711936,0.8968523144721985,0.8404053449630737,0.7274857759475708
1774472945773268500,7.6022685546875,-0.0352542687326669,1.6038902175076304,-1.0179288696024569,0.7584253549575806,0.7032651901245117,0.7375963926315308
1774472945783286500,7.61228662109375,0.0367401233762502,1.81486053410843,-0.9797252495449036,0.6226397752761841,0.5927889943122864,0.7247932553291321
1774472945793305600,7.6223056640625,0.4384638979792594,2.052504191970825,-1.0540811831533907,0.4759519398212433,0.4444408118724823,0.6895220875740051
1774472945803323400,7.632323486328125,0.9025655105620622,2.285542840255797,-1.007585535568744,0.3363389074802398,0.3065039813518524,0.6354508399963379
1774472945813341700,7.642341796875,1.121711534833908,2.426927433324605,-0.8486863285973668,0.1917724609375,0.1446943581104278,0.582987368106842
1774472945823360500,7.652360595703125,1.102585978603363,2.3720462347105142,-0.6995411114644259,0.0681746155023574,0.0401841960847377,0.5468141436576843
1774472945833378600,7.662378662109375,0.9101163643330336,2.036542068207264,-0.5642006208654493,-0.0043835872784256,-0.0441564135253429,0.4988212287425995
1774472945843396600,7.672396728515625,0.8082651786208153,1.5348787867322564,-0.3815168528765439,-0.031923335045576,-0.1642708331346511,0.4536319077014923
1774472945853415400,7.68241552734375,0.6994470765054226,0.9417685169205068,-0.1219751966618932,-0.0465643517673015,-0.2606323659420013,0.4228137731552124
1774472945863433500,7.69243359375,0.6040162792295217,0.3713209644895047,0.0483345260501373,-0.0105403047055006,-0.366752415895462,0.4103259444236755
1774472945873451500,7.702451416015625,0.7741460513979196,-0.0286366041585803,-0.0697953385615255,0.0318995453417301,-0.4453200399875641,0.4304003417491913
1774472945883470600,7.712470703125,1.2206336813569068,0.0561208964768797,-0.4128879600329324,0.0685638114809989,-0.4377963244915008,0.4456844925880432
1774472945893488600,7.722488525390625,1.4487901105582712,0.0573786414530128,-0.4018566437350586,0.0945392623543739,-0.2434570044279098,0.4434778094291687
1774472945903506400,7.73250634765625,1.5311416460305451,-0.2271153957158327,-0.5019598167361692,0.1265834867954254,0.0194071158766746,0.4198329150676727
1774472945913525500,7.742525390625,1.7037813551932572,-0.3368723861165345,-0.8487610743340104,0.1790749132633209,0.2498145699501037,0.3477833569049835
1774472945923543600,7.75254345703125,1.5408441248774527,-0.3493297166295349,-0.8305594280153512,0.2293197065591812,0.4613646268844604,0.2351260483264923
1774472945933561600,7.7625615234375,1.2577782938808202,-0.4859334320973604,-0.9528263558991252,0.2430544793605804,0.6515659689903259,0.1031291410326957
1774472945943580700,7.77258056640625,0.8131757470160722,-0.2620207048803568,-1.045143185872957,0.2630944848060608,0.8563933968544006,-0.0034138085320591
1774472945953598500,7.782598388671875,0.51494683367908,0.074466773571819,-1.1898157145712525,0.2150072604417801,1.0151077508926392,-0.0829513669013977
1774472945963616500,7.792616455078125,0.4294949941039085,0.0589068008683621,-1.6032256161190568,0.1228075549006462,1.094101905822754,-0.1410034894943237
1774472945973635600,7.802635498046875,0.4154670532733202,0.7950105602502823,-1.5560577683612704,0.0284332130104303,1.1575087308883667,-0.176689326763153
1774472945983653600,7.812653564453125,0.4629267235845327,1.5031038845479487,-1.371994601777941,-0.0801763534545898,1.1856895685195925,-0.2119256108999252
1774472945993672700,7.822672607421875,0.3726467332005501,2.0531939278006552,-1.1654822144340724,-0.1892331391572952,1.195443034172058,-0.2346547544002533
1774472946003690500,7.8326904296875,0.03508066573143,2.407927110908925,-0.8622142109513282,-0.2888990044593811,1.1327764987945557,-0.2547027468681335
1774472946013708500,7.84270849609375,-0.6060889938503503,2.7618448859810827,-0.4556528601240366,-0.3588090240955353,0.9137864708900452,-0.2490950673818588
1774472946023727600,7.8527275390625,-0.8520324241548776,2.63675457123965,0.0153838124189525,-0.4159647226333618,0.5764275789260864,-0.1880828589200973
1774472946033745400,7.862745361328125,-0.5111638080090284,2.475480305700004,0.2555169490095227,-0.464652955532074,0.0698257833719253,-0.0923601910471916
1774472946043763700,7.872763671875,-0.3856558523774147,2.0555393218830225,0.1732774956095963,-0.5106332302093506,-0.4345598816871643,0.0278453137725591
1774472946053782500,7.882782470703125,-0.2277151151746511,1.5870245690330862,0.162320194396004,-0.5558556914329529,-0.8106551170349121,0.1475786417722702
1774472946063800600,7.892800537109375,-0.12586919015944,1.1443345777913927,0.0328852745790034,-0.5837608575820923,-1.0952898263931274,0.2507835924625397
1774472946073818400,7.902818359375,-0.138183897331357,0.7365159203793853,-0.0700844668343663,-0.6113273501396179,-1.2816563844680786,0.3469604551792145
1774472946083837400,7.91283740234375,-0.133791799852252,0.3612203531704843,-0.1627333783067762,-0.624843955039978,-1.3638501167297363,0.4514359831809997
1774472946093855700,7.922855712890625,-0.0236123462557792,0.0111574268955737,-0.1992633295310661,-0.6089684367179871,-1.3563674688339231,0.5468337535858154
