time,seconds_elapsed,z,y,x
1773257368090099700,0.055099609375,-0.9658355712890625,-0.3622283935546875,0.06646728515625
1773257368100115700,0.06511572265625,-0.9456329345703125,-0.368865966796875,0.0526275634765625
1773257368110131700,0.075131591796875,-0.927825927734375,-0.376708984375,0.040313720703125
1773257368120146700,0.085146728515625,-0.9062652587890625,-0.388336181640625,0.0323944091796875
1773257368130162700,0.09516259765625,-0.8838348388671875,-0.3926849365234375,0.02813720703125
1773257368140179000,0.105178955078125,-0.866607666015625,-0.3907470703125,0.0257568359375
1773257368150195000,0.11519482421875,-0.8604736328125,-0.3867034912109375,0.016387939453125
1773257368160210000,0.1252099609375,-0.8726043701171875,-0.38323974609375,0.006591796875
1773257368170226000,0.135225830078125,-0.886383056640625,-0.37762451171875,0.0091705322265625
1773257368180242000,0.145241943359375,-0.892486572265625,-0.3695220947265625,0.0174713134765625
1773257368190257000,0.1552568359375,-0.91204833984375,-0.3654327392578125,0.027587890625
1773257368200273000,0.16527294921875,-0.9291534423828125,-0.364593505859375,0.0402069091796875
1773257368210288600,0.17528857421875,-0.940704345703125,-0.357391357421875,0.0412445068359375
1773257368220304000,0.185303955078125,-0.9441986083984375,-0.35101318359375,0.03607177734375
1773257368230319600,0.195319580078125,-0.942779541015625,-0.3466033935546875,0.028045654296875
1773257368240335600,0.205335693359375,-0.9443817138671875,-0.344818115234375,0.0209503173828125
1773257368250350600,0.2153505859375,-0.941436767578125,-0.34368896484375,0.021728515625
1773257368260366800,0.225366943359375,-0.938201904296875,-0.340118408203125,0.0300750732421875
1773257368270382800,0.2353828125,-0.9331207275390625,-0.34033203125,0.0371246337890625
1773257368280397800,0.245397705078125,-0.926025390625,-0.34405517578125,0.037994384765625
1773257368290413800,0.255413818359375,-0.91741943359375,-0.3467254638671875,0.0405731201171875
1773257368300429800,0.265429931640625,-0.9177093505859375,-0.3470458984375,0.0377655029296875
1773257368310444800,0.27544482421875,-0.92840576171875,-0.3494720458984375,0.0297088623046875
1773257368320460800,0.285460693359375,-0.937347412109375,-0.3479766845703125,0.0253448486328125
1773257368330476800,0.295476806640625,-0.9420928955078125,-0.3390045166015625,0.0276336669921875
1773257368340491800,0.30549169921875,-0.955230712890625,-0.3330078125,0.031707763671875
1773257368350507800,0.3155078125,-0.9636077880859375,-0.330047607421875,0.0373077392578125
1773257368360523800,0.325523681640625,-0.9599761962890625,-0.32977294921875,0.0364990234375
1773257368370539800,0.335539794921875,-0.952545166015625,-0.3312225341796875,0.033447265625
1773257368380555000,0.345554931640625,-0.93646240234375,-0.3358154296875,0.034088134765625
1773257368390570800,0.35557080078125,-0.9232940673828125,-0.338226318359375,0.036865234375
1773257368400586800,0.365586669921875,-0.9211273193359375,-0.3411712646484375,0.0463714599609375
1773257368410601700,0.375601806640625,-0.926971435546875,-0.3430633544921875,0.060150146484375
1773257368420617700,0.38561767578125,-0.9269561767578125,-0.33563232421875,0.0722503662109375
1773257368430633700,0.3956337890625,-0.924560546875,-0.33056640625,0.0738983154296875
1773257368440648700,0.405648681640625,-0.918670654296875,-0.3332366943359375,0.0751495361328125
1773257368450664700,0.415664794921875,-0.90472412109375,-0.3346405029296875,0.0746917724609375
1773257368460680700,0.4256806640625,-0.88714599609375,-0.3350982666015625,0.0769195556640625
1773257368470695700,0.43569580078125,-0.875579833984375,-0.332977294921875,0.080810546875
1773257368480711700,0.445711669921875,-0.870361328125,-0.3333892822265625,0.08428955078125
1773257368490728000,0.45572802734375,-0.871612548828125,-0.3310394287109375,0.083587646484375
1773257368500743000,0.465742919921875,-0.88116455078125,-0.32586669921875,0.0796356201171875
1773257368510759000,0.475759033203125,-0.8909912109375,-0.3222198486328125,0.0737762451171875
1773257368520775000,0.48577490234375,-0.8995819091796875,-0.3158111572265625,0.067535400390625
1773257368530790000,0.495789794921875,-0.915679931640625,-0.3119049072265625,0.0591278076171875
1773257368540806000,0.505805908203125,-0.9299163818359375,-0.3118896484375,0.053497314453125
1773257368550822000,0.51582177734375,-0.941986083984375,-0.3079376220703125,0.05218505859375
1773257368560837600,0.525837646484375,-0.9561004638671875,-0.30401611328125,0.057952880859375
1773257368570852900,0.535852783203125,-0.9789581298828125,-0.3028564453125,0.057373046875
1773257368580868600,0.54586865234375,-1.004302978515625,-0.3058319091796875,0.058929443359375
1773257368590884900,0.555884765625,-1.0214385986328125,-0.3010711669921875,0.0626068115234375
1773257368600899600,0.565899658203125,-1.0301513671875,-0.2937469482421875,0.0634613037109375
1773257368610915800,0.575915771484375,-1.036865234375,-0.2929840087890625,0.0615386962890625
1773257368620931800,0.585931884765625,-1.03619384765625,-0.2924957275390625,0.0483245849609375
1773257368630946800,0.59594677734375,-1.029693603515625,-0.2908172607421875,0.0357513427734375
1773257368640962800,0.605962890625,-1.02099609375,-0.2865753173828125,0.0280303955078125
1773257368650978800,0.615978759765625,-1.0092315673828125,-0.2853851318359375,0.0226593017578125
1773257368660993800,0.625993896484375,-1.0018310546875,-0.2877349853515625,0.0282440185546875
1773257368671009800,0.636009765625,-0.9972076416015625,-0.2898101806640625,0.0368194580078125
1773257368681025800,0.64602587890625,-0.99462890625,-0.291473388671875,0.0456390380859375
1773257368691040800,0.656040771484375,-0.991180419921875,-0.2881011962890625,0.061004638671875
1773257368701056800,0.666056884765625,-0.9871368408203125,-0.288665771484375,0.0777740478515625
1773257368711073000,0.676072998046875,-0.9747467041015625,-0.2886199951171875,0.0908050537109375
1773257368721088800,0.6860888671875,-0.9611053466796875,-0.28448486328125,0.091644287109375
1773257368731104000,0.69610400390625,-0.9557342529296875,-0.280975341796875,0.0799560546875
1773257368741119700,0.70611962890625,-0.965484619140625,-0.2830963134765625,0.069732666015625
1773257368751135700,0.7161357421875,-0.9698028564453125,-0.2818450927734375,0.0599517822265625
1773257368761150700,0.726150634765625,-0.973785400390625,-0.270416259765625,0.0542755126953125
1773257368771166700,0.736166748046875,-0.9775390625,-0.25872802734375,0.0526580810546875
1773257368781182700,0.7461826171875,-0.9792938232421875,-0.25579833984375,0.0527801513671875
1773257368791197700,0.75619775390625,-0.9803314208984375,-0.2619781494140625,0.0543975830078125
1773257368801213700,0.766213623046875,-0.9714202880859375,-0.2628631591796875,0.0606231689453125
1773257368811229700,0.776229736328125,-0.97076416015625,-0.2616119384765625,0.0686187744140625
1773257368821244700,0.78624462890625,-0.9760589599609375,-0.2602691650390625,0.0787811279296875
1773257368831261000,0.796260986328125,-0.9868621826171875,-0.2620086669921875,0.091766357421875
1773257368841277000,0.80627685546875,-0.9935455322265625,-0.26300048828125,0.0997161865234375
1773257368851292000,0.8162919921875,-0.987701416015625,-0.2578887939453125,0.10113525390625
1773257368861308000,0.826307861328125,-0.9767303466796875,-0.2537994384765625,0.0951690673828125
1773257368871324000,0.836323974609375,-0.963409423828125,-0.2564697265625,0.0810394287109375
1773257368881340000,0.84633984375,-0.948455810546875,-0.26025390625,0.06890869140625
1773257368891355000,0.85635498046875,-0.935394287109375,-0.2678680419921875,0.0605316162109375
1773257368901371000,0.866370849609375,-0.9282684326171875,-0.2701263427734375,0.0582122802734375
1773257368911386600,0.87638671875,-0.9199981689453125,-0.27130126953125,0.0633544921875
1773257368921401900,0.88640185546875,-0.91387939453125,-0.271636962890625,0.0682373046875
1773257368931417600,0.89641748046875,-0.9163970947265625,-0.2711181640625,0.0754241943359375
1773257368941433900,0.906433837890625,-0.9188690185546875,-0.273162841796875,0.0841064453125
1773257368951448800,0.91644873046875,-0.929656982421875,-0.2799224853515625,0.0911407470703125
1773257368961464800,0.92646484375,-0.936431884765625,-0.282073974609375,0.0907135009765625
1773257368971480800,0.936480712890625,-0.94036865234375,-0.279388427734375,0.08892822265625
1773257368981495800,0.946495849609375,-0.9407501220703125,-0.2756195068359375,0.085205078125
1773257368991511800,0.95651171875,-0.9416961669921875,-0.279144287109375,0.076690673828125
1773257369001528000,0.966528076171875,-0.9410400390625,-0.280731201171875,0.0669097900390625
1773257369011544000,0.9765439453125,-0.9471588134765625,-0.2835235595703125,0.062286376953125
1773257369021559000,0.98655908203125,-0.95379638671875,-0.2880859375,0.0677642822265625
1773257369031575000,0.996574951171875,-0.954681396484375,-0.2908172607421875,0.074737548828125
1773257369041591000,1.006591064453125,-0.95257568359375,-0.289794921875,0.084136962890625
1773257369051606000,1.01660595703125,-0.954986572265625,-0.2879180908203125,0.0937652587890625
1773257369061622000,1.0266220703125,-0.9561767578125,-0.28973388671875,0.0939788818359375
1773257369071637800,1.0366376953125,-0.9625244140625,-0.294952392578125,0.0966339111328125
1773257369081653000,1.046653076171875,-0.9653778076171875,-0.2977294921875,0.09613037109375
1773257369091668700,1.056668701171875,-0.9648895263671875,-0.297943115234375,0.0927734375
1773257369101685000,1.06668505859375,-0.960906982421875,-0.2981109619140625,0.0895843505859375
1773257369111700000,1.076699951171875,-0.9588623046875,-0.30133056640625,0.0907440185546875
1773257369121716000,1.086716064453125,-0.9607086181640625,-0.304412841796875,0.0973358154296875
1773257369131732000,1.09673193359375,-0.9646759033203125,-0.3026275634765625,0.0936431884765625
1773257369141748000,1.106748046875,-0.9695587158203125,-0.2967071533203125,0.088134765625
1773257369151763000,1.116762939453125,-0.9711456298828125,-0.2961883544921875,0.081787109375
1773257369161779000,1.126779052734375,-0.9727325439453125,-0.2911529541015625,0.0785980224609375
1773257369171795000,1.136794921875,-0.970855712890625,-0.28765869140625,0.0772247314453125
1773257369181810000,1.146809814453125,-0.9748992919921875,-0.286590576171875,0.0752716064453125
1773257369191826000,1.156825927734375,-0.984100341796875,-0.28564453125,0.0765533447265625
1773257369201842000,1.166842041015625,-0.9803314208984375,-0.28631591796875,0.0762786865234375
1773257369211857000,1.17685693359375,-0.97796630859375,-0.2889251708984375,0.077484130859375
1773257369221873200,1.186873046875,-0.984588623046875,-0.28814697265625,0.0835418701171875
1773257369231889000,1.196888916015625,-0.99468994140625,-0.2838897705078125,0.0867919921875
1773257369241904000,1.206904052734375,-1.0246429443359375,-0.290008544921875,0.0933990478515625
1773257369251920000,1.216919921875,-1.0367279052734375,-0.2919158935546875,0.0871429443359375
1773257369261935900,1.226935791015625,-1.0363311767578125,-0.274139404296875,0.07977294921875
1773257369271950800,1.236950927734375,-1.0351715087890625,-0.2562255859375,0.05487060546875
1773257369281966800,1.246966796875,-1.0218505859375,-0.247650146484375,-0.01580810546875
1773257369291982800,1.25698291015625,-1.040252685546875,-0.2640228271484375,-0.0858917236328125
1773257369301998800,1.266998779296875,-1.0923919677734375,-0.2854461669921875,-0.1092071533203125
1773257369312013800,1.277013916015625,-1.156890869140625,-0.29498291015625,-0.09307861328125
1773257369322029800,1.28702978515625,-1.2109222412109375,-0.2748565673828125,-0.028411865234375
1773257369332046000,1.297046142578125,-1.2545166015625,-0.1509246826171875,0.09893798828125
1773257369342061000,1.30706103515625,-1.25115966796875,-0.0559234619140625,0.13348388671875
1773257369352077000,1.3170771484375,-1.1958770751953125,-0.101409912109375,0.0843353271484375
1773257369362093000,1.327093017578125,-1.08087158203125,-0.1745452880859375,0.0249176025390625
1773257369372108000,1.33710791015625,-0.9538116455078125,-0.2130126953125,-0.05499267578125
1773257369382124000,1.3471240234375,-0.8458709716796875,-0.23236083984375,-0.1519012451171875
1773257369392140000,1.35714013671875,-0.7674560546875,-0.260955810546875,-0.2474365234375
1773257369402155000,1.367155029296875,-0.6908416748046875,-0.316192626953125,-0.329925537109375
1773257369412171000,1.3771708984375,-0.6198272705078125,-0.3768157958984375,-0.350555419921875
1773257369422186800,1.387186767578125,-0.5679931640625,-0.3969879150390625,-0.25421142578125
1773257369432202000,1.397201904296875,-0.56414794921875,-0.3582000732421875,-0.2164154052734375
1773257369442217700,1.4072177734375,-0.55755615234375,-0.3170928955078125,-0.202911376953125
1773257369452234000,1.41723388671875,-0.6802215576171875,-0.2757568359375,-0.2171173095703125
1773257369462250000,1.42725,-0.9164276123046875,-0.2815704345703125,-0.27197265625
1773257369472265000,1.437264892578125,-1.0663909912109375,-0.3187103271484375,-0.28973388671875
1773257369482281000,1.447281005859375,-1.101104736328125,-0.323699951171875,-0.2883758544921875
1773257369492297000,1.457296875,-1.0738525390625,-0.3010406494140625,-0.3157806396484375
1773257369502312000,1.46731201171875,-1.01434326171875,-0.288055419921875,-0.3521881103515625
1773257369512328000,1.477327880859375,-0.9149169921875,-0.2709197998046875,-0.35760498046875
1773257369522344000,1.487343994140625,-0.8158721923828125,-0.2512054443359375,-0.3571624755859375
1773257369532359000,1.49735888671875,-0.7477874755859375,-0.2509765625,-0.358428955078125
1773257369542375000,1.507375,-0.7081451416015625,-0.25732421875,-0.3382415771484375
1773257369552391200,1.51739111328125,-0.7383880615234375,-0.25244140625,-0.2516326904296875
1773257369562406000,1.527406005859375,-0.8007965087890625,-0.25726318359375,-0.1013336181640625
1773257369572422100,1.537422119140625,-0.8704376220703125,-0.32928466796875,0.0334625244140625
1773257369582438000,1.54743798828125,-0.9337158203125,-0.4051513671875,0.0789031982421875
1773257369592454000,1.557453857421875,-0.9943084716796875,-0.413116455078125,0.039794921875
1773257369602468900,1.56746875,-1.09783935546875,-0.32257080078125,-0.0064697265625
1773257369612484900,1.57748486328125,-0.9575958251953125,-0.2097625732421875,-0.005340576171875
1773257369622500900,1.5875009765625,-0.906494140625,-0.1511383056640625,-0.0463714599609375
1773257369632515800,1.597515869140625,-0.9811859130859375,-0.170166015625,-0.155059814453125
1773257369642531800,1.60753173828125,-0.9561920166015625,-0.1716156005859375,-0.2540740966796875
1773257369652547800,1.6175478515625,-0.8446807861328125,-0.14459228515625,-0.2740631103515625
1773257369662562800,1.627562744140625,-0.80072021484375,-0.183746337890625,-0.196319580078125
1773257369672579000,1.6375791015625,-0.827056884765625,-0.2367706298828125,-0.0273284912109375
1773257369682595000,1.647594970703125,-0.8303680419921875,-0.2191925048828125,0.1744537353515625
1773257369692610000,1.657610107421875,-0.8065948486328125,-0.2292938232421875,0.32928466796875
1773257369702626000,1.6676259765625,-0.82598876953125,-0.2652587890625,0.380828857421875
1773257369712642000,1.67764208984375,-0.843780517578125,-0.2477569580078125,0.3670196533203125
1773257369722657000,1.687656982421875,-0.82049560546875,-0.2317657470703125,0.3412628173828125
1773257369732673000,1.697673095703125,-0.7928314208984375,-0.22503662109375,0.3271331787109375
1773257369742688800,1.707688720703125,-0.7619781494140625,-0.1942138671875,0.3166046142578125
1773257369752704800,1.717704833984375,-0.7382659912109375,-0.1652069091796875,0.2938079833984375
1773257369762719700,1.7277197265625,-0.7729949951171875,-0.16607666015625,0.250335693359375
1773257369772735700,1.73773583984375,-0.868560791015625,-0.2166290283203125,0.2617645263671875
1773257369782752000,1.747751953125,-0.9530029296875,-0.2612152099609375,0.2984771728515625
1773257369792767000,1.75776708984375,-0.998382568359375,-0.2693634033203125,0.3242950439453125
1773257369802783000,1.767782958984375,-1.0292510986328125,-0.2370452880859375,0.3071746826171875
1773257369812799000,1.777799072265625,-1.05670166015625,-0.1659393310546875,0.2362213134765625
1773257369822814000,1.78781396484375,-1.0686187744140625,-0.0813140869140625,0.168121337890625
1773257369832830000,1.797829833984375,-1.08660888671875,0.0000457763671875,0.1079559326171875
1773257369842846000,1.807845947265625,-1.1589813232421875,0.067840576171875,0.0614776611328125
1773257369852861000,1.81786083984375,-1.22784423828125,0.047454833984375,0.1435699462890625
1773257369862877000,1.827876953125,-1.237030029296875,-0.01959228515625,0.362762451171875
1773257369872893000,1.837892822265625,-1.202239990234375,-0.0321502685546875,0.4820556640625
1773257369882908000,1.847907958984375,-1.1322479248046875,-0.024810791015625,0.4860076904296875
1773257369892924000,1.857923828125,-1.0573883056640625,-0.000732421875,0.4685821533203125
1773257369902940200,1.867940185546875,-0.9962921142578125,0.028564453125,0.463897705078125
1773257369912955100,1.877955078125,-0.95013427734375,0.030517578125,0.4515838623046875
1773257369922971100,1.88797119140625,-0.92578125,0.01483154296875,0.45648193359375
1773257369932987000,1.89798681640625,-0.934478759765625,0.0041351318359375,0.468109130859375
1773257369943003000,1.9080029296875,-0.9606475830078125,-0.009674072265625,0.4667816162109375
1773257369953017900,1.918017822265625,-0.9711761474609375,-0.0417327880859375,0.460205078125
1773257369963033900,1.928033935546875,-0.990081787109375,-0.0597686767578125,0.4488525390625
1773257369973049900,1.9380498046875,-1.0000152587890625,-0.078094482421875,0.4273529052734375
1773257369983064800,1.94806494140625,-0.9766693115234375,-0.09527587890625,0.42437744140625
1773257369993080800,1.958080810546875,-0.9461517333984375,-0.092376708984375,0.4257965087890625
1773257370003097300,1.968097412109375,-0.9115753173828125,-0.093353271484375,0.442657470703125
1773257370013112300,1.9781123046875,-0.8833770751953125,-0.0875244140625,0.468597412109375
1773257370023128300,1.98812841796875,-0.8912353515625,-0.0845794677734375,0.42742919921875
1773257370033144300,1.998144287109375,-0.89007568359375,-0.1008758544921875,0.3833465576171875
1773257370043159300,2.0081591796875,-0.9025115966796875,-0.120452880859375,0.384490966796875
1773257370053175300,2.01817529296875,-0.9189453125,-0.121978759765625,0.391143798828125
1773257370063191300,2.02819140625,-0.9086761474609375,-0.12542724609375,0.4208221435546875
1773257370073206300,2.038206298828125,-0.889556884765625,-0.1274871826171875,0.44671630859375
1773257370083222300,2.04822216796875,-0.8554534912109375,-0.1419677734375,0.46942138671875
1773257370093238000,2.058238037109375,-0.810943603515625,-0.153594970703125,0.480865478515625
1773257370103254300,2.068254150390625,-0.7974700927734375,-0.135650634765625,0.44580078125
1773257370113269200,2.078269287109375,-0.8087158203125,-0.1220855712890625,0.398162841796875
1773257370123285200,2.08828515625,-0.827972412109375,-0.1212310791015625,0.3937225341796875
1773257370133301200,2.09830126953125,-0.836456298828125,-0.11737060546875,0.4333038330078125
1773257370143316200,2.108316162109375,-0.8339691162109375,-0.1160125732421875,0.48602294921875
1773257370153332200,2.118332275390625,-0.84637451171875,-0.11126708984375,0.5111236572265625
1773257370163348200,2.12834814453125,-0.861480712890625,-0.0885009765625,0.5140228271484375
1773257370173363200,2.13836328125,-0.8793487548828125,-0.069183349609375,0.5222930908203125
1773257370183379200,2.148379150390625,-0.8960113525390625,-0.069732666015625,0.5161590576171875
1773257370193395200,2.158395263671875,-0.9284820556640625,-0.0836639404296875,0.488067626953125
1773257370203410200,2.16841015625,-0.9497222900390625,-0.08746337890625,0.45654296875
1773257370213426200,2.17842626953125,-0.95159912109375,-0.0807342529296875,0.43707275390625
1773257370223442400,2.1884423828125,-0.951263427734375,-0.0723114013671875,0.4593505859375
1773257370233457400,2.19845751953125,-0.97662353515625,-0.0759429931640625,0.51605224609375
1773257370243473400,2.208473388671875,-0.98291015625,-0.0626373291015625,0.5601043701171875
1773257370253489200,2.2184892578125,-0.9983062744140625,-0.0556488037109375,0.579925537109375
1773257370263504400,2.22850439453125,-1.0239715576171875,-0.0620269775390625,0.56597900390625
1773257370273520000,2.23852001953125,-1.021881103515625,-0.064697265625,0.554901123046875
1773257370283536100,2.2485361328125,-1.003631591796875,-0.0655517578125,0.550567626953125
1773257370293551000,2.258551025390625,-0.9452972412109375,-0.1128997802734375,0.605682373046875
1773257370303567000,2.268567138671875,-0.9114837646484375,-0.120880126953125,0.631683349609375
1773257370313583000,2.2785830078125,-0.8459930419921875,-0.1195068359375,0.639892578125
1773257370323599400,2.288599365234375,-0.80133056640625,-0.139862060546875,0.6078643798828125
1773257370333614300,2.2986142578125,-0.76934814453125,-0.1619110107421875,0.58245849609375
1773257370343630300,2.30863037109375,-0.7543792724609375,-0.1704864501953125,0.568267822265625
1773257370353646300,2.318646240234375,-0.760162353515625,-0.18280029296875,0.56634521484375
1773257370363661300,2.328661376953125,-0.776519775390625,-0.186981201171875,0.5773162841796875
1773257370373677300,2.33867724609375,-0.778656005859375,-0.1749420166015625,0.6118011474609375
1773257370383693300,2.348693359375,-0.799835205078125,-0.17779541015625,0.6418914794921875
1773257370393708300,2.358708251953125,-0.81494140625,-0.1815185546875,0.621612548828125
1773257370403724300,2.368724365234375,-0.829345703125,-0.1884918212890625,0.564361572265625
1773257370413740000,2.378739990234375,-0.841522216796875,-0.19866943359375,0.5053558349609375
1773257370423755300,2.38875537109375,-0.863311767578125,-0.1993408203125,0.4846038818359375
1773257370433771000,2.39877099609375,-0.8954620361328125,-0.18499755859375,0.5099334716796875
1773257370443787300,2.408787353515625,-0.924896240234375,-0.155975341796875,0.5360565185546875
1773257370453802200,2.41880224609375,-0.94354248046875,-0.1371612548828125,0.5250396728515625
1773257370463818200,2.428818359375,-0.9589996337890625,-0.1316070556640625,0.495819091796875
1773257370473834200,2.438834228515625,-0.96075439453125,-0.1276702880859375,0.4633941650390625
1773257370483849200,2.44884912109375,-0.95733642578125,-0.1080780029296875,0.44378662109375
1773257370493865200,2.458865234375,-0.94677734375,-0.0967864990234375,0.4212799072265625
1773257370503881200,2.468881103515625,-0.9276123046875,-0.1164093017578125,0.3982391357421875
1773257370513897200,2.478897216796875,-0.9125518798828125,-0.123779296875,0.4139251708984375
1773257370523912200,2.488912109375,-0.899871826171875,-0.124725341796875,0.45184326171875
1773257370533928200,2.49892822265625,-0.871551513671875,-0.1356964111328125,0.4384765625
1773257370543944200,2.508944091796875,-0.857452392578125,-0.152069091796875,0.3867034912109375
1773257370553959200,2.518959228515625,-0.835662841796875,-0.1744384765625,0.3302001953125
1773257370563975400,2.528975341796875,-0.7957763671875,-0.19183349609375,0.2811431884765625
1773257370573991400,2.538991455078125,-0.764312744140625,-0.205291748046875,0.2693634033203125
1773257370584006400,2.54900634765625,-0.7474517822265625,-0.2049560546875,0.29193115234375
1773257370594022400,2.5590224609375,-0.7590179443359375,-0.1982574462890625,0.3053131103515625
1773257370604038100,2.5690380859375,-0.806732177734375,-0.1971588134765625,0.319580078125
1773257370614053400,2.579053466796875,-0.829864501953125,-0.181610107421875,0.344696044921875
1773257370624069000,2.589069091796875,-0.796600341796875,-0.1778717041015625,0.336395263671875
1773257370634085000,2.599085205078125,-0.7837982177734375,-0.18817138671875,0.313018798828125
1773257370644100000,2.60910009765625,-0.80450439453125,-0.1993255615234375,0.2911834716796875
1773257370654116000,2.6191162109375,-0.8179473876953125,-0.2048187255859375,0.261962890625
1773257370664132000,2.629132080078125,-0.82611083984375,-0.1980133056640625,0.2386474609375
1773257370674148400,2.6391484375,-0.84735107421875,-0.2096710205078125,0.237152099609375
1773257370684163300,2.649163330078125,-0.88043212890625,-0.2132720947265625,0.2687530517578125
1773257370694179300,2.659179443359375,-0.8723602294921875,-0.1958770751953125,0.2840728759765625
1773257370704195300,2.6691953125,-0.8545989990234375,-0.2211761474609375,0.27117919921875
1773257370714210300,2.679210205078125,-0.86395263671875,-0.263519287109375,0.2568511962890625
1773257370724226300,2.689226318359375,-0.883514404296875,-0.26544189453125,0.2534332275390625
1773257370734242300,2.6992421875,-0.8773345947265625,-0.235595703125,0.2758331298828125
1773257370744257300,2.70925732421875,-0.8779296875,-0.1870880126953125,0.3297576904296875
1773257370754273300,2.719273193359375,-0.9006805419921875,-0.1747589111328125,0.3648223876953125
1773257370764289000,2.7292890625,-0.92584228515625,-0.20367431640625,0.3721923828125
1773257370774304300,2.73930419921875,-0.9437255859375,-0.210693359375,0.3560791015625
1773257370784320000,2.749320068359375,-0.93670654296875,-0.2246246337890625,0.32861328125
1773257370794336300,2.759336181640625,-0.9218292236328125,-0.2341461181640625,0.3184051513671875
1773257370804351200,2.769351318359375,-0.9145660400390625,-0.249420166015625,0.34228515625
1773257370814367200,2.7793671875,-0.8551788330078125,-0.2553558349609375,0.3640594482421875
1773257370824383200,2.78938330078125,-0.810699462890625,-0.2589111328125,0.33837890625
1773257370834398200,2.799398193359375,-0.7901458740234375,-0.3012847900390625,0.288787841796875
1773257370844414200,2.809414306640625,-0.789794921875,-0.3311767578125,0.265625
1773257370854430200,2.81943017578125,-0.7908172607421875,-0.334564208984375,0.250518798828125
1773257370864446200,2.8294462890625,-0.82196044921875,-0.2923431396484375,0.2659149169921875
1773257370874461200,2.839461181640625,-0.86083984375,-0.235076904296875,0.2682952880859375
1773257370884477200,2.849477294921875,-0.91766357421875,-0.233642578125,0.2818756103515625
1773257370894493400,2.859493408203125,-0.9463653564453125,-0.242462158203125,0.317962646484375
1773257370904508200,2.869508056640625,-0.9753875732421875,-0.24139404296875,0.3349761962890625
1773257370914524400,2.8795244140625,-1.000885009765625,-0.2335662841796875,0.32562255859375
1773257370924540200,2.8895400390625,-1.0153045654296875,-0.229644775390625,0.3200531005859375
1773257370934555400,2.899555419921875,-1.021636962890625,-0.237884521484375,0.3212432861328125
1773257370944571100,2.909571044921875,-1.0070953369140625,-0.25982666015625,0.3289794921875
1773257370954587100,2.919587158203125,-0.9711456298828125,-0.295318603515625,0.3090667724609375
1773257370964602000,2.92960205078125,-0.923187255859375,-0.3269500732421875,0.265777587890625
1773257370974618000,2.9396181640625,-0.861572265625,-0.3365325927734375,0.216400146484375
1773257370984634000,2.949634033203125,-0.80633544921875,-0.32958984375,0.1885833740234375
1773257370994649000,2.959649169921875,-0.767730712890625,-0.314056396484375,0.2979583740234375
1773257371004664800,2.969664794921875,-0.78863525390625,-0.2866668701171875,0.4492645263671875
1773257371014680800,2.979680908203125,-0.826324462890625,-0.257598876953125,0.5386962890625
1773257371024695800,2.98969580078125,-0.8365478515625,-0.2091522216796875,0.5823516845703125
1773257371034711800,2.9997119140625,-0.8305511474609375,-0.15545654296875,0.59075927734375
1773257371044727800,3.009727783203125,-0.9015655517578125,-0.149261474609375,0.55401611328125
1773257371054743800,3.019743896484375,-1.0143280029296875,-0.179840087890625,0.5053558349609375
1773257371064758800,3.0297587890625,-1.0848388671875,-0.23095703125,0.4499664306640625
1773257371074774800,3.03977490234375,-1.0870208740234375,-0.275482177734375,0.39215087890625
1773257371084790800,3.049790771484375,-1.044036865234375,-0.2770843505859375,0.324554443359375
1773257371094805800,3.0598056640625,-0.9825439453125,-0.24896240234375,0.270263671875
1773257371104822000,3.069822021484375,-0.9598388671875,-0.2389984130859375,0.2548675537109375
1773257371114837800,3.079837646484375,-0.9368438720703125,-0.2354278564453125,0.2514190673828125
1773257371124853000,3.08985302734375,-0.8961944580078125,-0.220947265625,0.23895263671875
1773257371134868700,3.09986865234375,-0.84466552734375,-0.213958740234375,0.2374114990234375
1773257371144884700,3.109884765625,-0.7918853759765625,-0.2093505859375,0.254425048828125
1773257371154899700,3.119899658203125,-0.7645416259765625,-0.208648681640625,0.2822723388671875
1773257371164915700,3.129915771484375,-0.7646942138671875,-0.206787109375,0.2860870361328125
1773257371174931700,3.139931640625,-0.77996826171875,-0.20538330078125,0.25079345703125
1773257371184946700,3.14994677734375,-0.80169677734375,-0.21124267578125,0.2064666748046875
1773257371194962700,3.159962646484375,-0.825927734375,-0.2121429443359375,0.1759185791015625
1773257371204978700,3.169978759765625,-0.8539276123046875,-0.2144622802734375,0.1649627685546875
1773257371214993700,3.17999365234375,-0.8762359619140625,-0.2217254638671875,0.1595306396484375
1773257371225010000,3.190010009765625,-0.892608642578125,-0.2301177978515625,0.1536865234375
1773257371235026000,3.20002587890625,-0.905364990234375,-0.22955322265625,0.1576995849609375
1773257371245042000,3.2100419921875,-0.934234619140625,-0.2122802734375,0.1632537841796875
1773257371255057000,3.220056884765625,-0.9680633544921875,-0.1947784423828125,0.15277099609375
1773257371265073000,3.230072998046875,-0.974609375,-0.1856231689453125,0.1432647705078125
1773257371275089000,3.2400888671875,-0.9856414794921875,-0.1860504150390625,0.139556884765625
1773257371285103900,3.250103759765625,-0.99945068359375,-0.1812896728515625,0.1282958984375
1773257371295120000,3.260119873046875,-0.9956512451171875,-0.175537109375,0.1237335205078125
1773257371305135600,3.270135498046875,-0.9925384521484375,-0.1747894287109375,0.1246185302734375
1773257371315150800,3.28015087890625,-1.004486083984375,-0.183258056640625,0.1207427978515625
1773257371325166600,3.29016650390625,-1.0126495361328125,-0.1952362060546875,0.12384033203125
1773257371335182800,3.300182861328125,-1.009429931640625,-0.2014617919921875,0.1358489990234375
1773257371345197800,3.31019775390625,-1.027496337890625,-0.19708251953125,0.1553192138671875
1773257371355213800,3.3202138671875,-1.0391998291015625,-0.19354248046875,0.1645050048828125
1773257371365229800,3.330229736328125,-1.046661376953125,-0.2017822265625,0.165008544921875
1773257371375244800,3.340244873046875,-1.0619354248046875,-0.2054443359375,0.155670166015625
1773257371385260800,3.3502607421875,-1.0736236572265625,-0.198577880859375,0.1542816162109375
1773257371395276800,3.36027685546875,-1.07525634765625,-0.1832733154296875,0.1566009521484375
1773257371405292800,3.370292724609375,-1.080780029296875,-0.1759490966796875,0.15570068359375
1773257371415307800,3.380307861328125,-1.0810089111328125,-0.1706695556640625,0.1543121337890625
1773257371425323800,3.39032373046875,-1.070770263671875,-0.16229248046875,0.1484832763671875
1773257371435340000,3.400340087890625,-1.0576171875,-0.153350830078125,0.13397216796875
1773257371445354800,3.410354736328125,-1.0487213134765625,-0.1549072265625,0.1125640869140625
1773257371455371000,3.42037109375,-1.0425262451171875,-0.1618804931640625,0.0969696044921875
1773257371465386800,3.43038671875,-1.0374298095703125,-0.1622467041015625,0.095245361328125
1773257371475402000,3.440402099609375,-1.0356903076171875,-0.1577301025390625,0.1127166748046875
1773257371485417700,3.450417724609375,-1.0375213623046875,-0.1462249755859375,0.1274566650390625
1773257371495433700,3.460433837890625,-1.0515594482421875,-0.12841796875,0.1298675537109375
1773257371505448700,3.47044873046875,-1.06463623046875,-0.114227294921875,0.1289215087890625
1773257371515464700,3.480464599609375,-1.0762176513671875,-0.111175537109375,0.119232177734375
1773257371525480700,3.490480712890625,-1.0767669677734375,-0.10711669921875,0.108734130859375
1773257371535495700,3.50049560546875,-1.07073974609375,-0.1011505126953125,0.09765625
1773257371545511700,3.51051171875,-1.05828857421875,-0.104766845703125,0.085479736328125
1773257371555528000,3.52052783203125,-1.0387115478515625,-0.1081695556640625,0.0722503662109375
1773257371565544000,3.5305439453125,-1.0167694091796875,-0.112152099609375,0.06939697265625
1773257371575559000,3.540558837890625,-0.9919891357421875,-0.1185150146484375,0.0774383544921875
1773257371585575000,3.550574951171875,-0.9662017822265625,-0.1248321533203125,0.08758544921875
1773257371595591000,3.5605908203125,-0.9400482177734375,-0.1327972412109375,0.0936431884765625
1773257371605606000,3.57060595703125,-0.9157562255859375,-0.139129638671875,0.100128173828125
1773257371615622000,3.580621826171875,-0.8997344970703125,-0.148345947265625,0.1047515869140625
1773257371625638000,3.590637939453125,-0.89251708984375,-0.1502532958984375,0.1014251708984375
1773257371635652900,3.60065283203125,-0.886016845703125,-0.1464080810546875,0.09539794921875
1773257371645668900,3.6106689453125,-0.892181396484375,-0.14013671875,0.0934295654296875
1773257371655684600,3.6206845703125,-0.9058074951171875,-0.1385955810546875,0.090911865234375
1773257371665699800,3.630699951171875,-0.917083740234375,-0.1354827880859375,0.0935516357421875
1773257371675715800,3.6407158203125,-0.9311981201171875,-0.1271820068359375,0.10772705078125
1773257371685731800,3.65073193359375,-0.93878173828125,-0.117523193359375,0.116180419921875
1773257371695746800,3.660746826171875,-0.9460296630859375,-0.1144561767578125,0.12481689453125
1773257371705762800,3.6707626953125,-0.948333740234375,-0.1130828857421875,0.1262054443359375
1773257371715778800,3.68077880859375,-0.9440155029296875,-0.1119537353515625,0.1064300537109375
1773257371725793800,3.690793701171875,-0.944091796875,-0.1175994873046875,0.0815887451171875
1773257371735809800,3.700809814453125,-0.9498443603515625,-0.1219482421875,0.0648345947265625
1773257371745825800,3.71082568359375,-0.9658355712890625,-0.1236724853515625,0.060455322265625
1773257371755841800,3.720841796875,-0.987518310546875,-0.1233673095703125,0.0697174072265625
1773257371765856800,3.730856689453125,-1.010223388671875,-0.1211700439453125,0.0828704833984375
1773257371775872800,3.740872802734375,-1.026275634765625,-0.116180419921875,0.09710693359375
1773257371785889000,3.750888916015625,-1.039581298828125,-0.1139678955078125,0.1112213134765625
1773257371795904000,3.760904052734375,-1.0479278564453125,-0.1070098876953125,0.1200103759765625
1773257371805920000,3.770919921875,-1.053863525390625,-0.1026153564453125,0.1272430419921875
1773257371815935700,3.780935791015625,-1.0565032958984375,-0.102691650390625,0.13653564453125
1773257371825951000,3.790950927734375,-1.0516815185546875,-0.10382080078125,0.140228271484375
1773257371835966700,3.800966796875,-1.041015625,-0.1053924560546875,0.13665771484375
1773257371845982700,3.810982666015625,-1.0265045166015625,-0.1128997802734375,0.13519287109375
1773257371855997700,3.820997802734375,-1.008148193359375,-0.120086669921875,0.144195556640625
1773257371866013700,3.831013671875,-0.990325927734375,-0.1238555908203125,0.15850830078125
1773257371876029700,3.84102978515625,-0.9714813232421875,-0.127532958984375,0.1734161376953125
1773257371886044700,3.851044677734375,-0.947723388671875,-0.126708984375,0.1791534423828125
1773257371896060700,3.861060791015625,-0.9231414794921875,-0.125457763671875,0.177490234375
1773257371906077000,3.871076904296875,-0.8981781005859375,-0.125732421875,0.1778106689453125
1773257371916093000,3.881093017578125,-0.8751983642578125,-0.128173828125,0.171722412109375
1773257371926108000,3.89110791015625,-0.8528594970703125,-0.130767822265625,0.162994384765625
1773257371936124000,3.9011240234375,-0.8345794677734375,-0.1279144287109375,0.155853271484375
1773257371946140000,3.911139892578125,-0.8240203857421875,-0.125213623046875,0.147369384765625
1773257371956155000,3.92115478515625,-0.82403564453125,-0.1197967529296875,0.14300537109375
1773257371966171000,3.9311708984375,-0.8436126708984375,-0.110626220703125,0.1453857421875
1773257371976187000,3.941186767578125,-0.8678741455078125,-0.101837158203125,0.1516876220703125
1773257371986201900,3.951201904296875,-0.886871337890625,-0.095367431640625,0.1627044677734375
1773257371996217600,3.961217529296875,-0.9028472900390625,-0.0928955078125,0.1666107177734375
1773257372006234400,3.971234375,-0.908294677734375,-0.097900390625,0.16888427734375
1773257372016249300,3.981249267578125,-0.9040374755859375,-0.1032867431640625,0.1711578369140625
1773257372026265300,3.991265380859375,-0.8963623046875,-0.1095123291015625,0.1691131591796875
1773257372036281300,4.00128125,-0.8784332275390625,-0.1247100830078125,0.1669464111328125
1773257372046296300,4.01129638671875,-0.8620758056640625,-0.134796142578125,0.1602630615234375
1773257372056312300,4.021312255859375,-0.909912109375,-0.138092041015625,0.172607421875
1773257372066328600,4.03132861328125,-0.9375457763671875,-0.1461944580078125,0.203765869140625
1773257372076344600,4.041344482421875,-0.9479217529296875,-0.1512298583984375,0.2531280517578125
1773257372086359600,4.051359619140625,-0.9583282470703125,-0.1406402587890625,0.302581787109375
1773257372096375600,4.06137548828125,-0.9617156982421875,-0.0939178466796875,0.3248138427734375
1773257372106391600,4.0713916015625,-0.9605712890625,-0.0725555419921875,0.3638153076171875
1773257372116406500,4.081406494140625,-0.9663848876953125,-0.110687255859375,0.440216064453125
1773257372126422500,4.091422607421875,-0.970733642578125,-0.1320648193359375,0.4573211669921875
1773257372136438300,4.101438232421875,-0.956787109375,-0.1365814208984375,0.4312591552734375
1773257372146453500,4.11145361328125,-0.906707763671875,-0.15673828125,0.4200286865234375
1773257372156469200,4.12146923828125,-0.862091064453125,-0.1829071044921875,0.4085693359375
1773257372166485500,4.131485595703125,-0.793853759765625,-0.1875762939453125,0.415435791015625
1773257372176500200,4.141500244140625,-0.7147216796875,-0.2001800537109375,0.45867919921875
1773257372186516500,4.1515166015625,-0.65045166015625,-0.2185516357421875,0.5273895263671875
1773257372196532500,4.161532470703125,-0.6157684326171875,-0.201812744140625,0.5615081787109375
1773257372206548500,4.171548583984375,-0.56561279296875,-0.1710357666015625,0.524078369140625
1773257372216563500,4.1815634765625,-0.4962158203125,-0.1528472900390625,0.4551544189453125
1773257372226579500,4.191579345703125,-0.4711151123046875,-0.1693572998046875,0.4309844970703125
1773257372236595500,4.201595458984375,-0.51953125,-0.1946563720703125,0.447021484375
1773257372246610400,4.2116103515625,-0.583251953125,-0.1826171875,0.441131591796875
1773257372256626400,4.22162646484375,-0.5842437744140625,-0.140777587890625,0.40692138671875
1773257372266642400,4.231642333984375,-0.5419921875,-0.1021728515625,0.3765411376953125
1773257372276657400,4.241657470703125,-0.5142822265625,-0.071807861328125,0.349609375
1773257372286673700,4.251673583984375,-0.507720947265625,-0.051513671875,0.308013916015625
1773257372296689400,4.261689453125,-0.4990692138671875,-0.0522308349609375,0.2557830810546875
1773257372306704600,4.27170458984375,-0.47393798828125,-0.0692138671875,0.2032928466796875
1773257372316720400,4.281720458984375,-0.4548187255859375,-0.0884857177734375,0.1847076416015625
1773257372326736400,4.291736328125,-0.4799346923828125,-0.09100341796875,0.2282867431640625
1773257372336752400,4.30175244140625,-0.5052642822265625,-0.0678558349609375,0.26165771484375
1773257372346767400,4.311767333984375,-0.5325164794921875,-0.031951904296875,0.2810516357421875
1773257372356783400,4.321783447265625,-0.599822998046875,-0.0018157958984375,0.266204833984375
1773257372366799400,4.33179931640625,-0.628387451171875,0.02532958984375,0.239501953125
1773257372376814300,4.341814453125,-0.616943359375,0.0561676025390625,0.224090576171875
1773257372386830300,4.351830322265625,-0.60675048828125,0.084869384765625,0.21771240234375
1773257372396846600,4.3618466796875,-0.5970306396484375,0.10247802734375,0.1983795166015625
1773257372406861600,4.371861572265625,-0.6199951171875,0.1091461181640625,0.16754150390625
1773257372416877600,4.381877685546875,-0.6102447509765625,0.1241455078125,0.1465301513671875
1773257372426893600,4.3918935546875,-0.60601806640625,0.1365509033203125,0.13018798828125
1773257372436908500,4.401908447265625,-0.6266326904296875,0.1164093017578125,0.0990142822265625
1773257372446924500,4.411924560546875,-0.61920166015625,0.10791015625,0.10272216796875
1773257372456940300,4.421940185546875,-0.61810302734375,0.12432861328125,0.121734619140625
1773257372466956300,4.431956298828125,-0.605316162109375,0.13775634765625,0.128265380859375
1773257372476971300,4.44197119140625,-0.552734375,0.1021881103515625,0.1263885498046875
1773257372486987300,4.4519873046875,-0.4976043701171875,0.0500946044921875,0.0905303955078125
1773257372497003500,4.46200341796875,-0.4271087646484375,0.045379638671875,0.0637054443359375
1773257372507018200,4.472018310546875,-0.354736328125,0.0732879638671875,0.091522216796875
1773257372517034500,4.482034423828125,-0.3224029541015625,0.1081390380859375,0.1668243408203125
1773257372527050500,4.492050537109375,-0.2696533203125,0.107330322265625,0.2502899169921875
1773257372537065500,4.5020654296875,-0.256866455078125,0.0710601806640625,0.3016510009765625
1773257372547081500,4.51208154296875,-0.24591064453125,0.055511474609375,0.32550048828125
1773257372557097500,4.522097412109375,-0.2528228759765625,0.07098388671875,0.3419342041015625
1773257372567113500,4.532113525390625,-0.32000732421875,0.108795166015625,0.38311767578125
1773257372577128400,4.54212841796875,-0.4251708984375,0.1709136962890625,0.4050140380859375
1773257372587144400,4.55214453125,-0.555877685546875,0.1808319091796875,0.340301513671875
1773257372597160400,4.562160400390625,-0.6976318359375,0.187591552734375,0.3511505126953125
1773257372607175400,4.572175537109375,-0.8040008544921875,0.1897125244140625,0.401641845703125
1773257372617191700,4.582191650390625,-0.8802642822265625,0.1728515625,0.4150543212890625
1773257372627207400,4.59220751953125,-0.9316864013671875,0.16796875,0.4519195556640625
1773257372637222700,4.60222265625,-0.9954833984375,0.1523284912109375,0.523284912109375
1773257372647238400,4.61223828125,-1.01483154296875,0.0951080322265625,0.4783477783203125
1773257372657254400,4.62225439453125,-1.1326751708984375,0.07720947265625,0.6022796630859375
1773257372667269400,4.632269287109375,-1.20404052734375,0.1119384765625,0.7375640869140625
1773257372677285400,4.642285400390625,-1.20574951171875,0.094635009765625,0.7638397216796875
1773257372687301400,4.65230126953125,-1.1838531494140625,0.0222015380859375,0.7653350830078125
1773257372697317400,4.6623173828125,-1.1602020263671875,-0.066650390625,0.7939605712890625
1773257372707332400,4.672332275390625,-1.091064453125,-0.1447296142578125,0.818756103515625
1773257372717348400,4.682348388671875,-1.00067138671875,-0.193084716796875,0.8328094482421875
1773257372727364600,4.692364501953125,-0.8582305908203125,-0.195343017578125,0.832183837890625
1773257372737379600,4.702379638671875,-0.73455810546875,-0.1612396240234375,0.819091796875
1773257372747395600,4.7123955078125,-0.5794525146484375,-0.0797271728515625,0.7796783447265625
1773257372757411600,4.72241162109375,-0.452545166015625,0.0370330810546875,0.7718048095703125
1773257372767426600,4.732426513671875,-0.53265380859375,0.1894378662109375,0.9053802490234375
1773257372777442600,4.742442626953125,-0.777099609375,0.323272705078125,1.120086669921875
1773257372787458300,4.752458251953125,-1.0010833740234375,0.374359130859375,1.365753173828125
1773257372797473500,4.7624736328125,-1.2493743896484375,0.4156341552734375,1.6021270751953125
1773257372807489300,4.7724892578125,-1.5020751953125,0.34320068359375,1.8834991455078125
1773257372817505300,4.78250537109375,-1.574615478515625,0.208526611328125,1.98065185546875
1773257372827520300,4.792520263671875,-1.3563079833984375,0.1642608642578125,1.87127685546875
1773257372837536300,4.802536376953125,-1.1045684814453125,0.303619384765625,1.7493438720703125
1773257372847552500,4.812552490234375,-0.836212158203125,0.415924072265625,1.533660888671875
1773257372857568500,4.822568603515625,-0.65472412109375,0.3975677490234375,1.291900634765625
1773257372867583500,4.83258349609375,-0.5842132568359375,0.3186492919921875,1.1751861572265625
1773257372877599500,4.842599609375,-0.6349029541015625,0.28668212890625,1.215057373046875
1773257372887615500,4.852615478515625,-0.7337799072265625,0.3047637939453125,1.3650970458984375
1773257372897630500,4.86263037109375,-0.9340667724609375,0.313262939453125,1.519775390625
1773257372907646500,4.872646484375,-1.0651397705078125,0.2793731689453125,1.509765625
1773257372917662500,4.882662353515625,-1.1455841064453125,0.248992919921875,1.500579833984375
1773257372927677400,4.892677490234375,-1.1091156005859375,0.1977081298828125,1.3890533447265625
1773257372937693400,4.902693359375,-1.0103759765625,0.1845703125,1.217132568359375
1773257372947709400,4.91270947265625,-0.9236602783203125,0.2020721435546875,1.1081390380859375
1773257372957724400,4.922724365234375,-0.8804168701171875,0.22314453125,1.0270538330078125
1773257372967740400,4.932740478515625,-0.8546905517578125,0.234527587890625,0.9361114501953125
1773257372977756400,4.94275634765625,-0.7941131591796875,0.252288818359375,0.898956298828125
1773257372987771400,4.952771484375,-0.7775726318359375,0.2583465576171875,0.8504486083984375
1773257372997787400,4.962787353515625,-0.841949462890625,0.2750396728515625,0.799346923828125
1773257373007802400,4.97280224609375,-0.9366302490234375,0.2376861572265625,0.726470947265625
1773257373017818600,4.982818603515625,-0.9615020751953125,0.2032470703125,0.610870361328125
1773257373027833600,4.99283349609375,-0.9569549560546875,0.2157135009765625,0.36328125
1773257373037849600,5.002849609375,-0.995574951171875,0.2636566162109375,0.286834716796875
1773257373047865600,5.012865478515625,-1.041748046875,0.2907257080078125,0.3007354736328125
1773257373057880600,5.022880615234375,-0.866058349609375,0.3490447998046875,0.6251068115234375
1773257373067896600,5.032896484375,-0.7961578369140625,0.1888885498046875,0.6881561279296875
1773257373077912600,5.04291259765625,-0.629913330078125,0.1255950927734375,0.64923095703125
1773257373087927600,5.052927490234375,-0.4789276123046875,0.105316162109375,0.8325958251953125
1773257373097943600,5.062943603515625,-0.3146209716796875,0.06585693359375,0.8243865966796875
1773257373107959600,5.07295947265625,-0.3567962646484375,0.03289794921875,0.7751007080078125
1773257373117974500,5.082974609375,-0.3807220458984375,0.06201171875,0.759521484375
1773257373127990800,5.09299072265625,-0.40777587890625,0.141265869140625,0.91424560546875
1773257373138006800,5.1030068359375,-0.2864990234375,0.218292236328125,1.0113067626953125
1773257373148022500,5.1130224609375,-0.1420440673828125,0.1534576416015625,0.990142822265625
1773257373158037800,5.123037841796875,0.0232696533203125,-0.27374267578125,0.826019287109375
1773257373168053500,5.133053466796875,-0.423065185546875,-0.327789306640625,1.1183013916015625
1773257373178069500,5.143069580078125,-1.301300048828125,-0.294097900390625,1.5020751953125
1773257373188084500,5.15308447265625,-1.571929931640625,-0.2005615234375,1.42205810546875
1773257373198100500,5.1631005859375,-1.35540771484375,-0.24005126953125,1.073516845703125
1773257373208116500,5.173116455078125,-1.0379486083984375,-0.344451904296875,0.8043212890625
1773257373218131500,5.18313134765625,-0.668853759765625,-0.3220672607421875,0.79119873046875
1773257373228147500,5.1931474609375,-0.4606170654296875,-0.1698455810546875,0.78173828125
1773257373238163700,5.203163818359375,-0.524017333984375,0.0160064697265625,0.77813720703125
1773257373248178700,5.2131787109375,-0.5460662841796875,0.0703582763671875,0.9133148193359375
1773257373258194700,5.223194580078125,-0.609405517578125,0.086029052734375,0.9348602294921875
1773257373268210700,5.233210693359375,-0.44573974609375,0.0736541748046875,0.984039306640625
1773257373278226700,5.243226806640625,-0.2202301025390625,0.030517578125,0.8368377685546875
1773257373288241700,5.25324169921875,-0.206268310546875,0.0360107421875,0.772369384765625
1773257373298257700,5.263257568359375,-0.265655517578125,-0.05804443359375,0.854644775390625
1773257373308273700,5.273273681640625,-0.29473876953125,-0.0979766845703125,0.869384765625
1773257373318288600,5.28328857421875,-0.1203765869140625,-0.0903778076171875,0.9568328857421875
1773257373328304600,5.2933046875,0.0730133056640625,-0.118011474609375,0.9841766357421875
1773257373338320400,5.3033203125,0.084716796875,-0.0907745361328125,0.9131927490234375
1773257373348335600,5.313335693359375,0.084014892578125,-0.09393310546875,0.85467529296875
1773257373358351600,5.3233515625,-0.2084808349609375,-0.061309814453125,0.8558807373046875
1773257373368367600,5.33336767578125,-0.345703125,-0.0400543212890625,0.9799041748046875
1773257373378382600,5.343382568359375,-0.336944580078125,-0.0668487548828125,0.95263671875
1773257373388398600,5.353398681640625,-0.2939453125,-0.142120361328125,0.84173583984375
1773257373398414600,5.36341455078125,-0.475982666015625,-0.0648040771484375,0.75421142578125
1773257373408429600,5.3734296875,-0.6394195556640625,0.0131988525390625,0.7031097412109375
1773257373418445600,5.383445556640625,-0.7083740234375,-0.0048828125,0.7575531005859375
1773257373428461600,5.393461669921875,-0.72442626953125,-0.03955078125,0.75640869140625
1773257373438477600,5.4034775390625,-0.645172119140625,-0.066741943359375,0.7723541259765625
1773257373448492500,5.413492431640625,-0.591461181640625,-0.10137939453125,0.791839599609375
1773257373458508500,5.423508544921875,-0.634979248046875,-0.14111328125,0.855865478515625
1773257373468524800,5.43352490234375,-0.7479095458984375,-0.20977783203125,0.8650360107421875
1773257373478539800,5.443539794921875,-0.9965972900390625,-0.2729339599609375,0.5673065185546875
1773257373488555800,5.4535556640625,-1.2101593017578125,-0.2528228759765625,0.2076568603515625
1773257373498571500,5.463571533203125,-0.9496002197265625,-0.181427001953125,0.1360015869140625
1773257373508586800,5.473586669921875,-0.637359619140625,-0.0834503173828125,0.3697357177734375
1773257373518602500,5.4836025390625,-0.4029693603515625,-0.0540618896484375,0.68841552734375
1773257373528618500,5.493618408203125,-0.1616973876953125,-0.079193115234375,0.7431182861328125
1773257373538633500,5.503633544921875,-0.9677276611328125,-0.1970367431640625,0.261077880859375
1773257373548649500,5.5136494140625,-0.571441650390625,-0.181671142578125,0.6691131591796875
1773257373558665500,5.52366552734375,-0.3042755126953125,-0.1125335693359375,1.1227264404296875
1773257373568680400,5.533680419921875,-0.7465057373046875,-0.12664794921875,0.8089141845703125
1773257373578696400,5.543696533203125,-0.8808441162109375,-0.17578125,0.7079315185546875
1773257373588712700,5.553712646484375,-1.4509124755859375,-0.1360015869140625,0.8416595458984375
1773257373598727700,5.563727783203125,-1.71533203125,-0.06488037109375,0.462066650390625
1773257373608743700,5.57374365234375,-1.307098388671875,0.0547332763671875,0.322357177734375
1773257373618759700,5.583759765625,-0.61224365234375,0.1391754150390625,0.1278076171875
1773257373628775700,5.593775634765625,-0.49853515625,0.0701446533203125,-0.0342864990234375
1773257373638790700,5.603790771484375,-0.870330810546875,0.036834716796875,-0.2039031982421875
1773257373648806700,5.613806640625,-0.885894775390625,0.03790283203125,-0.2690582275390625
1773257373658822700,5.62382275390625,-0.9642791748046875,0.0436553955078125,-0.31390380859375
1773257373668837600,5.633837646484375,-0.7124176025390625,0.114959716796875,-0.2657470703125
1773257373678853600,5.643853515625,-0.557464599609375,0.1243896484375,-0.2679443359375
1773257373688869600,5.65386962890625,-0.976654052734375,0.0842437744140625,-0.3328704833984375
1773257373698884600,5.663884521484375,-1.42230224609375,0.096527099609375,-0.3529052734375
1773257373708900600,5.673900634765625,-1.7177276611328125,0.08843994140625,-0.3975677490234375
1773257373718916600,5.68391650390625,-1.76409912109375,-0.0271759033203125,-0.4735107421875
1773257373728931600,5.693931640625,-1.4203338623046875,-0.0890045166015625,-0.405517578125
1773257373738947600,5.703947509765625,-1.039093017578125,-0.0820465087890625,-0.3287200927734375
1773257373748963600,5.713963623046875,-0.7929840087890625,-0.0493927001953125,-0.2002105712890625
1773257373758978600,5.723978515625,-0.7345428466796875,-0.0416107177734375,-0.0805206298828125
1773257373768994600,5.73399462890625,-0.8084716796875,-0.0362091064453125,-0.0296783447265625
1773257373779010600,5.744010498046875,-0.885833740234375,-0.022674560546875,0.02191162109375
1773257373789026600,5.754026611328125,-0.924163818359375,-0.0116729736328125,0.08868408203125
1773257373799041500,5.76404150390625,-1.0039215087890625,-0.0179290771484375,0.0883331298828125
1773257373809057800,5.774057861328125,-1.0886383056640625,-0.03466796875,0.0039825439453125
1773257373819073800,5.78407373046875,-1.1204833984375,-0.027923583984375,-0.0458221435546875
1773257373829088800,5.7940888671875,-1.0921173095703125,-0.0305328369140625,-0.08349609375
1773257373839104800,5.804104736328125,-1.0267486572265625,-0.0339508056640625,-0.0838775634765625
1773257373849120500,5.81412060546875,-0.971160888671875,-0.0306549072265625,-0.0791168212890625
1773257373859135700,5.8241357421875,-0.9387969970703125,-0.0172882080078125,-0.0855560302734375
1773257373869151500,5.8341513671875,-0.9447021484375,-0.010833740234375,-0.0885009765625
1773257373879167500,5.84416748046875,-0.9877471923828125,-0.02410888671875,-0.0820465087890625
1773257373889182500,5.854182373046875,-1.0170440673828125,-0.035003662109375,-0.0699005126953125
1773257373899198500,5.864198486328125,-1.0230255126953125,-0.031494140625,-0.0633697509765625
1773257373909214500,5.87421435546875,-1.01788330078125,-0.024810791015625,-0.05029296875
1773257373919229400,5.8842294921875,-0.999969482421875,-0.02099609375,-0.0496368408203125
1773257373929245700,5.89424560546875,-0.9842987060546875,-0.0193328857421875,-0.065277099609375
1773257373939261700,5.90426171875,-0.9856109619140625,-0.02398681640625,-0.076904296875
1773257373949276700,5.914276611328125,-0.9911346435546875,-0.00885009765625,-0.07647705078125
1773257373959292700,5.924292724609375,-0.9715576171875,0.0060272216796875,-0.07275390625
1773257373969308700,5.93430859375,-0.9748992919921875,-0.0015106201171875,-0.062744140625
1773257373979323600,5.94432373046875,-1.007568359375,-0.0319976806640625,-0.0612030029296875
1773257373989339600,5.954339599609375,-1.0341033935546875,-0.067657470703125,-0.0819854736328125
1773257373999355600,5.964355712890625,-1.027862548828125,-0.0623321533203125,-0.096466064453125
1773257374009371400,5.974371337890625,-1.007720947265625,0.0034027099609375,-0.10516357421875
1773257374019386400,5.984386474609375,-0.979644775390625,0.0001983642578125,-0.1167449951171875
1773257374029402400,5.99440234375,-0.9539947509765625,-0.034088134765625,-0.112274169921875
1773257374039418400,6.00441845703125,-0.9584197998046875,-0.0494537353515625,-0.100128173828125
1773257374049433300,6.014433349609375,-0.9868621826171875,-0.0543365478515625,-0.0766143798828125
1773257374059449300,6.024449462890625,-1.0139923095703125,-0.0462188720703125,-0.064544677734375
1773257374069465300,6.03446533203125,-1.0167236328125,-0.0309906005859375,-0.06549072265625
1773257374079480300,6.044480224609375,-1.0075836181640625,-0.019256591796875,-0.0601806640625
1773257374089496300,6.054496337890625,-1.0025787353515625,-0.019073486328125,-0.0419464111328125
1773257374099512300,6.06451220703125,-1.002197265625,-0.0175933837890625,-0.032257080078125
1773257374109527300,6.07452734375,-0.998443603515625,-0.0369415283203125,-0.055206298828125
1773257374119543300,6.084543212890625,-0.9962310791015625,-0.052459716796875,-0.079132080078125
1773257374129559300,6.094559326171875,-0.9955596923828125,-0.0443267822265625,-0.09735107421875
1773257374139574300,6.10457421875,-0.9943084716796875,-0.0142059326171875,-0.10302734375
1773257374149590300,6.11459033203125,-0.995025634765625,-0.0199127197265625,-0.127044677734375
1773257374159606500,6.1246064453125,-0.976043701171875,-0.0374603271484375,-0.1245574951171875
1773257374169621500,6.13462158203125,-0.96966552734375,-0.0386810302734375,-0.105316162109375
1773257374179637500,6.144637451171875,-0.9864501953125,-0.03912353515625,-0.087921142578125
1773257374189653500,6.154653564453125,-0.9998626708984375,-0.0400848388671875,-0.0705108642578125
1773257374199669200,6.164669189453125,-1.00543212890625,-0.034820556640625,-0.0545654296875
1773257374209684500,6.1746845703125,-1.008209228515625,-0.0272369384765625,-0.0675506591796875
1773257374219700200,6.1847001953125,-1.00634765625,-0.0319671630859375,-0.022125244140625
1773257374229716200,6.19471630859375,-1.0274658203125,-0.0336761474609375,-0.0386199951171875
1773257374239731200,6.204731201171875,-1.0186767578125,-0.0383453369140625,-0.0726776123046875
1773257374249747200,6.214747314453125,-0.9898529052734375,-0.0594329833984375,-0.11248779296875
1773257374259763200,6.22476318359375,-0.971954345703125,-0.0436553955078125,-0.1216278076171875
1773257374269778200,6.234778076171875,-0.9757080078125,-0.003662109375,-0.1102142333984375
1773257374279794400,6.24479443359375,-0.97479248046875,-0.0059356689453125,-0.1019287109375
1773257374289810400,6.254810546875,-0.988494873046875,-0.0319061279296875,-0.0790863037109375
1773257374299825400,6.264825439453125,-1.007110595703125,-0.0577850341796875,-0.07745361328125
1773257374309841400,6.27484130859375,-1.01019287109375,-0.0515899658203125,-0.0930328369140625
1773257374319857400,6.284857421875,-0.99615478515625,-0.03399658203125,-0.109283447265625
1773257374329872400,6.294872314453125,-0.98388671875,-0.0169219970703125,-0.112030029296875
1773257374339888400,6.304888427734375,-0.970001220703125,-0.0344390869140625,-0.1231842041015625
1773257374349904400,6.314904296875,-0.96063232421875,-0.0641326904296875,-0.13751220703125
1773257374359919400,6.32491943359375,-0.9465484619140625,-0.1227569580078125,-0.1571502685546875
1773257374369935400,6.334935302734375,-0.9342041015625,-0.117950439453125,-0.127777099609375
1773257374379951400,6.344951416015625,-0.970855712890625,-0.0430755615234375,-0.0859527587890625
1773257374389966300,6.35496630859375,-0.985321044921875,-0.001556396484375,-0.04949951171875
1773257374399982300,6.364982421875,-1.0187530517578125,0.1084136962890625,0.0317840576171875
1773257374409998300,6.374998291015625,-1.0933990478515625,0.1467437744140625,0.07452392578125
1773257374420014300,6.385014404296875,-1.121673583984375,0.0424346923828125,0.1033172607421875
1773257374430029300,6.395029296875,-1.0579833984375,-0.054779052734375,0.0458221435546875
1773257374440045300,6.40504541015625,-0.9756011962890625,-0.0757293701171875,-0.007598876953125
1773257374450061300,6.415061279296875,-0.9676055908203125,-0.074920654296875,-0.0370941162109375
1773257374460076300,6.425076171875,-1.0032958984375,-0.0606231689453125,-0.064788818359375
1773257374470092300,6.43509228515625,-1.0195770263671875,-0.02557373046875,-0.1266326904296875
1773257374480108300,6.4451083984375,-0.9827728271484375,0.0144805908203125,-0.176025390625
1773257374490123300,6.455123291015625,-0.94671630859375,0.0451202392578125,-0.1490631103515625
1773257374500139300,6.46513916015625,-0.9879913330078125,0.0565338134765625,-0.1218719482421875
1773257374510155500,6.475155517578125,-1.0295257568359375,0.0549163818359375,-0.0424346923828125
1773257374520170500,6.48517041015625,-1.06512451171875,0.045166015625,-0.00006103515625
1773257374530186500,6.4951865234375,-1.053009033203125,0.024261474609375,-0.0276336669921875
1773257374540202500,6.505202392578125,-0.9788360595703125,-0.001983642578125,-0.0589599609375
1773257374550218200,6.51521826171875,-0.900299072265625,-0.010528564453125,-0.0934600830078125
1773257374560233500,6.5252333984375,-0.870330810546875,-0.008453369140625,-0.1224212646484375
1773257374570249200,6.535249267578125,-0.909088134765625,-0.023040771484375,-0.1429901123046875
1773257374580265200,6.54526513671875,-0.9688720703125,-0.0453033447265625,-0.1006317138671875
1773257374590280200,6.5552802734375,-1.0589599609375,-0.044189453125,-0.0316009521484375
1773257374600296200,6.565296142578125,-1.1136322021484375,-0.0470123291015625,0.0049285888671875
1773257374610312400,6.5753125,-1.0605621337890625,-0.0195159912109375,0.065338134765625
1773257374620327400,6.585327392578125,-1.0136871337890625,-0.0320892333984375,0.1051177978515625
1773257374630343400,6.595343505859375,-1.0101318359375,-0.0459442138671875,0.1107177734375
1773257374640359400,6.605359375,-1.010955810546875,-0.0418243408203125,0.027618408203125
1773257374650374400,6.61537451171875,-1.0293426513671875,-0.0338134765625,-0.085113525390625
1773257374660390400,6.625390380859375,-0.993560791015625,-0.0195770263671875,-0.098602294921875
1773257374670406400,6.635406494140625,-0.9740447998046875,-0.027557373046875,-0.08416748046875
1773257374680422400,6.64542236328125,-0.99053955078125,-0.0013885498046875,-0.0764007568359375
1773257374690437400,6.655437255859375,-1.0008544921875,-0.0027008056640625,-0.0849609375
1773257374700453400,6.665453369140625,-0.9880218505859375,-0.0113677978515625,-0.0961456298828125
1773257374710469000,6.67546923828125,-0.9795989990234375,-0.023681640625,-0.0766143798828125
1773257374720484400,6.685484375,-1.000732421875,-0.0220184326171875,-0.062744140625
1773257374730500400,6.695500244140625,-1.02484130859375,-0.002899169921875,-0.0495452880859375
1773257374740516400,6.705516357421875,-1.0091552734375,-0.0262908935546875,-0.08349609375
1773257374750531300,6.71553125,-0.95965576171875,-0.06036376953125,-0.0970001220703125
1773257374760547300,6.72554736328125,-0.987823486328125,-0.0274658203125,-0.0523681640625
1773257374770563300,6.735563232421875,-1.022979736328125,-0.0279083251953125,-0.078094482421875
1773257374780579300,6.745579345703125,-0.988433837890625,-0.048583984375,-0.1334075927734375
1773257374790594300,6.75559423828125,-0.957977294921875,-0.0416107177734375,-0.116363525390625
1773257374800610300,6.7656103515625,-1.0112457275390625,-0.01031494140625,-0.12847900390625
1773257374810626300,6.775626220703125,-1.00897216796875,-0.01739501953125,-0.1366424560546875
1773257374820641300,6.785641357421875,-0.97955322265625,-0.0223388671875,-0.122161865234375
1773257374830657300,6.7956572265625,-0.9792327880859375,-0.0237274169921875,-0.1171112060546875
1773257374840673500,6.805673583984375,-0.9990234375,-0.0440826416015625,-0.12646484375
1773257374850688500,6.8156884765625,-0.96820068359375,-0.098968505859375,-0.12591552734375
1773257374860704500,6.82570458984375,-0.9487457275390625,-0.17047119140625,-0.14349365234375
1773257374870720500,6.835720458984375,-1.015380859375,-0.1943511962890625,-0.1326141357421875
1773257374880736300,6.845736328125,-1.1094512939453125,-0.1988983154296875,-0.1471710205078125
1773257374890751500,6.85575146484375,-1.09014892578125,-0.182037353515625,-0.1884613037109375
1773257374900767200,6.865767333984375,-1.0834808349609375,-0.117767333984375,-0.16668701171875
1773257374910783200,6.875783203125,-0.9618682861328125,-0.147430419921875,-0.1627349853515625
1773257374920798200,6.885798095703125,-0.970672607421875,-0.0107269287109375,-0.264495849609375
1773257374930814200,6.895814208984375,-0.8560028076171875,0.083099365234375,-0.2655181884765625
1773257374940830500,6.90583056640625,-0.8063812255859375,0.271636962890625,-0.2114105224609375
1773257374950845200,6.91584521484375,-0.849761962890625,0.437225341796875,-0.2287445068359375
1773257374960861400,6.925861328125,-1.1177825927734375,0.424835205078125,-0.087249755859375
1773257374970877400,6.93587744140625,-1.220001220703125,0.0595855712890625,-0.02166748046875
1773257374980893400,6.9458935546875,-1.1913909912109375,-0.1629180908203125,-0.1809539794921875
1773257374990908400,6.955908447265625,-1.0792236328125,-0.176361083984375,-0.25860595703125
1773257375000924400,6.96592431640625,-0.9835968017578125,-0.1180877685546875,-0.28704833984375
1773257375010940700,6.975940673828125,-0.821380615234375,0.1972808837890625,-0.1954498291015625
1773257375020956000,6.985955810546875,-0.9103851318359375,0.187164306640625,0.0209503173828125
1773257375030971600,6.9959716796875,-0.905609130859375,-0.0929412841796875,0.0432586669921875
1773257375040988000,7.00598779296875,-1.1002197265625,-0.2727813720703125,0.0463714599609375
1773257375051002600,7.016002685546875,-1.6038360595703125,-0.373016357421875,0.3447723388671875
1773257375061019000,7.026018798828125,-1.9141082763671875,-0.629486083984375,0.6060028076171875
1773257375071035000,7.036034912109375,-0.798065185546875,-0.681671142578125,0.4046173095703125
1773257375081051000,7.04605078125,-0.63037109375,-0.176025390625,0.499664306640625
1773257375091065900,7.05606591796875,-0.447998046875,0.05810546875,0.1882781982421875
1773257375101081900,7.066081787109375,-0.2968597412109375,0.12744140625,0.0399627685546875
1773257375111097900,7.076097900390625,-0.463348388671875,0.26934814453125,0.004180908203125
1773257375121112800,7.08611279296875,-0.405670166015625,0.443145751953125,-0.295013427734375
1773257375131128800,7.09612890625,-0.6455230712890625,0.5955657958984375,-0.6677093505859375
1773257375141144800,7.106144775390625,-1.1827850341796875,0.6361083984375,-1.0655670166015625
1773257375151159800,7.116159912109375,-1.4694976806640625,0.556304931640625,-1.2054595947265625
1773257375161176000,7.126176025390625,-1.4524688720703125,0.2620391845703125,-0.9674072265625
1773257375171191800,7.13619189453125,-1.3567047119140625,0.1168365478515625,-0.48016357421875
1773257375181207800,7.146207763671875,-1.1350555419921875,0.06048583984375,-0.139129638671875
1773257375191222800,7.156222900390625,-1.0570831298828125,0.027679443359375,-0.0147247314453125
1773257375201238800,7.16623876953125,-1.006072998046875,0.0406646728515625,-0.0797882080078125
1773257375211254800,7.1762548828125,-0.921630859375,-0.0411376953125,-0.1551666259765625
1773257375221269800,7.186269775390625,-0.8754425048828125,-0.15655517578125,-0.0814666748046875
1773257375231285800,7.19628564453125,-0.869354248046875,-0.2181243896484375,-0.004913330078125
1773257375241301800,7.2063017578125,-0.888031005859375,-0.2669219970703125,0.0103759765625
1773257375251316700,7.216316650390625,-0.917572021484375,-0.316375732421875,0.018585205078125
1773257375261332700,7.226332763671875,-0.93603515625,-0.3482513427734375,0.0130462646484375
1773257375271349000,7.236348876953125,-0.967803955078125,-0.3676910400390625,-0.0547637939453125
1773257375281365000,7.246364990234375,-1.0527191162109375,-0.35272216796875,-0.1519775390625
1773257375291380000,7.2563798828125,-1.055511474609375,-0.1837158203125,-0.1357879638671875
1773257375301396000,7.26639599609375,-1.0166473388671875,-0.0509185791015625,-0.1393585205078125
1773257375311412000,7.276411865234375,-0.99578857421875,-0.0140838623046875,-0.1537933349609375
1773257375321427000,7.286427001953125,-0.969573974609375,0.0074310302734375,-0.152252197265625
1773257375331443000,7.29644287109375,-0.963409423828125,0.0267181396484375,-0.1497802734375
1773257375341458700,7.306458740234375,-0.9916229248046875,0.0177764892578125,-0.15802001953125
1773257375351474000,7.316473876953125,-1.0099334716796875,-0.0337677001953125,-0.1501922607421875
1773257375361489700,7.32648974609375,-0.9868011474609375,-0.0733489990234375,-0.1153411865234375
1773257375371505700,7.336505615234375,-0.9246673583984375,-0.051300048828125,-0.0866851806640625
1773257375381522000,7.34652197265625,-0.976409912109375,-0.0553436279296875,-0.0838623046875
1773257375391537000,7.356536865234375,-0.90118408203125,-0.034637451171875,-0.086212158203125
1773257375401553000,7.366552978515625,-0.826751708984375,0.0139923095703125,-0.1109161376953125
1773257375411569000,7.37656884765625,-0.9820098876953125,-0.0074462890625,-0.1310882568359375
1773257375421584000,7.386583984375,-1.19580078125,-0.060302734375,-0.15435791015625
1773257375431599900,7.396599853515625,-1.17462158203125,-0.1356201171875,-0.310791015625
1773257375441616000,7.406615966796875,-0.9760589599609375,-0.1285858154296875,-0.3214111328125
1773257375451631900,7.4166318359375,-0.920074462890625,-0.0687713623046875,-0.1886138916015625
1773257375461646800,7.426646728515625,-0.9827728271484375,-0.06842041015625,-0.0622406005859375
1773257375471662800,7.436662841796875,-0.9820404052734375,-0.05169677734375,-0.03265380859375
1773257375481678800,7.446678955078125,-1.000732421875,-0.0176544189453125,-0.07550048828125
1773257375491694000,7.456694091796875,-1.0579681396484375,-0.011932373046875,-0.162994384765625
1773257375501709800,7.466709716796875,-1.0549774169921875,-0.02703857421875,-0.258453369140625
1773257375511725800,7.476725830078125,-0.9532623291015625,-0.0475006103515625,-0.298675537109375
1773257375521740800,7.48674072265625,-0.9102630615234375,-0.043365478515625,-0.2548370361328125
1773257375531756800,7.4967568359375,-0.9050750732421875,-0.036041259765625,-0.178375244140625
1773257375541772800,7.506772705078125,-0.95391845703125,-0.0332794189453125,-0.1430816650390625
1773257375551788800,7.516788818359375,-0.9916839599609375,-0.0493011474609375,-0.136993408203125
1773257375561803800,7.5268037109375,-0.9860687255859375,-0.0427703857421875,-0.1148223876953125
1773257375571819800,7.53681982421875,-1.0078887939453125,-0.0487213134765625,-0.1218719482421875
1773257375581835800,7.546835693359375,-1.0556182861328125,-0.05902099609375,-0.2041015625
1773257375591850800,7.556850830078125,-1.06011962890625,-0.0548553466796875,-0.2686004638671875
1773257375601867000,7.566866943359375,-1.0958404541015625,-0.06793212890625,-0.23577880859375
1773257375611883000,7.576883056640625,-0.9424896240234375,-0.049468994140625,-0.1744384765625
1773257375621898000,7.58689794921875,-0.8643798828125,-0.03076171875,-0.09051513671875
1773257375631914000,7.5969140625,-0.897064208984375,-0.03326416015625,-0.046356201171875
1773257375641930000,7.606929931640625,-0.9786529541015625,-0.0454254150390625,-0.0686798095703125
1773257375651945700,7.61694580078125,-1.0577239990234375,-0.0617828369140625,-0.164459228515625
1773257375661961000,7.6269609375,-1.0623931884765625,-0.0639801025390625,-0.249755859375
1773257375671976700,7.636976806640625,-0.9838104248046875,-0.061004638671875,-0.3142547607421875
1773257375681992700,7.64699267578125,-0.99554443359375,-0.072052001953125,-0.4046478271484375
1773257375692007700,7.657007568359375,-1.0928192138671875,-0.0833282470703125,-0.484130859375
1773257375702023700,7.667023681640625,-1.030853271484375,-0.0767364501953125,-0.4811248779296875
1773257375712040000,7.6770400390625,-0.862823486328125,-0.084503173828125,-0.3477020263671875
1773257375722055000,7.687054931640625,-0.7609405517578125,-0.0771331787109375,-0.2686309814453125
1773257375732071000,7.69707080078125,-0.75384521484375,-0.0392913818359375,-0.14019775390625
1773257375742087000,7.7070869140625,-0.8977508544921875,-0.02398681640625,0.3227081298828125
1773257375752102000,7.717101806640625,-1.1094512939453125,0.00799560546875,0.590118408203125
1773257375762118000,7.727117919921875,-1.162506103515625,0.027008056640625,0.5345611572265625
1773257375772134000,7.7371337890625,-1.042755126953125,-0.032806396484375,0.109649658203125
1773257375782150000,7.74714990234375,-0.911041259765625,-0.103668212890625,-0.194091796875
1773257375792164900,7.757164794921875,-0.784637451171875,-0.1396484375,-0.341461181640625
1773257375802180900,7.767180908203125,-0.846588134765625,-0.112335205078125,-0.3058319091796875
1773257375812196900,7.77719677734375,-1.03826904296875,-0.044158935546875,-0.14385986328125
1773257375822211800,7.7872119140625,-1.22637939453125,0.0459747314453125,0.0201416015625
1773257375832227800,7.797227783203125,-1.2290802001953125,0.121368408203125,0.1800384521484375
1773257375842243800,7.807243896484375,-1.14794921875,0.071136474609375,0.05157470703125
1773257375852258800,7.8172587890625,-1.0099029541015625,-0.0689849853515625,-0.134429931640625
1773257375862274800,7.82727490234375,-0.89166259765625,-0.124359130859375,-0.167755126953125
1773257375872290800,7.837290771484375,-1.111541748046875,-0.120086669921875,-0.236968994140625
1773257375882306800,7.847306884765625,-1.1931304931640625,-0.079742431640625,-0.2403717041015625
1773257375892321800,7.85732177734375,-0.84326171875,-0.02130126953125,-0.1207122802734375
1773257375902337800,7.867337890625,-0.711944580078125,-0.013336181640625,-0.155303955078125
1773257375912353800,7.877353759765625,-0.76324462890625,-0.0396728515625,-0.1965179443359375
1773257375922368800,7.88736865234375,-0.9516143798828125,-0.0601959228515625,-0.2415924072265625
1773257375932385000,7.897385009765625,-1.128753662109375,-0.0772247314453125,-0.2599029541015625
1773257375942401000,7.907401123046875,-1.166473388671875,-0.056884765625,-0.2834014892578125
1773257375952416000,7.917416015625,-1.1093597412109375,-0.0492095947265625,-0.3466339111328125
1773257375962432000,7.927431884765625,-1.1251068115234375,-0.0503387451171875,-0.406707763671875
1773257375972448000,7.937447998046875,-1.193023681640625,-0.091796875,-0.6290283203125
1773257375982463700,7.947463623046875,-1.1813507080078125,-0.129364013671875,-0.688507080078125
1773257375992478700,7.957478759765625,-1.178741455078125,-0.1156005859375,-0.5851287841796875
1773257376002494700,7.96749462890625,-1.214447021484375,-0.055908203125,-0.38580322265625
1773257376012511000,7.977510986328125,-1.2218780517578125,-0.0037994384765625,-0.092193603515625
1773257376022526000,7.98752587890625,-1.199920654296875,0.017822265625,0.1263885498046875
1773257376032542000,7.9975419921875,-1.1346435546875,0.00384521484375,0.1795196533203125
1773257376042558200,8.00755810546875,-1.123565673828125,-0.00274658203125,0.2520294189453125
1773257376052573200,8.0175732421875,-1.056884765625,-0.008880615234375,0.325347900390625
1773257376062589200,8.027589111328124,-0.9720458984375,-0.005279541015625,0.3762054443359375
1773257376072605200,8.037605224609376,-0.87066650390625,0.000457763671875,0.4162445068359375
1773257376082620200,8.0476201171875,-0.703155517578125,0.0189056396484375,0.45452880859375
1773257376092636200,8.05763623046875,-0.55218505859375,0.016387939453125,0.4843292236328125
1773257376102652200,8.067652099609376,-0.429962158203125,-0.0062255859375,0.5102386474609375
1773257376112668200,8.077668212890625,-0.3278350830078125,-0.026824951171875,0.499359130859375
1773257376122683100,8.08768310546875,-0.2685699462890625,-0.0507965087890625,0.557159423828125
1773257376132699100,8.09769921875,-0.19427490234375,-0.0859527587890625,0.5946044921875
1773257376142715100,8.107715087890625,-0.141265869140625,-0.1276702880859375,0.720672607421875
1773257376152730000,8.117730224609375,-0.1151275634765625,-0.15045166015625,0.8925018310546875
1773257376162746000,8.12774609375,-0.2783203125,-0.1546478271484375,0.9729461669921875
1773257376172762000,8.13776220703125,-0.559478759765625,-0.1893463134765625,0.9163818359375
1773257376182777000,8.147777099609375,-0.670501708984375,-0.1341552734375,0.86962890625
1773257376192793000,8.15779296875,-0.7815704345703125,-0.082916259765625,0.7785186767578125
1773257376202809000,8.16780908203125,-0.914764404296875,-0.029449462890625,0.683807373046875
1773257376212825000,8.1778251953125,-0.7970428466796875,0.054351806640625,0.7783203125
1773257376222840000,8.187840087890624,-0.7141265869140625,0.07818603515625,0.917816162109375
1773257376232856000,8.19785595703125,-0.6805267333984375,0.0432586669921875,0.9857940673828125
1773257376242872000,8.2078720703125,-0.6691131591796875,-0.0703582763671875,0.9696807861328125
1773257376252887000,8.217886962890624,-1.152984619140625,-0.0480804443359375,0.792724609375
1773257376262903300,8.2279033203125,-1.24835205078125,0.110626220703125,0.82635498046875
1773257376272919300,8.237919189453125,-0.7524566650390625,0.1160888671875,1.1864776611328125
1773257376282934300,8.247934326171874,-1.1636810302734375,0.1207122802734375,1.374603271484375
1773257376292950300,8.2579501953125,-1.2922210693359375,0.0958404541015625,1.366363525390625
1773257376302966000,8.267966064453125,-1.330535888671875,0.108367919921875,1.3030548095703125
1773257376312982000,8.27798193359375,-1.341217041015625,0.0680999755859375,1.1157073974609375
1773257376322997000,8.2879970703125,-1.381805419921875,0.052398681640625,0.9660491943359375
1773257376333013000,8.298012939453125,-1.417266845703125,0.0525360107421875,0.89691162109375
1773257376343029000,8.308029052734375,-1.4010162353515625,0.0502166748046875,0.82611083984375
1773257376353044000,8.3180439453125,-1.40631103515625,0.1064453125,0.8052978515625
1773257376363060000,8.32806005859375,-1.3742523193359375,0.1760711669921875,0.7931060791015625
1773257376373076200,8.338076171875,-1.3468780517578125,0.2022247314453125,0.7249603271484375
1773257376383091200,8.34809130859375,-1.3261871337890625,0.220428466796875,0.68609619140625
1773257376393107200,8.358107177734375,-1.3307342529296875,0.2375335693359375,0.6406097412109375
1773257376403123200,8.368123291015625,-1.279754638671875,0.2528076171875,0.59912109375
1773257376413138200,8.37813818359375,-1.20452880859375,0.2867431640625,0.5987701416015625
1773257376423154200,8.388154296875,-1.1665496826171875,0.285797119140625,0.5956573486328125
1773257376433170200,8.398170166015625,-1.157501220703125,0.2078399658203125,0.5578765869140625
1773257376443186000,8.40818603515625,-1.1241912841796875,0.1143646240234375,0.47894287109375
1773257376453201200,8.418201171875,-1.0485076904296875,0.041900634765625,0.425079345703125
1773257376463217000,8.428216796875,-0.98284912109375,0.0433349609375,0.3946990966796875
1773257376473233200,8.438233154296874,-0.9703216552734375,0.029388427734375,0.366607666015625
1773257376483247900,8.448247802734375,-0.930755615234375,-0.0058441162109375,0.310394287109375
1773257376493264100,8.45826416015625,-0.846771240234375,-0.0093231201171875,0.3040008544921875
1773257376503280000,8.468280029296874,-0.8220367431640625,0.0013275146484375,0.3229522705078125
1773257376513295000,8.478295166015625,-0.8501739501953125,0.0175933837890625,0.302825927734375
1773257376523311000,8.48831103515625,-0.9256439208984375,0.0347442626953125,0.3070526123046875
1773257376533327000,8.4983271484375,-0.9865264892578125,0.001739501953125,0.2942962646484375
1773257376543342000,8.508342041015625,-1.012298583984375,-0.0473785400390625,0.25885009765625
1773257376553358000,8.518358154296875,-0.9937591552734375,-0.05267333984375,0.2772216796875
1773257376563374000,8.5283740234375,-0.93798828125,-0.080657958984375,0.3188629150390625
1773257376573390000,8.53839013671875,-1.04046630859375,-0.0792236328125,0.2913970947265625
1773257376583405000,8.548405029296875,-1.1029052734375,-0.1159820556640625,0.2298431396484375
1773257376593421300,8.55842138671875,-1.153106689453125,-0.1573944091796875,0.1644287109375
1773257376603437300,8.568437255859376,-1.148040771484375,-0.1406707763671875,0.112823486328125
1773257376613452300,8.578452392578125,-1.1051788330078125,-0.0762481689453125,0.0912322998046875
1773257376623468300,8.58846826171875,-1.1033935546875,0.0013580322265625,0.0821533203125
1773257376633484000,8.598484130859376,-1.02569580078125,-0.0228118896484375,0.05548095703125
1773257376643499000,8.6084990234375,-0.9914398193359375,-0.0764617919921875,0.00677490234375
1773257376653515000,8.618514892578125,-1.1385650634765625,-0.0358428955078125,0.0608367919921875
1773257376663531000,8.628531005859376,-1.134185791015625,-0.0149993896484375,0.025115966796875
1773257376673547000,8.638547119140625,-1.056365966796875,-0.0445404052734375,-0.07196044921875
1773257376683562000,8.64856201171875,-1.00885009765625,-0.033905029296875,-0.1016845703125
1773257376693578000,8.658577880859376,-1.00439453125,0.0139923095703125,-0.12298583984375
1773257376703594200,8.66859423828125,-1.0201416015625,0.068603515625,-0.1475067138671875
1773257376713609200,8.678609130859375,-0.9962005615234375,0.078826904296875,-0.17730712890625
1773257376723625200,8.688625244140624,-0.9403228759765625,0.0676116943359375,-0.203125
1773257376733641200,8.69864111328125,-0.8664398193359375,0.0626068115234375,-0.2112274169921875
1773257376743656200,8.70865625,-0.8056488037109375,0.03857421875,-0.2167205810546875
1773257376753672200,8.718672119140624,-0.7366790771484375,0.0036773681640625,-0.22802734375
1773257376763688200,8.728688232421876,-0.7197113037109375,-0.02398681640625,-0.2388763427734375
1773257376773703200,8.738703125,-0.7683258056640625,-0.0115814208984375,-0.236724853515625
1773257376783719200,8.74871923828125,-0.801116943359375,0.0176239013671875,-0.2469635009765625
1773257376793735000,8.75873486328125,-0.8312225341796875,0.04669189453125,-0.2504730224609375
1773257376803751000,8.7687509765625,-0.868133544921875,0.0751953125,-0.258758544921875
1773257376813766000,8.778765869140624,-0.894195556640625,0.1013946533203125,-0.273101806640625
1773257376823782100,8.7887822265625,-0.927825927734375,0.1355743408203125,-0.2811431884765625
1773257376833798100,8.798798095703125,-0.91748046875,0.1698455810546875,-0.264404296875
1773257376843813000,8.808813232421874,-0.91693115234375,0.174774169921875,-0.264923095703125
1773257376853829000,8.8188291015625,-0.9178924560546875,0.1370697021484375,-0.2786712646484375
1773257376863845000,8.82884521484375,-0.9300689697265625,0.0738372802734375,-0.3020172119140625
1773257376873860000,8.838860107421874,-0.9207611083984375,0.0298004150390625,-0.3043060302734375
1773257376883876000,8.8488759765625,-0.915740966796875,-0.000579833984375,-0.308746337890625
1773257376893892000,8.85889208984375,-0.940155029296875,-0.021820068359375,-0.307861328125
1773257376903907000,8.868906982421874,-0.9766082763671875,-0.0218048095703125,-0.2746734619140625
1773257376913923000,8.878923095703126,-0.9601593017578125,0.0106964111328125,-0.2179718017578125
1773257376923939000,8.88893896484375,-0.899871826171875,0.059417724609375,-0.20684814453125
1773257376933955000,8.898955078125,-0.8741607666015625,0.0980072021484375,-0.2028045654296875
1773257376943970300,8.90897021484375,-0.874786376953125,0.105010986328125,-0.187744140625
1773257376953986000,8.918986083984375,-0.9142913818359375,0.0666046142578125,-0.1632843017578125
1773257376964002000,8.929001953125,-0.9493255615234375,0.025604248046875,-0.156524658203125
1773257376974017000,8.93901708984375,-0.9419708251953125,-0.000244140625,-0.1374969482421875
1773257376984033000,8.949032958984375,-0.8990936279296875,-0.0217437744140625,-0.130767822265625
1773257376994049000,8.959049072265625,-0.8489990234375,-0.018798828125,-0.1288909912109375
1773257377004064000,8.96906396484375,-0.8132476806640625,-0.0136260986328125,-0.1240234375
1773257377014079500,8.97907958984375,-0.7970123291015625,-0.032806396484375,-0.129486083984375
1773257377024095700,8.989095703125,-0.8064727783203125,-0.0424957275390625,-0.1285858154296875
1773257377034110700,8.99911083984375,-0.8542327880859375,-0.042510986328125,-0.1499481201171875
1773257377044126700,9.009126708984375,-0.901397705078125,-0.0522308349609375,-0.1905364990234375
1773257377054142700,9.019142822265625,-0.897125244140625,-0.0619964599609375,-0.2228240966796875
1773257377064158700,9.02915869140625,-0.875396728515625,-0.0725250244140625,-0.2421112060546875
1773257377074173700,9.039173583984375,-0.8503265380859375,-0.0746002197265625,-0.240478515625
1773257377084189700,9.049189697265625,-0.85430908203125,-0.0862884521484375,-0.2308807373046875
1773257377094205700,9.059205810546874,-0.87841796875,-0.0903472900390625,-0.20782470703125
1773257377104220700,9.069220703125,-0.9158782958984375,-0.0704345703125,-0.2049407958984375
1773257377114236700,9.079236572265625,-0.9180450439453125,-0.0290069580078125,-0.187347412109375
1773257377124252700,9.089252685546874,-0.88104248046875,-0.012603759765625,-0.1568756103515625
1773257377134268000,9.099267822265626,-0.86749267578125,-0.0285491943359375,-0.15484619140625
1773257377144283600,9.10928369140625,-0.8883209228515625,-0.031341552734375,-0.1526947021484375
1773257377154299600,9.119299560546875,-0.890716552734375,-0.0239715576171875,-0.144317626953125
1773257377164314600,9.129314697265626,-0.87994384765625,-0.0185699462890625,-0.1283416748046875
1773257377174330600,9.13933056640625,-0.8612518310546875,-0.0091400146484375,-0.0881500244140625
1773257377184346600,9.1493466796875,-0.8388671875,-0.0045928955078125,-0.0420989990234375
1773257377194362600,9.159362548828126,-0.8596954345703125,-0.075592041015625,-0.052825927734375
1773257377204377600,9.169377685546875,-0.8380889892578125,-0.115203857421875,-0.0641632080078125
1773257377214393600,9.1793935546875,-0.7722320556640625,-0.0763702392578125,-0.0481414794921875
1773257377224409600,9.18940966796875,-0.8278961181640625,-0.149200439453125,-0.12286376953125
1773257377234424600,9.199424560546875,-0.775726318359375,-0.1698760986328125,-0.1300201416015625
1773257377244440800,9.20944091796875,-0.6910247802734375,-0.173370361328125,-0.1039581298828125
1773257377254456800,9.219456787109374,-0.699249267578125,-0.2159423828125,-0.12347412109375
1773257377264471800,9.229471923828125,-0.7149810791015625,-0.252838134765625,-0.1495513916015625
1773257377274487800,9.23948779296875,-0.701934814453125,-0.2679443359375,-0.1752471923828125
1773257377284503800,9.24950390625,-0.687469482421875,-0.2769622802734375,-0.2093963623046875
1773257377294518800,9.259518798828125,-0.6769561767578125,-0.27630615234375,-0.226654052734375
1773257377304534800,9.26953466796875,-0.6519775390625,-0.2736663818359375,-0.2316741943359375
1773257377314550500,9.279550537109374,-0.638885498046875,-0.2729644775390625,-0.23052978515625
1773257377324566500,9.28956640625,-0.637847900390625,-0.271942138671875,-0.2380523681640625
1773257377334581500,9.29958154296875,-0.6575164794921875,-0.2705078125,-0.2447052001953125
1773257377344597500,9.309597412109374,-0.6702728271484375,-0.2827301025390625,-0.2530517578125
1773257377354613800,9.31961376953125,-0.681488037109375,-0.2971649169921875,-0.257415771484375
1773257377364628700,9.329628662109375,-0.7280120849609375,-0.315948486328125,-0.267913818359375
1773257377374644700,9.339644775390624,-0.7684783935546875,-0.3412933349609375,-0.3026580810546875
1773257377384660700,9.34966064453125,-0.7759857177734375,-0.354644775390625,-0.339569091796875
1773257377394675700,9.35967578125,-0.780914306640625,-0.360015869140625,-0.3572845458984375
1773257377404691700,9.369691650390624,-0.77496337890625,-0.3464202880859375,-0.3579559326171875
1773257377414707700,9.379707763671876,-0.7542877197265625,-0.3227691650390625,-0.3617095947265625
1773257377424722700,9.38972265625,-0.7197113037109375,-0.306793212890625,-0.3585205078125
1773257377434738700,9.39973876953125,-0.7003173828125,-0.3001556396484375,-0.3526153564453125
1773257377444754700,9.409754638671876,-0.676910400390625,-0.3011474609375,-0.3562469482421875
1773257377454770700,9.419770751953125,-0.68121337890625,-0.3137664794921875,-0.380401611328125
1773257377464785700,9.42978564453125,-0.736083984375,-0.338531494140625,-0.4176788330078125
1773257377474801700,9.4398017578125,-0.7293243408203125,-0.3760528564453125,-0.475616455078125
1773257377484817700,9.449817626953125,-0.715576171875,-0.4148712158203125,-0.5126190185546875
1773257377494832600,9.45983251953125,-0.76202392578125,-0.414306640625,-0.4862060546875
1773257377504848600,9.4698486328125,-0.7918701171875,-0.38641357421875,-0.4444732666015625
1773257377514864600,9.47986474609375,-0.7732086181640625,-0.3571014404296875,-0.4114227294921875
1773257377524879600,9.489879638671875,-0.7454071044921875,-0.337066650390625,-0.3921356201171875
1773257377534895600,9.4998955078125,-0.7607421875,-0.3315887451171875,-0.383026123046875
1773257377544911600,9.50991162109375,-0.7819976806640625,-0.3426971435546875,-0.3896942138671875
1773257377554926600,9.519926513671875,-0.7708587646484375,-0.3481903076171875,-0.409423828125
1773257377564942600,9.529942626953124,-0.7355804443359375,-0.356475830078125,-0.4351654052734375
1773257377574958800,9.539958740234376,-0.685272216796875,-0.3664093017578125,-0.4518280029296875
1773257377584974800,9.549974853515625,-0.6490936279296875,-0.372406005859375,-0.471588134765625
1773257377594989800,9.55998974609375,-0.6346893310546875,-0.384368896484375,-0.4889373779296875
1773257377605005800,9.570005859375,-0.6194305419921875,-0.382965087890625,-0.4992828369140625
1773257377615021800,9.580021728515625,-0.6289215087890625,-0.3692779541015625,-0.489593505859375
1773257377625036800,9.590036865234374,-0.6642303466796875,-0.3726959228515625,-0.4814453125
1773257377635052800,9.600052734375,-0.7196044921875,-0.3919677734375,-0.4569091796875
1773257377645068500,9.610068603515625,-0.7421722412109375,-0.402618408203125,-0.4206695556640625
1773257377655083800,9.620083740234374,-0.73858642578125,-0.4054107666015625,-0.389251708984375
1773257377665099500,9.630099609375,-0.7364959716796875,-0.3867950439453125,-0.362152099609375
1773257377675115500,9.640115478515625,-0.741729736328125,-0.3753509521484375,-0.37152099609375
1773257377685130500,9.650130615234374,-0.747314453125,-0.371063232421875,-0.3946380615234375
1773257377695146800,9.660146728515626,-0.7528839111328125,-0.3752593994140625,-0.4205322265625
1773257377705162800,9.670162841796875,-0.750885009765625,-0.3763885498046875,-0.4401702880859375
1773257377715178800,9.6801787109375,-0.7449493408203125,-0.3720550537109375,-0.44952392578125
1773257377725193700,9.69019384765625,-0.7485198974609375,-0.3750762939453125,-0.455535888671875
1773257377735209700,9.700209716796875,-0.735687255859375,-0.3778533935546875,-0.4619293212890625
1773257377745225700,9.710225830078125,-0.73382568359375,-0.3857879638671875,-0.4646453857421875
1773257377755240700,9.72024072265625,-0.751220703125,-0.39361572265625,-0.4730377197265625
1773257377765256700,9.730256591796875,-0.7541351318359375,-0.40069580078125,-0.4777984619140625
1773257377775272700,9.740272705078125,-0.7484130859375,-0.4022369384765625,-0.48284912109375
1773257377785287700,9.75028759765625,-0.7503204345703125,-0.4013214111328125,-0.48797607421875
1773257377795303700,9.7603037109375,-0.75079345703125,-0.404052734375,-0.492645263671875
1773257377805319700,9.770319580078125,-0.7632293701171875,-0.4050445556640625,-0.4922332763671875
1773257377815335000,9.7803349609375,-0.7714996337890625,-0.4065704345703125,-0.488861083984375
1773257377825350700,9.7903505859375,-0.75933837890625,-0.3980560302734375,-0.4861907958984375
1773257377835366700,9.80036669921875,-0.747711181640625,-0.3929595947265625,-0.4870452880859375
1773257377845381600,9.810381591796874,-0.7658233642578125,-0.392822265625,-0.4874267578125
1773257377855397600,9.820397705078125,-0.777435302734375,-0.3871612548828125,-0.481903076171875
1773257377865413600,9.83041357421875,-0.7545623779296875,-0.3812408447265625,-0.4734649658203125
1773257377875429600,9.8404296875,-0.752899169921875,-0.3890228271484375,-0.470916748046875
1773257377885444600,9.850444580078126,-0.77880859375,-0.406158447265625,-0.47161865234375
1773257377895460600,9.860460693359375,-0.788177490234375,-0.3965606689453125,-0.46368408203125
1773257377905476600,9.8704765625,-0.7945556640625,-0.396331787109375,-0.4586029052734375
1773257377915491600,9.88049169921875,-0.804443359375,-0.4011688232421875,-0.4546966552734375
1773257377925507800,9.8905078125,-0.813873291015625,-0.4041900634765625,-0.453765869140625
1773257377935523800,9.90052392578125,-0.8333282470703125,-0.4128570556640625,-0.45672607421875
1773257377945538800,9.910538818359376,-0.8429718017578125,-0.4209442138671875,-0.452056884765625
1773257377955554800,9.920554931640625,-0.825042724609375,-0.41693115234375,-0.448638916015625
1773257377965570800,9.93057080078125,-0.815155029296875,-0.41290283203125,-0.45184326171875
1773257377975585800,9.940585693359376,-0.8220977783203125,-0.417694091796875,-0.4514617919921875
1773257377985601500,9.9506015625,-0.8314666748046875,-0.4244537353515625,-0.45111083984375
1773257377995617500,9.960617431640625,-0.8442230224609375,-0.424957275390625,-0.4462738037109375
1773257378005632500,9.970632568359376,-0.8463897705078125,-0.4190826416015625,-0.447021484375
1773257378015649300,9.980649169921875,-0.8426971435546875,-0.414642333984375,-0.44183349609375
1773257378025665300,9.990665283203125,-0.8438720703125,-0.4165802001953125,-0.432159423828125
1773257378035681300,10.000681396484374,-0.8452606201171875,-0.4185943603515625,-0.4215850830078125
1773257378045696300,10.0106962890625,-0.8304443359375,-0.4129486083984375,-0.412322998046875
1773257378055712300,10.020712158203125,-0.8169097900390625,-0.408233642578125,-0.40447998046875
1773257378065728500,10.030728515625,-0.8110809326171875,-0.414215087890625,-0.4085693359375
1773257378075743200,10.0407431640625,-0.801483154296875,-0.4170379638671875,-0.4074554443359375
1773257378085759500,10.050759521484375,-0.7862701416015625,-0.415496826171875,-0.40948486328125
1773257378095775500,10.060775390625,-0.79156494140625,-0.4183502197265625,-0.4090118408203125
1773257378105790500,10.07079052734375,-0.8245697021484375,-0.4271697998046875,-0.3979644775390625
1773257378115806500,10.080806396484375,-0.8549346923828125,-0.432220458984375,-0.3753662109375
1773257378125822200,10.090822265625,-0.85003662109375,-0.42059326171875,-0.3538970947265625
1773257378135837400,10.10083740234375,-0.843536376953125,-0.41436767578125,-0.3430023193359375
1773257378145853200,10.110853271484375,-0.84954833984375,-0.4166259765625,-0.34088134765625
1773257378155869200,10.120869140625,-0.8483123779296875,-0.42022705078125,-0.3535919189453125
1773257378165884200,10.13088427734375,-0.8408203125,-0.4201507568359375,-0.370635986328125
1773257378175900200,10.140900146484375,-0.8285980224609375,-0.4198760986328125,-0.384185791015625
1773257378185916400,10.15091650390625,-0.8163909912109375,-0.421844482421875,-0.3946685791015625
1773257378195931100,10.16093115234375,-0.80853271484375,-0.42230224609375,-0.39544677734375
1773257378205947400,10.170947509765625,-0.8064422607421875,-0.4241790771484375,-0.3926849365234375
1773257378215963400,10.18096337890625,-0.8126220703125,-0.424224853515625,-0.391021728515625
1773257378225978400,10.190978271484376,-0.8241424560546875,-0.4289093017578125,-0.377899169921875
1773257378235994400,10.200994384765625,-0.8251800537109375,-0.43206787109375,-0.3687591552734375
1773257378246010400,10.21101025390625,-0.8376007080078125,-0.4368896484375,-0.36590576171875
1773257378256025300,10.221025390625,-0.8413238525390625,-0.43975830078125,-0.364349365234375
1773257378266041300,10.231041259765625,-0.8403472900390625,-0.4412384033203125,-0.365478515625
1773257378276057300,10.241057373046875,-0.8408355712890625,-0.44635009765625,-0.3670196533203125
1773257378286073000,10.251072998046874,-0.8354949951171875,-0.4476165771484375,-0.3702239990234375
1773257378296088300,10.26108837890625,-0.8256072998046875,-0.44464111328125,-0.3799896240234375
1773257378306104300,10.271104248046875,-0.8228302001953125,-0.4461517333984375,-0.387908935546875
1773257378316120300,10.281120361328124,-0.8263092041015625,-0.449493408203125,-0.3883819580078125
1773257378326135300,10.29113525390625,-0.8339691162109375,-0.4507598876953125,-0.37890625
1773257378336151300,10.3011513671875,-0.8293609619140625,-0.451629638671875,-0.3686065673828125
1773257378346167300,10.311167236328124,-0.82342529296875,-0.452972412109375,-0.3651123046875
1773257378356182300,10.321182373046875,-0.8256988525390625,-0.459320068359375,-0.3648223876953125
1773257378366198300,10.3311982421875,-0.8277435302734375,-0.465240478515625,-0.3606109619140625
1773257378376214300,10.34121435546875,-0.820404052734375,-0.46466064453125,-0.359954833984375
1773257378386229200,10.351229248046875,-0.8192291259765625,-0.4688720703125,-0.3624114990234375
1773257378396245200,10.361245361328125,-0.8241729736328125,-0.475616455078125,-0.361724853515625
1773257378406261200,10.37126123046875,-0.823028564453125,-0.47662353515625,-0.356597900390625
1773257378416276200,10.381276123046876,-0.8242950439453125,-0.4773712158203125,-0.3476715087890625
1773257378426292500,10.39129248046875,-0.837066650390625,-0.4856109619140625,-0.3527069091796875
1773257378436308500,10.40130859375,-0.837493896484375,-0.4814910888671875,-0.3501129150390625
1773257378446323500,10.411323486328126,-0.8359832763671875,-0.475311279296875,-0.34832763671875
1773257378456339500,10.42133935546875,-0.835693359375,-0.4726715087890625,-0.348846435546875
1773257378466355200,10.431355224609375,-0.836669921875,-0.4726715087890625,-0.3523406982421875
1773257378476370400,10.441370361328126,-0.830322265625,-0.464569091796875,-0.3544769287109375
1773257378486386200,10.45138623046875,-0.82403564453125,-0.4606475830078125,-0.3581085205078125
1773257378496402200,10.461402099609375,-0.8199920654296875,-0.4564971923828125,-0.3653411865234375
1773257378506417200,10.471417236328126,-0.81597900390625,-0.45660400390625,-0.3701171875
1773257378516433200,10.48143310546875,-0.8201751708984375,-0.4559783935546875,-0.374359130859375
1773257378526449200,10.49144921875,-0.823272705078125,-0.45233154296875,-0.3721466064453125
1773257378536465400,10.50146533203125,-0.8348388671875,-0.4532470703125,-0.367950439453125
1773257378546480400,10.51148046875,-0.8404083251953125,-0.4527740478515625,-0.3619384765625
1773257378556496400,10.521496337890625,-0.84234619140625,-0.4521026611328125,-0.3587188720703125
1773257378566512400,10.531512451171874,-0.8451080322265625,-0.452392578125,-0.3541259765625
1773257378576527400,10.54152734375,-0.8451995849609375,-0.454132080078125,-0.35552978515625
1773257378586543400,10.55154345703125,-0.84075927734375,-0.455108642578125,-0.352630615234375
1773257378596559400,10.561559326171874,-0.8327178955078125,-0.4572601318359375,-0.3530731201171875
1773257378606574300,10.57157421875,-0.82275390625,-0.4529266357421875,-0.35333251953125
1773257378616590300,10.58159033203125,-0.8120269775390625,-0.4544677734375,-0.350250244140625
1773257378626606300,10.5916064453125,-0.804412841796875,-0.460052490234375,-0.3475189208984375
1773257378636621300,10.601621337890625,-0.7959136962890625,-0.457275390625,-0.3411712646484375
1773257378646637300,10.61163720703125,-0.788726806640625,-0.462860107421875,-0.3390045166015625
1773257378656653300,10.6216533203125,-0.784332275390625,-0.46893310546875,-0.3404541015625
1773257378666668300,10.631668212890625,-0.774749755859375,-0.46453857421875,-0.3411865234375
1773257378676684300,10.641684326171875,-0.7766876220703125,-0.4621124267578125,-0.3474884033203125
1773257378686700300,10.6517001953125,-0.7814178466796875,-0.4697418212890625,-0.352020263671875
1773257378696715300,10.66171533203125,-0.778778076171875,-0.4728240966796875,-0.3474884033203125
1773257378706731300,10.671731201171875,-0.7795257568359375,-0.4727325439453125,-0.3400726318359375
1773257378716747300,10.681747314453125,-0.7712554931640625,-0.47369384765625,-0.33856201171875
1773257378726762200,10.69176220703125,-0.76025390625,-0.47442626953125,-0.3432769775390625
1773257378736778200,10.7017783203125,-0.7564544677734375,-0.473052978515625,-0.3480377197265625
1773257378746794200,10.711794189453125,-0.7491912841796875,-0.47174072265625,-0.3481597900390625
1773257378756809200,10.721809326171876,-0.7511138916015625,-0.4698486328125,-0.3448486328125
1773257378766825200,10.7318251953125,-0.76470947265625,-0.476318359375,-0.349853515625
1773257378776841500,10.741841552734375,-0.7760009765625,-0.477264404296875,-0.35052490234375
1773257378786856400,10.7518564453125,-0.7863006591796875,-0.4740753173828125,-0.3520965576171875
1773257378796872400,10.76187255859375,-0.78778076171875,-0.4613189697265625,-0.351531982421875
1773257378806888400,10.771888427734375,-0.799407958984375,-0.455169677734375,-0.3501129150390625
1773257378816904200,10.781904296875,-0.8069000244140625,-0.4550628662109375,-0.3474884033203125
1773257378826919400,10.79191943359375,-0.807861328125,-0.4511871337890625,-0.3462371826171875
1773257378836935200,10.80193505859375,-0.8258819580078125,-0.4481658935546875,-0.34747314453125
1773257378846951200,10.811951171875,-0.844268798828125,-0.440338134765625,-0.348785400390625
1773257378856966100,10.821966064453125,-0.8446807861328125,-0.43463134765625,-0.3477020263671875
1773257378866982100,10.831982177734375,-0.83843994140625,-0.4329376220703125,-0.3506317138671875
1773257378876998400,10.841998291015624,-0.84539794921875,-0.43267822265625,-0.3547821044921875
1773257378887013000,10.85201318359375,-0.849456787109375,-0.42767333984375,-0.3554840087890625
1773257378897029400,10.862029296875,-0.8446044921875,-0.421417236328125,-0.3549041748046875
1773257378907045400,10.87204541015625,-0.8413238525390625,-0.4246978759765625,-0.35321044921875
1773257378917060400,10.882060302734375,-0.8525238037109375,-0.4328155517578125,-0.3497467041015625
1773257378927076400,10.892076416015625,-0.8513946533203125,-0.43017578125,-0.343414306640625
1773257378937092400,10.90209228515625,-0.84246826171875,-0.421142578125,-0.3420562744140625
1773257378947107300,10.912107421875,-0.8345489501953125,-0.420257568359375,-0.3399810791015625
1773257378957123300,10.922123291015625,-0.826263427734375,-0.4232940673828125,-0.34088134765625
1773257378967139300,10.932139404296874,-0.8271331787109375,-0.4287261962890625,-0.3436279296875
1773257378977154300,10.942154296875,-0.83038330078125,-0.4341583251953125,-0.3408355712890625
1773257378987170300,10.95217041015625,-0.835662841796875,-0.432159423828125,-0.3345489501953125
1773257378997186300,10.962186279296875,-0.8386688232421875,-0.42529296875,-0.3309783935546875
1773257379007201300,10.972201171875,-0.8421478271484375,-0.419891357421875,-0.3309478759765625
1773257379017217300,10.98221728515625,-0.8465728759765625,-0.4199066162109375,-0.333709716796875
1773257379027233300,10.9922333984375,-0.843963623046875,-0.4215545654296875,-0.3304443359375
1773257379037248300,11.002248291015626,-0.8352813720703125,-0.4211883544921875,-0.328094482421875
1773257379047264300,11.01226416015625,-0.837493896484375,-0.4272003173828125,-0.3331756591796875
1773257379057280500,11.022280517578125,-0.837615966796875,-0.431915283203125,-0.3348388671875
1773257379067295500,11.03229541015625,-0.8316650390625,-0.4338226318359375,-0.3343505859375
1773257379077311500,11.0423115234375,-0.827484130859375,-0.436737060546875,-0.3368072509765625
1773257379087327500,11.052327392578125,-0.8286590576171875,-0.4425048828125,-0.3389129638671875
1773257379097343500,11.062343505859374,-0.83697509765625,-0.445953369140625,-0.3365020751953125
1773257379107358500,11.0723583984375,-0.8413238525390625,-0.44427490234375,-0.3338470458984375
1773257379117374500,11.08237451171875,-0.843719482421875,-0.43878173828125,-0.332305908203125
1773257379127390500,11.092390380859374,-0.8442230224609375,-0.438934326171875,-0.33294677734375
1773257379137405400,11.102405517578125,-0.843963623046875,-0.4396820068359375,-0.333892822265625
1773257379147421400,11.11242138671875,-0.8432464599609375,-0.4372406005859375,-0.333404541015625
1773257379157437400,11.1224375,-0.8412322998046875,-0.4373931884765625,-0.3330535888671875
1773257379167452400,11.132452392578125,-0.8421783447265625,-0.4369354248046875,-0.337188720703125
1773257379177468400,11.142468505859375,-0.84454345703125,-0.4371185302734375,-0.342803955078125
1773257379187484400,11.152484375,-0.8498687744140625,-0.43963623046875,-0.3491363525390625
1773257379197499400,11.16249951171875,-0.8511199951171875,-0.443695068359375,-0.3545074462890625
1773257379207515400,11.172515380859375,-0.8513946533203125,-0.445404052734375,-0.3545074462890625
1773257379217531400,11.182531494140624,-0.859344482421875,-0.44683837890625,-0.3550872802734375
1773257379227546400,11.19254638671875,-0.8654327392578125,-0.4479827880859375,-0.353179931640625
1773257379237562400,11.202562255859375,-0.8660736083984375,-0.44659423828125,-0.349517822265625
1773257379247578400,11.212578369140624,-0.8621673583984375,-0.4477081298828125,-0.3497772216796875
1773257379257593300,11.22259326171875,-0.8641204833984375,-0.4458465576171875,-0.3531951904296875
1773257379267609300,11.232609375,-0.8553466796875,-0.4398040771484375,-0.354827880859375
1773257379277625300,11.242625244140624,-0.843719482421875,-0.435272216796875,-0.35906982421875
1773257379287640300,11.252640380859376,-0.839385986328125,-0.4349212646484375,-0.3624267578125
1773257379297656600,11.262656494140625,-0.836090087890625,-0.43341064453125,-0.3616943359375
1773257379307672600,11.272672607421875,-0.829803466796875,-0.4280548095703125,-0.3618316650390625
1773257379317687600,11.2826875,-0.8316650390625,-0.4309234619140625,-0.3533477783203125
1773257379327703600,11.29270361328125,-0.830108642578125,-0.43072509765625,-0.3440093994140625
1773257379337719600,11.302719482421875,-0.8257293701171875,-0.4251708984375,-0.3360595703125
1773257379347735300,11.3127353515625,-0.82562255859375,-0.4216156005859375,-0.324920654296875
1773257379357750500,11.32275048828125,-0.82476806640625,-0.423095703125,-0.3190155029296875
1773257379367766300,11.332766357421875,-0.8160858154296875,-0.419342041015625,-0.3148193359375
1773257379377782300,11.3427822265625,-0.806640625,-0.41448974609375,-0.3163604736328125
1773257379387797200,11.35279736328125,-0.798553466796875,-0.411712646484375,-0.3211669921875
1773257379397813200,11.362813232421875,-0.7978973388671875,-0.4066009521484375,-0.3302001953125
1773257379407829500,11.37282958984375,-0.792999267578125,-0.4027557373046875,-0.33673095703125
1773257379417844500,11.382844482421875,-0.781280517578125,-0.3964691162109375,-0.340972900390625
1773257379427860500,11.392860595703125,-0.772918701171875,-0.3902587890625,-0.3461151123046875
1773257379437876500,11.40287646484375,-0.7668914794921875,-0.3930206298828125,-0.3499908447265625
1773257379447891500,11.412891357421875,-0.76416015625,-0.3915557861328125,-0.3584747314453125
1773257379457907500,11.422907470703125,-0.75653076171875,-0.3931121826171875,-0.36517333984375
1773257379467923500,11.43292333984375,-0.7567291259765625,-0.3931121826171875,-0.3761444091796875
1773257379477938400,11.4429384765625,-0.7633056640625,-0.391937255859375,-0.3910369873046875
1773257379487954400,11.452954345703125,-0.7752685546875,-0.3913116455078125,-0.40191650390625
1773257379497970400,11.462970458984374,-0.780517578125,-0.3885955810546875,-0.400299072265625
1773257379507985400,11.4729853515625,-0.785797119140625,-0.3820953369140625,-0.3976593017578125
1773257379518001700,11.483001708984375,-0.79180908203125,-0.376953125,-0.392608642578125
1773257379528017400,11.493017333984374,-0.7943267822265625,-0.36956787109375,-0.395111083984375
1773257379538032600,11.50303271484375,-0.8062286376953125,-0.3676605224609375,-0.3984222412109375
1773257379548048400,11.51304833984375,-0.8279876708984375,-0.36956787109375,-0.399322509765625
1773257379558064400,11.523064453125,-0.8662261962890625,-0.36785888671875,-0.3827362060546875
1773257379568079400,11.533079345703126,-0.897430419921875,-0.3638458251953125,-0.3701324462890625
1773257379578095400,11.543095458984375,-0.9362335205078125,-0.3530731201171875,-0.35394287109375
1773257379588111400,11.553111328125,-0.9460601806640625,-0.3314666748046875,-0.3267364501953125
1773257379598127400,11.56312744140625,-0.9319000244140625,-0.2962799072265625,-0.2480926513671875
1773257379608142300,11.573142333984375,-0.9723663330078125,-0.2750396728515625,-0.151580810546875
1773257379618158300,11.583158447265625,-1.0426025390625,-0.2949981689453125,-0.3428192138671875
1773257379628174600,11.593174560546874,-0.97857666015625,-0.3033447265625,-0.3246612548828125
1773257379638189600,11.603189453125,-0.967437744140625,-0.311004638671875,-0.2649078369140625
1773257379648205600,11.61320556640625,-0.99578857421875,-0.306427001953125,-0.2544097900390625
1773257379658221600,11.6232216796875,-0.9967803955078125,-0.2977752685546875,-0.2205963134765625
1773257379668236500,11.633236572265625,-0.9878692626953125,-0.2858428955078125,-0.1994171142578125
1773257379678252500,11.64325244140625,-0.9683837890625,-0.2808685302734375,-0.1966094970703125
1773257379688268500,11.6532685546875,-0.9455718994140625,-0.287109375,-0.2097625732421875
1773257379698283500,11.663283447265625,-0.925079345703125,-0.2962493896484375,-0.213043212890625
1773257379708299500,11.673299560546875,-0.9044647216796875,-0.2968902587890625,-0.213836669921875
1773257379718315300,11.683315185546874,-0.89288330078125,-0.2921905517578125,-0.216217041015625
1773257379728330500,11.69333056640625,-0.892181396484375,-0.2863311767578125,-0.2163848876953125
1773257379738346200,11.70334619140625,-0.8997650146484375,-0.276763916015625,-0.2120361328125
1773257379748362500,11.713362548828124,-0.903411865234375,-0.2662353515625,-0.2000732421875
1773257379758377500,11.72337744140625,-0.9217681884765625,-0.245758056640625,-0.1941375732421875
1773257379768393500,11.7333935546875,-0.9060516357421875,-0.2384033203125,-0.2005462646484375
1773257379778409500,11.743409423828124,-0.888397216796875,-0.241546630859375,-0.2123870849609375
1773257379788424400,11.753424560546875,-0.906219482421875,-0.251434326171875,-0.2502288818359375
1773257379798440400,11.7634404296875,-0.9023590087890625,-0.2542877197265625,-0.267974853515625
1773257379808456400,11.77345654296875,-0.8909759521484375,-0.2580718994140625,-0.292694091796875
1773257379818471400,11.783471435546875,-0.8909759521484375,-0.264068603515625,-0.309051513671875
1773257379828487400,11.7934873046875,-0.8948974609375,-0.27197265625,-0.3153533935546875
1773257379838503400,11.80350341796875,-0.8950347900390625,-0.27215576171875,-0.3233489990234375
1773257379848518400,11.813518310546876,-0.8983917236328125,-0.2706756591796875,-0.3258819580078125
1773257379858534400,11.823534423828125,-0.90576171875,-0.2667083740234375,-0.32379150390625
1773257379868550700,11.833550537109375,-0.9104461669921875,-0.26318359375,-0.323333740234375
1773257379878566400,11.84356640625,-0.9249114990234375,-0.25927734375,-0.327423095703125
1773257379888581600,11.85358154296875,-0.934173583984375,-0.258453369140625,-0.3254241943359375
1773257379898597400,11.863597412109375,-0.9427490234375,-0.25701904296875,-0.32647705078125
1773257379908613400,11.87361328125,-0.9518280029296875,-0.2554168701171875,-0.330413818359375
1773257379918628400,11.88362841796875,-0.9561614990234375,-0.250335693359375,-0.3338165283203125
1773257379928644400,11.893644287109375,-0.9544219970703125,-0.2451629638671875,-0.3372650146484375
1773257379938660400,11.903660400390624,-0.9477081298828125,-0.24456787109375,-0.3424530029296875
1773257379948675300,11.91367529296875,-0.943328857421875,-0.2480926513671875,-0.3485565185546875
1773257379958691300,11.92369140625,-0.9473876953125,-0.2537078857421875,-0.354766845703125
1773257379968707300,11.933707275390624,-0.95263671875,-0.260498046875,-0.35931396484375
1773257379978722300,11.943722412109375,-0.9561614990234375,-0.263916015625,-0.3618621826171875
1773257379988738600,11.953738525390625,-0.954315185546875,-0.2623443603515625,-0.3574981689453125
1773257379998754600,11.963754638671874,-0.9594879150390625,-0.263458251953125,-0.3526458740234375
1773257380008769500,11.97376953125,-0.96337890625,-0.2624053955078125,-0.3475494384765625
1773257380018785000,11.983784912109375,-0.9615631103515625,-0.265472412109375,-0.34259033203125
1773257380028801000,11.993801025390624,-0.969085693359375,-0.2683563232421875,-0.3325347900390625
1773257380038816000,12.00381591796875,-0.971893310546875,-0.2691192626953125,-0.3170928955078125
1773257380048832000,12.01383203125,-0.9649200439453125,-0.264434814453125,-0.3047943115234375
1773257380058848000,12.023847900390624,-0.9667205810546875,-0.2641754150390625,-0.299407958984375
1773257380068863000,12.033863037109375,-0.9716949462890625,-0.266204833984375,-0.29595947265625
1773257380078879000,12.04387890625,-0.9674530029296875,-0.265472412109375,-0.2875518798828125
1773257380088894700,12.053894775390624,-0.9532470703125,-0.2598724365234375,-0.276336669921875
1773257380098910000,12.063909912109375,-0.9483489990234375,-0.259124755859375,-0.2738800048828125
1773257380108926000,12.073926025390625,-0.9458770751953125,-0.26171875,-0.2705841064453125
1773257380118942000,12.08394189453125,-0.9398040771484375,-0.2573394775390625,-0.2669830322265625
1773257380128957000,12.09395703125,-0.9365997314453125,-0.2564544677734375,-0.2650909423828125
1773257380138973000,12.103972900390625,-0.9331207275390625,-0.2575836181640625,-0.2639007568359375
1773257380148989000,12.113989013671874,-0.93218994140625,-0.25518798828125,-0.26068115234375
1773257380159004000,12.12400390625,-0.9292144775390625,-0.2507171630859375,-0.2581787109375
1773257380169020000,12.13402001953125,-0.9274139404296875,-0.2440948486328125,-0.2588348388671875
1773257380179036000,12.144035888671874,-0.9252471923828125,-0.2413787841796875,-0.2626190185546875
1773257380189052000,12.154052001953126,-0.9197845458984375,-0.2371368408203125,-0.269500732421875
1773257380199067000,12.16406689453125,-0.91314697265625,-0.235076904296875,-0.2743072509765625
1773257380209083000,12.174082763671874,-0.9082183837890625,-0.234710693359375,-0.275054931640625
1773257380219099100,12.18409912109375,-0.901580810546875,-0.2363433837890625,-0.275390625
1773257380229114000,12.194114013671875,-0.8957366943359375,-0.236175537109375,-0.2705230712890625
1773257380239130000,12.204130126953125,-0.8933868408203125,-0.237335205078125,-0.264312744140625
1773257380249146000,12.21414599609375,-0.8981475830078125,-0.2406768798828125,-0.253936767578125
1773257380259161000,12.2241611328125,-0.9037322998046875,-0.245635986328125,-0.24053955078125
1773257380269176800,12.2341767578125,-0.900604248046875,-0.243438720703125,-0.229156494140625
1773257380279192800,12.24419287109375,-0.8961029052734375,-0.2397308349609375,-0.2197418212890625
1773257380289207800,12.254207763671875,-0.8921661376953125,-0.24346923828125,-0.2177276611328125
1773257380299223800,12.264223876953125,-0.886932373046875,-0.2476806640625,-0.216094970703125
1773257380309239800,12.27423974609375,-0.88372802734375,-0.251129150390625,-0.21575927734375
1773257380319254800,12.2842548828125,-0.88336181640625,-0.254425048828125,-0.2128143310546875
1773257380329270800,12.294270751953125,-0.8782806396484375,-0.2552337646484375,-0.210784912109375
1773257380339287000,12.304287109375,-0.8775177001953125,-0.251617431640625,-0.2197113037109375
1773257380349302000,12.314302001953125,-0.885284423828125,-0.2495269775390625,-0.23077392578125
1773257380359318000,12.324318115234375,-0.8994598388671875,-0.2491912841796875,-0.2410888671875
1773257380369334000,12.334333984375,-0.9185943603515625,-0.2500762939453125,-0.2532196044921875
1773257380379349000,12.344348876953125,-0.9432373046875,-0.248138427734375,-0.248077392578125
1773257380389365000,12.354364990234375,-0.95599365234375,-0.2405242919921875,-0.2379302978515625
1773257380399381000,12.364381103515624,-0.9727325439453125,-0.2338104248046875,-0.226837158203125
1773257380409396000,12.37439599609375,-0.9914703369140625,-0.23046875,-0.215606689453125
1773257380419412000,12.384411865234375,-1.0071868896484375,-0.23388671875,-0.20269775390625
1773257380429428000,12.394427978515624,-1.0260009765625,-0.2379302978515625,-0.1860504150390625
1773257380439443000,12.40444287109375,-1.0419158935546875,-0.243682861328125,-0.1608428955078125
1773257380449459000,12.414458984375,-1.0399322509765625,-0.2445526123046875,-0.1361846923828125
1773257380459475000,12.424474853515624,-1.02740478515625,-0.2406463623046875,-0.1173095703125
1773257380469490200,12.434490234375,-1.0183258056640625,-0.2386322021484375,-0.111663818359375
1773257380479506000,12.444505859375,-1.0143890380859375,-0.2403717041015625,-0.1187286376953125
1773257380489522000,12.45452197265625,-1.005157470703125,-0.2432098388671875,-0.1335296630859375
1773257380499537000,12.464536865234376,-0.9954681396484375,-0.24468994140625,-0.142333984375
1773257380509553000,12.474552978515625,-0.9892120361328125,-0.2490692138671875,-0.14703369140625
1773257380519569000,12.48456884765625,-0.9872283935546875,-0.2536163330078125,-0.1462249755859375
1773257380529583900,12.494583984375,-0.989471435546875,-0.2579345703125,-0.13568115234375
1773257380539600000,12.504599853515625,-0.987548828125,-0.2545166015625,-0.1188812255859375
1773257380549615900,12.514615966796875,-0.984130859375,-0.2567291259765625,-0.101654052734375
1773257380559630800,12.524630859375,-0.9779205322265625,-0.26214599609375,-0.0875091552734375
1773257380569646800,12.534646728515625,-0.9725189208984375,-0.2696990966796875,-0.0779266357421875
1773257380579663000,12.5446630859375,-0.968170166015625,-0.2801666259765625,-0.0712738037109375
1773257380589678000,12.554677978515626,-0.9571685791015625,-0.293731689453125,-0.0608673095703125
1773257380599694000,12.564694091796875,-0.9414520263671875,-0.3004608154296875,-0.0507354736328125
1773257380609710000,12.5747099609375,-0.9260406494140625,-0.3032684326171875,-0.0493927001953125
1773257380619725000,12.58472509765625,-0.9216766357421875,-0.3056488037109375,-0.0574951171875
1773257380629741000,12.594740966796875,-0.915130615234375,-0.3030548095703125,-0.0676116943359375
1773257380639756800,12.6047568359375,-0.903076171875,-0.29583740234375,-0.077056884765625
1773257380649772000,12.61477197265625,-0.8966522216796875,-0.2907257080078125,-0.0871734619140625
1773257380659787800,12.624787841796875,-0.9007110595703125,-0.289398193359375,-0.1015625
1773257380669803800,12.6348037109375,-0.9134368896484375,-0.292877197265625,-0.111663818359375
1773257380679818800,12.64481884765625,-0.927093505859375,-0.29119873046875,-0.1149139404296875
1773257380689834800,12.654834716796875,-0.9351043701171875,-0.282745361328125,-0.1114349365234375
1773257380699851000,12.66485107421875,-0.9481353759765625,-0.273956298828125,-0.10357666015625
1773257380709866000,12.674865966796874,-0.96441650390625,-0.265350341796875,-0.0939483642578125
1773257380719882000,12.684882080078125,-0.9787750244140625,-0.260101318359375,-0.0909881591796875
1773257380729898000,12.69489794921875,-0.987884521484375,-0.25830078125,-0.0937347412109375
1773257380739913000,12.704912841796874,-0.9950408935546875,-0.259124755859375,-0.098052978515625
1773257380749929000,12.714928955078125,-0.999908447265625,-0.2584686279296875,-0.0977325439453125
1773257380759945000,12.724945068359375,-1.0001373291015625,-0.25146484375,-0.0943145751953125
1773257380769960000,12.7349599609375,-0.996002197265625,-0.2465057373046875,-0.0931396484375
1773257380779976000,12.744975830078126,-0.9918975830078125,-0.248870849609375,-0.09326171875
1773257380789992000,12.754991943359375,-0.9816741943359375,-0.24981689453125,-0.093719482421875
1773257380800007000,12.7650068359375,-0.969146728515625,-0.251007080078125,-0.0943603515625
1773257380810023000,12.77502294921875,-0.964141845703125,-0.2491607666015625,-0.0941314697265625
1773257380820039000,12.785038818359375,-0.9614105224609375,-0.2504425048828125,-0.0945892333984375
1773257380830054100,12.79505419921875,-0.9560546875,-0.254547119140625,-0.0906829833984375
1773257380840070000,12.80506982421875,-0.9476318359375,-0.256591796875,-0.0882720947265625
1773257380850086000,12.8150859375,-0.942657470703125,-0.259857177734375,-0.09063720703125
1773257380860100900,12.825100830078124,-0.9424896240234375,-0.2662353515625,-0.09466552734375
1773257380870116900,12.835116943359376,-0.9464874267578125,-0.2691650390625,-0.09222412109375
1773257380880132900,12.8451328125,-0.9492645263671875,-0.271331787109375,-0.087921142578125
1773257380890147800,12.85514794921875,-0.9561309814453125,-0.274505615234375,-0.083251953125
1773257380900163800,12.865163818359376,-0.959930419921875,-0.2747955322265625,-0.077545166015625
1773257380910179800,12.875179931640625,-0.9549407958984375,-0.271759033203125,-0.0770416259765625
1773257380920194800,12.88519482421875,-0.947784423828125,-0.2694854736328125,-0.0737762451171875
