time,seconds_elapsed,z,y,x
1773257624541727700,0.060727783203125,-0.13810381293296814,0.05358586460351944,-0.06907910108566284
1773257624551742700,0.07074267578125,-0.12582263350486755,0.06399029493331909,-0.05212835595011711
1773257624561757400,0.08075732421875,-0.11889910697937012,0.039605189114809036,-0.04287766292691231
1773257624571773700,0.090773681640625,-0.1198839470744133,0.008114375174045563,-0.042916275560855865
1773257624581788700,0.10078857421875,-0.11940405517816544,-0.012476444244384766,-0.039392415434122086
1773257624591804700,0.1108046875,-0.10992879420518875,-0.02845354564487934,-0.021468278020620346
1773257624601819600,0.120819580078125,-0.10482997447252274,-0.04978953301906586,0.006940294988453388
1773257624611835600,0.130835693359375,-0.1203058660030365,-0.06973634660243988,0.03355885669589043
1773257624621850600,0.1408505859375,-0.13078099489212036,-0.06984033435583115,0.056088730692863464
1773257624631866600,0.15086669921875,-0.126663476228714,-0.05239849165081978,0.07482513785362244
1773257624641881600,0.160881591796875,-0.12167806923389435,-0.043340012431144714,0.08563091605901718
1773257624651896800,0.170896728515625,-0.10640484094619751,-0.03896630182862282,0.08417416363954544
1773257624661912600,0.18091259765625,-0.08943236619234085,-0.04771585389971733,0.06772607564926147
1773257624671927800,0.190927734375,-0.0822647362947464,-0.07291681319475174,0.03228180482983589
1773257624681943600,0.200943603515625,-0.07959455251693726,-0.08174192905426025,-0.0073184366337955
1773257624691958800,0.210958740234375,-0.08372671157121658,-0.07013214379549026,-0.037631865590810776
1773257624701974500,0.220974609375,-0.0861629843711853,-0.0554279126226902,-0.04918139800429344
1773257624711989800,0.23098974609375,-0.09131806343793869,-0.051847558468580246,-0.04194638878107071
1773257624722004700,0.241004638671875,-0.11260023713111877,-0.07247579842805862,-0.02802734449505806
1773257624732020700,0.251020751953125,-0.13597320020198822,-0.10178575664758682,-0.026370059698820114
1773257624742035700,0.26103564453125,-0.14811241626739502,-0.12124467641115189,-0.03656357526779175
1773257624752051700,0.2710517578125,-0.15198704600334167,-0.13757996261119843,-0.06256374716758728
1773257624762066700,0.281066650390625,-0.15232951939105988,-0.13178153336048126,-0.08969873189926147
1773257624772082700,0.291082763671875,-0.15109939873218536,-0.10856489837169647,-0.10170160233974457
1773257624782097700,0.30109765625,-0.16109509766101837,-0.07937604188919067,-0.09945093095302582
1773257624792113700,0.31111376953125,-0.16952747106552124,-0.034692198038101196,-0.07695280760526657
1773257624802129000,0.32112890625,-0.17523148655891418,0.019123023375868797,-0.03591472655534744
1773257624812143600,0.3311435546875,-0.17874792218208313,0.07588057965040207,0.008141412399709225
1773257624822160000,0.341159912109375,-0.197166308760643,0.11049048602581024,0.03572350740432739
1773257624832174800,0.3511748046875,-0.22347036004066467,0.09821464121341705,0.048263534903526306
1773257624842190800,0.36119091796875,-0.2629585266113281,0.07197286188602448,0.05933811888098717
1773257624852205800,0.371205810546875,-0.3035658597946167,0.08636724203824997,0.071749247610569
1773257624862221800,0.381221923828125,-0.33308523893356323,0.10636097192764282,0.08056581765413284
1773257624872236800,0.39123681640625,-0.35544538497924805,0.10378969460725784,0.07164795696735382
1773257624882251800,0.401251708984375,-0.3764152228832245,0.09647199511528015,0.040046948939561844
1773257624892267800,0.411267822265625,-0.4107620120048523,0.08780819922685623,0.0012931636301800609
1773257624902282800,0.42128271484375,-0.4448281228542328,0.14075104892253876,-0.023717382922768593
1773257624912298800,0.431298828125,-0.46890151500701904,0.24960483610630035,-0.04839130491018295
1773257624922313700,0.441313720703125,-0.49448683857917786,0.37267276644706726,-0.08978292346000671
1773257624932329700,0.451329833984375,-0.5177202224731445,0.49985361099243164,-0.1282980889081955
1773257624942344700,0.4613447265625,-0.531295120716095,0.6487948298454285,-0.14908914268016815
1773257624952360700,0.471360595703125,-0.5512560606002808,0.7821483612060547,-0.15946722030639648
1773257624962375700,0.481375732421875,-0.6150254607200623,0.8490691184997559,-0.17626269161701202
1773257624972390700,0.491390625,-0.7325118780136108,0.8789184093475342,-0.16339616477489471
1773257624982406700,0.50140673828125,-0.8773800134658813,1.0014728307724,-0.09907931834459305
1773257624992421600,0.511421630859375,-1.005695104598999,1.1797504425048828,-0.0008014818886294961
1773257625002437600,0.521437744140625,-1.100655198097229,1.2943378686904907,0.11891459673643112
1773257625012452600,0.53145263671875,-1.170442819595337,1.2811216115951538,0.24028976261615753
1773257625022468600,0.541468505859375,-1.2097398042678833,1.1108354330062866,0.3510963022708893
1773257625032483600,0.551483642578125,-1.2605435848236084,0.9225947260856628,0.4627634286880493
1773257625042498600,0.56149853515625,-1.322350263595581,0.7427271008491516,0.5527124404907227
1773257625052514800,0.571514892578125,-1.3553824424743652,0.5091100931167603,0.6222243905067444
1773257625062529500,0.581529541015625,-1.2796273231506348,0.09675821661949158,0.652233362197876
1773257625072545800,0.5915458984375,-1.368308424949646,-0.14485786855220795,0.5963035225868225
1773257625082560800,0.601560791015625,-1.4144271612167358,-0.4522554278373718,0.5843660831451416
1773257625092576800,0.61157666015625,-1.2922269105911255,-1.099270224571228,0.5807665586471558
1773257625102591700,0.621591796875,-1.3735405206680298,-1.629868507385254,0.4111067056655884
1773257625112607700,0.631607666015625,-1.4340635538101196,-2.289224147796631,0.28968626260757446
1773257625122622700,0.641622802734375,-1.4680951833724976,-2.8231992721557617,0.15616098046302795
1773257625132637700,0.6516376953125,-1.4643255472183228,-2.995500326156616,-0.0012238580966368318
1773257625142653700,0.66165380859375,-1.4063076972961426,-2.796727180480957,-0.16854268312454224
1773257625152668700,0.671668701171875,-1.296679139137268,-2.4202144145965576,-0.2974095642566681
1773257625162684700,0.6816845703125,-1.201515555381775,-2.0494561195373535,-0.4031640589237213
1773257625172699600,0.69169970703125,-1.201655626296997,-1.7192786931991577,-0.5298996567726135
1773257625182715600,0.701715576171875,-1.2309937477111816,-1.348476529121399,-0.7011722326278687
1773257625192730600,0.711730712890625,-1.1999213695526123,-0.8962762951850891,-0.8162205219268799
1773257625202746600,0.72174658203125,-1.0881813764572144,-0.4316829741001129,-0.7721703052520752
1773257625212761600,0.73176171875,-0.9564979672431946,0.03789622336626053,-0.5950722098350525
1773257625222776600,0.741776611328125,-0.8609899282455444,0.05304490402340889,-0.38366755843162537
1773257625232792600,0.75179248046875,-0.820153534412384,-0.26470187306404114,-0.07968638092279434
1773257625242807600,0.7618076171875,-0.8082963228225708,-0.3761610686779022,0.28151312470436096
1773257625252823600,0.771823486328125,-0.7747676968574524,-0.3419700860977173,0.5110418796539307
1773257625262838500,0.781838623046875,-0.6489154696464539,-0.20135191082954407,0.5609362721443176
1773257625272854500,0.7918544921875,-0.4810604453086853,-0.12144135683774948,0.48727428913116455
1773257625282869500,0.801869384765625,-0.25513800978660583,-0.03100912645459175,0.33089256286621094
1773257625292884500,0.811884521484375,-0.05357931926846504,0.04392476752400398,0.13461200892925262
1773257625302900500,0.821900390625,0.040141887962818146,0.10748018324375153,-0.06695473194122314
1773257625312915500,0.83191552734375,0.035085875540971756,0.22619697451591492,-0.24274760484695435
1773257625322931500,0.841931396484375,-0.08068858832120895,0.3200330436229706,-0.3961404263973236
1773257625332946400,0.851946533203125,-0.2940184473991394,0.31098631024360657,-0.5194149613380432
1773257625342962700,0.861962646484375,-0.5065746307373047,0.25028955936431885,-0.5923483371734619
1773257625352977700,0.871977783203125,-0.5829772353172302,0.17875249683856964,-0.5824397802352905
1773257625362993700,0.88199365234375,-0.3072449862957001,0.1682785004377365,-0.46251794695854187
1773257625373008600,0.892008544921875,0.07576416432857513,0.20294512808322906,-0.3399451673030853
1773257625383023600,0.902023681640625,0.26713940501213074,0.20489880442619324,-0.24009113013744354
1773257625393039600,0.91203955078125,0.3095230758190155,0.18971319496631622,-0.11231505870819092
1773257625403054600,0.9220546875,0.24889612197875977,0.15622329711914062,0.01967206783592701
1773257625413070600,0.932070556640625,0.12504872679710388,0.010887134820222855,0.041844479739665985
1773257625423085600,0.94208544921875,0.014535646885633469,-0.20545703172683716,-0.11812660843133926
1773257625433101600,0.9521015625,0.00356422271579504,-0.39574310183525085,-0.4163958430290222
1773257625443116500,0.962116455078125,0.05639350414276123,-0.5106090903282166,-0.7751853466033936
1773257625453131800,0.9721318359375,0.12423887103796005,-0.4953954815864563,-1.103738784790039
1773257625463147500,0.9821474609375,0.20507730543613434,-0.3627813458442688,-1.3476449251174927
1773257625473162800,0.992162841796875,0.2569085657596588,-0.2730458676815033,-1.4864493608474731
1773257625483178500,1.002178466796875,0.2590203583240509,-0.27066874504089355,-1.5186349153518677
1773257625493193700,1.01219384765625,0.25368738174438477,-0.398931622505188,-1.4595422744750977
1773257625503209500,1.02220947265625,0.2893258035182953,-0.6660007238388062,-1.3276478052139282
1773257625513224700,1.032224609375,0.28741177916526794,-0.9564056396484375,-1.1210263967514038
1773257625523240400,1.042240478515625,0.26483070850372314,-1.1954352855682373,-0.8414262533187866
1773257625533255700,1.052255615234375,0.2554539740085602,-1.352224349975586,-0.5558304786682129
1773257625543270700,1.062270751953125,0.24785147607326508,-1.3339916467666626,-0.31856098771095276
1773257625553286700,1.07228662109375,0.2569933235645294,-1.160471796989441,-0.17625868320465088
1773257625563301600,1.082301513671875,0.28268274664878845,-0.8974016308784485,-0.14046050608158112
1773257625573317600,1.092317626953125,0.29550987482070923,-0.6282138228416443,-0.18377283215522766
1773257625583332600,1.10233251953125,0.2914366126060486,-0.41380223631858826,-0.2553706169128418
1773257625593348900,1.112348876953125,0.2782422602176666,-0.2529800832271576,-0.3004232943058014
1773257625603363800,1.12236376953125,0.25748997926712036,-0.11236768960952759,-0.29723650217056274
1773257625613378600,1.132378662109375,0.22253598272800446,0.005484116729348898,-0.2541513442993164
1773257625623394800,1.142394775390625,0.1787053942680359,0.10902906209230423,-0.19238562881946564
1773257625633409800,1.152409912109375,0.1423007845878601,0.19356712698936462,-0.12515519559383392
1773257625643425800,1.16242578125,0.11878486722707748,0.25208577513694763,-0.056252989917993546
1773257625653440800,1.172440673828125,0.09935098141431808,0.2636452317237854,0.012157759629189968
1773257625663456800,1.182456787109375,0.08765344321727753,0.2515431046485901,0.0840718001127243
1773257625673471700,1.1924716796875,0.08527018129825592,0.2061585634946823,0.16463987529277802
1773257625683487700,1.20248779296875,0.13246336579322815,0.1153213381767273,0.2080085277557373
1773257625693502700,1.212502685546875,0.16141459345817566,0.13304173946380615,0.26311758160591125
1773257625703517700,1.222517578125,0.15713468194007874,0.15637001395225525,0.2843342423439026
1773257625713533700,1.23253369140625,0.15536874532699585,0.008372833020985126,0.255280464887619
1773257625723548700,1.242548583984375,0.1625552773475647,-0.12500417232513428,0.21559228003025055
1773257625733564700,1.252564697265625,0.1457773745059967,-0.20970652997493744,0.17466774582862854
1773257625743579600,1.26257958984375,0.13725645840168,-0.15186868607997894,0.13752217590808868
1773257625753595600,1.272595703125,0.1565241515636444,-0.092661552131176,0.10528220981359482
1773257625763610600,1.282610595703125,0.17231659591197968,-0.04060939699411392,0.09402109682559967
1773257625773625600,1.29262548828125,0.1915275752544403,-0.06808922439813614,0.09442270547151566
1773257625783641600,1.3026416015625,0.262244313955307,-0.11800386756658554,0.13265646994113922
1773257625793656600,1.312656494140625,0.2639399468898773,-0.059481170028448105,0.23051778972148895
1773257625803672600,1.322672607421875,0.3526991009712219,0.05145586282014847,0.3962184190750122
1773257625813687600,1.3326875,0.4320370554924011,0.1667638123035431,0.5646103024482727
1773257625823703600,1.34270361328125,0.44892221689224243,0.21750348806381226,0.7380149364471436
1773257625833718500,1.352718505859375,0.4392608106136322,0.2386103719472885,0.8950676918029785
1773257625843734800,1.36273486328125,0.43090325593948364,0.2811695635318756,1.0224697589874268
1773257625853749800,1.372749755859375,0.42541927099227905,0.3529931604862213,1.1086736917495728
1773257625863764500,1.382764404296875,0.4366360902786255,0.39285188913345337,1.1337347030639648
1773257625873780700,1.39278076171875,0.4492855668067932,0.4048675298690796,1.1072287559509277
1773257625883795700,1.402795654296875,0.43583232164382935,0.4396106004714966,1.047946572303772
1773257625893811700,1.412811767578125,0.4048452079296112,0.523381769657135,0.9687047600746155
1773257625903826700,1.42282666015625,0.38182008266448975,0.6283319592475891,0.8690119385719299
1773257625913842700,1.4328427734375,0.3763984143733978,0.7187225818634033,0.7493380308151245
1773257625923857700,1.442857666015625,0.3797418177127838,0.7949985861778259,0.6212412118911743
1773257625933873700,1.452873779296875,0.3964044153690338,0.8359856605529785,0.5156596302986145
1773257625943888600,1.462888671875,0.39558905363082886,0.8165524005889893,0.44873592257499695
1773257625953903600,1.472903564453125,0.389408677816391,0.7046535611152649,0.43562012910842896
1773257625963919600,1.482919677734375,0.3787398636341095,0.5597085952758789,0.4528266489505768
1773257625973934600,1.4929345703125,0.4030609130859375,0.44948166608810425,0.4822540283203125
1773257625983950600,1.50295068359375,0.4498961865901947,0.407114714384079,0.5038633346557617
1773257625993965600,1.512965576171875,0.504227876663208,0.379546195268631,0.509827733039856
1773257626003981600,1.522981689453125,0.553615927696228,0.31361690163612366,0.5086871385574341
1773257626013996500,1.53299658203125,0.5951985120773315,0.25710517168045044,0.5208985805511475
1773257626024012500,1.543012451171875,0.6123331785202026,0.21081863343715668,0.5510646104812622
1773257626034027500,1.553027587890625,0.6160029768943787,0.1665094941854477,0.5758703351020813
1773257626044042500,1.56304248046875,0.622683048248291,0.14710962772369385,0.5955502986907959
1773257626054058500,1.57305859375,0.6281046867370605,0.16750091314315796,0.6226170659065247
1773257626064073500,1.583073486328125,0.6308062076568604,0.15495683252811432,0.6654171943664551
1773257626074089500,1.59308935546875,0.6089099645614624,0.0958373174071312,0.7223342657089233
1773257626084104400,1.6031044921875,0.6649687886238098,0.11386579275131226,0.8170040249824524
1773257626094120700,1.61312060546875,0.7546557784080505,0.18823455274105072,0.913182258605957
1773257626104135700,1.6231357421875,0.7969746589660645,0.2818887531757355,1.0032281875610352
1773257626114151700,1.633151611328125,0.8697958588600159,0.35579386353492737,1.078547477722168
1773257626124166700,1.643166748046875,0.925623893737793,0.3756626546382904,1.1415066719055176
1773257626134181600,1.653181640625,0.9180780649185181,0.27148884534835815,1.1739826202392578
1773257626144197600,1.66319775390625,0.8027529120445251,0.08835124224424362,1.1099156141281128
1773257626154212600,1.673212646484375,0.7158121466636658,0.043055396527051926,0.9163293242454529
1773257626164228600,1.683228515625,0.7153723835945129,0.16160501539707184,0.6175891160964966
1773257626174243600,1.69324365234375,0.7767521142959595,0.255905419588089,0.2696727216243744
1773257626184259600,1.703259521484375,0.8006078600883484,0.2756357192993164,-0.0024898266419768333
1773257626194274600,1.713274658203125,0.7999716401100159,0.23504061996936798,-0.14165890216827393
1773257626204289800,1.723289794921875,0.7882856130599976,0.18544836342334747,-0.154235377907753
1773257626214305500,1.733305419921875,0.7722392678260803,0.10272552073001862,-0.09402982890605927
1773257626224320800,1.74332080078125,0.7848027348518372,-0.028871921822428703,0.005307409912347794
1773257626234336500,1.75333642578125,0.7764710783958435,-0.18218185007572174,0.11568957567214966
1773257626244351700,1.763351806640625,0.7051801681518555,-0.3531814217567444,0.24108844995498657
1773257626254367500,1.773367431640625,0.6359955072402954,-0.49468687176704407,0.3857886493206024
1773257626264383000,1.783383056640625,0.5611958503723145,-0.6056296825408936,0.49808216094970703
1773257626274399000,1.79339892578125,0.45987245440483093,-0.6598292589187622,0.506695568561554
1773257626284414000,1.8034140625,0.31275299191474915,-0.5599323511123657,0.3687882721424103
1773257626294429200,1.81342919921875,0.13476382195949554,-0.37581709027290344,0.1012258231639862
1773257626304445000,1.82344482421875,-0.036353450268507004,-0.30135059356689453,-0.2650332450866699
1773257626314460200,1.833460205078125,-0.24712029099464417,-0.014704165980219841,-0.6148884892463684
1773257626324476000,1.843475830078125,-0.38237056136131287,0.14713598787784576,-0.92031329870224
1773257626334491100,1.8534912109375,-0.36733517050743103,0.1759473979473114,-1.0751254558563232
1773257626344507000,1.8635068359375,-0.2810651659965515,0.2968207895755768,-1.0163459777832031
1773257626354522000,1.873522216796875,-0.1627744883298874,0.3111723065376282,-0.7965220212936401
1773257626364537900,1.883537841796875,-0.06182491034269333,0.15787385404109955,-0.48286980390548706
1773257626374553000,1.893552978515625,-0.0478220097720623,-0.041358813643455505,-0.15746453404426575
1773257626384568000,1.903568115234375,-0.10847305506467819,-0.2402043342590332,0.09237616509199142
1773257626394584000,1.913583984375,-0.1894989162683487,-0.43350961804389954,0.23200729489326477
1773257626404599000,1.92359912109375,-0.25963294506073,-0.5439279079437256,0.2572824954986572
1773257626414615000,1.933614990234375,-0.301247239112854,-0.5432506799697876,0.1960175335407257
1773257626424630300,1.94363037109375,-0.2920272648334503,-0.49471378326416016,0.08295873552560806
1773257626434646000,1.95364599609375,-0.25921180844306946,-0.37238600850105286,-0.0331345833837986
1773257626444661200,1.9636611328125,-0.21793413162231445,-0.22162039577960968,-0.12876759469509125
1773257626454677000,1.973677001953125,-0.1573011577129364,-0.15860387682914734,-0.22115318477153778
1773257626464692200,1.983692138671875,-0.15893173217773438,-0.13783156871795654,-0.29281967878341675
1773257626474707200,1.993707275390625,-0.255643367767334,-0.2750682234764099,-0.3239285945892334
1773257626484723200,2.00372314453125,-0.414045512676239,-0.5778407454490662,-0.3609974980354309
1773257626494738200,2.01373828125,-0.6060996651649475,-0.7646620273590088,-0.381947785615921
1773257626504754200,2.023754150390625,-0.701454222202301,-0.9181300401687622,-0.380513995885849
1773257626514769200,2.03376904296875,-0.734102189540863,-0.9729411005973816,-0.35192015767097473
1773257626524785200,2.04378515625,-0.723349928855896,-0.902952253818512,-0.30034518241882324
1773257626534800100,2.053800048828125,-0.6678536534309387,-0.8054949641227722,-0.22924676537513733
1773257626544816000,2.063816162109375,-0.5995044708251953,-0.7151849865913391,-0.17466086149215698
1773257626554831000,2.0738310546875,-0.5849511027336121,-0.5849177837371826,-0.13956892490386963
1773257626564846000,2.08384619140625,-0.6595777273178101,-0.4723130762577057,-0.13054512441158295
1773257626574862000,2.093862060546875,-0.7787600755691528,-0.41169899702072144,-0.12875016033649445
1773257626584877000,2.103876953125,-0.9036107063293457,-0.3752948045730591,-0.0935237929224968
1773257626594893000,2.11389306640625,-0.9911839962005615,-0.35275009274482727,-0.039242710918188095
1773257626604908000,2.123907958984375,-1.0224082469940186,-0.3616679310798645,0.023880062624812126
1773257626614924000,2.133924072265625,-1.0094664096832275,-0.4108160436153412,0.09726160019636154
1773257626624939000,2.14393896484375,-0.9669666886329651,-0.48505720496177673,0.1664673089981079
1773257626634955300,2.153955322265625,-0.9069811105728149,-0.5420230627059937,0.22164320945739746
1773257626644970000,2.163969970703125,-0.8274774551391602,-0.5060763955116272,0.265603244304657
1773257626654985000,2.17398486328125,-0.7443114519119263,-0.3242730498313904,0.26473185420036316
1773257626665001200,2.184001220703125,-0.6674423813819885,-0.2024066299200058,0.23917865753173828
1773257626675016200,2.19401611328125,-0.5851091146469116,-0.17502054572105408,0.1970439851284027
1773257626685032200,2.2040322265625,-0.48114854097366333,-0.20554615557193756,0.09128443896770477
1773257626695047200,2.214047119140625,-0.4023940861225128,0.03448775038123131,0.0454663522541523
1773257626705063200,2.224063232421875,-0.32042762637138367,0.20692850649356842,0.02754034847021103
1773257626715078100,2.234078125,-0.19939227402210236,0.18238668143749237,0.04006173461675644
1773257626725094100,2.24409423828125,0.0023923327680677176,0.27193766832351685,0.045688092708587646
1773257626735109000,2.254109130859375,0.2257644385099411,0.5101978778839111,0.04187524691224098
1773257626745124000,2.2641240234375,0.41188332438468933,0.6191012859344482,0.02517871931195259
1773257626755140000,2.27414013671875,0.5607263445854187,0.6399431824684143,0.02125721424818039
1773257626765155000,2.284155029296875,0.6188191175460815,0.672231137752533,0.008040516637265682
1773257626775171000,2.294171142578125,0.5528608560562134,0.6451817154884338,-0.05281643941998482
1773257626785186000,2.30418603515625,0.3858378529548645,0.7246098518371582,-0.14284943044185638
1773257626795202000,2.3142021484375,0.17150159180164337,0.8238743543624878,-0.25808948278427124
1773257626805217000,2.324217041015625,-0.026079902425408363,0.8759121894836426,-0.3873143494129181
1773257626815233000,2.33423291015625,-0.16323243081569672,0.9001531600952148,-0.4905531108379364
1773257626825248000,2.344248046875,-0.21109236776828766,0.9664980173110962,-0.5562849640846252
1773257626835264000,2.354263916015625,-0.19422444701194763,1.1449798345565796,-0.5517613291740417
1773257626845279000,2.364279052734375,-0.1543324887752533,1.3790644407272339,-0.47057268023490906
1773257626855294000,2.3742939453125,-0.13838841021060944,1.4043889045715332,-0.40172383189201355
1773257626865310000,2.38431005859375,-0.1515871286392212,1.099822759628296,-0.4042796194553375
1773257626875325000,2.394324951171875,-0.1907728910446167,0.5775883197784424,-0.4918723404407501
1773257626885341200,2.404341064453125,-0.25285452604293823,-0.019317615777254105,-0.6030926704406738
1773257626895356000,2.41435595703125,-0.33935773372650146,-0.636022686958313,-0.7096471190452576
1773257626905372200,2.4243720703125,-0.4714715778827667,-0.869418740272522,-0.7328653931617737
1773257626915387100,2.43438720703125,-0.5857856273651123,-0.5859505534172058,-0.6377434134483337
1773257626925403100,2.444403076171875,-0.5821223855018616,-0.009655940346419811,-0.45739009976387024
1773257626935418000,2.454418212890625,-0.4844658374786377,0.6531952619552612,-0.23023071885108948
1773257626945433000,2.46443310546875,-0.3241925835609436,1.3052213191986084,-0.006633003242313862
1773257626955449000,2.474448974609375,-0.1290595680475235,1.7088665962219238,0.15239845216274261
1773257626965464000,2.484464111328125,0.05078722536563873,1.867984414100647,0.27095848321914673
1773257626975480000,2.49447998046875,0.19134406745433807,1.846532940864563,0.4079397916793823
1773257626985495000,2.5044951171875,0.29577764868736267,1.5545727014541626,0.5270410776138306
1773257626995511000,2.514510986328125,0.3739749789237976,1.191246747970581,0.6329576969146729
1773257627005526000,2.524526123046875,0.44506365060806274,0.8323535919189453,0.7120798826217651
1773257627015542000,2.5345419921875,0.4802200496196747,0.5499836206436157,0.7550145387649536
1773257627025557000,2.544556884765625,0.47313591837882996,0.4322451055049896,0.7474930286407471
1773257627035573000,2.554572998046875,0.43875131011009216,0.5185410976409912,0.6884390115737915
1773257627045588000,2.564587890625,0.41300350427627563,0.7769341468811035,0.5906107425689697
1773257627055603000,2.57460302734375,0.4317771792411804,1.1649596691131592,0.519743800163269
1773257627065619000,2.584618896484375,0.5073610544204712,1.6546390056610107,0.48292842507362366
1773257627075634000,2.594634033203125,0.5942535996437073,2.166738510131836,0.479540079832077
1773257627085650000,2.60464990234375,0.6037758588790894,2.628929376602173,0.47650766372680664
1773257627095665000,2.614664794921875,0.5185320973396301,3.1206414699554443,0.4538617432117462
1773257627105681000,2.624680908203125,0.4187465012073517,3.6312363147735596,0.37592339515686035
1773257627115695900,2.63469580078125,0.36264434456825256,3.8915767669677734,0.2888534963130951
1773257627125712100,2.644712158203125,0.3366543650627136,3.69742751121521,0.2339097559452057
1773257627135727000,2.65472705078125,0.3851766288280487,2.7011821269989014,0.17754529416561127
1773257627145743000,2.6647431640625,0.5392087697982788,1.273699164390564,0.21163615584373474
1773257627155758000,2.674758056640625,0.8142634630203247,0.5107294321060181,0.4145306646823883
1773257627165773000,2.68477294921875,1.1206392049789429,0.08620148152112961,0.6976784467697144
1773257627175789000,2.6947890625,1.3998935222625732,-0.6040720343589783,0.9765591025352478
1773257627185804000,2.704803955078125,1.491185188293457,-1.5045403242111206,1.2803058624267578
1773257627195820000,2.714820068359375,1.2994602918624878,-2.0972135066986084,1.6215834617614746
1773257627205835000,2.7248349609375,0.9850463271141052,-2.2721610069274902,1.8957452774047852
1773257627215851000,2.73485107421875,0.6697847843170166,-2.251695394515991,2.0061287879943848
1773257627225866000,2.744865966796875,0.3761986196041107,-2.1725573539733887,1.947598934173584
1773257627235882000,2.754882080078125,0.1663181036710739,-1.8922182321548462,1.800238013267517
1773257627245897000,2.76489697265625,0.08200995624065399,-1.6685882806777954,1.6325956583023071
1773257627255913000,2.774912841796875,0.10969831049442291,-1.5522412061691284,1.5152772665023804
1773257627265927400,2.784927490234375,0.20993712544441223,-1.4321043491363525,1.4508696794509888
1773257627275942400,2.7949423828125,0.28088507056236267,-1.413287878036499,1.42613685131073
1773257627285958400,2.80495849609375,0.31901469826698303,-1.445581316947937,1.4508517980575562
1773257627295973400,2.814973388671875,0.26499566435813904,-1.596060872077942,1.5965615510940552
1773257627305989400,2.8249892578125,0.09855499863624573,-1.4350184202194214,1.8777804374694824
1773257627316004400,2.83500439453125,-0.12771275639533997,-1.319998025894165,2.150871515274048
1773257627326020400,2.845020263671875,-0.27904370427131653,-1.2373775243759155,2.3438479900360107
1773257627336035600,2.85503564453125,-0.32178905606269836,-1.2200767993927002,2.4615678787231445
1773257627346051300,2.86505126953125,-0.28138449788093567,-0.8847789764404297,2.3583219051361084
1773257627356066600,2.875066650390625,-0.14824669063091278,-1.4294170141220093,2.018413543701172
1773257627366082300,2.885082275390625,0.15837733447551727,-1.396512508392334,1.816225528717041
1773257627376097500,2.89509765625,0.5314230918884277,-1.3362617492675781,1.7955989837646484
1773257627386113300,2.90511328125,0.7473102807998657,-0.827502429485321,1.9229354858398438
1773257627396128500,2.91512841796875,0.7120012640953064,-0.5937972664833069,1.8296815156936646
1773257627406144300,2.925144287109375,0.648903489112854,-0.890667736530304,1.5218350887298584
1773257627416159500,2.935159423828125,0.6777740120887756,-1.103711485862732,1.2885404825210571
1773257627426174500,2.945174560546875,0.668449342250824,-1.3509620428085327,1.0999200344085693
1773257627436190500,2.9551904296875,0.647819459438324,-1.4815219640731812,0.937258243560791
1773257627446205400,2.965205322265625,0.662885308265686,-1.6422359943389893,0.8191105723381042
1773257627456221400,2.975221435546875,0.6938490867614746,-1.5347806215286255,0.7231264710426331
1773257627466236400,2.985236328125,0.6870971918106079,-1.475326657295227,0.5737532377243042
1773257627476252400,2.99525244140625,0.6187215447425842,-1.3433270454406738,0.3327848017215729
1773257627486267400,3.005267333984375,0.42613115906715393,-1.2024437189102173,0.024092931300401688
1773257627496283400,3.015283447265625,0.15285085141658783,-1.0265547037124634,-0.2968936264514923
1773257627506298400,3.02529833984375,-0.078490249812603,-0.8950421214103699,-0.5379260778427124
1773257627516314400,3.035314453125,-0.30414414405822754,-0.6147508025169373,-0.6772922277450562
1773257627526329300,3.045329345703125,-0.5084514617919922,-0.3156143128871918,-0.7706032991409302
1773257627536970500,3.055970458984375,-0.6342341303825378,0.03749845549464226,-0.8590170741081238
1773257627546985500,3.0659853515625,-0.6367809176445007,0.31248342990875244,-0.9341523051261902
1773257627557001500,3.07600146484375,-0.5569422841072083,0.43124088644981384,-0.984527051448822
1773257627567016400,3.086016357421875,-0.4474036395549774,0.4131309986114502,-0.9785711169242859
1773257627577032400,3.096032470703125,-0.32319381833076477,0.22908447682857513,-0.9035282731056213
1773257627587047400,3.10604736328125,-0.15175023674964905,0.012741852551698685,-0.8092392683029175
1773257627597063400,3.1160634765625,0.06033673137426376,-0.1946563422679901,-0.6866425275802612
1773257627607078400,3.126078369140625,0.2563251852989197,-0.45445963740348816,-0.5469346642494202
1773257627617094400,3.136094482421875,0.35645389556884766,-0.6657343506813049,-0.41078564524650574
1773257627627109400,3.146109375,0.33715999126434326,-0.8624905347824097,-0.3218260705471039
1773257627637125400,3.15612548828125,0.2491089254617691,-1.0997267961502075,-0.285170316696167
1773257627647140400,3.166140380859375,0.10423650592565536,-1.2125813961029053,-0.27363812923431396
1773257627657156400,3.17615625,-0.09216470271348953,-1.2206089496612549,-0.2903055250644684
1773257627667171600,3.186171630859375,-0.24587543308734894,-1.2599507570266724,-0.3277626037597656
1773257627677186600,3.1961865234375,-0.3210412859916687,-1.2606709003448486,-0.35157445073127747
1773257627687202600,3.20620263671875,-0.3014126718044281,-1.2900282144546509,-0.30910181999206543
1773257627697217500,3.216217529296875,-0.1837262660264969,-1.176831841468811,-0.18756075203418732
1773257627707233500,3.226233642578125,-0.040481049567461014,-0.995394229888916,-0.13384349644184113
1773257627717248500,3.23624853515625,0.08684360980987549,-0.9565778970718384,-0.17378665506839752
1773257627727264500,3.246264404296875,0.23717154562473297,-0.926561176776886,-0.21819503605365753
1773257627737279500,3.256279541015625,0.4195576012134552,-0.8923568725585938,-0.2306506335735321
1773257627747295500,3.26629541015625,0.5922521948814392,-0.8778806328773499,-0.2340296357870102
1773257627757310500,3.276310546875,0.7061941623687744,-0.8890076279640198,-0.20637616515159607
1773257627767326500,3.286326416015625,0.7502593994140625,-0.8554567694664001,-0.12491441518068314
1773257627777341400,3.296341552734375,0.721897542476654,-0.7042694091796875,-0.031414300203323364
1773257627787357400,3.306357421875,0.6501998901367188,-0.54465651512146,-0.0037011485546827316
1773257627797372400,3.316372314453125,0.5524813532829285,-0.3722860515117645,-0.06361588090658188
1773257627807388400,3.326388427734375,0.44172385334968567,-0.24302007257938385,-0.19976966083049774
1773257627817403400,3.3364033203125,0.340374618768692,-0.19417184591293335,-0.36847934126853943
1773257627827418400,3.34641845703125,0.24827153980731964,-0.25889718532562256,-0.5274233818054199
1773257627837434400,3.356434326171875,0.17722877860069275,-0.3935319483280182,-0.617457926273346
1773257627847449300,3.366449462890625,0.11652494221925735,-0.5537360906600952,-0.6483950614929199
1773257627857465300,3.37646533203125,0.040164656937122345,-0.7532342672348022,-0.6484347581863403
1773257627867480300,3.386480224609375,-0.029651040211319923,-0.9666211605072021,-0.5859992504119873
1773257627877496600,3.39649658203125,-0.09343668073415756,-1.0379451513290405,-0.4928828775882721
1773257627887511600,3.406511474609375,-0.14953789114952087,-1.0418199300765991,-0.45787253975868225
1773257627897527600,3.416527587890625,-0.19399936497211456,-0.9843073487281799,-0.49262410402297974
1773257627907542500,3.42654248046875,-0.22429239749908447,-0.8659781217575073,-0.5657551884651184
1773257627917558500,3.43655859375,-0.23742178082466125,-0.7306708693504333,-0.6470170021057129
1773257627927573500,3.446573486328125,-0.24261252582073212,-0.6362940669059753,-0.7058632969856262
1773257627937589500,3.456589599609375,-0.24759556353092194,-0.6033419966697693,-0.7331522107124329
1773257627947604500,3.4666044921875,-0.24872246384620667,-0.6075645685195923,-0.7394949793815613
1773257627957620500,3.476620361328125,-0.22701610624790192,-0.6717965602874756,-0.7329604029655457
1773257627967635500,3.486635498046875,-0.18640853464603424,-0.8319294452667236,-0.6943539977073669
1773257627977651500,3.4966513671875,-0.1528809368610382,-0.9429649114608765,-0.5933014154434204
1773257627987666400,3.50666650390625,-0.09314123541116714,-1.0386141538619995,-0.4332934319972992
1773257627997682400,3.516682373046875,-0.08215729892253876,-1.008411169052124,-0.27426356077194214
1773257628007697400,3.526697509765625,-0.08011748641729355,-0.9292716383934021,-0.18362663686275482
1773257628017712400,3.53671240234375,-0.07612620294094086,-0.8713889122009277,-0.17672185599803925
1773257628027728400,3.546728271484375,-0.10080770403146744,-0.902514636516571,-0.2303047925233841
1773257628037743400,3.556743408203125,-0.18433135747909546,-0.8811704516410828,-0.29371678829193115
1773257628047759400,3.56675927734375,-0.31151407957077026,-0.8109145164489746,-0.34838008880615234
1773257628057774300,3.5767744140625,-0.4489768445491791,-0.6654854416847229,-0.36933279037475586
1773257628067790300,3.586790283203125,-0.5997474789619446,-0.4677542448043823,-0.35535386204719543
1773257628077805300,3.596805419921875,-0.6708917021751404,-0.2880851626396179,-0.28067561984062195
1773257628087821600,3.606821533203125,-0.6382789015769958,-0.106833815574646,-0.08945689350366592
1773257628097836500,3.61683642578125,-0.47465217113494873,0.07522600144147873,0.22519265115261078
1773257628107852500,3.6268525390625,-0.21252471208572388,0.16543319821357727,0.6113763451576233
1773257628117867500,3.636867431640625,0.10124944895505905,0.09755907207727432,1.0091553926467896
1773257628127883500,3.646883544921875,0.3965723216533661,-0.0797201618552208,1.3797295093536377
1773257628137898500,3.6568984375,0.634893000125885,-0.43406254053115845,1.7083311080932617
1773257628147914500,3.66691455078125,0.8483456969261169,-0.6504088640213013,2.058593511581421
1773257628157929500,3.676929443359375,1.0975563526153564,0.05099743232131004,2.1589744091033936
1773257628167945500,3.686945556640625,1.0931153297424316,1.1407450437545776,1.74294114112854
1773257628177960400,3.69696044921875,1.3988007307052612,0.4685286283493042,1.1153267621994019
1773257628187976400,3.7069765625,2.0811376571655273,0.4503859877586365,0.08677151054143906
1773257628197991400,3.716991455078125,2.950139284133911,0.6554474830627441,-1.0925599336624146
1773257628208007400,3.72700732421875,3.8629722595214844,0.7104981541633606,-2.099823236465454
1773257628218022400,3.7370224609375,4.728198051452637,0.16202621161937714,-2.774752616882324
1773257628228037400,3.747037353515625,5.365241050720215,-0.46236521005630493,-3.067593574523926
1773257628238053400,3.757053466796875,5.56834077835083,-0.5816076993942261,-3.0179765224456787
1773257628248068400,3.767068359375,5.2532734870910645,-0.40728139877319336,-2.591980218887329
1773257628258084400,3.77708447265625,4.449942588806152,-0.6935698390007019,-1.8019945621490479
1773257628268099600,3.787099609375,3.531517267227173,-1.2797057628631592,-0.6456684470176697
1773257628278115800,3.79711572265625,2.7543604373931885,-1.2078567743301392,0.6020360589027405
1773257628288130600,3.807130615234375,2.091052770614624,-0.34232351183891296,1.5606865882873535
1773257628298146800,3.817146728515625,1.4469810724258423,0.6320853233337402,1.9793459177017212
1773257628308161800,3.827161865234375,0.6656831502914429,1.429118275642395,1.960597276687622
1773257628318177800,3.837177734375,-0.1472150832414627,2.2960093021392822,1.7245566844940186
1773257628328192800,3.84719287109375,-0.6583011150360107,2.6802659034729004,1.2447134256362915
1773257628338208800,3.857208740234375,-0.799415111541748,2.1400959491729736,0.4918283224105835
1773257628348223700,3.8672236328125,-0.7052629590034485,1.5855944156646729,-0.3222247064113617
1773257628358239700,3.87723974609375,-0.4395958483219147,1.2733782529830933,-1.0771403312683105
1773257628368254700,3.887254638671875,-0.11022750288248062,1.0594209432601929,-1.7015526294708252
1773257628378270700,3.897270751953125,0.19889439642429352,0.6977464556694031,-2.1539835929870605
1773257628388285700,3.90728564453125,0.5548238754272461,0.13264800608158112,-2.3916611671447754
1773257628398301700,3.9173017578125,0.8577706813812256,-0.06483017653226852,-2.38816237449646
1773257628408316700,3.927316650390625,1.0160644054412842,-0.06756585091352463,-2.069976329803467
1773257628418332700,3.937332763671875,1.0901247262954712,0.34703904390335083,-1.5350415706634521
1773257628428347600,3.94734765625,1.0467581748962402,1.4859895706176758,-0.969753623008728
1773257628438363600,3.95736376953125,0.7863747477531433,2.4240686893463135,-0.5930308699607849
1773257628448378600,3.967378662109375,0.27412211894989014,3.016789197921753,-0.5519776940345764
1773257628458394600,3.97739453125,-0.42426416277885437,3.4408836364746094,-0.7519363760948181
1773257628468409600,3.98740966796875,-1.1005388498306274,4.168842315673828,-0.978216826915741
1773257628478425900,3.99742578125,-1.7258418798446655,4.010045051574707,-1.2380763292312622
1773257628488440800,4.00744091796875,-2.2465295791625977,3.192356586456299,-1.5268076658248901
1773257628498456800,4.017456787109375,-2.71419620513916,2.32926082611084,-1.630835771560669
1773257628508471800,4.027471923828125,-3.052755355834961,1.6090161800384521,-1.4884947538375854
1773257628518487800,4.03748779296875,-3.187390089035034,0.9539573788642883,-1.253622055053711
1773257628528502800,4.047502685546875,-3.111753463745117,0.4396819770336151,-0.9262527823448181
1773257628538518800,4.057518798828125,-2.9248576164245605,0.4216880798339844,-0.5077410340309143
1773257628548533800,4.06753369140625,-2.7229695320129395,0.7679936289787292,-0.059477176517248154
1773257628558548700,4.077548828125,-2.4835426807403564,1.066672444343567,0.3377327620983124
1773257628568564700,4.087564697265625,-2.1952123641967773,1.3269462585449219,0.6041809320449829
1773257628578579700,4.097579833984375,-1.9010940790176392,1.4590970277786255,0.7449254989624023
1773257628588595700,4.107595703125,-1.643933653831482,1.3444757461547852,0.8026628494262695
1773257628598610700,4.117610595703125,-1.4701480865478516,0.997554361820221,0.83975750207901
1773257628608626700,4.127626708984375,-1.389292597770691,0.6539531350135803,0.9264723658561707
1773257628618641700,4.1376416015625,-1.3570414781570435,0.437764972448349,1.0660345554351807
1773257628628657700,4.14765771484375,-1.3620104789733887,0.2275107353925705,1.214767336845398
1773257628638672600,4.157672607421875,-1.4026230573654175,-0.10101788491010666,1.3317084312438965
1773257628648688600,4.167688720703125,-1.4627186059951782,-0.6129190325737,1.3917222023010254
1773257628658703600,4.17770361328125,-1.5146719217300415,-1.1790425777435303,1.4328533411026
1773257628668719600,4.1877197265625,-1.5552252531051636,-1.5702471733093262,1.6032859086990356
1773257628678734600,4.197734619140625,-1.5562223196029663,-1.5224436521530151,1.9458081722259521
1773257628688750800,4.207750732421875,-1.4751909971237183,-1.4894239902496338,2.3461246490478516
1773257628698765600,4.217765625,-1.408189058303833,-1.3805919885635376,2.8148696422576904
1773257628708781800,4.22778173828125,-1.3274173736572266,0.028752274811267853,3.190249443054199
1773257628718796800,4.237796875,-1.351234793663025,1.1264106035232544,3.5291671752929688
1773257628728812800,4.247812744140625,-1.349556565284729,1.5565873384475708,3.806429624557495
1773257628738827800,4.257827880859375,-1.2354470491409302,1.3900721073150635,4.1409807205200195
1773257628748843800,4.26784375,-1.0739161968231201,0.9835727214813232,4.550601005554199
1773257628758859500,4.277859619140625,-0.9170101284980774,0.8457035422325134,5.020858287811279
1773257628768874800,4.287874755859375,-0.7848422527313232,0.7334251999855042,5.496008396148682
1773257628778889700,4.2978896484375,-0.6967228055000305,0.4539344310760498,5.659224510192871
1773257628788905700,4.30790576171875,-0.6821733117103577,0.2040448933839798,5.278880596160889
1773257628798921500,4.31792138671875,-0.5746678709983826,0.6224808096885681,4.688833236694336
1773257628808936700,4.327936767578125,-0.42729806900024414,0.9985398650169373,3.8980910778045654
1773257628818952400,4.337952392578125,-0.324055552482605,1.0386728048324585,2.9092068672180176
1773257628828967700,4.3479677734375,-0.3476719558238983,1.30562424659729,1.7885016202926636
1773257628838983400,4.3579833984375,-0.5238611102104187,1.9606274366378784,0.6985992193222046
1773257628848998700,4.36799853515625,-0.928844690322876,2.5413570404052734,-0.26424604654312134
1773257628859014700,4.3780146484375,-1.7520184516906738,2.8899483680725098,-1.1934921741485596
1773257628869029600,4.388029541015625,-2.9498424530029297,3.614675760269165,-1.951830506324768
1773257628879045600,4.398045654296875,-4.403285026550293,4.470337867736816,-2.390612840652466
1773257628889060600,4.408060546875,-5.806545257568359,4.487255573272705,-2.8868119716644287
1773257628899076600,4.41807666015625,-6.894386291503906,4.0202717781066895,-3.6653528213500977
1773257628909091600,4.428091552734375,-7.573750972747803,3.4362659454345703,-4.512516975402832
1773257628919107600,4.438107666015625,-7.764978408813477,2.7088069915771484,-4.9573445320129395
1773257628929122600,4.44812255859375,-7.463111400604248,2.3227598667144775,-4.772771835327148
1773257628939138600,4.458138671875,-6.762833118438721,2.648853302001953,-3.935495138168335
1773257628949153500,4.468153564453125,-4.329201698303223,-0.30842843651771545,0.885384738445282
1773257628959169500,4.47816943359375,-1.6617543697357178,0.7963024377822876,3.328450918197632
1773257628969184500,4.4881845703125,0.04014497622847557,1.3945212364196777,2.9352715015411377
1773257628979200500,4.498200439453125,0.9492911696434021,1.0483840703964233,2.0675864219665527
1773257628989216500,4.508216552734375,0.7905710339546204,0.6784663796424866,1.4530301094055176
1773257628999231500,4.5182314453125,-0.24214452505111694,0.5743900537490845,1.2539154291152954
1773257629009247500,4.52824755859375,-1.5635052919387817,0.5424063205718994,1.553593635559082
1773257629019262500,4.538262451171875,-2.4087557792663574,0.5219191312789917,2.1282944679260254
1773257629029278500,4.548278564453125,-2.3757917881011963,1.1005600690841675,2.6857361793518066
1773257629039293400,4.55829345703125,-1.7003915309906006,1.1419823169708252,2.834902286529541
1773257629049309700,4.568309814453125,-0.7011621594429016,0.34435102343559265,2.2240211963653564
1773257629059324700,4.57832470703125,0.3907054364681244,-0.38223522901535034,1.1675410270690918
1773257629069340700,4.588340576171875,1.0053499937057495,-0.9043686985969543,0.3646432161331177
1773257629079355600,4.598355712890625,1.1312642097473145,-1.1644256114959717,0.14275264739990234
1773257629089371600,4.60837158203125,1.0602898597717285,-1.4842970371246338,0.34568852186203003
1773257629099386600,4.61838671875,0.932440996170044,-1.8282541036605835,0.7397655844688416
1773257629109402600,4.628402587890625,0.8201109170913696,-2.0089974403381348,1.0738264322280884
1773257629119418600,4.638418701171875,0.8742684125900269,-2.0587358474731445,1.2967101335525513
1773257629129433600,4.64843359375,1.1186344623565674,-2.153921604156494,1.3880581855773926
1773257629139449600,4.65844970703125,1.458388328552246,-2.2401633262634277,1.2940073013305664
1773257629149464600,4.668464599609375,1.6806776523590088,-1.6244559288024902,0.9243251085281372
1773257629159480600,4.67848046875,1.5158737897872925,-0.9802461266517639,0.5903817415237427
1773257629169495600,4.68849560546875,0.989690899848938,0.468828022480011,0.36959025263786316
1773257629179511600,4.698511474609375,0.04011338949203491,2.3955328464508057,0.073744997382164
1773257629189526500,4.708526611328125,-1.3936505317687988,2.3313777446746826,-0.5265660285949707
1773257629199542500,4.71854248046875,-2.2624504566192627,1.3722834587097168,-0.8553330302238464
1773257629209558800,4.728558837890625,-1.8219177722930908,0.6949096918106079,-0.7817959785461426
1773257629219573800,4.73857373046875,-1.0707855224609375,0.4705634117126465,-0.732158362865448
1773257629229589800,4.74858984375,-0.4483068883419037,0.6711228489875793,-0.8440324664115906
1773257629239604700,4.758604736328125,-0.11028119176626205,1.2320514917373657,-0.9901472926139832
1773257629249620700,4.768620849609375,-0.038736533373594284,1.1169219017028809,-0.8685113787651062
1773257629259635700,4.7786357421875,-0.017135899513959885,0.633327305316925,-0.5222998857498169
1773257629269651200,4.788651123046875,0.037338171154260635,0.3015636205673218,-0.22721701860427856
1773257629279667200,4.798667236328125,0.06438789516687393,0.24183237552642822,-0.08312828838825226
1773257629289682200,4.80868212890625,0.02169080637395382,0.31592127680778503,-0.037815168499946594
1773257629299698200,4.8186982421875,-0.0675855427980423,0.35795313119888306,-0.04812559857964516
1773257629309713200,4.828713134765625,-0.14869506657123566,0.31815674901008606,-0.05873562768101692
1773257629319729200,4.838729248046875,-0.2047375738620758,0.22589364647865295,-0.04116622358560562
1773257629329744100,4.848744140625,-0.25977879762649536,0.13812877237796783,0.003127281554043293
1773257629339760000,4.858760009765625,-0.3210325539112091,0.07974908500909805,0.022119881585240364
1773257629349776400,4.8687763671875,-0.36839526891708374,0.03819037973880768,0.015235856175422668
1773257629359791400,4.878791259765625,-0.38463708758354187,-0.01219929289072752,0.004437270108610392
1773257629369807400,4.888807373046875,-0.36850452423095703,-0.05367559939622879,-0.009317341260612011
1773257629379822300,4.898822265625,-0.31327271461486816,-0.07403573393821716,-0.007397735491394997
1773257629389838300,4.90883837890625,-0.2264941930770874,-0.09492098540067673,0.0073972437530756
1773257629399853300,4.918853271484375,-0.11659377813339233,-0.10967250168323517,0.022166335955262184
1773257629409869300,4.928869384765625,0.030347498133778572,-0.08965100347995758,0.018948396667838097
1773257629419885000,4.938885009765625,0.10861567407846451,-0.03867543861269951,0.0045273806899785995
1773257629429900300,4.948900390625,0.1966536045074463,0.008319915272295475,-0.014402860775589943
1773257629439916000,4.958916015625,0.2497176229953766,0.05479580536484718,-0.030118973925709724
1773257629449931300,4.96893115234375,0.2678415775299072,0.10717925429344177,-0.029466839507222176
1773257629459947000,4.978947021484375,0.2563774883747101,0.17654341459274292,-0.006647277157753706
1773257629469962200,4.988962158203125,0.22798305749893188,0.2590124309062958,0.04053094983100891
1773257629479978000,4.99897802734375,0.1948075294494629,0.3272833526134491,0.08199690282344818
1773257629489994200,5.008994140625,0.15924420952796936,0.39947474002838135,0.08646406978368759
1773257629500009000,5.019009033203125,0.18052633106708527,0.4867100417613983,0.047433316707611084
1773257629510025200,5.029025146484375,0.20131398737430573,0.5934233665466309,-0.011905201710760593
1773257629520040200,5.039040283203125,0.2344903200864792,0.6647140979766846,-0.07872258126735687
1773257629530056200,5.04905615234375,0.28951725363731384,0.6496607661247253,-0.14724428951740265
1773257629540071200,5.0590712890625,0.353389173746109,0.5865228176116943,-0.20950153470039368
1773257629550087200,5.069087158203125,0.4136607348918915,0.5093462467193604,-0.2848772406578064
1773257629560103200,5.079103271484375,0.4271528422832489,0.4403829276561737,-0.349764347076416
1773257629570118100,5.0891181640625,0.3940000832080841,0.30101850628852844,-0.37076640129089355
1773257629580134100,5.099134033203125,0.3359660506248474,0.10445379465818405,-0.3763217628002167
1773257629590149000,5.109149169921875,0.3029681444168091,-0.020678116008639336,-0.3607899248600006
1773257629600165000,5.1191650390625,0.2692245841026306,-0.05993550643324852,-0.31792423129081726
1773257629610180000,5.12918017578125,0.2193431258201599,-0.07186098396778107,-0.26435378193855286
1773257629620196000,5.139196044921875,0.16585886478424072,-0.04053635150194168,-0.2320011705160141
1773257629630212000,5.149212158203125,0.1410117894411087,0.02755637653172016,-0.2268577367067337
1773257629640227000,5.15922705078125,0.14498895406723022,0.10851780325174332,-0.24471929669380188
1773257629650243300,5.169243408203125,0.16122862696647644,0.19987532496452332,-0.23068946599960327
1773257629660258300,5.17925830078125,0.19649899005889893,0.24592269957065582,-0.14256973564624786
1773257629670274300,5.1892744140625,0.26376500725746155,0.24787268042564392,-0.0377180390059948
1773257629680289300,5.199289306640625,0.3562323749065399,0.24238577485084534,0.05559299886226654
1773257629690305300,5.20930517578125,0.43352240324020386,0.23584765195846558,0.14957083761692047
1773257629700321300,5.2193212890625,0.4759015738964081,0.20868660509586334,0.23152828216552734
1773257629710336300,5.229336181640625,0.48219457268714905,0.13607744872570038,0.2927091121673584
1773257629720352300,5.239352294921875,0.44094595313072205,0.009542157873511314,0.32449525594711304
1773257629730367200,5.2493671875,0.3807756304740906,-0.1097492054104805,0.3294753134250641
1773257629740383200,5.25938330078125,0.35350221395492554,-0.1444198340177536,0.3161957263946533
1773257629750398200,5.269398193359375,0.3712920546531677,-0.16355310380458832,0.2896285951137543
1773257629760414200,5.279414306640625,0.4248780608177185,-0.22712595760822296,0.24355752766132355
1773257629770429200,5.28942919921875,0.4852047562599182,-0.31063520908355713,0.19173987209796906
1773257629780445200,5.299445068359375,0.5299633741378784,-0.3913237452507019,0.15710341930389404
1773257629790461200,5.309461181640625,0.5449623465538025,-0.49406471848487854,0.15796703100204468
1773257629800476200,5.31947607421875,0.5390961766242981,-0.5551491379737854,0.19325897097587585
1773257629810492200,5.3294921875,0.5054612159729004,-0.5502779483795166,0.19001393020153046
1773257629820507400,5.33950732421875,0.4404931366443634,-0.5116637349128723,0.1513506919145584
1773257629830523100,5.349523193359375,0.3335590958595276,-0.42859727144241333,0.1053607389330864
1773257629840538400,5.359538330078125,0.21230006217956543,-0.29377126693725586,0.05306185036897659
1773257629850554000,5.36955419921875,0.1510724127292633,-0.14980243146419525,0.010862945578992367
1773257629860570000,5.379570068359375,0.1176886260509491,-0.060810770839452744,-0.006336814258247614
1773257629870585000,5.389585205078125,0.10761063545942307,0.008762670680880547,-0.0281126219779253
1773257629880601000,5.39960107421875,0.10144967585802078,0.08464944362640381,-0.049078624695539474
1773257629890616000,5.409615966796875,0.09931807965040207,0.12488767504692078,-0.04832335188984871
1773257629900632000,5.419632080078125,0.10996273905038834,0.10980220139026642,-0.03387357294559479
1773257629910647000,5.42964697265625,0.16086585819721222,0.09964124858379364,-0.011762123554944992
1773257629920663000,5.4396630859375,0.20584851503372192,0.0613335445523262,-0.0023052385076880455
1773257629930678000,5.449677978515625,0.24195213615894318,0.025319233536720276,-0.012372744269669056
1773257629940694000,5.459694091796875,0.2615111768245697,0.012604769319295883,-0.001278281444683671
1773257629950710000,5.4697099609375,0.2735885977745056,0.028509946539998055,0.03144001588225365
1773257629960725000,5.47972509765625,0.2654950022697449,0.038569770753383636,0.07065452635288239
1773257629970741200,5.4897412109375,0.2553427517414093,0.02276569977402687,0.10639785975217819
1773257629980756200,5.499756103515625,0.2470395565032959,-0.0012592084240168333,0.14360834658145905
1773257629990772200,5.509772216796875,0.22429069876670837,-0.016366872936487198,0.1489449143409729
1773257630000787200,5.519787109375,0.1890789121389389,-0.037292394787073135,0.1616220921278
1773257630010803200,5.52980322265625,0.16379596292972565,-0.022304128855466843,0.18517030775547028
1773257630020818200,5.539818115234375,0.16890336573123932,0.02736462466418743,0.22111472487449646
1773257630030834200,5.549834228515625,0.19628646969795227,0.07737059146165848,0.258346825838089
1773257630040849200,5.55984912109375,0.22533036768436432,0.09488167613744736,0.27981695532798767
1773257630050865200,5.569865234375,0.2419758439064026,0.08841900527477264,0.2807084023952484
1773257630060881200,5.579881103515625,0.24643318355083466,0.0527275875210762,0.27553948760032654
1773257630070896000,5.589896240234375,0.23871999979019165,0.009147804230451584,0.2857948839664459
1773257630080912100,5.599912109375,0.21404820680618286,-0.0385211817920208,0.3052966892719269
1773257630090927000,5.609927001953125,0.1789913922548294,-0.08501093834638596,0.3278859555721283
1773257630100943000,5.619943115234375,0.1416509449481964,-0.12379002571105957,0.3568504750728607
1773257630110958000,5.6299580078125,0.10778038203716278,-0.13966624438762665,0.3733058273792267
1773257630120974000,5.63997412109375,0.0790744349360466,-0.15366755425930023,0.35879454016685486
1773257630130989000,5.649989013671875,0.062278617173433304,-0.17380844056606293,0.3302319347858429
1773257630141005300,5.66000537109375,0.07645728439092636,-0.1728917807340622,0.30786004662513733
1773257630151020300,5.670020263671875,0.10586711019277573,-0.1443118005990982,0.2816483974456787
1773257630161036300,5.680036376953125,0.13599731028079987,-0.10641556233167648,0.24268022179603577
1773257630171052300,5.69005224609375,0.15219123661518097,-0.09078492224216461,0.20575520396232605
1773257630181067300,5.7000673828125,0.16232936084270477,-0.09718716144561768,0.19078530371189117
1773257630191083300,5.710083251953125,0.16854451596736908,-0.11988074332475662,0.20261411368846893
1773257630201098200,5.72009814453125,0.16998796164989471,-0.1449088603258133,0.22733624279499054
1773257630211114200,5.7301142578125,0.15773208439350128,-0.17039398849010468,0.25470981001853943
1773257630221129200,5.740129150390625,0.13506193459033966,-0.17743217945098877,0.27434155344963074
1773257630231145200,5.750145263671875,0.1074908971786499,-0.1831672191619873,0.2876679003238678
1773257630241160200,5.76016015625,0.08420741558074951,-0.19618821144104004,0.29076117277145386
1773257630251176200,5.77017626953125,0.07501435279846191,-0.2055935114622116,0.2752763032913208
1773257630261191200,5.780191162109375,0.08295536786317825,-0.19403885304927826,0.24847932159900665
1773257630271207400,5.79020751953125,0.1074114590883255,-0.1671638935804367,0.23101136088371277
1773257630281222400,5.800222412109375,0.14621850848197937,-0.14039993286132812,0.22637799382209778
1773257630291238400,5.81023828125,0.18948200345039368,-0.1116485744714737,0.25401395559310913
1773257630301253400,5.82025341796875,0.23327264189720154,-0.10289449989795685,0.29007261991500854
1773257630311269400,5.830269287109375,0.2679354250431061,-0.11061163246631622,0.312672883272171
1773257630321285000,5.84028515625,0.28359535336494446,-0.1297408491373062,0.31819280982017517
1773257630331300400,5.85030029296875,0.27823469042778015,-0.14774005115032196,0.30767619609832764
1773257630341316000,5.860316162109375,0.2569829225540161,-0.16543543338775635,0.2837966978549957
1773257630351331300,5.870331298828125,0.23595058917999268,-0.16744464635849,0.2551605701446533
1773257630361347000,5.88034716796875,0.21586768329143524,-0.15627454221248627,0.23566997051239014
1773257630371362300,5.8903623046875,0.20307530462741852,-0.1457795798778534,0.23011022806167603
1773257630381378000,5.9003779296875,0.19066762924194336,-0.14736495912075043,0.22771631181240082
1773257630391393300,5.910393310546875,0.1827564239501953,-0.15577514469623566,0.21768367290496826
1773257630401409000,5.920408935546875,0.17369049787521362,-0.16605708003044128,0.189752995967865
1773257630411424300,5.93042431640625,0.15902917087078094,-0.1765340119600296,0.16279336810112
1773257630421440300,5.940440185546875,0.14906708896160126,-0.19213134050369263,0.14354297518730164
1773257630431455500,5.95045556640625,0.13691213726997375,-0.18583236634731293,0.11751086264848709
1773257630441471200,5.96047119140625,0.12186606973409653,-0.15257960557937622,0.07368588447570801
1773257630451486500,5.970486572265625,0.10006868839263916,-0.11087632179260254,0.016977796331048012
1773257630461502200,5.980502197265625,0.06052473932504654,-0.08183029294013977,-0.03518873453140259
1773257630471517400,5.990517333984375,0.018541185185313225,-0.08634232729673386,-0.07257961481809616
1773257630481533200,6.000533203125,-0.02210797369480133,-0.09752227365970612,-0.08218803256750107
1773257630491548400,6.01054833984375,-0.05116615816950798,-0.10796244442462921,-0.07036101818084717
1773257630501564200,6.020564208984375,-0.07418252527713776,-0.11726459860801697,-0.05038464441895485
1773257630511580200,6.030580078125,-0.09172642230987549,-0.14054003357887268,-0.04238925501704216
1773257630521595100,6.04059521484375,-0.10503850132226944,-0.1868891566991806,-0.053430456668138504
1773257630531611100,6.050611083984375,-0.11237720400094986,-0.22420065104961395,-0.06573069840669632
1773257630541626000,6.060626220703125,-0.11392369866371155,-0.2311863899230957,-0.07718575745820999
1773257630551642000,6.07064208984375,-0.11965300142765045,-0.22314311563968658,-0.10466767847537994
1773257630561657000,6.080656982421875,-0.13660535216331482,-0.21904398500919342,-0.1280936598777771
1773257630571673000,6.090673095703125,-0.15981407463550568,-0.21130789816379547,-0.13262628018856049
1773257630581688000,6.10068798828125,-0.17821811139583588,-0.19441014528274536,-0.12287857383489609
1773257630591704300,6.110704345703125,-0.18448781967163086,-0.18924961984157562,-0.11412761360406876
1773257630601719000,6.120718994140625,-0.17521175742149353,-0.19762659072875977,-0.10199239104986191
1773257630611735300,6.1307353515625,-0.15685425698757172,-0.2142423540353775,-0.08504568040370941
1773257630621750300,6.140750244140625,-0.13820360600948334,-0.21540403366088867,-0.0738886296749115
1773257630631766300,6.150766357421875,-0.12780120968818665,-0.21364335715770721,-0.07081384211778641
1773257630641781200,6.16078125,-0.12541767954826355,-0.21095037460327148,-0.06501321494579315
1773257630651797200,6.17079736328125,-0.1241559311747551,-0.196589857339859,-0.061132125556468964
1773257630661812200,6.180812255859375,-0.11655393987894058,-0.18381306529045105,-0.0707557201385498
1773257630671828200,6.190828125,-0.10915915668010712,-0.15903989970684052,-0.07868048548698425
1773257630681843200,6.20084326171875,-0.09683272242546082,-0.16140718758106232,-0.0452282540500164
1773257630691859200,6.210859130859375,-0.08824536949396133,-0.14425992965698242,-0.03485013544559479
1773257630701874200,6.220874267578125,-0.09316928684711456,-0.15598662197589874,-0.06395129859447479
1773257630711890200,6.23089013671875,-0.09413541108369827,-0.17031723260879517,-0.08653923869132996
1773257630721905200,6.2409052734375,-0.09220914542675018,-0.1899644285440445,-0.09496281296014786
1773257630731921200,6.250921142578125,-0.09674213081598282,-0.20834484696388245,-0.09776366502046585
1773257630741936000,6.26093603515625,-0.10784538090229034,-0.20586732029914856,-0.10532890260219574
1773257630751952100,6.2709521484375,-0.12273181974887848,-0.1979186087846756,-0.11220020055770874
1773257630761968400,6.280968505859375,-0.13875553011894226,-0.1932450383901596,-0.11569799482822418
1773257630771983000,6.290983154296875,-0.14337946474552155,-0.171639084815979,-0.10569847375154495
1773257630781998000,6.300998046875,-0.13882732391357422,-0.13185225427150726,-0.07884688675403595
1773257630792014300,6.311014404296875,-0.13191695511341095,-0.10834198445081711,-0.06292489171028137
1773257630802030300,6.3210302734375,-0.12410297244787216,-0.12312491983175278,-0.05526378005743027
1773257630812045300,6.33104541015625,-0.12036390602588654,-0.1447547823190689,-0.02590426616370678
1773257630822061300,6.341061279296875,-0.12485426664352417,-0.15360526740550995,0.023179924115538597
1773257630832076300,6.351076171875,-0.13491511344909668,-0.13724134862422943,0.09240608662366867
1773257630842092300,6.36109228515625,-0.15286961197853088,-0.12109220027923584,0.1529248207807541
1773257630852107300,6.371107177734375,-0.1744145154953003,-0.13815802335739136,0.17764419317245483
1773257630862123300,6.381123291015625,-0.19136792421340942,-0.1745471954345703,0.1674669235944748
1773257630872138200,6.39113818359375,-0.20256471633911133,-0.1908966600894928,0.15159401297569275
1773257630882154200,6.401154296875,-0.20721513032913208,-0.17039963603019714,0.14698061347007751
1773257630892169200,6.411169189453125,-0.20706191658973694,-0.16224223375320435,0.16137652099132538
1773257630902185200,6.421185302734375,-0.20381738245487213,-0.1792004406452179,0.18146821856498718
1773257630912200200,6.4312001953125,-0.1985579878091812,-0.20353373885154724,0.1850326806306839
1773257630922216200,6.44121630859375,-0.18941748142242432,-0.2239905446767807,0.17073842883110046
1773257630932231200,6.451231201171875,-0.17856746912002563,-0.230173259973526,0.15433621406555176
1773257630942247200,6.4612470703125,-0.17441639304161072,-0.21867239475250244,0.14227394759655
1773257630952262100,6.47126220703125,-0.1721605360507965,-0.20621803402900696,0.1343277245759964
1773257630962278400,6.4812783203125,-0.1718558669090271,-0.20915523171424866,0.13124671578407288
1773257630972293400,6.49129345703125,-0.1778707355260849,-0.20310284197330475,0.14321589469909668
1773257630982309400,6.501309326171875,-0.20026712119579315,-0.1954401284456253,0.1479605883359909
1773257630992324400,6.511324462890625,-0.22443903982639313,-0.20483975112438202,0.15414737164974213
1773257631002340400,6.52134033203125,-0.22775280475616455,-0.23452228307724,0.16672468185424805
1773257631012355300,6.531355224609375,-0.21197864413261414,-0.24914729595184326,0.16609936952590942
1773257631022371300,6.541371337890625,-0.195882186293602,-0.24311386048793793,0.14959703385829926
1773257631032386300,6.55138623046875,-0.17588907480239868,-0.20190627872943878,0.12718527019023895
1773257631042402300,6.56140234375,-0.15988507866859436,-0.16324570775032043,0.08750604093074799
1773257631052417300,6.571417236328125,-0.14281818270683289,-0.13791856169700623,0.05161161720752716
1773257631062433300,6.581433349609375,-0.12092220783233643,-0.1102813333272934,0.04662085324525833
1773257631072448300,6.5914482421875,-0.10346641391515732,-0.09349451959133148,0.05844363570213318
1773257631082464300,6.60146435546875,-0.08958815038204193,-0.09394379705190659,0.06364079564809799
1773257631092479200,6.611479248046875,-0.0750998929142952,-0.07338293641805649,0.04434924200177193
1773257631102495200,6.6214951171875,-0.04449937492609024,-0.034851789474487305,0.007993633858859539
1773257631112510200,6.63151025390625,-0.0034067779779434204,-0.005522469524294138,-0.03128615394234657
1773257631122526200,6.641526123046875,0.027265381067991257,-0.002890733303502202,-0.05184336006641388
1773257631132541200,6.651541259765625,0.04128560796380043,-0.008776657283306122,-0.04473993182182312
1773257631142557200,6.66155712890625,0.03763521462678909,-0.03146519139409065,-0.016325335949659348
1773257631152572200,6.671572265625,0.02277289144694805,-0.03389168530702591,0.007822081446647644
1773257631162588400,6.68158837890625,0.004578175954520702,0.02748938463628292,0.005275300238281488
1773257631172603400,6.691603271484375,-0.014158760197460651,0.11215314269065857,-0.0156765878200531
1773257631182619400,6.701619384765625,-0.04546874389052391,0.16869764029979706,-0.022802673280239105
1773257631192634400,6.71163427734375,-0.0578702874481678,0.17341649532318115,-0.01173324417322874
1773257631202650400,6.721650390625,-0.053890421986579895,0.14808186888694763,0.012477793730795383
1773257631212665300,6.731665283203125,-0.03861859813332558,0.11610370874404907,0.04533064365386963
1773257631222681300,6.741681396484375,-0.021265706047415733,0.08734689652919769,0.08121301233768463
1773257631232697300,6.751697265625,-0.0874977633357048,0.01447576005011797,0.1296897828578949
1773257631242712300,6.76171240234375,0.008084154687821865,-0.08243853598833084,0.1774650365114212
1773257631252728300,6.771728271484375,-0.04986803978681564,-0.18972072005271912,0.21838761866092682
1773257631262743300,6.781743408203125,-0.09535562992095947,-0.3005774915218353,0.2751590311527252
1773257631272759600,6.791759521484375,-0.15122464299201965,-0.39984777569770813,0.34695422649383545
1773257631282774800,6.80177490234375,-0.1590341031551361,-0.487537682056427,0.42301279306411743
1773257631292790500,6.81179052734375,-0.3070211410522461,-0.5748804807662964,0.48746660351753235
1773257631302805800,6.8218056640625,-0.19910107553005219,-0.6050596833229065,0.5225529074668884
1773257631312821500,6.831821533203125,-0.2933718264102936,-0.5801529288291931,0.5255752801895142
1773257631322836700,6.841836669921875,-0.14178520441055298,-0.5145155787467957,0.4882497489452362
1773257631332852500,6.8518525390625,-0.20581890642642975,-0.4329775869846344,0.4358830749988556
1773257631342867700,6.86186767578125,-0.05286557972431183,-0.37033313512802124,0.3800978362560272
1773257631352883500,6.871883544921875,-0.12076836824417114,-0.33166661858558655,0.34046536684036255
1773257631362898700,6.881898681640625,0.01890377886593342,-0.3195415139198303,0.3089372515678406
1773257631372914400,6.89191455078125,-0.07323611527681351,-0.31969040632247925,0.29928237199783325
1773257631382929700,6.9019296875,-0.0024620788171887398,-0.32151174545288086,0.31519901752471924
1773257631392945400,6.9119453125,-0.035517748445272446,-0.3005841374397278,0.34174644947052
1773257631402960600,6.921960693359375,-0.053324442356824875,-0.2670440077781677,0.35114794969558716
1773257631412976600,6.9319765625,-0.08467943221330643,-0.2501048743724823,0.3413967490196228
1773257631422992000,6.941991943359375,-0.11864911764860153,-0.26257753372192383,0.3259802460670471
1773257631433007600,6.952007568359375,-0.14370131492614746,-0.24075771868228912,0.3149767220020294
1773257631443022800,6.96202294921875,-0.15493454039096832,-0.16297876834869385,0.29870346188545227
1773257631453038600,6.97203857421875,-0.14327041804790497,-0.12576864659786224,0.28605324029922485
1773257631463053800,6.9820537109375,-0.11527048051357269,-0.15218426287174225,0.2849749028682709
1773257631473069600,6.992069580078125,-0.07350368797779083,-0.18417997658252716,0.30485600233078003
1773257631483084800,7.002084716796875,-0.04280170425772667,-0.22911150753498077,0.3452710509300232
1773257631493100500,7.0121005859375,-0.031737107783555984,-0.3085317611694336,0.3819734752178192
1773257631503115800,7.02211572265625,-0.023491429165005684,-0.36624088883399963,0.39139625430107117
1773257631513131500,7.032131591796875,0.0013229753822088242,-0.3438153862953186,0.3822194039821625
1773257631523146800,7.042146728515625,0.03656591475009918,-0.2498614639043808,0.3611079752445221
1773257631533162500,7.05216259765625,0.0729290023446083,-0.14205554127693176,0.3052535057067871
1773257631543177700,7.062177734375,0.09421298652887344,-0.09155455976724625,0.22746817767620087
1773257631553193500,7.072193359375,0.0935131087899208,-0.024280868470668793,0.1644287407398224
1773257631563208700,7.082208740234375,0.06813265383243561,0.051470883190631866,0.13326549530029297
1773257631573224400,7.092224365234375,0.029669150710105896,0.07676281780004501,0.1238163486123085
1773257631583240700,7.10224072265625,0.006386197172105312,0.12070896476507187,0.1243995800614357
1773257631593255400,7.11225537109375,-0.00025890138931572437,0.13480809330940247,0.12893973290920258
1773257631603271700,7.122271728515625,-0.0056885541416704655,0.12171173095703125,0.14848387241363525
1773257631613286700,7.13228662109375,-0.02795083448290825,0.11719922721385956,0.15219374001026154
1773257631623302700,7.142302734375,-0.04948968067765236,0.08319492638111115,0.13641877472400665
1773257631633317600,7.152317626953125,-0.061914827674627304,0.07293824851512909,0.10519659519195557
1773257631643333600,7.162333740234375,-0.06822598725557327,0.07745043933391571,0.072857566177845
1773257631653348600,7.1723486328125,-0.07211700081825256,0.04427589848637581,0.06189052015542984
1773257631663364600,7.182364501953125,-0.07979675382375717,0.038297370076179504,0.0676908865571022
1773257631673379600,7.192379638671875,-0.08994171023368835,0.054985176771879196,0.04443205147981644
1773257631683395600,7.2023955078125,-0.0947955846786499,0.07874323427677155,0.016278976574540138
1773257631693410600,7.21241064453125,-0.09147612750530243,0.11737260967493057,0.009132572449743748
1773257631703426600,7.222426513671875,-0.0887485221028328,0.11989195644855499,0.019202783703804016
1773257631713441500,7.232441650390625,-0.0958285853266716,0.12768281996250153,0.05221697688102722
1773257631723457500,7.24245751953125,-0.10734356194734573,0.15133196115493774,0.08029947429895401
1773257631733472500,7.252472412109375,-0.11496356874704361,0.15994592010974884,0.08140993863344193
1773257631743488500,7.262488525390625,-0.1108417958021164,0.1520371288061142,0.05381879210472107
1773257631753503500,7.27250341796875,-0.10263954848051071,0.16091318428516388,0.029753120616078377
1773257631763519500,7.28251953125,-0.08724647760391235,0.18902072310447693,0.02616983652114868
1773257631773534500,7.292534423828125,-0.0748969167470932,0.20212893187999725,0.021317381411790848
1773257631783550700,7.30255078125,-0.058202896267175674,0.1812225729227066,-0.009708711877465248
1773257631793565700,7.312565673828125,-0.04822717607021332,0.15527953207492828,-0.05761587247252464
1773257631803581700,7.322581787109375,-0.05329996719956398,0.11275126039981842,-0.07322145998477936
1773257631813596700,7.3325966796875,-0.056108493357896805,0.12334240227937698,-0.0019105607643723488
1773257631823612700,7.34261279296875,-0.07722309976816177,0.17685569822788239,0.06596329063177109
1773257631833627600,7.352627685546875,-0.1270919144153595,0.10174810886383057,0.02950895205140114
1773257631843643600,7.3626435546875,-0.17939800024032593,0.10636310279369354,-0.041585732251405716
1773257631853659600,7.37265966796875,-0.1864333152770996,0.2059912085533142,-0.10728613287210464
1773257631863674600,7.382674560546875,-0.14771150052547455,0.23665830492973328,-0.15659455955028534
1773257631873690600,7.392690673828125,-0.08488263189792633,0.17462697625160217,-0.17308707535266876
1773257631883705600,7.40270556640625,-0.043814029544591904,0.12362130731344223,-0.16308876872062683
1773257631893721600,7.4127216796875,-0.03760308027267456,0.11364683508872986,-0.1826735883951187
1773257631903736600,7.422736572265625,-0.034798238426446915,0.11275999993085861,-0.2316560447216034
1773257631913752600,7.432752685546875,-0.02677287720143795,0.12410908937454224,-0.2714254558086395
1773257631923767600,7.442767578125,0.0006281195674091578,0.16291825473308563,-0.28241658210754395
1773257631933783600,7.452783447265625,0.04738517850637436,0.2026117891073227,-0.2844861149787903
1773257631943798500,7.462798583984375,0.08745349943637848,0.22510696947574615,-0.2772282063961029
1773257631953814800,7.472814697265625,0.11347956955432892,0.21100734174251556,-0.25419723987579346
1773257631963829500,7.48282958984375,0.1300380378961563,0.19768008589744568,-0.215363547205925
1773257631973845800,7.492845703125,0.11649326235055923,0.20115543901920319,-0.17995980381965637
1773257631983860700,7.50286083984375,0.06656111776828766,0.2023027390241623,-0.16550789773464203
1773257631993876700,7.512876708984375,0.0021944751497358084,0.21121294796466827,-0.16006635129451752
1773257632003891700,7.5228916015625,-0.05060802027583122,0.23993539810180664,-0.1405019611120224
1773257632013907700,7.53290771484375,-0.07536763697862625,0.22587423026561737,-0.08190104365348816
1773257632023922700,7.542922607421875,-0.07730748504400253,0.1697710156440735,0.013179663568735123
1773257632033938700,7.552938720703125,-0.08230894058942795,0.11073686182498932,0.10072952508926392
1773257632043953700,7.56295361328125,-0.09181695431470871,0.060462504625320435,0.15578825771808624
1773257632053969700,7.5729697265625,-0.09224478900432587,-0.020159929990768433,0.19509907066822052
1773257632063984600,7.582984619140625,-0.08425424247980118,-0.03138621896505356,0.24416515231132507
1773257632074000600,7.593000732421875,-0.0956963449716568,-0.005882413126528263,0.26616477966308594
1773257632084016600,7.6030166015625,-0.11849965900182724,0.03301731497049332,0.26833951473236084
1773257632094031600,7.613031494140625,-0.1339711844921112,0.10169623792171478,0.24917291104793549
1773257632104047600,7.623047607421875,-0.14511437714099884,0.17910952866077423,0.23318062722682953
1773257632114062600,7.6330625,-0.1415269523859024,0.21638287603855133,0.24285441637039185
1773257632124078800,7.643078857421875,-0.13077151775360107,0.21429282426834106,0.2694532573223114
1773257632134093600,7.653093505859375,-0.14568081498146057,0.21363778412342072,0.26465147733688354
1773257632144109800,7.66310986328125,-0.17315104603767395,0.20185008645057678,0.22028373181819916
1773257632154124800,7.673124755859375,-0.17366831004619598,0.20436275005340576,0.17901812493801117
1773257632164140800,7.683140869140625,-0.14974567294120789,0.2018817514181137,0.16680219769477844
1773257632174155800,7.69315576171875,-0.12042762339115143,0.15010280907154083,0.19660016894340515
1773257632184171800,7.703171875,-0.10818080604076385,0.061889056116342545,0.26697924733161926
1773257632194186800,7.713186767578125,-0.11534162610769272,-0.043524812906980515,0.32743528485298157
1773257632204202800,7.72320263671875,-0.12715274095535278,-0.13736581802368164,0.36245158314704895
1773257632214217700,7.7332177734375,-0.14995107054710388,-0.19184064865112305,0.3750223219394684
1773257632224233700,7.743233642578125,-0.17321591079235077,-0.21093791723251343,0.358391672372818
1773257632234248700,7.753248779296875,-0.17936557531356812,-0.1747954785823822,0.35809141397476196
1773257632244264700,7.7632646484375,-0.16426971554756165,-0.1342291384935379,0.37538573145866394
1773257632254279700,7.77327978515625,-0.15139147639274597,-0.088105209171772,0.3886735737323761
1773257632264295700,7.783295654296875,-0.1485631912946701,-0.04092784225940704,0.3883982002735138
1773257632274311000,7.793310791015625,-0.14543449878692627,-0.013374320231378078,0.3829434812068939
1773257632284327000,7.803326904296875,-0.13060522079467773,-0.004033549688756466,0.39008501172065735
1773257632294342000,7.813341796875,-0.10620496422052383,-0.007879726588726044,0.4104567766189575
1773257632304358000,7.82335791015625,-0.08564110100269318,-0.024975357577204704,0.4185408055782318
1773257632314373600,7.83337353515625,-0.0706784576177597,-0.04395245388150215,0.38775524497032166
1773257632324388900,7.843388916015625,-0.06385251134634018,-0.03595684468746185,0.33372023701667786
1773257632334404600,7.853404541015625,-0.06596169620752335,-0.026461755856871605,0.2881873548030853
1773257632344419800,7.863419921875,-0.0833183154463768,-0.01777452416718006,0.24492427706718445
1773257632354435600,7.873435546875,-0.10181094706058502,-0.013269827701151371,0.21298332512378693
1773257632364450800,7.883450927734375,-0.11566683650016785,-0.00923380721360445,0.1700981706380844
1773257632374466800,7.893466796875,-0.12032130360603333,-0.0031548188999295235,0.1349351704120636
1773257632384481800,7.903481689453125,-0.12615549564361572,0.015705952420830727,0.11752129346132278
1773257632394497800,7.913497802734375,-0.13190990686416626,0.012577086687088013,0.1091545820236206
1773257632404512800,7.9235126953125,-0.13138580322265625,-0.005574753507971764,0.09132951498031616
1773257632414528800,7.93352880859375,-0.12341157346963882,-0.01768428273499012,0.05931413173675537
1773257632424543700,7.943543701171875,-0.12760977447032928,0.0015032592928037047,0.027326902374625206
1773257632434559700,7.953559814453125,-0.14598847925662994,0.05119093507528305,-0.013134796172380447
1773257632444574700,7.96357470703125,-0.17342543601989746,0.10484537482261658,-0.06330236047506332
1773257632454590700,7.9735908203125,-0.20948326587677002,0.12454873323440552,-0.11640691757202148
1773257632464605700,7.983605712890625,-0.24074238538742065,0.14870280027389526,-0.158155158162117
1773257632474621700,7.99362158203125,-0.2720893919467926,0.18582217395305634,-0.19907991588115692
1773257632484636700,8.00363671875,-0.3125055432319641,0.19518744945526123,-0.2691943049430847
1773257632494652700,8.013652587890626,-0.37344369292259216,0.265808641910553,-0.35354647040367126
1773257632504667600,8.023667724609375,-0.4366287887096405,0.3320350646972656,-0.4392286241054535
1773257632514683600,8.03368359375,-0.4889508783817291,0.3637165427207947,-0.488994836807251
1773257632524698600,8.04369873046875,-0.5151023268699646,0.3240695297718048,-0.480966717004776
1773257632534714600,8.053714599609375,-0.5163859128952026,0.27414676547050476,-0.43883344531059265
1773257632544731000,8.06373095703125,-0.5019198656082153,0.2403150200843811,-0.40784117579460144
1773257632554745900,8.073745849609375,-0.5015697479248047,0.27238938212394714,-0.4060373306274414
1773257632564761900,8.083761962890625,-0.504455029964447,0.3655930757522583,-0.4117801785469055
1773257632574776800,8.09377685546875,-0.501230001449585,0.4605638086795807,-0.41509848833084106
1773257632584792800,8.103792724609375,-0.4772689640522003,0.5318483710289001,-0.3948605954647064
1773257632594807800,8.113807861328125,-0.43266478180885315,0.5868085026741028,-0.33068346977233887
1773257632604823800,8.12382373046875,-0.3747282326221466,0.6313557028770447,-0.24779817461967468
1773257632614838800,8.1338388671875,-0.32088857889175415,0.6216995716094971,-0.19427695870399475
1773257632624854800,8.143854736328125,-0.2809494137763977,0.5876302719116211,-0.17208750545978546
1773257632634869800,8.153869873046874,-0.25232839584350586,0.554478108882904,-0.16878311336040497
1773257632644885800,8.1638857421875,-0.2174721509218216,0.5324545502662659,-0.15360069274902344
1773257632654900700,8.173900634765625,-0.17783907055854797,0.48500701785087585,-0.1058407872915268
1773257632664916700,8.183916748046874,-0.12065301835536957,0.3903934359550476,-0.024981092661619186
1773257632674931700,8.193931640625,-0.06055857986211777,0.2951730489730835,0.0417950414121151
1773257632684947700,8.20394775390625,-0.011975332163274288,0.22946010529994965,0.07732293754816055
1773257632694962700,8.213962646484376,0.012956097722053528,0.18287402391433716,0.08014218509197235
1773257632704978700,8.223978759765625,0.027751291170716286,0.14778368175029755,0.07274632155895233
1773257632714993700,8.23399365234375,0.047822412103414536,0.13428008556365967,0.09029315412044525
1773257632725010000,8.244010009765624,0.06477290391921997,0.09346766769886017,0.11815302073955536
1773257632735024600,8.254024658203125,0.08026015013456345,0.04229538515210152,0.16727860271930695
1773257632745041000,8.264041015625,0.0921221375465393,-0.007446070667356253,0.2480730563402176
1773257632755055900,8.274055908203126,0.09403535723686218,-0.05183633044362068,0.3245023190975189
1773257632765072000,8.28407177734375,0.0844825953245163,-0.09513000398874283,0.38561972975730896
1773257632775087900,8.294087890625,0.0636393278837204,-0.11562539637088776,0.4563083052635193
1773257632785102800,8.304102783203126,0.033962130546569824,-0.11357901990413666,0.5140941739082336
1773257632795118800,8.314118896484375,0.00405554985627532,-0.09215099364519119,0.5505669713020325
1773257632805133800,8.3241337890625,-0.019778143614530563,-0.023549556732177734,0.5771765112876892
1773257632815149800,8.33414990234375,-0.028594519942998886,0.0341099351644516,0.5875023603439331
1773257632825164800,8.344164794921875,-0.02374090999364853,0.045158326625823975,0.5947003364562988
1773257632835180800,8.354180908203125,-0.02456909418106079,0.028841881081461906,0.6208980679512024
1773257632845195800,8.36419580078125,-0.044634681195020676,0.02249450422823429,0.6469413638114929
1773257632855211800,8.374211669921875,-0.08386114239692688,-0.021851373836398125,0.6615948677062988
1773257632865226800,8.384226806640624,-0.11542945355176926,-0.0781703069806099,0.6752800345420837
1773257632875242800,8.39424267578125,-0.12069981545209885,-0.11363513022661209,0.6710919141769409
1773257632885257700,8.4042578125,-0.10323134064674377,-0.09899120032787323,0.6337088346481323
1773257632895273700,8.414273681640625,-0.07620451599359512,-0.05237960070371628,0.5866944789886475
1773257632905288700,8.424288818359376,-0.04572197422385216,-0.007454469799995422,0.5514376759529114
1773257632915305000,8.434304931640625,-0.017147626727819443,0.014581042341887951,0.5253831744194031
1773257632925320000,8.44431982421875,0.004364856518805027,0.014652415178716183,0.5110995769500732
1773257632935336000,8.4543359375,0.01894129067659378,0.0025250776670873165,0.4974513053894043
1773257632945351000,8.464350830078125,0.029510844498872757,-0.01004237961024046,0.48842158913612366
1773257632955367000,8.474366943359374,0.03181455284357071,-0.022247934713959694,0.4697583317756653
1773257632965382000,8.4843818359375,0.03835900500416756,-0.02077414095401764,0.4452034533023834
1773257632975398000,8.49439794921875,0.047524694353342056,-0.017473677173256874,0.4139612317085266
1773257632985412900,8.504412841796874,0.05481136962771416,-0.010104178451001644,0.3757163882255554
1773257632995428900,8.514428955078126,0.057246770709753036,-0.010042977519333363,0.33470189571380615
1773257633005443800,8.52444384765625,0.04714513570070267,0.006076337769627571,0.2912553548812866
1773257633015459800,8.5344599609375,0.025417510420084,0.04021754488348961,0.2530991733074188
1773257633025474800,8.544474853515625,-0.0020729703828692436,0.08816536515951157,0.20879507064819336
1773257633035490800,8.55449072265625,-0.027166567742824554,0.12178496271371841,0.14760704338550568
1773257633045505800,8.564505859375,-0.05055684596300125,0.14272619783878326,0.07849881798028946
1773257633055521800,8.574521728515625,-0.06395977735519409,0.15945616364479065,0.022619061172008514
1773257633065537800,8.584537841796875,-0.07415648549795151,0.1611880213022232,-0.01227873470634222
1773257633075552800,8.594552734375,-0.08767929673194885,0.15923455357551575,-0.033862534910440445
1773257633085569000,8.604569091796876,-0.10073357820510864,0.1485361009836197,-0.057688239961862564
1773257633095584000,8.614583984375,-0.115024633705616,0.13485650718212128,-0.09195300936698914
1773257633105600000,8.62460009765625,-0.12813085317611694,0.1558118611574173,-0.12677329778671265
1773257633115615000,8.634614990234375,-0.15276478230953217,0.18826985359191895,-0.14356161653995514
1773257633125631000,8.644630859375,-0.17897534370422363,0.1988801509141922,-0.13504855334758759
1773257633135646000,8.65464599609375,-0.19810494780540466,0.2066417783498764,-0.11454450339078903
1773257633145662000,8.664661865234375,-0.20287439227104187,0.2118714153766632,-0.09130709618330002
1773257633155677000,8.674677001953125,-0.19497720897197723,0.21052402257919312,-0.0655917078256607
1773257633165693000,8.68469287109375,-0.184382364153862,0.21119193732738495,-0.044540487229824066
1773257633175708000,8.6947080078125,-0.17256541550159454,0.1622725874185562,-0.03150694817304611
1773257633185724000,8.704723876953125,-0.14201469719409943,0.18199223279953003,-0.021802125498652458
1773257633195739000,8.71473876953125,-0.1053924709558487,0.1668950468301773,-0.003215683624148369
1773257633205755000,8.7247548828125,-0.05621347576379776,0.13340233266353607,0.024350963532924652
1773257633215769900,8.734769775390625,-0.0030630980618298054,0.08795120567083359,0.06267935037612915
1773257633225785900,8.744785888671874,0.041121404618024826,0.04743121191859245,0.09968317300081253
1773257633235800800,8.75480078125,0.06524217128753662,0.01780814677476883,0.12616406381130219
1773257633245816800,8.76481689453125,0.07132482528686523,-0.016285374760627747,0.15211817622184753
1773257633255831800,8.774831787109376,0.060775138437747955,-0.05206131935119629,0.18352365493774414
1773257633265847800,8.784847900390625,0.04288189485669136,-0.09488734602928162,0.2212955206632614
1773257633275862500,8.794862548828124,0.019567910581827164,-0.13274547457695007,0.26862797141075134
1773257633285878500,8.80487841796875,0.002086922526359558,-0.149990513920784,0.3022221624851227
1773257633295893500,8.8148935546875,-0.007072560489177704,-0.15457656979560852,0.3082263767719269
1773257633305909500,8.824909423828124,-0.007328756153583527,-0.14113479852676392,0.28791314363479614
1773257633315924500,8.834924560546876,-0.0014974239747971296,-0.10369556397199631,0.24182887375354767
1773257633325940700,8.844940673828125,-0.0059457020834088326,-0.06681424379348755,0.1872418075799942
1773257633335955700,8.854955810546874,-0.014097429811954498,-0.04921388626098633,0.14539533853530884
1773257633345971700,8.8649716796875,-0.02242433652281761,-0.038187067955732346,0.12822407484054565
1773257633355986700,8.874986572265625,-0.03389508277177811,-0.02214771881699562,0.11486484110355377
1773257633366002400,8.88500244140625,-0.046402622014284134,0.011012363247573376,0.10080014914274216
1773257633376017700,8.895017578125,-0.05536569282412529,0.04243163391947746,0.08652904629707336
1773257633386033400,8.905033447265625,-0.06663885712623596,0.07183985412120819,0.06943847984075546
1773257633396048600,8.915048583984374,-0.0673687607049942,0.08924184739589691,0.0637543648481369
1773257633406064400,8.925064453125,-0.05468997731804848,0.10496114939451218,0.05636436492204666
1773257633416079600,8.93507958984375,-0.041382864117622375,0.1296226680278778,0.034906961023807526
1773257633426095400,8.945095458984374,-0.02799728326499462,0.15665854513645172,0.007844983600080013
1773257633436110600,8.955110595703125,-0.00706767151132226,0.1677653193473816,-0.012403394095599651
1773257633446126300,8.965126220703125,0.021684881299734116,0.17802222073078156,-0.015660705044865608
1773257633456142300,8.975142333984374,0.049793533980846405,0.1923159807920456,-0.030674351379275322
1773257633466157300,8.9851572265625,0.05866585671901703,0.19345581531524658,-0.04949837550520897
1773257633476173300,8.99517333984375,0.03961503133177757,0.1686881184577942,-0.06080302596092224
1773257633486188300,9.005188232421874,0.0019872281700372696,0.13468009233474731,-0.06218014657497406
1773257633496204500,9.01520458984375,-0.027144331485033035,0.08600973337888718,-0.04913968965411186
1773257633506219500,9.025219482421875,-0.032490093261003494,0.05366590619087219,-0.030687449499964714
1773257633516235500,9.035235595703124,-0.013242156244814396,0.03169126808643341,-0.002723433542996645
1773257633526250500,9.04525048828125,0.015114917419850826,0.0082826167345047,0.026523133739829063
1773257633536266500,9.0552666015625,0.034124694764614105,-0.009700033813714981,0.054454777389764786
1773257633546281500,9.065281494140624,0.04462500661611557,-0.039854470640420914,0.08541296422481537
1773257633556297500,9.07529736328125,0.0513765774667263,-0.08460211008787155,0.13167694211006165
1773257633566312400,9.0853125,0.06182362511754036,-0.10744057595729828,0.19118501245975494
1773257633576328400,9.095328369140624,0.07055027037858963,-0.1167464628815651,0.23841643333435059
1773257633586343400,9.105343505859375,0.07839354127645493,-0.11636430025100708,0.26746779680252075
1773257633596359400,9.115359375,0.08203014731407166,-0.11222916096448898,0.2724379897117615
1773257633606374400,9.12537451171875,0.0714520737528801,-0.10998678207397461,0.2708962857723236
1773257633616390400,9.135390380859375,0.05274656414985657,-0.11393513530492783,0.25537195801734924
1773257633626405400,9.1454052734375,0.03959028050303459,-0.11421583592891693,0.23562301695346832
1773257633636421400,9.15542138671875,0.036674614995718,-0.11251073330640793,0.22169926762580872
1773257633646436400,9.165436279296875,0.04365822300314903,-0.10645097494125366,0.2112434357404709
1773257633656452400,9.175452392578125,0.053658489137887955,-0.11050759255886078,0.20244795083999634
1773257633666467300,9.18546728515625,0.06351830810308456,-0.11907737702131271,0.19778688251972198
1773257633676483300,9.1954833984375,0.0746757909655571,-0.1285821497440338,0.20109513401985168
1773257633686498300,9.205498291015624,0.0844128429889679,-0.13432738184928894,0.21560242772102356
1773257633696514600,9.2155146484375,0.09173137694597244,-0.13720005750656128,0.23277835547924042
1773257633706529500,9.225529541015625,0.09719804674386978,-0.12712211906909943,0.24539586901664734
1773257633716545500,9.235545654296875,0.10119818150997162,-0.11873055249452591,0.2513173520565033
1773257633726560500,9.245560546875,0.10042186826467514,-0.11367534101009369,0.2487516701221466
1773257633736576500,9.255576416015625,0.10271786898374557,-0.10608287155628204,0.23948325216770172
1773257633746591500,9.265591552734374,0.10360576957464218,-0.08998192846775055,0.2238246649503708
1773257633756607500,9.275607421875,0.10580100864171982,-0.08192256093025208,0.2076062560081482
1773257633766622500,9.28562255859375,0.10595308244228363,-0.08254361152648926,0.20018242299556732
1773257633776638500,9.295638427734374,0.10421190410852432,-0.08364216983318329,0.19376686215400696
1773257633786653400,9.3056533203125,0.10583669692277908,-0.08238169550895691,0.19849610328674316
1773257633796669400,9.31566943359375,0.11342444270849228,-0.06819507479667664,0.19810613989830017
1773257633806684400,9.325684326171874,0.11696085333824158,-0.051750849932432175,0.19693194329738617
1773257633816700400,9.335700439453126,0.12081680446863174,-0.06663926690816879,0.1933252364397049
1773257633826715400,9.34571533203125,0.11885751783847809,-0.09630421549081802,0.20018073916435242
1773257633836731400,9.3557314453125,0.12321335077285767,-0.10115037858486176,0.1962648630142212
1773257633846746400,9.365746337890625,0.1245928704738617,-0.0919150710105896,0.19304296374320984
1773257633856762400,9.375762451171875,0.12119661271572113,-0.09142836928367615,0.1924109309911728
1773257633866777300,9.38577734375,0.11612595617771149,-0.10220858454704285,0.20415626466274261
1773257633876793600,9.395793701171876,0.10831692069768906,-0.11331262439489365,0.22250929474830627
1773257633886808300,9.405808349609375,0.09905152022838593,-0.12668196856975555,0.238128200173378
1773257633906213600,9.425213623046876,0.09698216617107391,-0.14697949588298798,0.24512150883674622
1773257633916229400,9.4352294921875,0.10141153633594513,-0.1521252542734146,0.2477540373802185
1773257633926244600,9.44524462890625,0.0939866453409195,-0.15656687319278717,0.25839388370513916
1773257633936260400,9.45526025390625,0.0816231444478035,-0.16502763330936432,0.26368188858032227
1773257633946275600,9.465275634765625,0.06611581891775131,-0.1665826439857483,0.2595459818840027
1773257633956291300,9.475291259765624,0.04313256964087486,-0.16934774816036224,0.2602798342704773
1773257633966306600,9.485306640625,0.021326608955860138,-0.1759270876646042,0.2718731164932251
1773257633976322300,9.495322265625,0.0032306197099387646,-0.18705321848392487,0.2821729779243469
1773257633986337500,9.505337646484374,-0.010044172406196594,-0.19190256297588348,0.29441899061203003
1773257633996353500,9.515353515625,-0.03466888144612312,-0.2136019617319107,0.3088688254356384
1773257634006368500,9.525368408203125,-0.05542396381497383,-0.23149387538433075,0.31974491477012634
1773257634016384500,9.535384521484374,-0.06156348064541817,-0.2643166184425354,0.31876978278160095
1773257634026399500,9.5453994140625,-0.05749550089240074,-0.30059847235679626,0.30289894342422485
1773257634036415500,9.55541552734375,-0.057423822581768036,-0.3462335765361786,0.2908387780189514
1773257634046430500,9.565430419921874,-0.05448928847908974,-0.3825766444206238,0.27741539478302
1773257634056446500,9.575446533203126,-0.04850763827562332,-0.4026535749435425,0.27241191267967224
1773257634066461400,9.58546142578125,-0.029335808008909225,-0.4198373556137085,0.26445627212524414
1773257634076477400,9.5954775390625,-0.004795481450855732,-0.4421469569206238,0.24612566828727722
1773257634086492400,9.605492431640625,0.020684577524662018,-0.43653276562690735,0.23390521109104156
1773257634096508400,9.61550830078125,0.03663681820034981,-0.40439608693122864,0.2179441601037979
1773257634106523400,9.6255234375,0.03707357496023178,-0.3778693974018097,0.1935884803533554
1773257634116539400,9.635539306640625,0.033067554235458374,-0.3716754913330078,0.17038099467754364
1773257634126555400,9.645555419921875,0.030231555923819542,-0.357917845249176,0.14532490074634552
1773257634136570400,9.6555703125,0.029213029891252518,-0.33575788140296936,0.10751988738775253
1773257634146585300,9.66558544921875,0.03434387594461441,-0.307430624961853,0.05994251370429993
1773257634156601300,9.675601318359375,0.041067179292440414,-0.2807883620262146,0.021242111921310425
1773257634166617300,9.685617431640624,0.06315596401691437,-0.2526201009750366,-0.000994750065729022
1773257634176632300,9.69563232421875,0.08996105939149857,-0.22998297214508057,-0.005586960352957249
1773257634186648600,9.705648681640625,0.10421456396579742,-0.20846356451511383,-0.011808637529611588
1773257634196663600,9.71566357421875,0.10791333764791489,-0.2011248767375946,-0.012732628732919693
1773257634206679600,9.725679443359375,0.10528533160686493,-0.20198188722133636,-0.0019644026178866625
1773257634216694500,9.735694580078125,0.09895208477973938,-0.21054789423942566,0.015636108815670013
1773257634226710500,9.74571044921875,0.0912821814417839,-0.21074843406677246,0.03406944498419762
1773257634236725500,9.7557255859375,0.0770605206489563,-0.20461304485797882,0.04919632151722908
1773257634246741500,9.765741455078125,0.053814057260751724,-0.18675628304481506,0.052229929715394974
1773257634256756500,9.775756591796876,0.04332779720425606,-0.15382824838161469,0.05864337459206581
1773257634266772700,9.785772705078125,0.05212155729532242,-0.11577620357275009,0.08514369279146194
1773257634276787700,9.79578759765625,0.06356050074100494,-0.10127011686563492,0.11682885140180588
1773257634286803700,9.8058037109375,0.06524095684289932,-0.08597371727228165,0.11980360746383667
1773257634296818700,9.815818603515625,0.06454265862703323,-0.0756244957447052,0.10401690751314163
1773257634306834700,9.825834716796875,0.06518927216529846,-0.06920148432254791,0.09892255067825317
1773257634316849700,9.835849609375,0.07520987838506699,-0.06446465104818344,0.1138315349817276
1773257634326866000,9.845865966796875,0.07794813811779022,-0.059423819184303284,0.1269470751285553
1773257634336880600,9.855880615234375,0.07243681699037552,-0.05919738486409187,0.12939414381980896
1773257634346897000,9.86589697265625,0.058217935264110565,-0.05194906145334244,0.12700635194778442
1773257634356911900,9.875911865234375,0.040504150092601776,-0.048497993499040604,0.12386573851108551
1773257634366928000,9.885927978515625,0.01956823840737343,-0.04835178703069687,0.12444071471691132
1773257634376942800,9.89594287109375,-0.007448675110936165,-0.05735161900520325,0.12016360461711884
1773257634386958800,9.905958740234375,-0.03128582984209061,-0.07565765082836151,0.1045692041516304
1773257634396973800,9.915973876953124,-0.04652474448084831,-0.08897172659635544,0.08920281380414963
1773257634406989800,9.92598974609375,-0.05742080137133598,-0.08585609495639801,0.06856784224510193
1773257634417004800,9.9360048828125,-0.06003585457801819,-0.0840497761964798,0.043752022087574005
1773257634427020800,9.946020751953125,-0.0615629106760025,-0.08750975131988525,0.020709283649921417
1773257634437035800,9.956035888671876,-0.06253675371408463,-0.09153707325458527,-0.0027718269266188145
1773257634447051800,9.9660517578125,-0.0667719766497612,-0.09248010069131851,-0.017382994294166565
1773257634457066800,9.976066650390624,-0.08373190462589264,-0.08622128516435623,-0.025266390293836594
1773257634467082800,9.986082763671876,-0.1047905832529068,-0.06201262027025223,-0.021186960861086845
1773257634477097700,9.99609765625,-0.12174564599990845,-0.026573719456791878,-0.017190011218190193
1773257634487113700,10.00611376953125,-0.12814097106456757,-0.009524163790047169,-0.028016293421387672
1773257634497128700,10.016128662109375,-0.13443118333816528,-0.0021419464610517025,-0.047174446284770966
1773257634507144700,10.026144775390625,-0.13919131457805634,0.008211358450353146,-0.06623788923025131
1773257634517159700,10.03615966796875,-0.15265913307666779,0.02536643110215664,-0.08673284947872162
1773257634527176000,10.046176025390626,-0.16047950088977814,0.0464397594332695,-0.09843318164348602
1773257634537191000,10.05619091796875,-0.17015205323696136,0.06685777008533478,-0.10413075983524323
1773257634547207000,10.06620703125,-0.1886141449213028,0.08721577376127243,-0.10305271297693253
1773257634557222000,10.076221923828125,-0.20572452247142792,0.10664810985326767,-0.09153208136558533
1773257634567238000,10.08623779296875,-0.21674920618534088,0.12080174684524536,-0.08185575157403946
1773257634577252900,10.0962529296875,-0.21558831632137299,0.12882524728775024,-0.07699897140264511
1773257634587268900,10.106268798828125,-0.19404840469360352,0.13888613879680634,-0.07893961668014526
1773257634597283800,10.116283935546875,-0.15616001188755035,0.14558231830596924,-0.08724722266197205
1773257634607299800,10.1262998046875,-0.11752019822597504,0.14720018208026886,-0.09654378890991211
1773257634617314800,10.136314697265625,-0.09542327374219894,0.1489841192960739,-0.10073651373386383
1773257634627330800,10.146330810546875,-0.08661592751741409,0.14682643115520477,-0.08741085976362228
1773257634637345800,10.156345703125,-0.09103336930274963,0.14305944740772247,-0.06184154003858566
1773257634647361800,10.16636181640625,-0.103753961622715,0.139543816447258,-0.03406929224729538
1773257634657376800,10.176376708984375,-0.12594638764858246,0.13047748804092407,-0.0065835583955049515
1773257634667392800,10.186392822265624,-0.14546015858650208,0.11131631582975388,0.028762446716427803
1773257634677407700,10.19640771484375,-0.1729622334241867,0.08652615547180176,0.06552479416131973
1773257634687423700,10.206423828125,-0.20845870673656464,0.04912392795085907,0.10241596400737762
1773257634697438700,10.216438720703126,-0.2376445084810257,0.02481715753674507,0.13058501482009888
1773257634707454700,10.226454833984375,-0.2570562958717346,0.019189897924661636,0.1385827511548996
1773257634717469700,10.2364697265625,-0.25728505849838257,0.026302402839064598,0.13645941019058228
1773257634727486000,10.24648583984375,-0.24174977838993073,0.03989837318658829,0.13048593699932098
1773257634737501000,10.2565009765625,-0.21114572882652283,0.05376463383436203,0.11665818840265274
1773257634747517000,10.266516845703125,-0.17142334580421448,0.07193351536989212,0.10372108221054077
1773257634757532000,10.276531982421876,-0.13045565783977509,0.0823497548699379,0.10320869088172913
1773257634767548000,10.2865478515625,-0.09707798808813095,0.07919178158044815,0.10912410169839859
1773257634777563000,10.29656298828125,-0.07333916425704956,0.06671230494976044,0.12665580213069916
1773257634787579000,10.306578857421876,-0.061798084527254105,0.06560470163822174,0.14269627630710602
1773257634797593900,10.31659375,-0.052986904978752136,0.058537423610687256,0.146948903799057
1773257634807609900,10.32660986328125,-0.05239967629313469,0.043724656105041504,0.15168693661689758
1773257634817624800,10.336624755859376,-0.05445508286356926,0.02091689221560955,0.15320546925067902
1773257634827640800,10.346640869140625,-0.05853398144245148,-0.0019037348683923483,0.16031505167484283
1773257634837655800,10.35665576171875,-0.06275337934494019,-0.027416938915848732,0.17996108531951904
1773257634847671800,10.366671875,-0.06249399110674858,-0.048499055206775665,0.19476667046546936
1773257634857686800,10.376686767578125,-0.05703534558415413,-0.05058283731341362,0.20867986977100372
1773257634867702800,10.386702880859374,-0.046478044241666794,-0.037309907376766205,0.2106548696756363
1773257634877717800,10.3967177734375,-0.034254416823387146,-0.03191933408379555,0.20157618820667267
1773257634887733800,10.406733642578125,-0.026066528633236885,-0.023538898676633835,0.17957234382629395
1773257634897748700,10.416748779296874,-0.020580798387527466,-0.02253461629152298,0.16189546883106232
1773257634907765000,10.426764892578126,-0.018654532730579376,-0.01686927303671837,0.14654527604579926
1773257634917779700,10.43677978515625,-0.02181774005293846,-0.001822117599658668,0.13117948174476624
1773257634927796000,10.4467958984375,-0.02561035007238388,0.012186642736196518,0.12157426029443741
1773257634937811000,10.45681103515625,-0.025861447677016258,0.026870792731642723,0.11064915359020233
1773257634947827000,10.466826904296875,-0.016619212925434113,0.042497418820858,0.09739059954881668
1773257634957842000,10.476842041015624,-0.0075492849573493,0.05224352329969406,0.08007046580314636
1773257634967858000,10.48685791015625,-0.003091952530667186,0.05019395425915718,0.06544598937034607
1773257634977873000,10.496872802734375,-0.0023746490478515625,0.041902996599674225,0.06026015803217888
1773257634987889000,10.506888916015624,-0.004543261136859655,0.03545654937624931,0.063076451420784
1773257634997904000,10.51690380859375,-0.010807663202285767,0.012449773959815502,0.07439953088760376
1773257635007919900,10.526919921875,-0.022757001221179962,-0.018619993701577187,0.09069408476352692
1773257635017934800,10.536934814453126,-0.033148083835840225,-0.040086779743433,0.1117786094546318
1773257635027950800,10.546950927734375,-0.04470700025558472,-0.06034837290644646,0.12548749148845673
1773257635037966800,10.556966796875,-0.05243144556879997,-0.06183740869164467,0.11985939741134644
1773257635047981800,10.56698193359375,-0.05399684980511665,-0.04782066121697426,0.10076159983873367
1773257635057997800,10.576997802734375,-0.05358261242508888,-0.037399593740701675,0.0794076919555664
1773257635068012800,10.5870126953125,-0.05393068864941597,-0.017841074615716934,0.06593262404203415
1773257635078028800,10.59702880859375,-0.04722347855567932,0.01950269564986229,0.05395127460360527
1773257635088043800,10.607043701171875,-0.045689765363931656,0.056542739272117615,0.029898671433329582
1773257635098059800,10.617059814453125,-0.045888472348451614,0.07718944549560547,0.006836045999079943
1773257635108075000,10.627074951171876,-0.04958361014723778,0.0957183912396431,-0.012442577630281448
1773257635118090800,10.6370908203125,-0.06157991662621498,0.08920317143201828,-0.004965121857821941
1773257635128106000,10.64710595703125,-0.0744166225194931,0.07749751210212708,0.01601046696305275
1773257635138121000,10.657120849609376,-0.0719950795173645,0.0927443578839302,0.030714882537722588
1773257635148137000,10.667136962890625,-0.06318321079015732,0.12958920001983643,0.02791350521147251
1773257635158152000,10.67715185546875,-0.05556653439998627,0.14892630279064178,0.011906590312719345
1773257635168168000,10.68716796875,-0.046467311680316925,0.15085415542125702,-0.011091936379671097
1773257635178183000,10.697182861328125,-0.03799906745553017,0.16398820281028748,-0.03965160623192787
1773257635188199000,10.707198974609375,-0.043520066887140274,0.17066314816474915,-0.0643303245306015
1773257635198214000,10.7172138671875,-0.05515172705054283,0.17260202765464783,-0.05202413350343704
1773257635208230000,10.72722998046875,-0.06289833039045334,0.19379360973834991,-0.029171282425522804
1773257635218245600,10.73724560546875,-0.06034635752439499,0.2189583033323288,-0.01971474662423134
1773257635228260900,10.7472607421875,-0.06576642394065857,0.23572343587875366,-0.028439795598387718
1773257635238275800,10.75727587890625,-0.0744834840297699,0.22033821046352386,-0.030129337683320045
1773257635248291800,10.767291748046874,-0.0879574790596962,0.18198123574256897,-0.006573678459972143
1773257635258307600,10.7773076171875,-0.10957619547843933,0.09948510676622391,0.03778553754091263
1773257635268322600,10.787322509765625,-0.13556599617004395,-0.015000997111201286,0.10006515681743622
1773257635278337500,10.797337646484374,-0.15773780643939972,-0.10224449634552002,0.182346373796463
1773257635288353500,10.807353515625,-0.1697305589914322,-0.12028235197067261,0.24859783053398132
1773257635298368500,10.817368408203125,-0.16052943468093872,-0.08379870653152466,0.2645936608314514
1773257635308384800,10.827384765625,-0.11543305963277817,-0.007154799997806549,0.22668197751045227
1773257635318399700,10.837399658203125,-0.04685240611433983,0.06925315409898758,0.16495683789253235
1773257635328415700,10.847415771484375,0.018578533083200455,0.11948569864034653,0.0994715541601181
1773257635338430700,10.8574306640625,0.04832518473267555,0.15214265882968903,0.0447857566177845
1773257635348446700,10.86744677734375,0.03950905427336693,0.16219955682754517,0.0017027320573106408
1773257635358461700,10.877461669921875,0.0025653631892055273,0.1567799299955368,-0.005836131516844034
1773257635368477700,10.887477783203124,-0.0460013709962368,0.13934127986431122,0.022976340726017952
1773257635378492700,10.89749267578125,-0.09069148451089859,0.10797133296728134,0.06306455284357071
1773257635388508700,10.9075087890625,-0.12099479138851166,0.07576466351747513,0.09829205274581909
1773257635398523600,10.917523681640626,-0.12306349724531174,0.050782740116119385,0.11057156324386597
1773257635408539600,10.92753955078125,-0.1184714064002037,0.03227110952138901,0.10117167234420776
1773257635418554600,10.9375546875,-0.12108805775642395,0.023019488900899887,0.08781442046165466
1773257635428570600,10.947570556640626,-0.14217284321784973,0.016156788915395737,0.08729404211044312
1773257635438585600,10.957585693359375,-0.1604956090450287,0.003950963728129864,0.1027219146490097
1773257635448601600,10.9676015625,-0.16647973656654358,0.0026366941165179014,0.11315751075744629
1773257635458616600,10.977616455078126,-0.16534346342086792,0.006238820031285286,0.1127576008439064
1773257635468632600,10.987632568359375,-0.1690891981124878,0.0058758314698934555,0.1127602607011795
1773257635478647600,10.9976474609375,-0.17074386775493622,-0.005284507758915424,0.12044493108987808
1773257635488663600,11.00766357421875,-0.16538211703300476,-0.014451640658080578,0.13174046576023102
1773257635498678500,11.017678466796875,-0.1500539630651474,-0.02405349165201187,0.14695924520492554
1773257635508694500,11.027694580078125,-0.13243262469768524,-0.04748984053730965,0.17274503409862518
1773257635518709800,11.037709716796876,-0.11139725148677826,-0.0759548470377922,0.20760275423526764
1773257635528725500,11.0477255859375,-0.09165817499160767,-0.09747425466775894,0.24228189885616302
1773257635538740700,11.05774072265625,-0.07497304677963257,-0.10262651741504669,0.26620495319366455
1773257635548756500,11.067756591796876,-0.06636624038219452,-0.09417843818664551,0.2648709714412689
1773257635558771700,11.077771728515625,-0.058657895773649216,-0.07848808914422989,0.2466820329427719
1773257635568787500,11.087787353515624,-0.05181463435292244,-0.05935914069414139,0.2188197672367096
1773257635578802700,11.097802734375,-0.05044099688529968,-0.049352243542671204,0.1823853701353073
1773257635588818400,11.107818359375,-0.048890773206949234,-0.03655282407999039,0.14961117506027222
1773257635598833700,11.117833740234374,-0.04991374909877777,-0.03226066380739212,0.13482697308063507
1773257635608849400,11.127849365234376,-0.0546182245016098,-0.016754144802689552,0.1322873830795288
1773257635618864600,11.13786474609375,-0.07485181093215942,0.0004780862363986671,0.12083437293767929
1773257635628880400,11.14788037109375,-0.10318305343389511,-0.003288688836619258,0.09860176593065262
1773257635638895600,11.1578955078125,-0.12175776064395905,-0.026714377105236053,0.08419058471918106
1773257635648911400,11.167911376953125,-0.13827922940254211,-0.05015898495912552,0.07656622678041458
1773257635658926600,11.177926513671874,-0.15393982827663422,-0.0834524929523468,0.07162033766508102
1773257635668942300,11.1879423828125,-0.16006721556186676,-0.1125272884964943,0.07123257964849472
1773257635678957600,11.19795751953125,-0.1511673480272293,-0.12339797616004944,0.0712796077132225
1773257635688973600,11.2079736328125,-0.13449302315711975,-0.11576642096042633,0.06567658483982086
1773257635698988500,11.217988525390625,-0.10946793109178543,-0.09335891902446747,0.04520709067583084
1773257635709004500,11.228004638671875,-0.08591653406620026,-0.05997059494256973,0.01554001122713089
1773257635719019800,11.238019775390624,-0.06789396703243256,-0.02053838036954403,-0.00548156164586544
1773257635729035500,11.248035400390625,-0.060960959643125534,0.017761869356036186,-0.0228594858199358
1773257635739050800,11.25805078125,-0.06148406118154526,0.04118857532739639,-0.03578346222639084
1773257635749066500,11.26806640625,-0.0647008940577507,0.05399065837264061,-0.039850376546382904
1773257635759081700,11.278081787109375,-0.06777668744325638,0.0552390031516552,-0.04367911443114281
1773257635769097500,11.288097412109375,-0.06938257813453674,0.04298686608672142,-0.04454357549548149
1773257635779112700,11.29811279296875,-0.07242299616336823,0.006917539518326521,-0.03484446182847023
1773257635789128400,11.30812841796875,-0.07463821023702621,-0.02719542384147644,-0.025858160108327866
1773257635799143700,11.318143798828125,-0.07868199050426483,-0.05360383912920952,-0.03287922963500023
1773257635809159400,11.328159423828126,-0.07807212322950363,-0.0677766501903534,-0.039297714829444885
1773257635819174700,11.338174560546875,-0.07240020483732224,-0.06905456632375717,-0.04259943217039108
1773257635829190400,11.3481904296875,-0.06284531205892563,-0.05033334717154503,-0.03603047877550125
1773257635839205400,11.358205322265626,-0.04895179346203804,-0.013983340933918953,-0.03500606492161751
1773257635849221400,11.368221435546875,-0.025756994262337685,0.012585951015353203,-0.04433858022093773
1773257635859236400,11.378236328125,-0.006891597993671894,0.02212439477443695,-0.05766966566443443
1773257635869252400,11.38825244140625,0.0031754174269735813,0.01663721725344658,-0.07170718908309937
1773257635879267300,11.398267333984375,0.007796058431267738,-0.005405415315181017,-0.07635547965765
1773257635889283600,11.40828369140625,0.00825811643153429,-0.027109112590551376,-0.05165359005331993
1773257635899298600,11.418298583984376,0.015745460987091064,-0.026908382773399353,-0.018977822735905647
1773257635909314600,11.428314453125,0.036876313388347626,-0.003484816290438175,-0.011099128052592278
1773257635919329500,11.43832958984375,0.05895720794796944,0.02609311416745186,-0.02766914665699005
1773257635929345500,11.448345458984376,0.07465255260467529,0.043518442660570145,-0.0547977015376091
1773257635939360500,11.458360595703125,0.08159276843070984,0.039377957582473755,-0.07591446489095688
1773257635949376500,11.46837646484375,0.08240662515163422,0.020959271118044853,-0.0795438215136528
1773257635959391500,11.4783916015625,0.07883673906326294,0.006075409706681967,-0.06480672210454941
1773257635969407500,11.488407470703125,0.0720914825797081,0.0031259586103260517,-0.04802880808711052
1773257635979422500,11.49842236328125,0.05648598447442055,0.010686326771974564,-0.03132133558392525
1773257635989438500,11.5084384765625,0.045153968036174774,0.03010396845638752,-0.026210196316242218
1773257635999453400,11.518453369140625,0.03961906582117081,0.03665342181921005,-0.03823215886950493
1773257636009469400,11.528469482421874,0.037484005093574524,0.032273322343826294,-0.059209611266851425
1773257636019484400,11.538484375,0.03980609402060509,0.024009931832551956,-0.07172680646181107
1773257636029500400,11.54850048828125,0.04050064459443092,0.025342311710119247,-0.07356758415699005
1773257636039515400,11.558515380859374,0.03747590631246567,0.027783621102571487,-0.06906774640083313
1773257636049531400,11.568531494140625,0.03194265440106392,0.03485484421253204,-0.07582924515008926
1773257636059546400,11.57854638671875,0.021716799587011337,0.0445757731795311,-0.08602293580770493
1773257636069561600,11.5885615234375,0.009417258203029633,0.0608450248837471,-0.0896829217672348
1773257636079577300,11.598577392578125,-0.005005795508623123,0.05998837575316429,-0.07979968935251236
1773257636089592600,11.608592529296875,-0.01563127525150776,0.05641680955886841,-0.07423501461744308
1773257636099608600,11.618608642578126,-0.023780643939971924,0.056471727788448334,-0.09411225467920303
1773257636109623600,11.62862353515625,-0.017361359670758247,0.07141552865505219,-0.1279091089963913
1773257636119639600,11.6386396484375,-0.0019322405569255352,0.0996224656701088,-0.15891344845294952
1773257636129654500,11.648654541015626,0.023887906223535538,0.12039751559495926,-0.1862044632434845
1773257636139670500,11.65867041015625,0.05658699572086334,0.12326574325561523,-0.1907467395067215
1773257636149685500,11.668685546875,0.08832184970378876,0.11117318272590637,-0.17653782665729523
1773257636159701500,11.678701416015626,0.11584868282079697,0.09574464708566666,-0.15514126420021057
1773257636169716500,11.688716552734375,0.13582639396190643,0.08711840212345123,-0.1385766565799713
1773257636179732500,11.698732421875,0.15322346985340118,0.09383201599121094,-0.12363211810588837
1773257636189747500,11.70874755859375,0.16321031749248505,0.10417280346155167,-0.10276997834444046
1773257636199763500,11.718763427734375,0.17242945730686188,0.09303080290555954,-0.08917833864688873
1773257636209778400,11.7287783203125,0.171767920255661,0.05374864116311073,-0.09687274694442749
1773257636219794400,11.73879443359375,0.15720953047275543,0.009454954415559769,-0.0964977890253067
1773257636229809400,11.748809326171875,0.13200536370277405,-0.012157662771642208,-0.07545535266399384
1773257636239825400,11.758825439453124,0.10110079497098923,-0.022832931950688362,-0.041777320206165314
1773257636249840400,11.76884033203125,0.07393895089626312,-0.023334939032793045,-0.010986914858222008
1773257636259856400,11.7788564453125,0.05052562057971954,-0.03016168810427189,-0.0004992459435015917
1773257636269871600,11.78887158203125,0.036146413534879684,-0.04182926192879677,-0.01654665544629097
1773257636279887600,11.7988876953125,0.022916801273822784,-0.0640394389629364,-0.04299524798989296
1773257636289902600,11.808902587890625,0.017699668183922768,-0.07687561213970184,-0.057348351925611496
1773257636299918600,11.818918701171874,0.015435525216162205,-0.07499566674232483,-0.06382706016302109
1773257636309933600,11.82893359375,0.021322177723050117,-0.061430323868989944,-0.07228818535804749
1773257636319949600,11.838949462890625,0.03361346200108528,-0.04081559553742409,-0.07782036811113358
1773257636329964500,11.848964599609374,0.04883955419063568,-0.012370104901492596,-0.07053715735673904
1773257636339980500,11.85898046875,0.0635254979133606,0.012285624630749226,-0.06695946305990219
1773257636349995500,11.86899560546875,0.07244335860013962,0.03374404460191727,-0.08096183836460114
1773257636360011500,11.879011474609374,0.06654394418001175,0.05278557538986206,-0.10910854488611221
1773257636370026500,11.889026611328125,0.0525335855782032,0.07308072596788406,-0.14481540024280548
1773257636380042500,11.89904248046875,0.02191273123025894,0.09896460175514221,-0.1799761801958084
1773257636390057500,11.909057373046876,0.0013174430932849646,0.13444297015666962,-0.18255838751792908
1773257636400073500,11.919073486328125,-0.010693279094994068,0.17294885218143463,-0.16113345324993134
1773257636410088400,11.92908837890625,-0.004895844031125307,0.18241053819656372,-0.14017383754253387
1773257636420104700,11.939104736328124,0.024554874747991562,0.17642469704151154,-0.14119073748588562
1773257636430119400,11.949119384765625,0.06383996456861496,0.17801807820796967,-0.15394914150238037
1773257636440135700,11.9591357421875,0.09787382930517197,0.1729399561882019,-0.16428886353969574
1773257636450150700,11.969150634765626,0.12294881790876389,0.1701076775789261,-0.167871356010437
1773257636460166700,11.979166748046875,0.13194599747657776,0.14955651760101318,-0.1634632796049118
1773257636470181600,11.989181640625,0.12039932608604431,0.09967818111181259,-0.14773623645305634
1773257636480196600,11.999196533203126,0.09531709551811218,0.025534193962812424,-0.11580564826726913
1773257636490212600,12.009212646484375,0.07038778066635132,-0.06622102111577988,-0.08149721473455429
1773257636500227600,12.0192275390625,0.05704163387417793,-0.15387530624866486,-0.0477382130920887
1773257636510243600,12.02924365234375,0.052606672048568726,-0.21315142512321472,-0.033684976398944855
1773257636520258600,12.039258544921875,0.053000207990407944,-0.2362426221370697,-0.029977481812238693
1773257636530274600,12.049274658203124,0.05380448326468468,-0.24321983754634857,-0.02623440884053707
1773257636540289500,12.05928955078125,0.06802557408809662,-0.22124344110488892,-0.033863674849271774
1773257636550305500,12.069305419921875,0.10280938446521759,-0.17696039378643036,-0.04823648929595947
1773257636560320500,12.079320556640624,0.14539116621017456,-0.14713791012763977,-0.06668122112751007
1773257636570336500,12.08933642578125,0.18458543717861176,-0.12074971199035645,-0.07142111659049988
1773257636580351500,12.0993515625,0.22195108234882355,-0.08261605352163315,-0.06755385547876358
1773257636590367500,12.109367431640624,0.25533512234687805,-0.02112632431089878,-0.07612816244363785
1773257636600382500,12.119382568359375,0.29624414443969727,0.05647081509232521,-0.08852559328079224
1773257636610398500,12.1293984375,0.33483999967575073,0.11505183577537537,-0.097865030169487
1773257636620413400,12.139413330078124,0.3452346622943878,0.14760543406009674,-0.10113392025232315
1773257636630429700,12.1494296875,0.3116210401058197,0.167591392993927,-0.09652984142303467
1773257636640444400,12.1594443359375,0.25358057022094727,0.17749729752540588,-0.08082187920808792
1773257636650460700,12.169460693359374,0.18774908781051636,0.1752554476261139,-0.05822575464844704
1773257636660475600,12.1794755859375,0.13554517924785614,0.15272489190101624,-0.024366000667214394
1773257636670491600,12.18949169921875,0.09136679023504257,0.11354340612888336,0.021429983898997307
1773257636680506600,12.199506591796874,0.0607852004468441,0.091913141310215,0.03671596944332123
1773257636690522600,12.209522705078125,0.0608280785381794,0.08273535966873169,0.027722205966711044
1773257636700537600,12.21953759765625,0.07679169625043869,0.07270769774913788,0.021846147254109383
1773257636710553600,12.2295537109375,0.09104173630475998,0.045798324048519135,0.02983030490577221
1773257636720568600,12.239568603515625,0.10158197581768036,0.01392180472612381,0.049158718436956406
1773257636730584600,12.24958447265625,0.10975681245326996,0.0007125262636691332,0.05037445202469826
1773257636740599600,12.259599609375,0.11700911819934845,-0.004736498463898897,0.02336709573864937
1773257636750615600,12.269615478515625,0.11957746744155884,0.006714827846735716,0.013462798669934273
1773257636760630500,12.279630615234375,0.11361583322286606,0.03136545419692993,0.0030532150994986296
1773257636770646500,12.289646484375,0.10383350402116776,0.04433850944042206,-0.0313686728477478
1773257636780661500,12.29966162109375,0.09027498960494995,0.038267623633146286,-0.0791286751627922
1773257636790677500,12.309677490234375,0.04853393882513046,0.049215614795684814,-0.13635921478271484
1773257636800692500,12.3196923828125,-0.01274083275347948,0.07387808710336685,-0.19456501305103302
1773257636810708500,12.32970849609375,-0.0775669664144516,0.10305009037256241,-0.24381990730762482
1773257636820723500,12.339723388671874,-0.12937529385089874,0.13802844285964966,-0.2736247181892395
1773257636830739700,12.34973974609375,-0.17383357882499695,0.17137281596660614,-0.29419124126434326
