time,seconds_elapsed,z,y,x
1773258200092800000,0.056800048828125,0.07491685450077057,0.1639428585767746,0.17708663642406464
1773258200102815700,0.066815673828125,0.02917572855949402,0.41880738735198975,0.18223771452903748
1773258200112831000,0.0768310546875,-0.03453374281525612,0.7860870957374573,0.1483180969953537
1773258200122846000,0.086845947265625,-0.14935673773288727,1.045880913734436,0.07791157811880112
1773258200132862000,0.096862060546875,-0.3010866045951843,1.237027883529663,0.023305589333176613
1773258200142877000,0.106876953125,-0.45595234632492065,1.2536494731903076,-0.0005888249143026769
1773258200152892000,0.116891845703125,-0.6617595553398132,1.1170176267623901,-0.021221399307250977
1773258200162908000,0.126907958984375,-0.9419454336166382,0.8902947306632996,-0.07471152395009995
1773258200172923000,0.1369228515625,-1.2247518301010132,0.7141021490097046,-0.1660904437303543
1773258200182937900,0.146937744140625,-1.5005993843078613,0.711089015007019,-0.2428469955921173
1773258200192953900,0.156953857421875,-1.734271764755249,0.8247362375259399,-0.26388171315193176
1773258200202968800,0.16696875,-1.8442094326019287,0.9274362325668335,-0.24013324081897736
1773258200212984800,0.17698486328125,-2.0118567943573,1.0819493532180786,-0.25944942235946655
1773258200222999800,0.186999755859375,-2.1466236114501953,1.2897952795028687,-0.24087519943714142
1773258200233014800,0.197014892578125,-2.2851977348327637,1.364870548248291,-0.24891501665115356
1773258200243031000,0.207031005859375,-2.451155424118042,1.2786248922348022,-0.36218777298927307
1773258200253045800,0.217045654296875,-2.5973033905029297,1.0124688148498535,-0.561503529548645
1773258200263060700,0.227060791015625,-2.6908817291259766,0.5042769908905029,-0.7890331149101257
1773258200273077000,0.237076904296875,-2.770796537399292,-0.24745826423168182,-1.0056594610214233
1773258200283092000,0.247092041015625,-2.8378360271453857,-1.1286112070083618,-1.2220348119735718
1773258200293107000,0.25710693359375,-2.8499953746795654,-1.9135395288467407,-1.3981568813323975
1773258200303123000,0.267123046875,-2.7742881774902344,-2.4540624618530273,-1.4996193647384644
1773258200313138000,0.277137939453125,-2.6651151180267334,-2.7546002864837646,-1.5032697916030884
1773258200323153000,0.28715283203125,-2.5527799129486084,-2.777642011642456,-1.3880510330200195
1773258200333169000,0.2971689453125,-2.251589059829712,-2.3590633869171143,-1.146613359451294
1773258200343184000,0.307183837890625,-1.3548907041549683,-1.5260030031204224,-0.7979035377502441
1773258200353199000,0.31719921875,-0.08412819355726242,-0.6020906567573547,-0.46263769268989563
1773258200363214800,0.32721484375,0.4899374842643738,-0.30009377002716064,-0.24949131906032562
1773258200373230000,0.33722998046875,0.4480243921279907,-0.5106251835823059,-0.10449019074440002
1773258200383245800,0.347245849609375,0.5596025586128235,-0.6949031352996826,0.058568503707647324
1773258200393261000,0.357260986328125,0.724693775177002,-0.6603361368179321,0.20000898838043213
1773258200403276000,0.367276123046875,0.7386183738708496,-0.7230743169784546,0.2500481903553009
1773258200413292000,0.3772919921875,0.6820837259292603,-1.0023137331008911,0.19022266566753387
1773258200423307000,0.38730712890625,0.5858852863311768,-1.4745502471923828,0.12774331867694855
1773258200433322000,0.397322021484375,0.4893438518047333,-1.6508961915969849,0.1526246964931488
1773258200443338000,0.407337890625,0.4355829060077667,-1.3976961374282837,0.2033296823501587
1773258200453353000,0.41735302734375,0.44341152906417847,-1.0114885568618774,0.23625993728637695
1773258200463368000,0.427367919921875,0.5055214762687683,-0.5566368699073792,0.15998780727386475
1773258200473384000,0.437384033203125,0.555452823638916,-0.30225732922554016,-0.04878964275121689
1773258200483399000,0.44739892578125,0.5036394596099854,-0.1665218621492386,-0.22319580614566803
1773258200493414000,0.457413818359375,0.5475166440010071,-0.11602593958377838,-0.26769402623176575
1773258200503430000,0.467429931640625,0.624409556388855,-0.18793794512748718,-0.2361707240343094
1773258200513444900,0.47744482421875,0.6193884015083313,-0.3195401728153229,-0.2821241021156311
1773258200523460900,0.4874609375,0.5395165085792542,-0.19382885098457336,-0.5704629421234131
1773258200533475800,0.497475830078125,0.4973120391368866,-0.08549652248620987,-0.8113011121749878
1773258200543490800,0.50749072265625,0.47877004742622375,0.626356840133667,-1.250903844833374
1773258200553506800,0.5175068359375,0.552011251449585,0.6884729266166687,-1.4448328018188477
1773258200563521800,0.527521728515625,0.6136466264724731,0.8584691882133484,-1.5555588006973267
1773258200573536800,0.537536865234375,0.6505838632583618,0.6949337720870972,-1.7238186597824097
1773258200583552800,0.547552734375,0.5561140775680542,0.30066344141960144,-1.7992076873779297
1773258200593567700,0.557567626953125,0.40958672761917114,0.06501229107379913,-1.7548415660858154
1773258200603583000,0.5675830078125,0.2703401446342468,0.12896330654621124,-1.8096776008605957
1773258200613598700,0.5775986328125,0.2094014286994934,0.33237048983573914,-2.027956962585449
1773258200623614000,0.587614013671875,0.14537210762500763,0.538406491279602,-1.9233647584915161
1773258200633629000,0.59762890625,0.22033768892288208,0.7681954503059387,-1.937492847442627
1773258200643645000,0.60764501953125,0.35907799005508423,0.9701240658760071,-1.9167225360870361
1773258200653660000,0.617659912109375,0.4831421673297882,0.8950543403625488,-1.7979447841644287
1773258200663675000,0.6276748046875,0.5266510248184204,0.8835090398788452,-1.6220781803131104
1773258200673691000,0.63769091796875,0.4954989552497864,0.9314914345741272,-1.399843454360962
1773258200683705900,0.647705810546875,0.43993210792541504,0.9490706920623779,-1.1544175148010254
1773258200693722000,0.65772216796875,0.3459073305130005,0.9042249321937561,-0.9254372715950012
1773258200703737000,0.667737060546875,0.21750596165657043,0.8093700408935547,-0.702942430973053
1773258200713752000,0.677751953125,0.054722633212804794,0.8003392815589905,-0.4947521984577179
1773258200723768000,0.68776806640625,-0.053283195942640305,0.8150540590286255,-0.3475198745727539
1773258200733783000,0.697782958984375,-0.0925040990114212,0.7196572422981262,-0.28878387808799744
1773258200743798000,0.707798095703125,-0.08913306891918182,0.5455453395843506,-0.2744555175304413
1773258200753814000,0.71781396484375,-0.02208985574543476,0.4530037045478821,-0.24905163049697876
1773258200763829000,0.7278291015625,0.09034747630357742,0.40186116099357605,-0.2262171506881714
1773258200773844000,0.737843994140625,0.21839411556720734,0.32303744554519653,-0.21206937730312347
1773258200783860000,0.74785986328125,0.31394702196121216,0.13461773097515106,-0.20824187994003296
1773258200793875000,0.757875,0.30781641602516174,-0.016290822997689247,-0.20773348212242126
1773258200803890000,0.767889892578125,0.17902886867523193,-0.11109456419944763,-0.20626609027385712
1773258200813906000,0.777906005859375,-0.04817871376872063,-0.12680108845233917,-0.22000746428966522
1773258200823921000,0.7879208984375,-0.30152496695518494,-0.10586890578269958,-0.22353695333003998
1773258200833937000,0.79793701171875,-0.4947471618652344,-0.14763392508029938,-0.2030670940876007
1773258200843951900,0.807951904296875,-0.6077048778533936,-0.16421690583229065,-0.12728258967399597
1773258200853966800,0.817966796875,-0.6402478814125061,-0.11965689063072205,-0.025528529658913612
1773258200863982800,0.82798291015625,-0.6495271325111389,-0.016635170206427574,0.05404778942465782
1773258200873997800,0.837997802734375,-0.6404657363891602,0.15345880389213562,0.10276871919631958
1773258200884013000,0.848012939453125,-0.5885679125785828,0.36572471261024475,0.06392358988523483
1773258200894028800,0.85802880859375,0.5861468315124512,1.101852297782898,-1.096481204032898
1773258200904044000,0.8680439453125,0.1783452332019806,1.2342129945755005,-1.1357345581054688
1773258200914059000,0.87805908203125,0.08211777359247208,1.008003830909729,-0.9604032635688782
1773258200924075000,0.888074951171875,0.08717378228902817,0.7978223562240601,-0.6569528579711914
1773258200934090000,0.898090087890625,-0.056955695152282715,0.8446558713912964,-0.5594468116760254
1773258200944106000,0.90810595703125,-0.3518155515193939,0.5920901894569397,-0.37235626578330994
1773258200954121000,0.918120849609375,-0.4409502446651459,0.3239660859107971,-0.1409427374601364
1773258200964136000,0.928135986328125,-0.40060147643089294,0.10973848402500153,0.07917418330907822
1773258200974152000,0.93815185546875,-0.31417497992515564,-0.05823054909706116,0.26530224084854126
1773258200984167000,0.9481669921875,-0.20887652039527893,-0.09980941563844681,0.3620000183582306
1773258200994182000,0.958181884765625,-0.18622073531150818,-0.12387747317552567,0.3254941999912262
1773258201004198000,0.968197998046875,-0.21369656920433044,-0.15815022587776184,0.17079438269138336
1773258201014212900,0.978212890625,-0.29362496733665466,-0.047263119369745255,-0.374003142118454
1773258201024227800,0.988227783203125,-0.38277000188827515,-0.17458432912826538,-0.4458262026309967
1773258201034243800,0.998243896484375,-0.5237976908683777,-0.1296946108341217,-0.40507611632347107
1773258201044258800,1.0082587890625,-0.6814882755279541,-0.1708628237247467,-0.32713577151298523
1773258201054274800,1.01827490234375,-0.7871177792549133,-0.23046356439590454,-0.2314731776714325
1773258201064289800,1.028289794921875,-0.7630468010902405,-0.2888331413269043,-0.14069586992263794
1773258201074304800,1.0383046875,-0.6196515560150146,-0.3731490671634674,-0.0604095496237278
1773258201084321000,1.048321044921875,-0.4192824959754944,-0.4148520529270172,0.002263420494273305
1773258201094336000,1.0583359375,-0.1886383593082428,-0.3952873945236206,0.039376433938741684
1773258201104350700,1.068350830078125,0.030166424810886383,-0.3569727838039398,0.051835499703884125
1773258201114367000,1.078366943359375,0.20872604846954346,-0.32005175948143005,0.06223461031913757
1773258201124382000,1.0883818359375,0.3372430205345154,-0.2688085734844208,0.06814789772033691
1773258201134397000,1.09839697265625,0.3919728398323059,-0.26098018884658813,0.061101172119379044
1773258201144413000,1.108412841796875,0.3621795177459717,-0.2823390066623688,0.08169592916965485
1773258201154428000,1.118427978515625,0.30614447593688965,-0.24540044367313385,0.13323181867599487
1773258201164443100,1.128443115234375,0.23609907925128937,-0.23329611122608185,0.16939888894557953
1773258201174459000,1.138458984375,0.15760640799999237,-0.32616347074508667,0.1573459506034851
1773258201184474000,1.14847412109375,0.07280469685792923,-0.4171495735645294,0.127803772687912
1773258201194489900,1.15848974609375,0.003465837799012661,-0.46484729647636414,0.09993405640125275
1773258201204505000,1.168505126953125,-0.058454789221286774,-0.49701642990112305,0.07688865810632706
1773258201214520000,1.17852001953125,-0.09511107206344604,-0.4861067831516266,0.07114288955926895
1773258201224536000,1.1885361328125,-0.09473103284835815,-0.4485034942626953,0.08258488774299622
1773258201234551000,1.198551025390625,-0.06069929897785187,-0.4028470516204834,0.09969010949134827
1773258201244566000,1.20856591796875,-0.007772701792418957,-0.3498227298259735,0.12925012409687042
1773258201254582000,1.21858203125,0.03473321348428726,-0.3015880882740021,0.1582181304693222
1773258201264597000,1.228596923828125,0.061649516224861145,-0.2500210106372833,0.17522960901260376
1773258201274612000,1.238612060546875,0.07376929372549057,-0.23063267767429352,0.1774006187915802
1773258201284628000,1.2486279296875,0.08774662762880325,-0.22062905132770538,0.1667303889989853
1773258201294643000,1.258642822265625,0.1161513701081276,-0.21221931278705597,0.15573713183403015
1773258201304659000,1.268658935546875,0.1566157042980194,-0.1925622522830963,0.14762941002845764
1773258201314674000,1.278673828125,0.1913718283176422,-0.18335624039173126,0.13510189950466156
1773258201324689000,1.28868896484375,0.20729060471057892,-0.14672578871250153,0.13064216077327728
1773258201334705000,1.298704833984375,0.20209744572639465,-0.08743903785943985,0.13032391667366028
1773258201344720000,1.308719970703125,0.18560928106307983,-0.048895902931690216,0.1142975464463234
1773258201354734800,1.31873486328125,0.15653155744075775,-0.042269159108400345,0.08012545853853226
1773258201364750800,1.328750732421875,0.13214898109436035,-0.028071049600839615,0.04783117026090622
1773258201374765800,1.338765869140625,0.11205223202705383,-0.004352137912064791,0.023000391200184822
1773258201384780800,1.34878076171875,0.09288333356380463,0.022246183827519417,-0.0065678879618644714
1773258201394796800,1.358796875,0.07618691027164459,0.03869573026895523,-0.03508368507027626
1773258201404811800,1.368811767578125,0.05797035992145538,0.06088332459330559,-0.04857020080089569
1773258201414827800,1.378827880859375,0.041361287236213684,0.061337392777204514,-0.04080628603696823
1773258201424842800,1.3888427734375,0.018281536176800728,0.0744638442993164,0.0016013587592169642
1773258201434857700,1.398857666015625,-0.01016874797642231,0.0771978497505188,0.053756438195705414
1773258201444873700,1.408873779296875,-0.05807502195239067,-0.01101563312113285,0.13320013880729675
1773258201454888700,1.418888671875,-0.11238832771778107,-0.08830908685922623,0.2732110321521759
1773258201464904000,1.428904052734375,-0.18896006047725677,-0.27457883954048157,0.49452024698257446
1773258201474919700,1.438919677734375,-0.28510284423828125,-0.47209271788597107,0.7974063754081726
1773258201484935000,1.448934814453125,-0.3648088574409485,-0.6123576760292053,1.1204971075057983
1773258201494950000,1.458949951171875,-0.4438551962375641,-0.7190143465995789,1.4051966667175293
1773258201504966100,1.468966064453125,-0.5319235324859619,-0.8550193309783936,1.6408672332763672
1773258201514981000,1.478981201171875,-0.11420167237520218,-0.4623330235481262,0.6376598477363586
1773258201524997000,1.4889970703125,0.14869840443134308,-1.1098358631134033,0.9109712839126587
1773258201535012000,1.49901220703125,-0.07046884298324585,-0.5809880495071411,0.6208432912826538
1773258201545027000,1.509027099609375,-0.14236274361610413,-0.8854592442512512,0.7441468834877014
1773258201555043000,1.51904296875,-0.24539192020893097,-0.6651460528373718,0.42948079109191895
1773258201565058000,1.52905810546875,-0.1626560240983963,-0.7177706360816956,0.23609109222888947
1773258201575073000,1.539072998046875,-0.005030444823205471,-0.7982617616653442,-0.09022895991802216
1773258201585089000,1.549089111328125,0.013392770662903786,-0.79267817735672,-0.42888131737709045
1773258201595104000,1.55910400390625,-0.020749486982822418,-0.8924665451049805,-0.5792726874351501
1773258201605119000,1.569118896484375,-0.032286033034324646,-1.0037305355072021,-0.6308067440986633
1773258201615135000,1.579135009765625,-0.018573950976133347,-1.014304518699646,-0.6375548839569092
1773258201625150000,1.58914990234375,0.052383046597242355,-0.793572723865509,-0.6466365456581116
1773258201635166000,1.599166015625,0.19915758073329926,-0.18293678760528564,-0.5375571846961975
1773258201645181000,1.609180908203125,0.2768172025680542,0.2221616953611374,-0.41612502932548523
1773258201655196000,1.61919580078125,0.396223783493042,0.5061505436897278,-0.22936634719371796
1773258201665212000,1.6292119140625,0.5312790870666504,0.6918993592262268,-0.08701106160879135
1773258201675227000,1.639226806640625,0.7061858773231506,0.6695554256439209,0.03461523354053497
1773258201685241900,1.649241943359375,0.8969255089759827,0.4737369418144226,0.11751784384250641
1773258201695257900,1.6592578125,1.1112407445907593,0.22872479259967804,0.18020892143249512
1773258201705272800,1.66927294921875,1.2455356121063232,-0.0730113610625267,0.2245074063539505
1773258201715288800,1.679288818359375,1.3438875675201416,-0.4116160571575165,0.2827102541923523
1773258201725303800,1.6893037109375,1.4429675340652466,-0.6691072583198547,0.3994438052177429
1773258201735318800,1.69931884765625,1.5297199487686157,-0.8736976385116577,0.5417945384979248
1773258201745334800,1.709334716796875,1.644224762916565,-1.1847037076950073,0.7457812428474426
1773258201755349800,1.719349853515625,1.6691348552703857,-1.303598165512085,0.9487341046333313
1773258201765365000,1.729364990234375,1.500245451927185,-1.133823037147522,1.0971310138702393
1773258201775380700,1.739380615234375,1.2166885137557983,-0.9544433951377869,1.216262698173523
1773258201785396000,1.74939599609375,0.9145057797431946,-0.8025678396224976,1.3418313264846802
1773258201795411000,1.759410888671875,0.6583842635154724,-0.6849426627159119,1.452445387840271
1773258201805427000,1.769427001953125,0.5567396879196167,-0.5583431720733643,1.536702036857605
1773258201815442000,1.77944189453125,0.4962638318538666,-0.47169697284698486,1.5757018327713013
1773258201825458000,1.7894580078125,0.43940240144729614,-0.6113443374633789,1.514534592628479
1773258201835473000,1.799472900390625,0.39308977127075195,-0.8248169422149658,1.331398606300354
1773258201845487900,1.80948779296875,0.28012967109680176,-0.7463735342025757,1.0826666355133057
1773258201855504000,1.81950390625,0.18411923944950104,-0.5589314699172974,0.7322039008140564
1773258201865518800,1.829518798828125,0.1776578724384308,-0.36300429701805115,0.3225218653678894
1773258201875533800,1.839533935546875,0.17822407186031342,-0.13881593942642212,-0.03128441795706749
1773258201885550000,1.849550048828125,0.17545437812805176,0.011264638975262642,-0.27464941143989563
1773258201895564800,1.859564697265625,0.19802360236644745,0.03393106907606125,-0.433997243642807
1773258201905579800,1.869579833984375,0.17255473136901855,0.07401909679174423,-0.4942685663700104
1773258201915596300,1.87959619140625,0.11840680241584778,0.09586340934038162,-0.5002835988998413
1773258201925611300,1.889611328125,0.03801609203219414,0.0591442808508873,-0.4722825884819031
1773258201935627300,1.899627197265625,-0.04012851044535637,-0.04231203719973564,-0.41599348187446594
1773258201945642200,1.909642333984375,-0.12932123243808746,-0.20219917595386505,-0.33519184589385986
1773258201955657200,1.9196572265625,-0.24059076607227325,-0.31274911761283875,-0.3024592101573944
1773258201965673200,1.929673095703125,-0.33279553055763245,-0.46048504114151,-0.34116825461387634
1773258201975688200,1.939688232421875,-0.36092036962509155,-0.5942779779434204,-0.40622395277023315
1773258201985703200,1.949703125,-0.39082396030426025,-0.6859152317047119,-0.4930994510650635
1773258201995719200,1.95971923828125,-0.4101097583770752,-0.8181209564208984,-0.5876965522766113
1773258202005734100,1.969734130859375,-0.3591768145561218,-0.9806922674179077,-0.6957806348800659
1773258202015749000,1.9797490234375,-0.17946776747703552,-1.068825364112854,-0.7999624609947205
1773258202025765000,1.98976513671875,0.039559125900268555,-1.0163993835449219,-0.8451874256134033
1773258202035780000,1.999780029296875,0.20979636907577515,-0.9347711205482483,-0.8296958208084106
1773258202045796000,2.009796142578125,0.22338807582855225,-0.9199061393737793,-0.7181613445281982
1773258202055811000,2.01981103515625,0.10335541516542435,-0.8081356883049011,-0.5262201428413391
1773258202065826300,2.029826416015625,-0.05540520325303078,-0.6421240568161011,-0.31136026978492737
1773258202075842000,2.039842041015625,-0.17472493648529053,-0.6849759221076965,-0.13563932478427887
1773258202085857300,2.049857177734375,-0.1422029435634613,-1.0971256494522095,-0.0499289445579052
1773258202095872300,2.059872314453125,0.0008298410102725029,-1.6878252029418945,-0.04477972164750099
1773258202105888300,2.06988818359375,0.3382536768913269,-2.2259774208068848,-0.07545240968465805
1773258202115903200,2.0799033203125,0.664760947227478,-2.6801211833953857,-0.16341502964496613
1773258202125918200,2.089918212890625,0.8634746074676514,-3.11251163482666,-0.29746097326278687
1773258202135934200,2.099934326171875,0.969612181186676,-3.4108641147613525,-0.39618968963623047
1773258202145949200,2.10994921875,0.9941210150718689,-3.5991945266723633,-0.35219985246658325
1773258202155965200,2.119965087890625,1.0445218086242676,-3.572035789489746,-0.20590735971927643
1773258202165980200,2.129980224609375,1.2733463048934937,-3.2487497329711914,-0.14627306163311005
1773258202175995100,2.1399951171875,1.6660155057907104,-3.282853841781616,0.04561249166727066
1773258202186011400,2.150011474609375,2.0653481483459473,-3.251495599746704,0.41113507747650146
1773258202196026000,2.160026123046875,2.39912486076355,-3.0467371940612793,0.8421540856361389
1773258202206041000,2.170041015625,2.6202666759490967,-2.722867965698242,1.1562920808792114
1773258202216057300,2.180057373046875,2.636888027191162,-2.3927905559539795,1.2422165870666504
1773258202226072300,2.190072265625,2.5229647159576416,-1.969685673713684,1.1373908519744873
1773258202236088300,2.20008837890625,2.392669200897217,-1.2788169384002686,0.8675593137741089
1773258202246103300,2.210103271484375,2.327883243560791,-0.3804546594619751,0.4428948760032654
1773258202256118300,2.2201181640625,2.294487237930298,0.5064192414283752,-0.0799235925078392
1773258202266134300,2.23013427734375,2.2469048500061035,1.2889454364776611,-0.6797212362289429
1773258202276149200,2.240149169921875,2.2146739959716797,1.8534778356552124,-1.2974220514297485
1773258202286164200,2.250164306640625,2.199136734008789,2.1935923099517822,-1.8425759077072144
1773258202296180200,2.26018017578125,2.166969060897827,2.4952197074890137,-2.259545087814331
1773258202306195200,2.2701953125,2.1295230388641357,2.750685214996338,-2.5491080284118652
1773258202316211200,2.280211181640625,2.051828384399414,2.892221689224243,-2.7755014896392822
1773258202326226200,2.29022607421875,1.36396062374115,1.1062052249908447,-2.9269678592681885
1773258202336241200,2.3002412109375,0.8818008303642273,0.18441511690616608,-2.4247653484344482
1773258202346257200,2.310257080078125,-0.1889994740486145,0.051778241991996765,-1.9233735799789429
1773258202356272000,2.320272216796875,-1.117632508277893,0.38688167929649353,-1.6222741603851318
1773258202366287000,2.330287109375,-1.4606202840805054,1.3648761510849,-1.582676649093628
1773258202376303000,2.34030322265625,-1.3850780725479126,2.047804117202759,-1.249432921409607
1773258202386318000,2.350318115234375,-0.9245869517326355,2.6117773056030273,-1.1232280731201172
1773258202396333300,2.360333251953125,-0.4359573423862457,2.891887903213501,-1.1289867162704468
1773258202406349000,2.37034912109375,-0.19152230024337769,2.9185163974761963,-1.1783469915390015
1773258202416364300,2.3803642578125,-0.10721966624259949,2.7548153400421143,-1.258603572845459
1773258202426380000,2.390380126953125,-0.12143215537071228,2.3438398838043213,-1.293900489807129
1773258202436395300,2.400395263671875,-0.41271939873695374,1.7734007835388184,-1.1447083950042725
1773258202446410200,2.41041015625,-0.5066764950752258,1.188996434211731,-0.8096981644630432
1773258202456426200,2.42042626953125,-0.43615761399269104,0.9038835167884827,-0.41206663846969604
1773258202466441200,2.430441162109375,-0.29283374547958374,0.6723554730415344,-0.2636907696723938
1773258202476456200,2.440456298828125,-0.18421778082847595,0.11697961390018463,-0.33831465244293213
1773258202486472200,2.45047216796875,-0.20181621611118317,-0.7546655535697937,-0.09889941662549973
1773258202496487200,2.460487060546875,-0.1188877746462822,-1.4482648372650146,0.19789816439151764
1773258202506503200,2.470503173828125,0.15245158970355988,-2.1105411052703857,0.4380764067173004
1773258202516518100,2.48051806640625,0.39746108651161194,-2.6646604537963867,0.7603127956390381
1773258202526533000,2.490533203125,0.6168234944343567,-3.0206077098846436,1.1643908023834229
1773258202536549000,2.500549072265625,0.2568648159503937,-2.8668839931488037,1.6429762840270996
1773258202546564000,2.510564208984375,0.3000069558620453,-2.825669765472412,1.9305720329284668
1773258202556579000,2.5205791015625,0.7263755798339844,-2.2475175857543945,1.8984620571136475
1773258202566595300,2.53059521484375,0.8731749057769775,-0.8600204586982727,1.5643607378005981
1773258202576610000,2.540610107421875,1.361569881439209,0.01420343667268753,1.0584875345230103
1773258202586626300,2.550626220703125,1.2096894979476929,-0.057560231536626816,0.7151405215263367
1773258202596641300,2.560641357421875,0.48625966906547546,-0.6440349221229553,0.6098729372024536
1773258202606656300,2.57065625,0.32195645570755005,-1.096911072731018,0.5834810137748718
1773258202616672300,2.58067236328125,0.3529213070869446,-1.6909149885177612,0.3046797513961792
1773258202626687200,2.590687255859375,0.30839139223098755,-2.3120925426483154,0.03766295686364174
1773258202636703200,2.600703125,0.3855751156806946,-2.534208297729492,-0.31222766637802124
1773258202646718200,2.61071826171875,0.5236706733703613,-2.4178576469421387,-0.5324519276618958
1773258202656733200,2.620733154296875,0.7085281610488892,-2.2224020957946777,-0.4537179470062256
1773258202666749200,2.630749267578125,1.110582947731018,-1.9613275527954102,-0.36647066473960876
1773258202676764200,2.64076416015625,1.3675566911697388,-1.042000651359558,-0.22740119695663452
1773258202686780200,2.6507802734375,1.5873137712478638,-0.058818574994802475,-0.04922746866941452
1773258202696795100,2.660795166015625,1.621903419494629,0.6520867347717285,0.18541859090328217
1773258202706810000,2.67081005859375,1.5525765419006348,1.269097924232483,0.46152713894844055
1773258202716826000,2.680826171875,1.5605343580245972,1.9631843566894531,0.7113327383995056
1773258202726841000,2.690841064453125,1.487455129623413,2.825413703918457,0.8563109636306763
1773258202736856300,2.700856201171875,0.9935013055801392,2.160640239715576,0.5386227369308472
1773258202746872000,2.7108720703125,0.6196315884590149,1.1548733711242676,0.44233426451683044
1773258202756887300,2.72088720703125,0.49628913402557373,0.26097166538238525,0.45750948786735535
1773258202766903000,2.730903076171875,0.415576696395874,-0.5512591600418091,0.23221805691719055
1773258202776918300,2.740918212890625,0.3426697254180908,-1.1134085655212402,0.08458252996206284
1773258202786933200,2.750933349609375,0.08110310882329941,-1.4286072254180908,0.21821808815002441
1773258202796949200,2.76094921875,-0.038305845111608505,-1.4512598514556885,0.36210787296295166
1773258202806964200,2.770964111328125,-0.01281806081533432,-1.162466287612915,0.45290276408195496
1773258202816980200,2.780980224609375,0.10591711103916168,-0.49177664518356323,0.5004447102546692
1773258202826995200,2.7909951171875,0.27245602011680603,0.4366755783557892,0.4688897132873535
1773258202837010200,2.80101025390625,0.4848093092441559,1.1775782108306885,0.41713836789131165
1773258202847026200,2.811026123046875,0.7550088167190552,1.740082859992981,0.41264402866363525
1773258202857041200,2.821041259765625,0.9721973538398743,1.965527892112732,0.43521830439567566
1773258202867057400,2.831057373046875,1.1361784934997559,1.9228044748306274,0.4474549889564514
1773258202877072100,2.841072021484375,1.2250444889068604,1.7135566473007202,0.4336976408958435
1773258202887087000,2.851087158203125,1.1142774820327759,1.2774605751037598,0.4126512110233307
1773258202897103400,2.861103271484375,1.039982557296753,1.1089516878128052,0.5333172082901001
1773258202907118300,2.871118408203125,0.9404258131980896,1.0386525392532349,0.4871419668197632
1773258202917133800,2.8811337890625,0.8621757626533508,0.7968473434448242,0.4554796516895294
1773258202927148800,2.891148681640625,0.9262740612030029,0.7164142727851868,0.43124619126319885
1773258202937163500,2.90116357421875,1.016689658164978,1.0626335144042969,0.4214388430118561
1773258202947179800,2.9111796875,1.0568355321884155,1.5698328018188477,0.4302115738391876
1773258202957194800,2.92119482421875,1.04067063331604,2.255229949951172,0.5331739187240601
1773258202967210800,2.931210693359375,0.926277756690979,2.739447593688965,0.6643284559249878
1773258202977225700,2.941225830078125,0.6744780540466309,2.796674966812134,0.6732300519943237
1773258202987240700,2.95124072265625,0.4481287896633148,2.438443899154663,0.449202299118042
1773258202997256700,2.961256591796875,0.2880003750324249,1.5873409509658813,0.13124670088291168
1773258203007271700,2.971271728515625,0.24674293398857117,0.685306966304779,-0.06476381421089172
1773258203017287700,2.98128759765625,0.39426103234291077,-0.4970928728580475,-0.1290472000837326
1773258203027302700,2.991302734375,0.6340968012809753,-1.057686686515808,-0.17240452766418457
1773258203037317600,3.001317626953125,0.6322154998779297,-0.270399808883667,-0.019240805879235268
1773258203047333600,3.011333740234375,0.5357305407524109,0.41594767570495605,-0.20231768488883972
1773258203057348600,3.0213486328125,0.5653579235076904,0.7324774265289307,-0.35662922263145447
1773258203067364600,3.031364501953125,0.7945303916931152,1.1590566635131836,-0.49413782358169556
1773258203077379600,3.041379638671875,0.9660680890083313,1.1174371242523193,-0.6814352869987488
1773258203087395600,3.0513955078125,0.9471897482872009,0.8503395915031433,-0.7710290551185608
1773258203097410600,3.06141064453125,0.834220290184021,0.5338727235794067,-0.755012571811676
1773258203107425800,3.07142578125,0.7257822155952454,0.3280748128890991,-0.6610703468322754
1773258203117441500,3.081441650390625,0.6594420671463013,0.40716883540153503,-0.6108460426330566
1773258203127456800,3.091456787109375,0.5994932651519775,0.7423553466796875,-0.6176408529281616
1773258203137472500,3.101472412109375,0.537213921546936,1.0217195749282837,-0.6210994720458984
1773258203147487700,3.11148779296875,0.5157280564308167,1.0348376035690308,-0.5608649253845215
1773258203157503500,3.12150341796875,0.49242886900901794,1.0034679174423218,-0.503365159034729
1773258203167518700,3.131518798828125,0.41101816296577454,0.9903444051742554,-0.4626312851905823
1773258203177533700,3.14153369140625,0.3949017822742462,0.8777792453765869,-0.391146719455719
1773258203187549700,3.1515498046875,0.3773805797100067,0.522566020488739,-0.34453633427619934
1773258203197564700,3.161564697265625,0.3355995714664459,0.022342856973409653,-0.32495999336242676
1773258203207581000,3.171580810546875,0.26318076252937317,-0.2013339102268219,-0.36217471957206726
1773258203217596000,3.181595947265625,0.20515581965446472,-0.022065354511141777,-0.41975972056388855
1773258203227610600,3.191610595703125,0.17257922887802124,0.18058761954307556,-0.40519222617149353
1773258203237627000,3.201626953125,0.24739967286586761,0.5580044388771057,-0.30863720178604126
1773258203247641900,3.211641845703125,0.20651322603225708,0.8017616868019104,0.11890002340078354
1773258203257657900,3.221657958984375,0.23828181624412537,0.9374403953552246,1.1211838722229004
1773258203267672800,3.2316728515625,0.3522818684577942,1.4116913080215454,1.7468488216400146
1773258203277688800,3.241688720703125,0.4579220116138458,1.5268110036849976,1.5989701747894287
1773258203287703800,3.251703857421875,0.48131683468818665,1.2727696895599365,1.0928553342819214
1773258203297718800,3.26171875,0.52309250831604,0.872029721736908,0.9853823781013489
1773258203307734800,3.27173486328125,0.5475978255271912,0.7096179127693176,1.1347665786743164
1773258203317749800,3.281749755859375,0.5427748560905457,0.7794286608695984,1.4560010433197021
1773258203327765800,3.291765869140625,0.5023629665374756,1.0538517236709595,1.7321252822875977
1773258203337780700,3.30178076171875,0.4093284010887146,1.31099271774292,1.7766485214233398
1773258203347796700,3.311796630859375,0.3805609345436096,1.4009881019592285,1.658939003944397
1773258203357811700,3.321811767578125,0.24685132503509521,1.2148869037628174,1.5942217111587524
1773258203367827700,3.33182763671875,0.12500664591789246,0.9794155955314636,1.6559027433395386
1773258203377842700,3.3418427734375,0.02834908291697502,0.946223258972168,1.8133729696273804
1773258203387857700,3.351857666015625,-0.0369231291115284,0.8659211993217468,2.025291681289673
1773258203397873700,3.361873779296875,-0.10863672941923141,0.8580926060676575,2.171712875366211
1773258203407888600,3.371888671875,-0.2310665100812912,1.0676498413085938,2.3560550212860107
1773258203417904600,3.381904541015625,-0.22013689577579498,1.3963762521743774,2.4421396255493164
1773258203427919600,3.391919677734375,-0.08416201174259186,1.2110106945037842,2.3966619968414307
1773258203437935600,3.401935546875,-0.15793077647686005,0.6807377934455872,2.346191883087158
1773258203447950600,3.41195068359375,-0.2852464020252228,0.8773277997970581,2.0825889110565186
1773258203457965600,3.421965576171875,-0.31487858295440674,0.8485406637191772,1.8335213661193848
1773258203467981800,3.43198193359375,-0.40559250116348267,0.3319646120071411,1.7817002534866333
1773258203477996500,3.44199658203125,-0.5847273468971252,-0.11858469992876053,1.7601749897003174
1773258203488012800,3.4520126953125,-0.7463263869285583,-0.5037672519683838,1.5203685760498047
1773258203498027800,3.46202783203125,-0.7878546714782715,-0.7857233285903931,1.1489214897155762
1773258203508043800,3.472043701171875,-0.75644451379776,-0.937630832195282,0.7734597325325012
1773258203518058800,3.482058837890625,-0.6929934024810791,-1.0937674045562744,0.44335800409317017
1773258203528073700,3.49207373046875,-0.6184530854225159,-1.3787256479263306,0.18052370846271515
1773258203538089700,3.50208984375,-0.5569964051246643,-1.8847090005874634,-0.1023561954498291
1773258203548104700,3.512104736328125,-0.5341443419456482,-2.331718921661377,-0.5106502175331116
1773258203558120700,3.52212060546875,-0.5338357090950012,-2.463414192199707,-1.0216847658157349
1773258203568135700,3.5321357421875,-0.5432624816894531,-2.3654963970184326,-1.5320028066635132
1773258203578151700,3.542151611328125,-0.5693222880363464,-2.2742433547973633,-1.9130666255950928
1773258203588166700,3.552166748046875,-0.6359519362449646,-2.300443410873413,-2.149693012237549
1773258203598182700,3.5621826171875,-0.7715635895729065,-2.4712958335876465,-2.263904571533203
1773258203608197600,3.57219775390625,-0.9949252605438232,-2.8451406955718994,-2.3382327556610107
1773258203618212600,3.582212646484375,-1.2463066577911377,-3.284358263015747,-2.427889108657837
1773258203628228600,3.592228515625,-1.4459280967712402,-3.396324634552002,-2.4921951293945312
1773258203638243600,3.60224365234375,-1.5869182348251343,-3.3134310245513916,-2.4863765239715576
1773258203648259600,3.612259521484375,-1.7251867055892944,-3.0989627838134766,-2.375448226928711
1773258203658274600,3.622274658203125,-1.815026044845581,-2.595525026321411,-2.0914053916931152
1773258203668290600,3.63229052734375,-1.9424561262130737,-2.445885419845581,-1.7546979188919067
1773258203678305500,3.642305419921875,-1.9213402271270752,-2.5322206020355225,-1.1636682748794556
1773258203688320500,3.652320556640625,-1.7121564149856567,-2.523991346359253,-0.5300694704055786
1773258203698336500,3.66233642578125,-1.2188817262649536,-2.342928171157837,-0.030219154432415962
1773258203708351500,3.6723515625,-0.5281285643577576,-2.09684681892395,0.21324409544467926
1773258203718367700,3.68236767578125,-0.0065385932102799416,-1.7926487922668457,0.3286692202091217
1773258203728382500,3.692382568359375,0.1265273094177246,-1.613951563835144,0.5346945524215698
1773258203738398700,3.702398681640625,0.11993199586868286,-1.532541036605835,0.7957943677902222
1773258203748413700,3.71241357421875,-0.022771891206502914,-1.408717393875122,0.9047141671180725
1773258203758429000,3.722428955078125,-0.3032482862472534,-1.4311106204986572,0.7593130469322205
1773258203768444700,3.732444580078125,-0.49173083901405334,-1.3194642066955566,0.5263764262199402
1773258203778460000,3.7424599609375,-0.8219798803329468,-1.2798705101013184,0.324979692697525
1773258203788475600,3.7524755859375,-1.2330448627471924,-1.0657923221588135,0.22882971167564392
1773258203798491000,3.762490966796875,-1.5220180749893188,-0.7023229598999023,0.19912242889404297
1773258203808506600,3.772506591796875,-1.793589472770691,0.09960515052080154,0.1051194965839386
1773258203818521900,3.78252197265625,-2.013963460922241,0.8504037857055664,-0.03301307559013367
1773258203828536800,3.792536865234375,-2.3147897720336914,1.2320901155471802,-0.2607889771461487
1773258203838552800,3.802552734375,-2.5614287853240967,1.4700180292129517,-0.4864668548107147
1773258203848567800,3.81256787109375,-2.674708366394043,1.6746702194213867,-0.6129806041717529
1773258203858583800,3.822583740234375,-2.6656601428985596,1.9572391510009766,-0.6433709859848022
1773258203868598800,3.832598876953125,-2.62395977973938,2.1704354286193848,-0.650787353515625
1773258203878614800,3.84261474609375,-2.538722038269043,2.2235546112060547,-0.8024466633796692
1773258203888629800,3.852629638671875,-2.486701726913452,2.189610242843628,-1.0437610149383545
1773258203898644700,3.862644775390625,-2.433587074279785,2.1597721576690674,-1.1825125217437744
1773258203908660700,3.87266064453125,-2.3758134841918945,2.168771505355835,-1.2996598482131958
1773258203918676700,3.8826767578125,-2.4032766819000244,2.103609323501587,-1.4453505277633667
1773258203928692500,3.8926923828125,-2.5227084159851074,2.0351643562316895,-1.6023720502853394
1773258203938707700,3.902707763671875,-2.6269001960754395,2.1024045944213867,-1.6958248615264893
1773258203948723500,3.912723388671875,-2.5810978412628174,2.5572683811187744,-1.5947751998901367
1773258203958738700,3.92273876953125,-2.639031171798706,2.541801691055298,-1.5703121423721313
1773258203968753700,3.932753662109375,-2.7595267295837402,2.5043790340423584,-1.8129855394363403
1773258203978769700,3.942769775390625,-2.934082269668579,2.866528034210205,-2.0458269119262695
1773258203988784600,3.95278466796875,-3.1309397220611572,3.084285020828247,-2.1104660034179688
1773258203998800600,3.962800537109375,-3.3711647987365723,3.224647283554077,-2.024595022201538
1773258204008815600,3.972815673828125,-3.627817153930664,3.3796491622924805,-1.8627512454986572
1773258204018831600,3.98283154296875,-3.8805811405181885,3.528933525085449,-1.717299222946167
1773258204028846600,3.9928466796875,-4.133387565612793,3.6422579288482666,-1.5970816612243652
1773258204038861600,4.002861572265625,-4.4241414070129395,3.7376527786254883,-1.487636923789978
1773258204048877600,4.012877685546875,-4.7591166496276855,3.814568519592285,-1.407440185546875
1773258204058892500,4.022892578125,-5.064307689666748,3.6361868381500244,-1.2990212440490723
1773258204068908500,4.032908447265625,-5.346325874328613,3.246380567550659,-1.1624053716659546
1773258204078923500,4.042923583984375,-5.577081680297852,2.6305384635925293,-1.02378511428833
1773258204088939500,4.052939453125,-5.7722320556640625,1.8602643013000488,-0.9354662299156189
1773258204098954500,4.06295458984375,-6.004907131195068,1.1110316514968872,-0.9581169486045837
1773258204108969500,4.072969482421875,-6.255799770355225,0.599080502986908,-1.131742238998413
1773258204118985700,4.08298583984375,-6.509027481079102,0.6066781878471375,-1.3510754108428955
1773258204129000400,4.09300048828125,-6.758982181549072,0.8657094836235046,-1.5388200283050537
1773258204139016700,4.1030166015625,-6.957406044006348,1.1197961568832397,-1.5890426635742188
1773258204149031700,4.11303173828125,-7.113253593444824,1.3312287330627441,-1.5100046396255493
1773258204159046700,4.123046630859375,-7.214511394500732,1.511460304260254,-1.3010133504867554
1773258204169062700,4.133062744140625,-7.218374729156494,1.5720000267028809,-1.016444206237793
1773258204179077600,4.14307763671875,-7.153651237487793,1.4291409254074097,-0.7158241271972656
1773258204189093600,4.15309375,-7.016016960144043,0.9747744798660278,-0.37503060698509216
1773258204199108600,4.163108642578125,-6.779075622558594,0.4045131206512451,-0.0033318807836622
1773258204209124600,4.17312451171875,-6.485481262207031,0.16051989793777466,0.34361088275909424
1773258204219139600,4.1831396484375,-6.1201090812683105,0.04283960908651352,0.7151447534561157
1773258204229154600,4.193154541015625,-5.591574192047119,-0.09514116495847702,1.0979925394058228
1773258204239170600,4.203170654296875,-4.859084606170654,-0.12166038900613785,1.4333170652389526
1773258204249185500,4.213185546875,-3.9992852210998535,-0.16250155866146088,1.6718233823776245
1773258204259201500,4.223201416015625,-3.057663917541504,-0.25290122628211975,1.7932839393615723
1773258204269216500,4.233216552734375,-2.286961793899536,-0.517055094242096,1.7669991254806519
1773258204279232500,4.243232421875,-1.5655131340026855,-0.7587183713912964,1.4958953857421875
1773258204289247500,4.25324755859375,-1.0854767560958862,-1.1761666536331177,1.222743034362793
1773258204299262500,4.263262451171875,-0.9083461761474609,-1.2374303340911865,1.3266220092773438
1773258204309278500,4.273278564453125,-0.8723248243331909,-1.1663135290145874,1.7611443996429443
1773258204319293400,4.28329345703125,-0.7788952589035034,-1.3214125633239746,2.204038143157959
1773258204329309400,4.293309326171875,-0.5521361231803894,-1.4179776906967163,2.406658411026001
1773258204339324400,4.303324462890625,-0.31057730317115784,-1.2974412441253662,2.4629461765289307
1773258204349340400,4.31334033203125,-0.10574134439229965,-0.9771854281425476,2.5655734539031982
1773258204359355400,4.32335546875,0.1048627644777298,-0.6704116463661194,2.6810109615325928
1773258204369370400,4.333370361328125,0.21769531071186066,-0.3513233959674835,2.7386815547943115
1773258204379386400,4.343386474609375,0.3467784523963928,-0.2588494122028351,2.7627742290496826
1773258204389401300,4.3534013671875,0.4623705744743347,-0.216158926486969,2.7413816452026367
1773258204399417600,4.36341748046875,0.706163227558136,-0.38509121537208557,2.617877721786499
1773258204409432600,4.3734326171875,1.0013954639434814,-0.4508092403411865,2.388101577758789
1773258204419447300,4.383447265625,1.1105504035949707,-0.11760678887367249,1.9486643075942993
1773258204429463600,4.393463623046875,1.2207456827163696,-0.4517751932144165,1.588566541671753
1773258204439478500,4.403478515625,1.3259737491607666,-0.4122711718082428,1.264356017112732
1773258204449494500,4.41349462890625,1.3378831148147583,-0.19612902402877808,0.9518483877182007
1773258204459509500,4.423509521484375,1.295691728591919,0.1617494821548462,0.7085878252983093
1773258204469525500,4.433525390625,1.2821860313415527,0.740080714225769,0.47029292583465576
1773258204479540500,4.44354052734375,1.2330782413482666,1.2413095235824585,0.22541235387325287
1773258204489555700,4.4535556640625,1.0942398309707642,1.5272722244262695,0.05559854581952095
1773258204499571500,4.463571533203125,0.8874866962432861,1.7283159494400024,0.025118935853242874
1773258204509586700,4.473586669921875,0.8035444021224976,1.637669324874878,0.022732209414243698
1773258204519602400,4.4836025390625,0.9495460987091064,1.2636525630950928,-0.04712143912911415
1773258204529617700,4.49361767578125,1.1839543581008911,0.7555984258651733,-0.12460850924253464
1773258204539633400,4.50363330078125,1.2332193851470947,0.0683731958270073,-0.11936634033918381
1773258204549648600,4.513648681640625,1.2428842782974243,-0.6673207879066467,-0.1455364227294922
1773258204559663600,4.52366357421875,1.1973791122436523,-0.8937329053878784,-0.24975071847438812
1773258204569679600,4.5336796875,0.9553584456443787,-0.8325403928756714,-0.3993609845638275
1773258204579694600,4.543694580078125,0.5893479585647583,-0.4124504029750824,-0.6591116189956665
1773258204589710600,4.553710693359375,0.2576501667499542,0.09396058320999146,-0.7691749930381775
1773258204599725600,4.5637255859375,0.12318078428506851,0.5184519290924072,-0.7625325322151184
1773258204609741600,4.573741455078125,-0.16707900166511536,0.7252975106239319,-0.9878718852996826
1773258204619756500,4.583756591796875,-0.5511283874511719,0.6112002730369568,-1.403930902481079
1773258204629771500,4.593771484375,-0.8137941360473633,0.007814247161149979,-1.520951509475708
1773258204639787500,4.60378759765625,-0.7752850651741028,0.3590063750743866,-1.4654065370559692
1773258204649802500,4.613802490234375,-0.6027372479438782,-0.055271778255701065,-0.9707666635513306
1773258204659818800,4.62381884765625,-0.36880654096603394,0.25087857246398926,-0.35419216752052307
1773258204669833500,4.63383349609375,-0.21262171864509583,0.3150005638599396,0.04447425901889801
1773258204679849700,4.643849609375,-0.08645100146532059,-0.04569345340132713,0.013541641645133495
1773258204689864700,4.65386474609375,0.05895199999213219,-0.27552852034568787,-0.2948279082775116
1773258204699879700,4.663879638671875,0.18975421786308289,-0.19186611473560333,-0.6847674250602722
1773258204709895700,4.673895751953125,0.31356245279312134,-0.11071879416704178,-0.9339484572410583
1773258204719910700,4.68391064453125,0.34268784523010254,0.04905063286423683,-1.1146132946014404
1773258204729926700,4.6939267578125,0.2805435061454773,0.08317291736602783,-1.3190141916275024
1773258204739941600,4.703941650390625,0.19597004354000092,-0.02124829776585102,-1.459822416305542
1773258204749957600,4.71395751953125,0.12636272609233856,0.0059963734820485115,-1.4955683946609497
1773258204759972600,4.72397265625,0.036200616508722305,-0.01116237323731184,-1.2560197114944458
1773258204769987600,4.733987548828125,0.05705875903367996,0.21464332938194275,-1.2751654386520386
1773258204780003600,4.744003662109375,0.0801832526922226,0.18863676488399506,-1.2459609508514404
1773258204790018600,4.7540185546875,0.13727529346942902,0.22889363765716553,-1.1624269485473633
1773258204800034600,4.76403466796875,0.11137446016073227,0.17157867550849915,-1.108582854270935
1773258204810049500,4.774049560546875,0.06046946719288826,0.04412165284156799,-1.174870491027832
1773258204820065500,4.7840654296875,0.007517571095377207,-0.29523617029190063,-1.5437705516815186
1773258204830080500,4.79408056640625,0.02275005355477333,-0.3295462131500244,-2.1117050647735596
1773258204840096500,4.804096435546875,0.09138024598360062,-0.27388322353363037,-2.5286200046539307
1773258204850111500,4.814111572265625,0.1661066859960556,-0.36032116413116455,-2.5475704669952393
1773258204860126500,4.82412646484375,0.09686396270990372,-0.5172756314277649,-2.2804949283599854
1773258204870142500,4.834142578125,0.12589295208454132,-0.7070966958999634,-1.9949058294296265
1773258204880157400,4.844157470703125,0.07835845649242401,-0.8021880388259888,-1.812402606010437
1773258204890173400,4.85417333984375,0.08808272331953049,-0.5548826456069946,-1.417537808418274
1773258204900188400,4.8641884765625,0.26609718799591064,-0.253512442111969,-1.0392181873321533
1773258204910204700,4.87420458984375,0.43757200241088867,-0.2108946591615677,-0.7652609348297119
1773258204920218000,4.884218017578125,0.516140878200531,-0.13440494239330292,-0.5314242243766785
1773258204930233300,4.8942333984375,0.5422039031982422,0.3223434090614319,-0.3940671384334564
1773258204940249300,4.904249267578125,0.3699873685836792,0.7660955786705017,-0.47993651032447815
1773258204950264300,4.914264404296875,0.14316993951797485,1.047594666481018,-0.5355486273765564
1773258204960280300,4.9242802734375,-0.09000445902347565,1.179773211479187,-0.5174980163574219
1773258204970295600,4.934295654296875,-0.474526047706604,1.162609577178955,-0.3342136740684509
1773258204980311300,4.944311279296875,-1.0690141916275024,1.1867280006408691,0.06765760481357574
1773258204990326500,4.954326416015625,-1.6669135093688965,1.2072900533676147,0.35612669587135315
1773258205000341500,4.964341552734375,-1.9410585165023804,1.2971900701522827,0.3952442705631256
1773258205010357500,4.974357421875,-1.9558912515640259,1.3330436944961548,0.2819483280181885
1773258205020372500,4.98437255859375,-1.9212435483932495,1.3391032218933105,0.13045601546764374
1773258205030388500,4.994388427734375,-1.6975116729736328,1.2984905242919922,0.030408505350351334
1773258205040403500,5.004403564453125,-1.380643367767334,1.2086693048477173,-0.00544350128620863
1773258205050419500,5.01441943359375,-1.073537826538086,0.9568399786949158,-0.09568578004837036
1773258205060434400,5.024434326171875,-0.7936957478523254,0.6408385634422302,-0.2922409176826477
1773258205070449400,5.034449462890625,-0.593334972858429,0.30124160647392273,-0.5279421210289001
1773258205080465400,5.04446533203125,-0.4806997776031494,0.06580990552902222,-0.7113769054412842
1773258205090480400,5.05448046875,-0.4468081295490265,-0.03965313732624054,-0.8162181377410889
1773258205100496400,5.064496337890625,-0.4701664447784424,0.08485949784517288,-0.8764929175376892
1773258205110511400,5.074511474609375,-0.46095162630081177,0.35406938195228577,-0.9075309634208679
1773258205120527400,5.08452734375,-0.3752244710922241,0.6758346557617188,-0.908560037612915
1773258205130542300,5.094542236328125,-0.24468031525611877,0.7679980993270874,-0.8388075828552246
1773258205140557300,5.104557373046875,-0.08484750986099243,0.6716750264167786,-0.7480308413505554
1773258205150573300,5.1145732421875,0.08237183839082718,0.4784429967403412,-0.6817442178726196
1773258205160588300,5.12458837890625,0.17375820875167847,0.30233055353164673,-0.568818986415863
1773258205170604300,5.134604248046875,0.19616179168224335,0.21401669085025787,-0.35288774967193604
1773258205180619300,5.144619384765625,0.1605832874774933,-0.02472665160894394,-0.04665325582027435
1773258205190635500,5.154635498046875,0.10602071136236191,-0.40996596217155457,0.28883445262908936
1773258205200650200,5.164650146484375,0.03592950478196144,-0.6693045496940613,0.5917298793792725
1773258205210665200,5.174665283203125,-0.002103364560753107,-0.762116551399231,0.80851811170578
1773258205220681500,5.184681396484375,-0.019896741956472397,-0.876507580280304,0.9084851741790771
1773258205230696400,5.194696533203125,-0.03599422052502632,-0.5964516997337341,0.9641804099082947
1773258205240712400,5.20471240234375,-0.051658932119607925,-0.48155224323272705,0.9916999340057373
1773258205250727400,5.2147275390625,-0.07768307626247406,-0.2045275717973709,1.0009651184082031
1773258205260743400,5.224743408203125,-0.08825795352458954,-0.2655336558818817,0.9372150897979736
1773258205270758400,5.23475830078125,-0.12922243773937225,-0.1874375343322754,0.808731198310852
1773258205280773400,5.2447734375,-0.15903837978839874,-0.019287411123514175,0.7109822630882263
1773258205290789400,5.254789306640625,-0.16200301051139832,0.0688813328742981,0.6570545434951782
1773258205300804400,5.264804443359375,-0.13894537091255188,0.1320006400346756,0.6631670594215393
1773258205310820400,5.2748203125,-0.08295613527297974,0.06288495659828186,0.707116961479187
1773258205320835300,5.28483544921875,0.049746785312891006,-0.056768208742141724,0.700171172618866
1773258205330851300,5.294851318359375,0.21323370933532715,-0.24859143793582916,0.6607603430747986
1773258205340866300,5.3048662109375,0.34912949800491333,-0.34968236088752747,0.6095219254493713
1773258205350881300,5.31488134765625,0.4398317039012909,-0.29685643315315247,0.5990879535675049
1773258205360897300,5.324897216796875,0.4372268617153168,-0.2891348600387573,0.6164757013320923
1773258205370912300,5.334912353515625,0.40637147426605225,-0.30478841066360474,0.6578007936477661
1773258205380928300,5.34492822265625,0.3015654385089874,-0.2358599305152893,0.7033999562263489
1773258205390943200,5.354943115234375,0.1890237182378769,-0.21345528960227966,0.7226181030273438
1773258205400959200,5.364959228515625,0.12136051803827286,-0.08662410825490952,0.648479163646698
1773258205410974200,5.37497412109375,0.1190241277217865,0.016859140247106552,0.5072711706161499
1773258205420989200,5.3849892578125,0.16251035034656525,0.19499053061008453,0.313365638256073
1773258205431005200,5.395005126953125,0.27227866649627686,0.34931832551956177,0.1101563349366188
1773258205441020200,5.405020263671875,0.35700634121894836,0.3286375403404236,-0.08468160033226013
1773258205451036200,5.4150361328125,0.41376280784606934,0.18765965104103088,-0.24329866468906403
1773258205461051100,5.425051025390625,0.4251004159450531,0.01757446676492691,-0.3722231090068817
1773258205471067400,5.4350673828125,0.33420220017433167,-0.1137276291847229,-0.4759979546070099
1773258205481082400,5.445082275390625,0.10912222415208817,-0.1719573736190796,-0.49770858883857727
1773258205491097000,5.45509716796875,-0.20322981476783752,-0.19641025364398956,-0.4074876010417938
1773258205501113300,5.46511328125,-0.48913612961769104,-0.24730299413204193,-0.30192309617996216
1773258205511128300,5.47512841796875,-0.7030441761016846,-0.21029545366764069,-0.24607981741428375
1773258205521144300,5.485144287109375,-0.8459392786026001,-0.045632198452949524,-0.20237654447555542
1773258205531159300,5.4951591796875,-0.8845657706260681,0.2066221535205841,-0.10111170262098312
1773258205541175300,5.50517529296875,-0.8190341591835022,0.47036829590797424,0.03612231835722923
1773258205551190300,5.515190185546875,-0.6013899445533752,0.5172825455665588,0.19310633838176727
1773258205561205500,5.52520556640625,-0.27709606289863586,0.30063945055007935,0.34824132919311523
1773258205571221200,5.53522119140625,-0.05314364656805992,0.1272202730178833,0.3859434425830841
1773258205581236500,5.545236572265625,0.13213619589805603,-0.011640943586826324,0.3725282847881317
1773258205591252200,5.555252197265625,0.3596827983856201,-0.2109774798154831,0.3281829357147217
1773258205601267500,5.565267333984375,0.47537586092948914,-0.30910563468933105,0.2256869226694107
1773258205611282400,5.575282470703125,0.5013121366500854,-0.2729601562023163,0.15174664556980133
1773258205621298400,5.58529833984375,0.46011194586753845,-0.09216801077127457,0.1156163439154625
1773258205631313400,5.5953134765625,0.36132410168647766,0.053822483867406845,0.14251427352428436
1773258205641329400,5.605329345703125,0.23884347081184387,0.1355876624584198,0.17424316704273224
1773258205651344400,5.615344482421875,0.111271932721138,0.19003066420555115,0.1684523969888687
1773258205661360400,5.6253603515625,-0.021863220259547234,0.213523730635643,0.15649187564849854
1773258205671375400,5.635375244140625,-0.16829127073287964,0.2068818062543869,0.17650046944618225
1773258205681390300,5.645390380859375,-0.32688918709754944,0.13625530898571014,0.24760127067565918
1773258205691406300,5.65540625,-0.4414554238319397,0.013762150891125202,0.3330053985118866
1773258205701421300,5.66542138671875,-0.49953046441078186,-0.10668117552995682,0.4036763608455658
1773258205711437300,5.675437255859375,-0.5348671674728394,-0.31219038367271423,0.4267851412296295
1773258205721452300,5.685452392578125,-0.5319421887397766,-0.4595167338848114,0.38879087567329407
1773258205731468500,5.695468505859375,-0.47994422912597656,-0.6193535327911377,0.27674025297164917
1773258205741483300,5.705483154296875,-0.39911195635795593,-0.6578178405761719,0.19461235404014587
1773258205751498200,5.715498291015625,-0.27980154752731323,-0.7007056474685669,0.09105028212070465
1773258205761514500,5.725514404296875,-0.13772350549697876,-0.6534284353256226,-0.0661017894744873
1773258205771529500,5.735529541015625,-0.023243270814418793,-0.49172553420066833,-0.31074509024620056
1773258205781545500,5.74554541015625,0.05050258710980415,-0.3564760982990265,-0.5653448700904846
1773258205791560400,5.755560546875,0.07979416102170944,-0.2801799774169922,-0.8177808523178101
1773258205801576400,5.765576416015625,0.014661233872175217,-0.14111478626728058,-1.0675195455551147
1773258205811591400,5.77559130859375,-0.09301009774208069,-0.008374842815101147,-1.2794581651687622
1773258205821606400,5.7856064453125,-0.19835250079631805,0.1729840338230133,-1.4530893564224243
1773258205831622400,5.795622314453125,-0.32328006625175476,0.4635902941226959,-1.5759679079055786
1773258205841637400,5.805637451171875,-0.44292548298835754,0.7751306295394897,-1.6003276109695435
1773258205851653400,5.8156533203125,-0.572176456451416,1.173722505569458,-1.464171051979065
1773258205861668400,5.82566845703125,-0.6904388666152954,1.4263664484024048,-1.247643232345581
1773258205871684400,5.835684326171875,-0.7460885643959045,1.4690731763839722,-1.0209736824035645
1773258205881699300,5.84569921875,-0.7385542392730713,1.3005623817443848,-0.8315871953964233
1773258205891714300,5.85571435546875,-0.7128975987434387,1.1414268016815186,-0.7175320386886597
1773258205901730300,5.865730224609375,-0.670518696308136,1.0617727041244507,-0.5633930563926697
1773258205911745300,5.875745361328125,-0.5925205945968628,0.896163821220398,-0.33105170726776123
1773258205921762300,5.88576220703125,-0.48803892731666565,0.6452645063400269,-0.0760502964258194
1773258205931777300,5.89577734375,-0.37677711248397827,0.38145413994789124,0.20676462352275848
1773258205941792300,5.905792236328125,-0.24887719750404358,-0.02598526142537594,0.4273774325847626
1773258205951808300,5.915808349609375,-0.07448142766952515,-0.435639351606369,0.5488489866256714
1773258205961823200,5.9258232421875,0.07311975210905075,-0.7323266863822937,0.6932733058929443
1773258205971839200,5.935839111328125,0.20877771079540253,-0.9530696868896484,0.787516176700592
1773258205981854200,5.945854248046875,0.29177966713905334,-1.0687265396118164,0.8152633905410767
1773258205991870500,5.955870361328125,0.29262468218803406,-1.0056666135787964,0.8002897500991821
1773258206001885200,5.96588525390625,0.2741897404193878,-0.8504676818847656,0.8199614882469177
1773258206011900200,5.975900146484375,0.2827230393886566,-0.7395300269126892,0.8090347647666931
1773258206021916400,5.98591650390625,0.26903146505355835,-0.6848028302192688,0.7516724467277527
1773258206031931400,5.995931396484375,0.2226754128932953,-0.685382068157196,0.6934248208999634
1773258206041947400,6.005947509765625,0.16415458917617798,-0.6680523753166199,0.6425179839134216
1773258206051962400,6.01596240234375,0.10745828598737717,-0.5970090627670288,0.5394821166992188
1773258206061977300,6.025977294921875,0.08374229818582535,-0.44680678844451904,0.3640194833278656
1773258206071993300,6.035993408203125,0.06736279278993607,-0.3448982536792755,0.2473088651895523
1773258206082008300,6.04600830078125,0.056779127568006516,-0.40226489305496216,0.22689387202262878
1773258206092024300,6.0560244140625,0.06394169479608536,-0.47239577770233154,0.17945577204227448
1773258206102039300,6.066039306640625,0.054179880768060684,-0.5199699401855469,0.06645438820123672
1773258206112055300,6.07605517578125,0.03771542012691498,-0.4993285834789276,-0.020424315705895424
1773258206122070300,6.0860703125,0.01477468479424715,-0.3778351843357086,-0.04676883667707443
1773258206132085200,6.096085205078125,-0.01912975311279297,-0.2359134554862976,-0.04483937844634056
1773258206142101200,6.106101318359375,-0.03700808435678482,-0.02900342270731926,-0.08389090746641159
1773258206152116200,6.1161162109375,0.002814162289723754,0.1435084342956543,-0.11618093401193619
1773258206162132200,6.12613232421875,-0.16258464753627777,0.8163962960243225,-0.2021493762731552
1773258206172147200,6.136147216796875,-0.5217540264129639,1.2987648248672485,-0.1725403517484665
1773258206182163200,6.1461630859375,-0.5136337280273438,1.5972551107406616,0.04054556041955948
1773258206192178200,6.15617822265625,-0.5532259345054626,1.6186197996139526,0.12835104763507843
1773258206202193200,6.166193115234375,-0.6072816848754883,1.259742021560669,0.1629612296819687
1773258206212209200,6.176209228515625,-0.5505803227424622,0.7873066067695618,0.17149798572063446
1773258206222224100,6.18622412109375,-0.44742465019226074,0.3589741289615631,0.29639971256256104
1773258206232240000,6.196240234375,-0.3330692946910858,-0.10239587724208832,0.5177667140960693
1773258206242255000,6.206255126953125,-0.18589210510253906,-0.48826953768730164,0.6360163688659668
1773258206252270300,6.216270263671875,-0.0020149475894868374,-0.7451921701431274,0.7247606515884399
1773258206262286000,6.2262861328125,0.12320981174707413,-0.8260380029678345,0.7658420205116272
1773258206272301300,6.23630126953125,0.1715153008699417,-0.7288339734077454,0.7952441573143005
1773258206282317300,6.2463173828125,0.18028774857521057,-0.6302937865257263,0.804857611656189
1773258206292332300,6.256332275390625,0.09823841601610184,-0.542075514793396,0.7304065227508545
1773258206302348300,6.266348388671875,-0.0030091057997196913,-0.37831854820251465,0.6355969309806824
1773258206312363300,6.27636328125,-0.10662764310836792,-0.0884089544415474,0.5855675935745239
1773258206322378500,6.28637841796875,-0.2634369730949402,0.186814084649086,0.5383308529853821
1773258206332394200,6.296394287109375,-0.4252208173274994,0.3296186327934265,0.49360013008117676
1773258206342409500,6.306409423828125,-0.5618904829025269,0.28347060084342957,0.42210569977760315
1773258206352425200,6.31642529296875,-0.641007661819458,0.175190731883049,0.3512725532054901
1773258206362440400,6.3264404296875,-0.6589672565460205,0.04247875139117241,0.3097200393676758
1773258206372455400,6.336455322265625,-0.5976114869117737,-0.09068170189857483,0.2936478555202484
1773258206382471400,6.346471435546875,-0.48495951294898987,-0.2150542438030243,0.24870195984840393
1773258206392486400,6.356486328125,-0.3199242055416107,-0.3567591905593872,0.1908186823129654
1773258206402502400,6.36650244140625,-0.18654005229473114,-0.36803901195526123,0.1165284737944603
1773258206412517400,6.376517333984375,-0.13322490453720093,-0.3234483599662781,0.05795331299304962
1773258206422533400,6.386533447265625,-0.05077449604868889,-0.3669721484184265,0.008680840022861958
1773258206432548400,6.39654833984375,-0.05776849016547203,-0.1595901995897293,-0.09093576669692993
1773258206442563300,6.406563232421875,-0.10150638222694397,-0.07319911569356918,-0.09176880121231079
1773258206452579300,6.416579345703125,-0.12805889546871185,-0.028177043423056602,-0.1031852439045906
1773258206462594300,6.42659423828125,-0.16835971176624298,0.06094564124941826,-0.17838571965694427
1773258206472610300,6.4366103515625,-0.2270509898662567,0.19927236437797546,-0.20166973769664764
1773258206482625300,6.446625244140625,-0.22136540710926056,0.2282392978668213,-0.1366630345582962
1773258206492641300,6.456641357421875,-0.22659932076931,0.18602871894836426,-0.04433843493461609
1773258206502656300,6.46665625,-0.06111874803900719,-1.0647251605987549,-0.03837481886148453
1773258206512671200,6.476671142578125,-0.016017848625779152,-0.9259619116783142,-0.12371927499771118
1773258206522687200,6.486687255859375,-0.01914040558040142,-0.6160392165184021,0.024333834648132324
1773258206532702200,6.4967021484375,-0.012012454681098461,-0.6007521748542786,0.0934913381934166
1773258206542718200,6.50671826171875,-0.07439354062080383,-0.3095692992210388,-0.010778078809380531
1773258206552733200,6.516733154296875,-0.1709059625864029,-0.4505709111690521,-0.08207489550113678
1773258206562748200,6.526748046875,-0.39655932784080505,-0.18582366406917572,-0.1865333914756775
1773258206572764400,6.536764404296875,-0.6889746785163879,-0.03664083406329155,-0.1577899008989334
1773258206582779400,6.546779296875,-0.9699525833129883,-0.17962302267551422,-0.05831443890929222
1773258206592795400,6.55679541015625,-1.1579586267471313,-0.13731737434864044,0.029681462794542313
1773258206602810400,6.566810302734375,-1.262961745262146,-0.17198587954044342,0.11504057049751282
1773258206612825300,6.576825439453125,-1.3107846975326538,-0.12474273145198822,0.10812833160161972
1773258206622841300,6.58684130859375,-1.2822505235671997,0.06780621409416199,0.11995197087526321
1773258206632856300,6.596856201171875,-1.1987409591674805,0.1425403654575348,0.10500737279653549
1773258206642872300,6.606872314453125,-1.046567678451538,0.21020783483982086,0.013890249654650688
1773258206652887300,6.61688720703125,-0.8666346669197083,0.14972931146621704,-0.11526187509298325
1773258206662903300,6.6269033203125,-0.6120295524597168,0.06099997088313103,-0.20541201531887054
1773258206672918300,6.636918212890625,-0.2740267515182495,-0.05385630577802658,-0.21920451521873474
1773258206682933200,6.646933349609375,0.05929075554013252,-0.1375112533569336,-0.1922868937253952
1773258206692949200,6.65694921875,0.39307937026023865,-0.3711916506290436,-0.16846731305122375
1773258206702964200,6.666964111328125,0.7186052799224854,-0.5675393342971802,-0.21153408288955688
1773258206712980200,6.676980224609375,0.91685551404953,-0.3820725381374359,-0.28862354159355164
1773258206722995200,6.6869951171875,0.9870268702507019,-0.19661745429039001,-0.27504247426986694
1773258206733011200,6.69701123046875,0.9494147896766663,-0.13177800178527832,-0.1737358421087265
1773258206743026200,6.707026123046875,0.7679272890090942,-0.048594433814287186,-0.049066610634326935
1773258206753041200,6.717041259765625,0.5333174467086792,-0.10748545080423355,0.15812093019485474
1773258206763057200,6.72705712890625,0.32305821776390076,-0.3597091734409332,0.4563089609146118
1773258206773072100,6.737072021484375,0.2145937979221344,-0.615135908126831,0.737463116645813
1773258206783088000,6.747088134765625,0.2205909639596939,-0.7341837286949158,0.9353402256965637
1773258206793103000,6.75710302734375,0.27717167139053345,-0.7671149969100952,1.028870701789856
1773258206803118300,6.767118408203125,0.37877634167671204,-0.6625438928604126,1.0746164321899414
1773258206813134000,6.777134033203125,0.5095165371894836,-0.5086592435836792,1.1078633069992065
1773258206823149300,6.7871494140625,0.7200971841812134,-0.5528424382209778,1.1620333194732666
1773258206833165300,6.797165283203125,0.5549662709236145,-0.23339703679084778,0.9766706228256226
1773258206843180300,6.80718017578125,0.41146716475486755,-0.21636825799942017,0.9136277437210083
1773258206853195300,6.8171953125,0.12721680104732513,0.03386848419904709,0.8243322372436523
1773258206863211500,6.82721142578125,-0.29688146710395813,-0.02425314113497734,0.8038972616195679
1773258206873226500,6.8372265625,-0.7280325889587402,-0.08758710324764252,0.807100772857666
1773258206883242500,6.847242431640625,-1.038290023803711,-0.3464128077030182,0.831670343875885
1773258206893257500,6.857257568359375,-1.1375943422317505,-0.7665925025939941,0.7898368239402771
1773258206903273500,6.8672734375,-1.088346004486084,-0.9308509826660156,0.6888553500175476
1773258206913288400,6.877288330078125,-0.8721200227737427,-0.9738993644714355,0.6252564191818237
1773258206923303400,6.887303466796875,-0.5601791739463806,-0.8224691152572632,0.5382357835769653
1773258206933319400,6.8973193359375,-0.22395001351833344,-0.6076047420501709,0.42277681827545166
1773258206943334400,6.90733447265625,0.10945218801498413,-0.38480573892593384,0.2577902674674988
1773258206953350400,6.917350341796875,0.3476463854312897,-0.35626891255378723,0.11420273780822754
1773258206963365400,6.927365478515625,0.4609135389328003,-0.18489448726177216,-0.01028379611670971
1773258206973380400,6.93738037109375,0.4644355773925781,-0.06036986783146858,-0.12979501485824585
1773258206983396400,6.947396240234375,0.3987966477870941,-0.03284343332052231,-0.18664471805095673
1773258206993411300,6.957411376953125,0.2930276095867157,-0.04339620843529701,-0.21062541007995605
1773258207003427300,6.96742724609375,0.1464909017086029,0.028798358514904976,-0.23240448534488678
1773258207013442300,6.9774423828125,0.032279644161462784,0.09156213700771332,-0.25705283880233765
1773258207023458300,6.987458251953125,0.011770905926823616,0.0996035560965538,-0.2712216377258301
1773258207033473300,6.997473388671875,-0.09367482364177704,0.23867543041706085,-0.28201064467430115
1773258207043488300,7.00748828125,-0.22032704949378967,0.29523617029190063,-0.27119529247283936
1773258207053504300,7.017504150390625,-0.29412803053855896,0.31874310970306396,-0.2526546120643616
1773258207063519200,7.027519287109375,-0.38155269622802734,0.1100894883275032,-0.13535383343696594
1773258207073535500,7.037535400390625,-0.4196428060531616,-0.21026162803173065,-0.009413475170731544
1773258207083550200,7.04755029296875,-0.3556923270225525,-0.26645007729530334,0.05149861052632332
1773258207093565200,7.057565185546875,-0.14798760414123535,-0.10031861066818237,0.10043792426586151
1773258207103581400,7.06758154296875,0.09408069401979446,0.017839983105659485,0.20282448828220367
1773258207113596400,7.077596435546875,0.24168506264686584,-0.03176432102918625,0.23277439177036285
1773258207123612400,7.0876123046875,0.3372113108634949,0.12780030071735382,0.13411279022693634
1773258207133627400,7.09762744140625,0.3660770654678345,0.3877865970134735,-0.04632781818509102
1773258207143642400,7.107642333984375,0.2689901888370514,0.5821672677993774,-0.27084454894065857
1773258207153658400,7.117658447265625,0.11276382952928543,0.7457908391952515,-0.49074283242225647
1773258207163673300,7.12767333984375,-0.10071755945682526,0.6329361796379089,-0.7305570244789124
1773258207173689300,7.137689453125,-0.20515687763690948,0.17675533890724182,-0.8587014079093933
1773258207183704300,7.147704345703125,-0.06271238625049591,-0.1387014240026474,-0.7821243405342102
1773258207193720300,7.15772021484375,0.04148246347904205,-0.2592129111289978,-0.6008703708648682
1773258207203735300,7.1677353515625,0.09690097719430923,-0.45163482427597046,-0.47728854417800903
1773258207213750300,7.177750244140625,0.15146169066429138,-0.5735034942626953,-0.4761761426925659
1773258207223766300,7.187766357421875,0.11562726646661758,-0.698835015296936,-0.4881305396556854
1773258207233781200,7.19778125,-0.01739470288157463,-0.5884187817573547,-0.48260074853897095
1773258207243797200,7.20779736328125,-0.1562228947877884,-0.4515320360660553,-0.40155303478240967
1773258207253812200,7.217812255859375,-0.25457555055618286,-0.39711353182792664,-0.36496785283088684
1773258207263827200,7.2278271484375,-0.35922741889953613,-0.06710845977067947,-0.2804846465587616
1773258207273843200,7.23784326171875,-0.4787077307701111,0.014452442526817322,-0.10293197631835938
1773258207283858200,7.247858154296875,-0.5046833753585815,-0.35636183619499207,0.020352942869067192
1773258207293874200,7.257874267578125,-0.429885596036911,-0.4306677579879761,0.027221500873565674
1773258207303889200,7.26788916015625,-0.3394523561000824,-0.18111306428909302,0.13844016194343567
1773258207313905200,7.2779052734375,-0.24286749958992004,-0.19563421607017517,0.3448095917701721
1773258207323920100,7.287920166015625,-0.055693887174129486,-0.3838200867176056,0.4491162896156311
1773258207333935400,7.297935302734375,0.1477721482515335,-0.5411189198493958,0.4254290759563446
1773258207343951000,7.307951171875,0.2826186418533325,-0.5762262940406799,0.3842509984970093
1773258207353966300,7.31796630859375,0.3793598413467407,-0.5102110505104065,0.3688419461250305
1773258207363982300,7.327982421875,0.4136056900024414,-0.5230778455734253,0.29371389746665955
1773258207373997300,7.337997314453125,0.3848757743835449,-0.6184235215187073,0.14072196185588837
1773258207384012300,7.34801220703125,0.2691606283187866,-0.6891701817512512,-0.06748636811971664
1773258207394028500,7.358028564453125,0.09130407869815826,-0.6763917803764343,-0.25649145245552063
1773258207404043500,7.36804345703125,-0.0877719298005104,-0.5968490242958069,-0.40553897619247437
1773258207414059500,7.3780595703125,-0.23204867541790009,-0.3175175189971924,-0.5538948774337769
1773258207424074500,7.388074462890625,-0.36608877778053284,-0.0524112768471241,-0.7502215504646301
1773258207434089500,7.39808935546875,-0.5051039457321167,0.38214150071144104,-0.9995471835136414
1773258207444105500,7.40810546875,-0.5492284893989563,0.8628713488578796,-1.1892057657241821
1773258207454120400,7.418120361328125,-0.5734752416610718,1.2703717947006226,-1.1852084398269653
1773258207464136400,7.428136474609375,-0.5926960706710815,1.5962135791778564,-1.1030511856079102
1773258207474151400,7.4381513671875,-0.5365923047065735,1.8618340492248535,-1.002929925918579
1773258207484167400,7.44816748046875,-0.4193115234375,1.794424295425415,-0.7927019000053406
1773258207494182400,7.458182373046875,-0.2887212932109833,1.4089992046356201,-0.5256741642951965
1773258207504197400,7.468197265625,-0.11722995340824127,0.5747730135917664,-0.3202965259552002
1773258207514213400,7.47821337890625,0.13071593642234802,-0.15417705476284027,-0.17370495200157166
1773258207524228400,7.488228271484375,0.29841625690460205,-0.563448965549469,-0.02550722472369671
1773258207534244400,7.498244384765625,0.36131879687309265,-0.7808875441551208,0.09621760994195938
1773258207544259300,7.50825927734375,0.330959290266037,-0.8923968076705933,0.20913536846637726
1773258207554275300,7.518275390625,0.1774943619966507,-1.2081528902053833,0.27182164788246155
1773258207564290300,7.528290283203125,-0.06589672714471817,-1.178128719329834,0.29953211545944214
1773258207574305300,7.53830517578125,-0.3342354893684387,-0.9883416891098022,0.4497562348842621
1773258207584321300,7.5483212890625,-0.5015366077423096,-0.8819654583930969,0.5822703242301941
1773258207594336300,7.558336181640625,-0.5401356816291809,-0.7597053050994873,0.651013195514679
1773258207604352300,7.568352294921875,-0.42053550481796265,-0.7895492315292358,0.7450443506240845
1773258207614367200,7.5783671875,-0.17164365947246552,-0.9730671048164368,0.8416747450828552
1773258207624382200,7.58838232421875,0.3689253032207489,-2.048557996749878,1.0038872957229614
1773258207634398200,7.598398193359375,0.32771262526512146,-2.0215888023376465,0.747241735458374
1773258207644413200,7.6084130859375,0.6799840927124023,-1.8981702327728271,0.8241506218910217
1773258207654429400,7.618429443359375,0.8443933129310608,-1.9004820585250854,0.743072509765625
1773258207664444400,7.6284443359375,0.7955600023269653,-1.1664440631866455,0.5887748599052429
1773258207674460400,7.63846044921875,0.7580685615539551,-0.44154173135757446,0.43756935000419617
1773258207684475400,7.648475341796875,0.7127625942230225,-0.11709999293088913,0.14312626421451569
1773258207694490400,7.658490478515625,0.6615039110183716,0.14198057353496552,-0.1583118736743927
1773258207704506400,7.66850634765625,0.5663763284683228,0.24144510924816132,-0.3740372359752655
1773258207714521300,7.678521240234375,0.39490312337875366,0.42696917057037354,-0.4837184548377991
1773258207724537300,7.688537353515625,0.007211840245872736,0.5463908910751343,-0.6010922193527222
1773258207734552300,7.69855224609375,-0.2458404004573822,0.3727397620677948,-0.6938035488128662
1773258207744568300,7.708568359375,-0.16146185994148254,0.08802812546491623,-0.7186446785926819
1773258207754583300,7.718583251953125,0.014550446532666683,-0.022456573322415352,-0.661467432975769
1773258207764598300,7.728598388671875,0.16979250311851501,-0.08859218657016754,-0.6052345037460327
1773258207774614300,7.7386142578125,0.2594837546348572,-0.18163637816905975,-0.6259757280349731
1773258207784629200,7.748629150390625,0.28055471181869507,-0.4004976153373718,-0.7017344236373901
1773258207794645200,7.758645263671875,0.24149012565612793,-0.3335430920124054,-0.8640192151069641
1773258207804660200,7.76866015625,0.1491095870733261,0.13283714652061462,-0.9936112761497498
1773258207814676200,7.77867626953125,0.09523198008537292,0.5630122423171997,-1.056943416595459
1773258207824691200,7.788691162109375,0.07105100899934769,0.6995404958724976,-1.1811604499816895
1773258207834706400,7.79870654296875,0.10949693620204926,0.7596659064292908,-1.3687928915023804
1773258207844722200,7.80872216796875,0.2582946717739105,0.9097821712493896,-1.4655412435531616
1773258207854737400,7.8187373046875,0.5497835278511047,0.8261708617210388,-1.432466983795166
1773258207864753200,7.828753173828125,0.7730283141136169,0.7352497577667236,-1.3269308805465698
1773258207874768400,7.838768310546875,0.8302604556083679,0.8327693939208984,-1.2001372575759888
1773258207884784000,7.8487841796875,0.8677840828895569,1.1172759532928467,-1.0229856967926025
1773258207894799400,7.85879931640625,0.8887719511985779,0.9189772605895996,-0.8800681829452515
1773258207904814300,7.868814453125,0.8516227006912231,0.48180657625198364,-0.7991693615913391
1773258207914830300,7.878830322265625,0.7015024423599243,0.09354406595230103,-0.7185459136962891
1773258207924844800,7.8888447265625,0.4004097282886505,-0.1045471802353859,-0.4372713267803192
1773258207934860800,7.89886083984375,0.033307354897260666,-0.2671842873096466,-0.08207063376903534
1773258207944875800,7.908875732421875,-0.23076769709587097,-0.34997665882110596,0.18480873107910156
1773258207954891800,7.918891845703125,-0.28975510597229004,-0.3944950997829437,0.3881778419017792
1773258207964906800,7.92890673828125,-0.2058708667755127,-0.49844521284103394,0.5782247185707092
1773258207974921700,7.938921630859375,-0.019593141973018646,-0.6802437901496887,0.6829929351806641
1773258207984937700,7.948937744140625,0.3830496370792389,-1.0238215923309326,0.6463172435760498
1773258207994952700,7.95895263671875,0.7869420051574707,-0.49635276198387146,0.5491150617599487
1773258208004968700,7.96896875,1.1029630899429321,-0.37270674109458923,0.48939499258995056
1773258208014983700,7.978983642578125,1.3143991231918335,-0.36089107394218445,0.27153483033180237
1773258208024999700,7.988999755859375,1.3997249603271484,-0.4174121618270874,0.054960187524557114
1773258208035014700,7.9990146484375,1.403350591659546,-0.970275342464447,-0.13776105642318726
1773258208045029600,8.009029541015625,1.2110258340835571,-0.9672052264213562,-0.37153360247612
1773258208055045600,8.019045654296875,0.7997709512710571,-0.14062689244747162,-0.3448876142501831
1773258208065060600,8.029060546875,0.4070979952812195,0.6737198233604431,-0.1066843718290329
1773258208075076900,8.039076904296875,0.24066214263439178,0.5633531212806702,-0.18535761535167694
1773258208085091600,8.049091552734374,0.15134663879871368,0.7256999611854553,-0.4892708957195282
1773258208095107800,8.05910791015625,-0.1814238578081131,1.1883269548416138,-0.5643685460090637
1773258208105122800,8.069122802734375,-0.46976137161254883,1.7013061046600342,-0.5335779190063477
1773258208115137800,8.0791376953125,-0.5771677494049072,2.0203137397766113,-0.7315314412117004
1773258208125153800,8.08915380859375,-0.6377197504043579,2.1396970748901367,-1.021679162979126
1773258208135168800,8.099168701171875,-0.7158536911010742,2.1272051334381104,-1.196899652481079
1773258208145184800,8.109184814453124,-0.6858089566230774,2.0304787158966064,-1.2247227430343628
1773258208155199700,8.11919970703125,-0.5008031725883484,1.675673484802246,-1.195265531539917
1773258208165215700,8.1292158203125,-0.13098357617855072,1.200637698173523,-1.284096360206604
1773258208175230700,8.139230712890624,0.21801888942718506,1.2393823862075806,-1.291028618812561
1773258208185245700,8.14924560546875,0.6103469729423523,0.9709224700927734,-1.2570786476135254
1773258208195261700,8.15926171875,1.0697859525680542,1.0230661630630493,-1.3055721521377563
1773258208205276700,8.169276611328126,1.3823078870773315,1.9030914306640625,-1.195643424987793
1773258208215292700,8.179292724609375,1.3793421983718872,2.14644193649292,-1.1077327728271484
1773258208225307600,8.1893076171875,1.178074598312378,2.288472890853882,-0.9658819437026978
1773258208235323600,8.19932373046875,0.9008960127830505,2.0957815647125244,-0.5837244391441345
1773258208245338600,8.209338623046875,0.5624390840530396,1.5755231380462646,0.011244664900004864
1773258208255353600,8.219353515625,0.2316199094057083,0.8415290713310242,0.7068524956703186
1773258208265369600,8.22936962890625,0.024323714897036552,-0.8178218603134155,0.9876002669334412
1773258208275384600,8.239384521484375,-0.06463385373353958,-1.6818522214889526,0.987240195274353
1773258208285400600,8.249400634765625,-0.02207840420305729,-2.467986822128296,1.068092703819275
1773258208295415600,8.25941552734375,0.21496157348155975,-2.869997501373291,1.041711688041687
1773258208305431600,8.269431640625,0.5985342860221863,-2.815725326538086,0.8197915554046631
1773258208315446500,8.279446533203124,0.7638425230979919,-2.1126761436462402,0.4492523670196533
1773258208325461500,8.28946142578125,0.846173107624054,-0.7816630601882935,0.11720385402441025
1773258208335477500,8.2994775390625,0.8267224431037903,0.09107211977243423,-0.1330704391002655
1773258208345492500,8.309492431640624,0.7409263253211975,0.7592480182647705,-0.4249081611633301
1773258208355508700,8.3195087890625,0.5334063768386841,1.1262305974960327,-0.6606815457344055
1773258208365523700,8.329523681640625,0.22237341105937958,1.000766634941101,-0.7117202281951904
1773258208375539700,8.339539794921874,-0.14876684546470642,0.5905942916870117,-0.5337762832641602
1773258208385554700,8.3495546875,-0.44611063599586487,0.09520987421274185,-0.1168118342757225
1773258208395570000,8.35956982421875,-0.561050534248352,-0.4144451320171356,0.29860082268714905
1773258208405585700,8.369585693359374,-0.4821818172931671,-0.7005005478858948,0.4746522605419159
1773258208415601000,8.379600830078125,-0.22473271191120148,-0.8356608152389526,0.5509456992149353
1773258208425616600,8.38961669921875,0.17561575770378113,-1.0135966539382935,0.5700222253799438
1773258208435631900,8.3996318359375,0.6220231056213379,-0.887488842010498,0.5581434369087219
1773258208445647600,8.409647705078125,0.9238170385360718,-0.6486536264419556,0.5276057720184326
1773258208455662800,8.419662841796875,0.9274285435676575,-0.05007674917578697,0.5087330341339111
1773258208465677800,8.429677734375,0.48044463992118835,2.390906810760498,0.9479945302009583
1773258208475693800,8.43969384765625,-0.0948663279414177,0.7758153080940247,1.1145715713500977
1773258208485708800,8.449708740234374,-0.6663090586662292,-0.3796567916870117,0.5642950534820557
1773258208495724800,8.459724853515626,-1.1707926988601685,-0.7049310207366943,0.5679670572280884
1773258208505739800,8.46973974609375,-1.1098028421401978,-1.0090075731277466,0.8666352033615112
1773258208515755800,8.479755859375,-0.6413142085075378,-1.1994518041610718,1.0519640445709229
1773258208525770800,8.489770751953126,0.03399445116519928,-1.4940186738967896,1.0293101072311401
1773258208535785700,8.49978564453125,0.7500521540641785,-1.583264946937561,0.791110634803772
1773258208545801700,8.5098017578125,1.250771164894104,-1.4239094257354736,0.48479706048965454
1773258208555816700,8.519816650390625,1.4912554025650024,-0.9829176068305969,0.2282494157552719
1773258208565832700,8.529832763671875,1.562841773033142,-0.31648048758506775,0.055625177919864655
1773258208575847700,8.53984765625,1.4886345863342285,0.01750069670379162,-0.07344838231801987
1773258208585863700,8.54986376953125,1.3413841724395752,0.1374385505914688,-0.23283351957798004
1773258208595878700,8.559878662109375,1.2498699426651,0.3131054639816284,-0.4642092287540436
1773258208605893600,8.5698935546875,1.1574026346206665,0.2877654731273651,-0.626509964466095
1773258208615910000,8.579909912109375,1.0731958150863647,0.3054209053516388,-0.5543753504753113
1773258208625924600,8.589924560546875,1.0434962511062622,0.43227845430374146,-0.20443356037139893
1773258208635940900,8.59994091796875,-0.05078515037894249,0.34510013461112976,-0.25078243017196655
1773258208645955800,8.609955810546875,-0.901755154132843,-0.45238903164863586,-0.26606258749961853
1773258208655970800,8.619970703125,-0.98082035779953,-0.5864139795303345,0.04501168429851532
1773258208665986800,8.62998681640625,-0.5856131315231323,-0.6683192253112793,0.31384047865867615
1773258208676001800,8.640001708984375,-0.21181318163871765,-0.5827587842941284,0.10399111360311508
1773258208686017800,8.650017822265625,-0.010054231621325016,-0.33674687147140503,-0.06049583479762077
1773258208696032800,8.66003271484375,0.005438441410660744,-0.2037171721458435,-0.12096104025840759
1773258208706048800,8.670048828125,-0.04728708788752556,-0.06172142177820206,-0.08619160950183868
1773258208716063700,8.680063720703124,-0.11996208876371384,-0.06341013312339783,-0.040875792503356934
1773258208726078700,8.69007861328125,-0.20306310057640076,-0.18290936946868896,-0.11499396711587906
1773258208736094700,8.7000947265625,-0.31198373436927795,-0.3363191485404968,-0.1597619652748108
1773258208746109700,8.710109619140624,-0.3950871229171753,-0.39344316720962524,0.014927816577255726
1773258208756125700,8.720125732421875,-0.404590904712677,-0.8743227124214172,0.24270398914813995
1773258208766140700,8.730140625,-0.5235497951507568,-1.1123243570327759,0.3622024357318878
1773258208776156700,8.74015673828125,-0.591462254524231,-1.553308367729187,0.5246807932853699
1773258208786171600,8.750171630859375,-0.6071072220802307,-1.739954948425293,0.6360208988189697
1773258208796186600,8.7601865234375,-0.6202994585037231,-1.7005077600479126,0.6928160190582275
1773258208806202600,8.77020263671875,-0.6279403567314148,-1.6274603605270386,0.6657154560089111
1773258208816217600,8.780217529296875,-0.5272864699363708,-1.2808523178100586,0.6096265912055969
1773258208826233600,8.790233642578125,-0.3949883282184601,-0.8808287978172302,0.5182253122329712
1773258208836248600,8.80024853515625,-0.3030432164669037,-0.5375774502754211,0.3723016679286957
1773258208846263600,8.810263671875,-0.11371644586324692,-0.3347438871860504,0.11274652183055878
1773258208856279600,8.820279541015625,-0.17089317739009857,-0.1633700132369995,-0.17502427101135254
1773258208866294500,8.83029443359375,-0.5174878835678101,-0.18557119369506836,-0.636806309223175
1773258208876310500,8.840310546875,-0.8266217708587646,0.5577729940414429,-1.1626732349395752
1773258208886325500,8.850325439453124,-0.715201199054718,1.470438003540039,-1.165047526359558
1773258208896341800,8.860341796875,-0.3171939253807068,1.4503154754638672,-1.1051796674728394
1773258208906356700,8.870356689453125,0.007370564620941877,1.4163010120391846,-1.0233681201934814
1773258208916371700,8.880371826171874,0.3175593316555023,1.159913420677185,-0.7962827682495117
1773258208926388000,8.890387939453126,0.6400809288024902,0.8427554368972778,-0.6002607941627502
1773258208936403000,8.90040283203125,0.7611207962036133,0.48345986008644104,-0.4052335023880005
1773258208946419000,8.9104189453125,0.5497536659240723,-0.06235312297940254,-0.15622955560684204
1773258208956434000,8.920433837890625,0.2300715446472168,-0.25685763359069824,0.11217420548200607
1773258208966450000,8.930449951171875,-0.18602898716926575,-0.14785604178905487,0.31931355595588684
1773258208976465000,8.94046484375,-0.403028666973114,-0.43880346417427063,0.4618866741657257
1773258208986479900,8.95047998046875,-0.4820246994495392,-0.8225287199020386,0.48551398515701294
1773258208996496000,8.960495849609375,-0.32553815841674805,-0.8036202788352966,0.5012971758842468
1773258209006510800,8.9705107421875,-0.05355830118060112,-0.8334053754806519,0.5339142680168152
1773258209016527000,8.980527099609375,0.23375976085662842,-0.8836056590080261,0.47477957606315613
1773258209026542000,8.9905419921875,0.4723536968231201,-0.6782573461532593,0.3754689693450928
1773258209036558000,9.00055810546875,0.6437355875968933,-0.5011275410652161,0.26169872283935547
1773258209046573000,9.010572998046875,0.7090961933135986,-0.26434215903282166,0.12283270806074142
1773258209056588300,9.02058837890625,0.5899940133094788,-0.04248088225722313,-0.004611796233803034
1773258209066604000,9.03060400390625,0.3757331371307373,0.08226557821035385,-0.1277529001235962
1773258209076619300,9.040619384765625,0.2512359619140625,0.07593391090631485,-0.23317866027355194
1773258209086635000,9.050635009765625,0.2575540542602539,-0.004861600697040558,-0.23863601684570312
1773258209096650200,9.060650146484376,0.28477421402931213,-0.0822562575340271,-0.12363272160291672
1773258209106665200,9.070665283203125,0.3127882778644562,-0.1484171748161316,-0.01565486006438732
1773258209116681200,9.08068115234375,0.4238620698451996,-0.11880414932966232,-0.11753009259700775
1773258209126696200,9.0906962890625,0.44698840379714966,-0.2034577876329422,-0.3201090395450592
1773258209136712200,9.100712158203125,0.5398509502410889,-0.14197711646556854,-0.2719918489456177
1773258209146727200,9.11072705078125,0.6348283290863037,-0.17899318039417267,-0.04391046613454819
1773258209156743200,9.1207431640625,0.6298972368240356,-0.4295439124107361,0.03461150825023651
1773258209166758100,9.130758056640625,0.463579922914505,-0.827346920967102,-0.13095854222774506
1773258209176773000,9.140773193359376,0.11399021744728088,-1.0553393363952637,-0.31648924946784973
1773258209186789000,9.1507890625,-0.19240300357341766,-1.1787819862365723,-0.25658679008483887
1773258209196804000,9.16080419921875,-0.2900232970714569,-1.2639421224594116,-0.06435022503137589
1773258209206820000,9.170820068359374,-0.15679387748241425,-1.3582062721252441,0.12503089010715485
1773258209216835000,9.1808349609375,0.10075590759515762,-1.4603595733642578,0.1938411146402359
1773258209226850000,9.19085009765625,0.29815393686294556,-1.4024134874343872,0.2299802005290985
1773258209236866000,9.200865966796876,0.37985944747924805,-1.2960811853408813,0.2437964230775833
1773258209246881000,9.210881103515625,0.30332979559898376,-1.0046130418777466,0.23243138194084167
1773258209256897000,9.22089697265625,0.1469830572605133,-0.7375675439834595,0.20316217839717865
1773258209266912000,9.230912109375,-0.0918436348438263,-0.5795509815216064,0.16313885152339935
1773258209276928300,9.24092822265625,-0.4169255793094635,-0.4031732976436615,0.14510925114154816
1773258209286943200,9.250943115234374,-0.6663386225700378,-0.07245316356420517,0.23189395666122437
1773258209296958000,9.2609580078125,-0.8660346865653992,0.2098323255777359,0.3762524724006653
1773258209306974200,9.27097412109375,-0.8856869339942932,0.36361628770828247,0.411165714263916
1773258209316989200,9.2809892578125,-0.7894235253334045,0.23992790281772614,0.3971569538116455
1773258209327005200,9.291005126953126,-0.7100861072540283,-0.05343153327703476,0.44524216651916504
1773258209337020200,9.301020263671875,-0.5802761912345886,-0.26043450832366943,0.5622356534004211
1773258209347036200,9.3110361328125,-0.3931499421596527,-0.5084794759750366,0.7209709882736206
1773258209357051100,9.321051025390625,-0.1895185261964798,-0.9376851916313171,0.7299473881721497
1773258209367066000,9.331066162109375,-0.02748994715511799,-1.4578272104263306,0.5112776756286621
1773258209377082000,9.34108203125,0.07757814973592758,-1.8352545499801636,0.40761303901672363
1773258209387097000,9.35109716796875,0.10463932901620865,-1.8634707927703857,0.3944205343723297
1773258209397113000,9.361113037109375,0.14441071450710297,-1.5868735313415527,0.4188268184661865
1773258209407128000,9.371128173828126,0.1998361498117447,-1.3270810842514038,0.42479389905929565
1773258209417143000,9.38114306640625,0.2532495856285095,-1.0531185865402222,0.3448474109172821
1773258209427159000,9.391158935546875,0.31228598952293396,-0.8331608772277832,0.2742571234703064
1773258209437174000,9.401174072265626,0.3860699236392975,-0.5626761317253113,0.2112288922071457
1773258209447190000,9.41118994140625,0.4141223430633545,0.1967165172100067,0.21299563348293304
1773258209457205000,9.421205078125,0.6030693650245667,0.35630324482917786,0.5280161499977112
1773258209467220000,9.431219970703125,0.8324477076530457,0.10266565531492233,0.5679774284362793
1773258209477236000,9.441236083984375,0.716846764087677,-0.9942829012870789,0.6053735017776489
1773258209487251000,9.4512509765625,0.41256946325302124,-2.1199984550476074,0.21084699034690857
1773258209497267000,9.461266845703125,-0.4731864631175995,-1.6185449361801147,-0.012589295394718647
1773258209507282000,9.471281982421875,-0.8291205763816833,-1.341326117515564,-0.017264474183321
1773258209517298000,9.4812978515625,-0.7768616676330566,-1.0847294330596924,-0.28309881687164307
1773258209527313000,9.49131298828125,-0.3672421872615814,-0.5299213528633118,-0.6617108583450317
1773258209537328000,9.501328125,0.19435429573059082,0.05483608320355415,-0.8760191202163696
1773258209547344000,9.51134375,0.6633785367012024,0.4707997441291809,-0.855064332485199
1773258209557359000,9.521359130859375,1.0962814092636108,0.5564690828323364,-0.7722546458244324
1773258209567375000,9.531375,1.4233338832855225,0.49293407797813416,-0.7101311087608337
1773258209577390000,9.54139013671875,1.5247348546981812,0.4797074794769287,-0.6093019843101501
1773258209587406000,9.551406005859375,1.4023313522338867,0.6595193147659302,-0.5581809878349304
1773258209597421000,9.561421142578125,1.15139901638031,0.9554106593132019,-0.5862051844596863
1773258209607436300,9.571436279296876,0.8448731899261475,1.3750613927841187,-0.6822669506072998
1773258209617452000,9.5814521484375,0.69135981798172,1.6730926036834717,-0.7915388941764832
1773258209627467300,9.59146728515625,0.5866754651069641,1.8740710020065308,-0.6414750814437866
1773258209637483000,9.60148291015625,0.16859780251979828,2.118014097213745,-0.03868481144309044
1773258209647498200,9.611498291015625,-0.41362887620925903,2.200493574142456,0.5724627375602722
1773258209657513200,9.62151318359375,-0.8778697848320007,2.031174421310425,0.8363444209098816
1773258209667529200,9.631529296875,-1.1945878267288208,1.680612325668335,0.8970476984977722
1773258209677544200,9.641544189453125,-1.4310288429260254,1.3107421398162842,0.870617687702179
1773258209687560200,9.651560302734374,-1.581008791923523,1.109857201576233,0.8902481198310852
1773258209697575200,9.6615751953125,-1.6188660860061646,0.8594156503677368,0.8878158926963806
1773258209707591200,9.671591064453125,-1.5313011407852173,0.5352463722229004,0.7695491313934326
1773258209717606100,9.681606201171874,-1.345875859260559,0.21569740772247314,0.5751456022262573
1773258209727621000,9.69162109375,-1.1403671503067017,-0.04688867926597595,0.3633579611778259
1773258209737637000,9.70163720703125,-0.9461718797683716,-0.26934438943862915,0.18162119388580322
1773258209747652000,9.711652099609376,-0.7589519023895264,-0.4525466859340668,0.05567444860935211
1773258209757668000,9.721668212890625,-0.5915184617042542,-0.5807435512542725,-0.029320338740944862
1773258209767683000,9.73168310546875,-0.4441486895084381,-0.6077402830123901,-0.07152771204710007
1773258209777698000,9.741697998046876,-0.3303819000720978,-0.5628085136413574,-0.10813099890947342
1773258209787714000,9.751714111328125,-0.26682981848716736,-0.45560985803604126,-0.14000530540943146
1773258209797729000,9.76172900390625,-0.2610204219818115,-0.29603779315948486,-0.13878265023231506
1773258209807745000,9.7717451171875,-0.2811286151409149,-0.11054275929927826,-0.11560648679733276
1773258209817760000,9.781760009765625,-0.3102947473526001,0.052079711109399796,-0.1000341922044754
1773258209827776300,9.7917763671875,-0.31650310754776,0.23699843883514404,-0.10273756086826324
1773258209837791000,9.801791015625,-0.3108702600002289,0.3930833637714386,-0.0807020366191864
1773258209847806000,9.811805908203125,-0.28489431738853455,0.4899313449859619,-0.0622793547809124
1773258209857822200,9.821822265625,-0.21721380949020386,0.6070396304130554,-0.0822216346859932
1773258209867837200,9.831837158203125,-0.1220148578286171,0.6754027009010315,-0.11932958662509918
1773258209877853200,9.841853271484375,-0.0553591288626194,0.6745731234550476,-0.15643328428268433
1773258209887868200,9.8518681640625,-0.031435951590538025,0.6502326130867004,-0.18748733401298523
1773258209897883100,9.861883056640625,-0.04487186670303345,0.6511721611022949,-0.2163352370262146
1773258209907899100,9.871899169921875,-0.07310563325881958,0.6524920463562012,-0.24733975529670715
1773258209917914000,9.8819140625,-0.12318877875804901,0.60887211561203,-0.2948470711708069
1773258209927930000,9.89193017578125,-0.19829630851745605,0.6027036905288696,-0.3741208612918854
1773258209937945000,9.901945068359375,-0.2699523866176605,0.6460655927658081,-0.4231930673122406
1773258209947961000,9.911961181640624,-0.3122982382774353,0.6475939750671387,-0.42560136318206787
1773258209957976000,9.92197607421875,-0.33462297916412354,0.6243501305580139,-0.4346614480018616
1773258209967991000,9.931990966796874,-0.3594777286052704,0.5859793424606323,-0.4455931782722473
1773258209978007300,9.94200732421875,-0.37194985151290894,0.5678043365478516,-0.42598140239715576
1773258209988022000,9.95202197265625,-0.3547232151031494,0.5733228921890259,-0.3806208372116089
1773258209998038300,9.962038330078125,-0.322625994682312,0.5378496050834656,-0.3341255187988281
1773258210008053200,9.97205322265625,-0.30740922689437866,0.4213815927505493,-0.2948548197746277
1773258210018068200,9.982068115234375,-0.2924369275569916,0.32507795095443726,-0.26341512799263
1773258210028084200,9.992084228515624,-0.25306954979896545,0.24117054045200348,-0.22351324558258057
1773258210038099200,10.00209912109375,-0.21925166249275208,0.13758023083209991,-0.16380783915519714
1773258210048115200,10.012115234375,-0.2093481570482254,0.035539619624614716,-0.12161218374967575
1773258210058130200,10.022130126953124,-0.20931194722652435,-0.03226339817047119,-0.09250196814537048
1773258210068146200,10.032146240234376,-0.21539832651615143,-0.1313023567199707,-0.058577824383974075
1773258210078161200,10.0421611328125,-0.2330702692270279,-0.2396450787782669,-0.03877243027091026
1773258210088176000,10.052176025390626,-0.234351247549057,-0.2537081837654114,-0.048161137849092484
1773258210098192100,10.062192138671875,-0.21387313306331635,-0.20497311651706696,-0.043827906250953674
1773258210108207000,10.07220703125,-0.18813182413578033,-0.18312694132328033,-0.02960156835615635
1773258210118223000,10.08222314453125,-0.16453967988491058,-0.15721945464611053,-0.030647657811641693
1773258210128238000,10.092238037109375,-0.1478336751461029,-0.08768191188573837,-0.06340000778436661
1773258210138254000,10.102254150390625,-0.1373799592256546,-0.023452328518033028,-0.09679418802261353
1773258210148269000,10.11226904296875,-0.11562380194664001,0.026217222213745117,-0.13162674009799957
1773258210158284300,10.1222841796875,-0.09937212616205215,0.1072649359703064,-0.15958939492702484
1773258210168300000,10.132300048828125,-0.10060223937034607,0.20162047445774078,-0.17332011461257935
1773258210178315300,10.142315185546876,-0.12370516359806061,0.2683078944683075,-0.18381190299987793
1773258210188331000,10.1523310546875,-0.15780001878738403,0.3202533721923828,-0.19807499647140503
1773258210198346200,10.16234619140625,-0.18804793059825897,0.34834787249565125,-0.19683396816253662
1773258210208361200,10.172361328125,-0.20349879562854767,0.35658687353134155,-0.19405895471572876
1773258210218377200,10.182377197265625,-0.19125890731811523,0.3686608672142029,-0.17432786524295807
1773258210228392200,10.19239208984375,-0.16039712727069855,0.4059927761554718,-0.14759477972984314
1773258210238408200,10.202408203125,-0.11354174464941025,0.4970771372318268,-0.12107369303703308
1773258210248423200,10.212423095703125,-0.047633565962314606,0.5767506957054138,-0.10516317188739777
1773258210258438100,10.222438232421876,0.022895729169249535,0.6152647733688354,-0.10458552837371826
1773258210268454400,10.232454345703125,0.07898376137018204,0.5790031552314758,-0.11927898973226547
1773258210278469400,10.242469482421875,0.12333578616380692,0.5094829797744751,-0.1353655457496643
1773258210288485400,10.2524853515625,0.14730262756347656,0.4127127230167389,-0.15178793668746948
1773258210298500400,10.262500244140625,0.1389743983745575,0.2907024025917053,-0.16092337667942047
1773258210308516400,10.272516357421875,0.11084369570016861,0.1890314370393753,-0.17219600081443787
1773258210318531300,10.28253125,0.06543652713298798,0.12372779846191406,-0.181076318025589
1773258210328546300,10.29254638671875,0.027693413197994232,0.11048603057861328,-0.17599312961101532
1773258210338562300,10.302562255859375,0.01762506552040577,0.12978942692279816,-0.14654949307441711
1773258210348577300,10.312577392578126,0.011637747287750244,0.14996951818466187,-0.09909036755561829
1773258210358593300,10.32259326171875,-0.011409514583647251,0.1515684872865677,-0.044371724128723145
1773258210368608300,10.332608154296874,-0.025659291073679924,0.12338372319936752,0.005228850524872541
1773258210378623200,10.342623291015625,-0.11310312151908875,0.08303709328174591,-0.013674532994627953
1773258210388639200,10.35263916015625,-0.311979204416275,0.2902110517024994,0.06076880916953087
1773258210398654200,10.362654296875,-0.4545145034790039,0.33682781457901,0.20759500563144684
1773258210408670200,10.372670166015626,-0.494294136762619,0.26072773337364197,0.23765915632247925
1773258210418685200,10.382685302734375,-0.4286656081676483,0.1825690120458603,0.2544559836387634
1773258210428701200,10.392701171875,-0.33111268281936646,0.20542505383491516,0.2977411448955536
1773258210438716200,10.402716064453125,-0.26155731081962585,0.16059499979019165,0.3432420492172241
1773258210448731100,10.412731201171875,-0.17992156744003296,0.021735122427344322,0.3179830312728882
1773258210458747100,10.4227470703125,-0.1108761802315712,-0.040886446833610535,0.24849502742290497
1773258210468762000,10.43276220703125,-0.056044358760118484,-0.03604135662317276,0.20599870383739471
1773258210478778000,10.442778076171875,0.016383500769734383,-0.028980519622564316,0.1843874156475067
1773258210488793000,10.45279296875,0.08917807787656784,0.0029166939202696085,0.14467036724090576
1773258210498808000,10.46280810546875,0.1266929656267166,0.08877993375062943,0.09542425721883774
1773258210508824000,10.472823974609375,0.0832565426826477,0.26702451705932617,0.03967604041099548
1773258210518839000,10.482839111328126,0.02191142365336418,0.382964164018631,0.022641396149992943
1773258210528855300,10.492855224609375,0.01486576534807682,0.4059789180755615,-0.037215277552604675
1773258210538870000,10.5028701171875,0.050215233117341995,0.4275952875614166,-0.07972891628742218
1773258210548886300,10.51288623046875,0.0637371689081192,0.417072594165802,-0.065462626516819
1773258210558901200,10.5229013671875,0.032227445393800735,0.36854368448257446,-0.04361698403954506
1773258210568916200,10.532916259765624,0.010457168333232403,0.28992530703544617,-0.02165602706372738
1773258210578932200,10.54293212890625,0.010647584684193134,0.21068693697452545,0.01031708624213934
1773258210588947200,10.552947265625,-0.011888884007930756,0.18208883702754974,0.06285645812749863
1773258210598963200,10.562963134765624,-0.05083734914660454,0.1840798258781433,0.1380992829799652
1773258210608978200,10.572978271484375,-0.08680760115385056,0.18816165626049042,0.1998468041419983
1773258210618994200,10.582994140625,-0.11535801738500595,0.21610140800476074,0.23633956909179688
1773258210629009200,10.593009033203124,-0.14609196782112122,0.26408544182777405,0.26194000244140625
1773258210639024400,10.6030244140625,-0.17095497250556946,0.2849925756454468,0.28078240156173706
1773258210649040100,10.6130400390625,-0.18193358182907104,0.2536250650882721,0.2735135555267334
1773258210659055400,10.623055419921876,-0.16931578516960144,0.22383202612400055,0.24525156617164612
1773258210669071000,10.633071044921875,-0.1509152054786682,0.19192230701446533,0.21251626312732697
1773258210679086300,10.64308642578125,-0.13237641751766205,0.16889101266860962,0.19435802102088928
1773258210689102000,10.65310205078125,-0.10338205099105835,0.15162894129753113,0.18400046229362488
1773258210699117000,10.663116943359375,-0.06717291474342346,0.13768649101257324,0.1602996587753296
1773258210709132300,10.67313232421875,-0.029353095218539238,0.1251203715801239,0.11600276827812195
1773258210719148000,10.68314794921875,0.012818593531847,0.12316640466451645,0.05813227966427803
1773258210729163300,10.693163330078125,0.04181216284632683,0.1500483602285385,0.002198439557105303
1773258210739179000,10.703178955078124,0.06779955327510834,0.20309560000896454,-0.043228428810834885
1773258210749194200,10.7131943359375,0.08387492597103119,0.24253568053245544,-0.08421101421117783
1773258210759209200,10.723209228515625,0.09193737804889679,0.24262195825576782,-0.13024082779884338
1773258210769225200,10.73322509765625,0.09863229840993881,0.21838799118995667,-0.16373220086097717
1773258210779240200,10.743240234375,0.10224514454603195,0.1900000274181366,-0.17508792877197266
1773258210789256200,10.753256103515625,0.10340947657823563,0.16662812232971191,-0.16523689031600952
1773258210799271200,10.763271240234374,0.11280990391969681,0.1076260656118393,-0.17664827406406403
1773258210809287400,10.773287353515625,0.12564155459403992,0.13715678453445435,-0.17572788894176483
1773258210819302400,10.783302490234375,0.13117346167564392,0.13421718776226044,-0.1557493805885315
1773258210829317000,10.793317138671876,0.13964657485485077,0.09308040887117386,-0.13582147657871246
1773258210839333400,10.80333349609375,0.13258573412895203,0.09076479077339172,-0.13206163048744202
1773258210849348400,10.813348388671875,0.10920824855566025,0.10996058583259583,-0.13112179934978485
1773258210859364400,10.8233642578125,0.08664540946483612,0.09557898342609406,-0.14802701771259308
1773258210869379300,10.83337939453125,0.0508008636534214,0.11873889714479446,-0.17401041090488434
1773258210879395300,10.843395263671875,0.009169796481728554,0.17381466925144196,-0.18953877687454224
1773258210889410300,10.853410400390626,0.007497863844037056,0.16502010822296143,-0.21855710446834564
1773258210899426300,10.86342626953125,0.029514482244849205,0.14783819019794464,-0.2913452982902527
1773258210909441300,10.873441162109375,0.03526797518134117,0.1042555645108223,-0.4346238970756531
1773258210919456300,10.883456298828126,-0.01477548386901617,0.12380556762218475,-0.5891503691673279
1773258210929472300,10.89347216796875,-0.017119864001870155,0.2574179470539093,-0.6075043082237244
1773258210939487200,10.9034873046875,-0.007534082513302565,0.08996078372001648,-0.7096991539001465
1773258210949503200,10.913503173828126,-0.016921458765864372,0.04951668530702591,-0.8587735891342163
1773258210959518200,10.923518310546875,-0.0505896732211113,0.14567197859287262,-0.8463605642318726
1773258210969534200,10.9335341796875,-0.08991790562868118,0.3083304166793823,-0.6608604788780212
1773258210979549200,10.943549072265625,-0.09709778428077698,0.3738934397697449,-0.5179278254508972
1773258210989564200,10.953564208984375,-0.12494513392448425,0.2634561359882355,-0.5164340734481812
1773258210999580200,10.963580078125,-0.2614065706729889,0.12152749300003052,-0.5795203447341919
1773258211009595100,10.97359521484375,-0.4807932376861572,-0.013003682717680931,-0.6458423733711243
1773258211019611100,10.983611083984375,-0.7416884899139404,-0.059966929256916046,-0.7034524083137512
1773258211029626000,10.993626220703124,-0.943452000617981,0.06049583479762077,-0.6412609815597534
1773258211039642000,11.00364208984375,-1.0427309274673462,0.2652268707752228,-0.4924160838127136
1773258211049657000,11.013656982421875,-1.0316715240478516,0.4247012138366699,-0.3507668077945709
1773258211059672000,11.023672119140626,-0.9756530523300171,0.4474278390407562,-0.31478697061538696
1773258211069688000,11.03368798828125,-0.9256202578544617,0.34774118661880493,-0.37630411982536316
1773258211079703000,11.043703125,-0.8974354863166809,0.27663347125053406,-0.4444166123867035
1773258211089719000,11.053718994140626,-0.89377760887146,0.27357161045074463,-0.47131985425949097
1773258211099734000,11.063734130859375,-0.9001455307006836,0.336749792098999,-0.4614427089691162
1773258211109750300,11.073750244140625,-0.9266125559806824,0.38353273272514343,-0.41813626885414124
1773258211119765200,11.08376513671875,-0.9415174722671509,0.3190549612045288,-0.32106828689575195
1773258211129781200,11.09378125,-0.9741121530532837,0.13749447464942932,-0.2140134871006012
1773258211139796200,11.103796142578124,-1.0276768207550049,-0.05411703139543533,-0.13510775566101074
1773258211149811200,11.113811279296876,-1.0807738304138184,-0.23283031582832336,-0.12270328402519226
1773258211159827200,11.1238271484375,-1.1051937341690063,-0.2518482208251953,-0.11350845545530319
1773258211169842200,11.13384228515625,-1.0695174932479858,-0.20109689235687256,-0.09502504765987396
1773258211179858200,11.143858154296876,-0.9969514012336731,-0.09839208424091339,-0.09815879166126251
1773258211189873200,11.153873046875,-0.907811164855957,0.03537316992878914,-0.10286246240139008
1773258211199889200,11.16388916015625,-0.7895614504814148,0.05612265691161156,-0.11042264848947525
1773258211209904000,11.173904052734375,-0.654901385307312,0.017006147652864456,-0.13744361698627472
1773258211219919000,11.183919189453125,-0.5230706930160522,-0.032818932086229324,-0.14331641793251038
1773258211229935000,11.19393505859375,-0.3887922167778015,-0.03476916626095772,-0.11533990502357483
1773258211239950000,11.2039501953125,-0.2558637261390686,-0.04734301567077637,-0.04555203765630722
1773258211249966000,11.213966064453125,-0.13408643007278442,-0.12824665009975433,0.027783161029219627
1773258211259981000,11.22398095703125,-0.02238786406815052,-0.14636707305908203,0.11362669616937637
1773258211269997000,11.2339970703125,0.09451345354318619,-0.08728164434432983,0.24502812325954437
1773258211280012000,11.244011962890625,0.23819658160209656,-0.12032800912857056,0.36307674646377563
1773258211290028000,11.254028076171876,0.3954157829284668,-0.2645224630832672,0.4128546714782715
1773258211300043000,11.26404296875,0.5428071022033691,-0.45562583208084106,0.42184337973594666
1773258211310058200,11.274058349609374,0.6384183168411255,-0.6237916946411133,0.4216444492340088
1773258211320074000,11.284073974609376,0.6753717660903931,-0.7256642580032349,0.4155553877353668
1773258211330089200,11.294089111328125,0.6556872725486755,-0.6753376722335815,0.43697279691696167
1773258211340105000,11.30410498046875,0.6228241324424744,-0.6782948970794678,0.4379403293132782
1773258211350120200,11.3141201171875,0.5868344902992249,-0.7248464226722717,0.4444568157196045
1773258211360136200,11.32413623046875,0.5478468537330627,-0.7900373935699463,0.42126360535621643
1773258211370151200,11.334151123046874,0.5265109539031982,-0.8029984831809998,0.3463992178440094
1773258211380166100,11.344166259765625,0.5245569944381714,-0.7459271550178528,0.26194533705711365
1773258211390182100,11.35418212890625,0.5387239456176758,-0.6846941709518433,0.1851605325937271
1773258211400197400,11.364197265625,0.5538616180419922,-0.6308032274246216,0.1096535250544548
1773258211410213000,11.374213134765625,0.5814436674118042,-0.5424603223800659,0.051236290484666824
1773258211420228400,11.384228271484375,0.6167686581611633,-0.4883507788181305,-0.0009795106016099453
1773258211430244000,11.394244140625,0.6587336659431458,-0.41827449202537537,-0.06668448448181152
1773258211440259300,11.40425927734375,0.6991905570030212,-0.29170987010002136,-0.13596369326114655
1773258211450274300,11.4142744140625,0.7164403796195984,-0.20693346858024597,-0.18425719439983368
1773258211460290300,11.424290283203124,0.712206244468689,-0.15607161819934845,-0.22517000138759613
1773258211470305300,11.43430517578125,0.6747233271598816,-0.11474788933992386,-0.26682397723197937
1773258211480321300,11.4443212890625,0.594379186630249,-0.08750215172767639,-0.29938778281211853
1773258211490336300,11.454336181640626,0.49692773818969727,-0.03744591027498245,-0.3074139952659607
1773258211500352300,11.464352294921875,0.39318138360977173,0.04397518187761307,-0.2943807542324066
1773258211510367200,11.4743671875,0.28926217555999756,0.06898705661296844,-0.27574315667152405
1773258211520383200,11.48438330078125,0.18824687600135803,0.10191704332828522,-0.2691848576068878
1773258211530398200,11.494398193359375,0.113438680768013,0.1920061856508255,-0.280343234539032
1773258211540413200,11.5044130859375,0.060930993407964706,0.27684810757637024,-0.2867603898048401
1773258211550429200,11.51442919921875,0.01683783531188965,0.3469611406326294,-0.28974607586860657
1773258211560444200,11.524444091796875,-0.022780679166316986,0.44819483160972595,-0.2776326835155487
1773258211570460200,11.534460205078124,-0.03550473228096962,0.5324226021766663,-0.25255289673805237
1773258211580475100,11.54447509765625,-0.018643192946910858,0.5530602335929871,-0.24554291367530823
1773258211590491100,11.5544912109375,0.011397263966500759,0.5493409037590027,-0.2465357482433319
1773258211600506000,11.564506103515624,0.04246276989579201,0.5273676514625549,-0.23480771481990814
1773258211610521000,11.57452099609375,0.06725040823221207,0.5024631023406982,-0.21939653158187866
1773258211620537300,11.584537353515625,0.08883852511644363,0.4563627541065216,-0.22233639657497406
1773258211630552000,11.594552001953126,0.10880717635154724,0.3971300423145294,-0.2630486786365509
1773258211640568300,11.604568359375,0.12488707154989243,0.3874169588088989,-0.29029813408851624
1773258211650583300,11.614583251953125,0.14424559473991394,0.38911473751068115,-0.2954569458961487
1773258211660599300,11.624599365234374,0.17140556871891022,0.3979793190956116,-0.31026679277420044
1773258211670614300,11.6346142578125,0.2003333568572998,0.4293100833892822,-0.33929550647735596
1773258211680629200,11.644629150390625,0.220601886510849,0.49634504318237305,-0.38608112931251526
1773258211690645200,11.654645263671876,0.25572097301483154,0.5815094709396362,-0.42385566234588623
1773258211700660200,11.66466015625,0.29654884338378906,0.613876223564148,-0.4564466178417206
1773258211710676200,11.67467626953125,0.34182578325271606,0.614922821521759,-0.49786943197250366
1773258211720691200,11.684691162109376,0.39312490820884705,0.6190009117126465,-0.5377353429794312
1773258211730707200,11.694707275390625,0.4360089898109436,0.6054944396018982,-0.5572571158409119
1773258211740722200,11.70472216796875,0.4746461510658264,0.5591428875923157,-0.5664919018745422
1773258211750737200,11.714737060546875,0.5060392022132874,0.5123897790908813,-0.5788724422454834
1773258211760753200,11.724753173828125,0.513823926448822,0.47171905636787415,-0.5774409770965576
1773258211770768100,11.73476806640625,0.49738579988479614,0.42684611678123474,-0.5628505945205688
1773258211780784000,11.7447841796875,0.4759817123413086,0.40360018610954285,-0.5299914479255676
1773258211790799000,11.754799072265625,0.4452837407588959,0.41141605377197266,-0.4722977578639984
1773258211800815000,11.764815185546874,0.41083306074142456,0.40055301785469055,-0.3937041461467743
1773258211810830000,11.774830078125,0.37925755977630615,0.3499974310398102,-0.31469589471817017
1773258211820845000,11.784844970703125,0.3587357997894287,0.30026954412460327,-0.24228321015834808
1773258211830861000,11.794861083984374,0.3488277494907379,0.1767183095216751,-0.1681559830904007
1773258211840876000,11.8048759765625,0.3415679931640625,0.01962057314813137,-0.08694128692150116
1773258211850892000,11.81489208984375,0.32634401321411133,-0.10264408588409424,-0.01973855122923851
1773258211860907000,11.824906982421876,0.30146265029907227,-0.162845641374588,0.02147306688129902
1773258211870923300,11.83492333984375,0.2847888469696045,-0.1447521299123764,0.04896940663456917
1773258211880938000,11.84493798828125,0.2555185854434967,-0.12621305882930756,0.057381000369787216
1773258211890953000,11.854952880859376,0.20374727249145508,-0.11646775901317596,0.05356469005346298
1773258211900969200,11.86496923828125,0.14182718098163605,-0.020302608609199524,0.06523679196834564
1773258211910984200,11.874984130859374,0.07121266424655914,0.061350975185632706,0.0716954916715622
1773258211921000200,11.885000244140626,0.00947845634073019,0.09203911572694778,0.07394639402627945
1773258211931015200,11.89501513671875,-0.030312897637486458,0.07247845828533173,0.05224189907312393
1773258211941031200,11.90503125,-0.0342828705906868,0.02576262131333351,0.018085526302456856
1773258211951046100,11.915046142578126,-0.005308745428919792,-0.022491727024316788,-0.022664831951260567
1773258211961061000,11.92506103515625,0.0276862233877182,-0.02574637532234192,-0.05847236514091492
1773258211971077400,11.935077392578124,0.05410557985305786,-0.01149819791316986,-0.06692523509263992
1773258211981092000,11.945092041015625,0.059732306748628616,0.008028365671634674,-0.05855891853570938
1773258211991108400,11.9551083984375,0.055927447974681854,0.06538965553045273,-0.057561565190553665
1773258212001123300,11.965123291015624,0.04681064933538437,0.16694052517414093,-0.05955147743225098
1773258212011139300,11.975139404296876,0.027653465047478676,0.2009434849023819,-0.05507603660225868
1773258212021154300,11.985154296875,0.01629907824099064,0.15959738194942474,-0.03531484678387642
1773258212031169500,11.99516943359375,0.008075503632426262,0.11236835271120071,-0.02117239683866501
1773258212041185300,12.005185302734375,0.00227886694483459,0.05964868143200874,0.00256435782648623
1773258212051200500,12.015200439453125,0.009965548291802406,-0.003994475118815899,0.039329297840595245
1773258212061216300,12.02521630859375,0.02870221808552742,-0.05235881358385086,0.05380411073565483
1773258212071231500,12.0352314453125,0.05301341786980629,-0.0935981273651123,0.03593003749847412
1773258212081247200,12.045247314453125,0.07829160988330841,-0.12210327386856079,0.009303220547735691
1773258212091262500,12.055262451171876,0.11283919960260391,-0.1568484753370285,-0.011143464595079422
1773258212101277400,12.06527734375,0.13634586334228516,-0.19893360137939453,-0.03771968185901642
1773258212111293400,12.07529345703125,0.14973942935466766,-0.17392998933792114,-0.0695018470287323
1773258212121308400,12.085308349609376,0.16722095012664795,-0.11184637248516083,-0.10014257580041885
1773258212131324400,12.095324462890625,0.17935989797115326,-0.07321029901504517,-0.1313561648130417
1773258212141339400,12.10533935546875,0.17787492275238037,-0.046658050268888474,-0.15706604719161987
1773258212151355400,12.11535546875,0.18813900649547577,-0.051005661487579346,-0.16817516088485718
1773258212161370400,12.125370361328125,0.20477178692817688,-0.09919529408216476,-0.173566997051239
1773258212171385300,12.13538525390625,0.20012590289115906,-0.133782297372818,-0.17595557868480682
1773258212181401300,12.1454013671875,0.1794981211423874,-0.18514162302017212,-0.16416923701763153
1773258212191416300,12.155416259765625,0.1637820154428482,-0.2697571814060211,-0.14126817882061005
1773258212201432300,12.165432373046874,0.17830316722393036,-0.33458012342453003,-0.11699745804071426
1773258212211447300,12.175447265625,0.18760532140731812,-0.4366582930088043,-0.09881020337343216
1773258212221463600,12.185463623046875,0.1984102874994278,-0.5281171202659607,-0.09423036128282547
1773258212231478300,12.195478271484374,0.2383614331483841,-0.6495735049247742,-0.11218379437923431
1773258212241493200,12.2054931640625,0.28863340616226196,-0.7574371099472046,-0.12824159860610962
1773258212251509500,12.215509521484375,0.3723229765892029,-0.9549448490142822,-0.11574337631464005
1773258212261524500,12.2255244140625,0.43031251430511475,-1.188668131828308,-0.09269318729639053
1773258212271540500,12.23554052734375,0.5025185346603394,-1.343871831893921,-0.06570151448249817
1773258212281555500,12.245555419921875,0.5957307815551758,-1.4593390226364136,-0.059903282672166824
1773258212291571500,12.255571533203126,0.6757614016532898,-1.5469516515731812,-0.09134802222251892
1773258212301586400,12.26558642578125,0.765627920627594,-1.5969624519348145,-0.13400360941886902
1773258212311601400,12.275601318359374,0.8428944945335388,-1.5984705686569214,-0.13941621780395508
1773258212321617400,12.285617431640626,0.9016238451004028,-1.6615850925445557,-0.106004998087883
1773258212331632400,12.29563232421875,0.9744082689285278,-1.8231250047683716,-0.06563759595155716
1773258212341648400,12.3056484375,1.03767991065979,-1.9583395719528198,-0.036377184092998505
1773258212351663400,12.315663330078126,1.0929423570632935,-2.0205929279327393,-0.007168164476752281
1773258212361679400,12.325679443359375,1.1549042463302612,-2.0881941318511963,0.037338849157094955
1773258212371694300,12.3356943359375,1.2526519298553467,-2.104086399078369,0.0898398756980896
1773258212381709300,12.345709228515625,1.3987656831741333,-2.032813787460327,0.16899727284908295
1773258212391725300,12.355725341796875,1.5924102067947388,-1.982920527458191,0.24365739524364471
1773258212401740300,12.365740234375,1.8410022258758545,-1.9102028608322144,0.29992547631263733
1773258212411756300,12.37575634765625,2.1588239669799805,-1.7438822984695435,0.38375645875930786
1773258212421771300,12.385771240234375,2.502354145050049,-1.51040780544281,0.48016634583473206
1773258212431787300,12.395787353515624,2.8199210166931152,-1.2845323085784912,0.5938164591789246
1773258212441802200,12.40580224609375,3.089445114135742,-1.0452136993408203,0.7343610525131226
1773258212451817200,12.415817138671875,3.287713050842285,-0.7691906690597534,0.8884412050247192
1773258212461833200,12.425833251953126,3.378316640853882,-0.5092254281044006,1.021389365196228
1773258212471848200,12.43584814453125,3.404542922973633,-0.29347261786460876,1.126953125
1773258212481864200,12.4458642578125,3.364518642425537,-0.05537644028663635,1.2615511417388916
1773258212491879200,12.455879150390626,3.3028998374938965,0.21350961923599243,1.4794349670410156
