time,seconds_elapsed,z,y,x
1773258200101563000,0.06556298828125,0.03222212567925453,0.3776702880859375,0.18605193495750427
1773258200111578000,0.075578125,-0.028862306848168373,0.743349015712738,0.15643475949764252
1773258200121593900,0.08559375,-0.13463853299617767,1.0142250061035156,0.08812733739614487
1773258200131609000,0.095609130859375,-0.28456971049308777,1.2210369110107422,0.029809648171067238
1773258200141624000,0.1056240234375,-0.4384269416332245,1.260500192642212,0.003030230291187763
1773258200151640000,0.11564013671875,-0.6354801654815674,1.1383384466171265,-0.016060104593634605
1773258200161655000,0.125655029296875,-0.9095886945724487,0.9197360277175903,-0.06236368790268898
1773258200171670000,0.135669921875,-1.1935770511627197,0.7253245115280151,-0.1542641520500183
1773258200181686000,0.14568603515625,-1.4702444076538086,0.7023875117301941,-0.23313233256340027
1773258200191701000,0.155700927734375,-1.722673773765564,0.8132505416870117,-0.2638165354728699
1773258200201717000,0.165717041015625,-1.8275010585784912,0.9088841080665588,-0.2382693588733673
1773258200211732000,0.17573193359375,-1.996236801147461,1.0571157932281494,-0.25663232803344727
1773258200221747000,0.185746826171875,-2.1338703632354736,1.2684506177902222,-0.24262438714504242
1773258200231763000,0.195762939453125,-2.270944118499756,1.3633341789245605,-0.24074338376522064
1773258200241778000,0.20577783203125,-2.4351887702941895,1.298351526260376,-0.3406146168708801
1773258200251793000,0.21579296875,-2.5846383571624756,1.0584266185760498,-0.5311731696128845
1773258200261809000,0.225808837890625,-2.6848487854003906,0.5820978879928589,-0.7592383027076721
1773258200271824000,0.235823974609375,-2.7639975547790527,-0.1420755833387375,-0.9775919318199158
1773258200281838800,0.2458388671875,-2.8343605995178223,-1.0195248126983643,-1.1937668323516846
1773258200291854800,0.255854736328125,-2.8569579124450684,-1.8305673599243164,-1.3765547275543213
1773258200301869800,0.265869873046875,-2.793043851852417,-2.401705741882324,-1.4913651943206787
1773258200311884800,0.275884765625,-2.6813132762908936,-2.729215145111084,-1.5061770677566528
1773258200321900800,0.28590087890625,-2.574267864227295,-2.7970869541168213,-1.4079135656356812
1773258200331915800,0.295915771484375,-2.3185935020446777,-2.442671537399292,-1.1813068389892578
1773258200341930800,0.3059306640625,-1.5025500059127808,-1.6410939693450928,-0.842444121837616
1773258200351946800,0.31594677734375,-0.24348540604114532,-0.7100921273231506,-0.4972890615463257
1773258200361961700,0.325961669921875,0.4752469062805176,-0.29669255018234253,-0.26625344157218933
1773258200371977700,0.335977783203125,0.44794583320617676,-0.4712705910205841,-0.12289771437644958
1773258200381992700,0.34599267578125,0.5299962162971497,-0.6903272867202759,0.03923686593770981
1773258200392008000,0.356008056640625,0.7074988484382629,-0.6667435765266418,0.18623095750808716
1773258200402024000,0.36602392578125,0.7399196028709412,-0.7052356004714966,0.2515715956687927
1773258200412039000,0.376038818359375,0.6888477802276611,-0.9504270553588867,0.20332381129264832
1773258200422054000,0.386053955078125,0.5955455303192139,-1.4236115217208862,0.1339692324399948
1773258200432070100,0.396070068359375,0.4966185688972473,-1.6604344844818115,0.1484570950269699
1773258200442085000,0.406085205078125,0.4356391429901123,-1.4385535717010498,0.19848564267158508
1773258200452099800,0.416099853515625,0.43601757287979126,-1.0669599771499634,0.2383611500263214
1773258200462116000,0.4261162109375,0.49205633997917175,-0.6089739203453064,0.17886799573898315
1773258200472131000,0.436131103515625,0.5515601634979248,-0.3219093978404999,-0.018055452033877373
1773258200482146000,0.44614599609375,0.5047439336776733,-0.1819312423467636,-0.2062368243932724
1773258200492162000,0.456162109375,0.5308414101600647,-0.11781804263591766,-0.26746252179145813
1773258200502177000,0.466177001953125,0.6176921725273132,-0.1734621375799179,-0.2385416477918625
1773258200512193000,0.476193115234375,0.6187493205070496,-0.3260609209537506,-0.25653570890426636
1773258200522208000,0.4862080078125,0.5447078347206116,-0.19554072618484497,-0.5346081256866455
1773258200532223000,0.496222900390625,0.49567586183547974,-0.15770992636680603,-0.7661944627761841
1773258200542239000,0.506239013671875,0.47320064902305603,0.6333279609680176,-1.2094382047653198
1773258200552254000,0.51625390625,0.537483274936676,0.6486072540283203,-1.4272388219833374
1773258200562269000,0.52626904296875,0.6051206588745117,0.8584811687469482,-1.5389329195022583
1773258200572285000,0.536284912109375,0.6458455920219421,0.73151034116745,-1.6982083320617676
1773258200582300000,0.5462998046875,0.5693399310112,0.35039418935775757,-1.7937692403793335
1773258200592315000,0.55631494140625,0.4250290095806122,0.0739479586482048,-1.7622090578079224
1773258200602331000,0.566330810546875,0.2799666225910187,0.10929609090089798,-1.7861380577087402
1773258200612345900,0.576345947265625,0.21300315856933594,0.3025832176208496,-2.0161595344543457
1773258200622360800,0.58636083984375,0.15034058690071106,0.5162467956542969,-1.934282660484314
1773258200632376800,0.596376953125,0.19987313449382782,0.7310613393783569,-1.9300711154937744
1773258200642391800,0.606391845703125,0.33784884214401245,0.9623041749000549,-1.92277193069458
1773258200652407000,0.616406982421875,0.46654415130615234,0.9043087959289551,-1.8150067329406738
1773258200662422800,0.6264228515625,0.5242156982421875,0.879274845123291,-1.6447210311889648
1773258200672438000,0.63643798828125,0.4977366626262665,0.9249919652938843,-1.427790641784668
1773258200682453800,0.646453857421875,0.44563406705856323,0.948088526725769,-1.1815600395202637
1773258200692469000,0.656468994140625,0.3551182448863983,0.9146459102630615,-0.9512969255447388
1773258200702484000,0.66648388671875,0.2321537286043167,0.8198227286338806,-0.7291384339332581
1773258200712500000,0.6765,0.0710572674870491,0.7929471731185913,-0.516767144203186
1773258200722515000,0.686514892578125,-0.04900415986776352,0.8166487812995911,-0.35911333560943604
1773258200732530000,0.696530029296875,-0.09318935126066208,0.7392374277114868,-0.29139748215675354
1773258200742546000,0.7065458984375,-0.09703894704580307,0.5639191269874573,-0.2742200791835785
1773258200752561000,0.716560791015625,-0.03731762617826462,0.45739126205444336,-0.251162588596344
1773258200762576000,0.726575927734375,0.07064719498157501,0.4095827341079712,-0.22782504558563232
1773258200772591900,0.736591796875,0.19931481778621674,0.3348667621612549,-0.2114713490009308
1773258200782606800,0.74660693359375,0.3020271062850952,0.1593354344367981,-0.20479907095432281
1773258200792621800,0.756621826171875,0.31232601404190063,-0.0014309865655377507,-0.20651112496852875
1773258200802637800,0.766637939453125,0.19675281643867493,-0.10111869871616364,-0.2049553096294403
1773258200812652800,0.77665283203125,-0.020168866962194443,-0.13272550702095032,-0.21653605997562408
1773258200822669000,0.7866689453125,-0.2770020067691803,-0.10374605655670166,-0.22236651182174683
1773258200832683800,0.796683837890625,-0.47958552837371826,-0.14315928518772125,-0.20606093108654022
1773258200842698800,0.80669873046875,-0.6012243032455444,-0.164791077375412,-0.13733460009098053
1773258200852715000,0.816715087890625,-0.6422374844551086,-0.12919218838214874,-0.03461424261331558
1773258200862730000,0.82672998046875,-0.6528650522232056,-0.03226218372583389,0.04687342420220375
1773258200872744700,0.83674462890625,-0.6462273597717285,0.12375392764806747,0.10146449506282806
1773258200882761000,0.846760986328125,-0.6024615168571472,0.34646743535995483,0.07820124924182892
1773258200892776000,0.85677587890625,0.595666229724884,1.1180529594421387,-1.0557984113693237
1773258200902791000,0.866791015625,0.2196233570575714,1.2436950206756592,-1.145453691482544
1773258200912807000,0.876806884765625,0.07278414815664291,1.0358920097351074,-0.9901970624923706
1773258200922822000,0.88682177734375,0.09323616325855255,0.8189986944198608,-0.6950455904006958
1773258200932838000,0.896837890625,-0.033825553953647614,0.8452988266944885,-0.5581445097923279
1773258200942852900,0.906852783203125,-0.3253881633281708,0.6285334825515747,-0.40115541219711304
1773258200952868000,0.9168681640625,-0.44501909613609314,0.3523026406764984,-0.167027086019516
1773258200962883800,0.9268837890625,-0.41071784496307373,0.13482996821403503,0.055536478757858276
1773258200972899000,0.936899169921875,-0.3309018909931183,-0.04501819238066673,0.24750038981437683
1773258200982914000,0.9469140625,-0.22315706312656403,-0.10055814683437347,0.3581395447254181
1773258200992930000,0.956929931640625,-0.1866951435804367,-0.12019585818052292,0.338976114988327
1773258201002945000,0.966945068359375,-0.2112090140581131,-0.16649463772773743,0.20357568562030792
1773258201012960000,0.9769599609375,-0.2916659712791443,-0.009698586538434029,-0.3456055223941803
1773258201022976000,0.98697607421875,-0.3720630705356598,-0.1757243126630783,-0.4440340995788574
1773258201032991000,0.996990966796875,-0.5087695717811584,-0.133664071559906,-0.4111047387123108
1773258201043006000,1.007005859375,-0.6670793294906616,-0.16274046897888184,-0.3359242379665375
1773258201053022000,1.01702197265625,-0.7857078313827515,-0.22515450417995453,-0.24206314980983734
1773258201063037000,1.027036865234375,-0.7775074243545532,-0.2789207994937897,-0.15022003650665283
1773258201073053000,1.037052978515625,-0.6443560719490051,-0.3646773099899292,-0.06740345060825348
1773258201083068000,1.04706787109375,-0.44944918155670166,-0.4144376814365387,-0.0021195232402533293
1773258201093083000,1.057082763671875,-0.2219875603914261,-0.399126797914505,0.037484344094991684
1773258201103099000,1.067098876953125,0.0008175540715456009,-0.3626611828804016,0.05257407948374748
1773258201113113900,1.07711376953125,0.18618953227996826,-0.3250621557235718,0.06424405425786972
1773258201123128800,1.08712890625,0.3207305669784546,-0.27583253383636475,0.07016745209693909
1773258201133144800,1.097144775390625,0.386817991733551,-0.2579374313354492,0.0628349781036377
1773258201143159800,1.107159912109375,0.3644873797893524,-0.28315410017967224,0.07846266776323318
1773258201153174800,1.1171748046875,0.3078552186489105,-0.25193315744400024,0.12790004909038544
1773258201163190800,1.127190673828125,0.24235449731349945,-0.22951573133468628,0.16853375732898712
1773258201173205800,1.137205810546875,0.16474102437496185,-0.3122110366821289,0.16128484904766083
1773258201183221800,1.1472216796875,0.07872384786605835,-0.40917298197746277,0.13249102234840393
1773258201193236700,1.15723681640625,0.007658550515770912,-0.4601089358329773,0.10515862703323364
1773258201203251700,1.167251708984375,-0.055382199585437775,-0.49532097578048706,0.08108897507190704
1773258201213267700,1.177267822265625,-0.09734401106834412,-0.4897870421409607,0.07321906834840775
1773258201223282700,1.18728271484375,-0.09866306930780411,-0.45472654700279236,0.08131108433008194
1773258201233298000,1.1972978515625,-0.0705084428191185,-0.4104604423046112,0.09974852949380875
1773258201243314000,1.20731396484375,-0.01851474493741989,-0.35580307245254517,0.12676896154880524
1773258201253329000,1.217328857421875,0.025130178779363632,-0.3089454174041748,0.155852809548378
1773258201263343900,1.22734375,0.05695495381951332,-0.25531813502311707,0.17617858946323395
1773258201273360100,1.237360107421875,0.06849955767393112,-0.2327020764350891,0.17860813438892365
1773258201283375000,1.247375,0.0828489363193512,-0.22100494801998138,0.16985858976840973
1773258201293391000,1.25739111328125,0.1084841638803482,-0.21510528028011322,0.1586514562368393
1773258201303406000,1.267406005859375,0.14774981141090393,-0.1955299824476242,0.15096211433410645
1773258201313421000,1.277421142578125,0.1837938129901886,-0.18638178706169128,0.13778731226921082
1773258201323437000,1.28743701171875,0.20314382016658783,-0.15406672656536102,0.13252170383930206
1773258201333452000,1.2974521484375,0.1994987428188324,-0.09670962393283844,0.1337144672870636
1773258201343467000,1.307467041015625,0.18416425585746765,-0.05191658437252045,0.11978427320718765
1773258201353483000,1.31748291015625,0.15776202082633972,-0.04315780848264694,0.08729638159275055
1773258201363498000,1.327498046875,0.13219647109508514,-0.030844951048493385,0.05307210236787796
1773258201373513000,1.337512939453125,0.11056862771511078,-0.008038995787501335,0.028290849179029465
1773258201383529000,1.347529052734375,0.09126736223697662,0.018331892788410187,-0.0010601149406284094
1773258201393544000,1.3575439453125,0.07484635710716248,0.0364723801612854,-0.03016665391623974
1773258201403560000,1.367559814453125,0.05647454038262367,0.05798912048339844,-0.045913927257061005
1773258201413575000,1.377574951171875,0.038519978523254395,0.06036008149385452,-0.04212893173098564
1773258201423590000,1.38758984375,0.018128683790564537,0.07098076492547989,-0.0027327900752425194
1773258201433606000,1.39760595703125,-0.010096450336277485,0.08019751310348511,0.04918782413005829
1773258201443620900,1.407620849609375,-0.054601866751909256,0.0023021853994578123,0.12080208957195282
1773258201453635800,1.4176357421875,-0.1100844144821167,-0.07581526041030884,0.25399747490882874
1773258201463651800,1.42765185546875,-0.17945124208927155,-0.24761338531970978,0.46492356061935425
1773258201473666800,1.437666748046875,-0.2774810492992401,-0.45218798518180847,0.7593503594398499
1773258201483681800,1.447681884765625,-0.3587609827518463,-0.5991076231002808,1.0832953453063965
1773258201493697800,1.45769775390625,-0.43755829334259033,-0.7042086720466614,1.374046802520752
1773258201503712800,1.467712646484375,-0.5288916826248169,-0.8295543789863586,1.6155939102172852
1773258201513728000,1.47772802734375,-0.19134151935577393,-0.42545410990715027,0.7134504318237305
1773258201523743700,1.48774365234375,0.12278899550437927,-1.0617942810058594,0.8608976602554321
1773258201533759000,1.497759033203125,-0.021509872749447823,-0.6610057950019836,0.687412679195404
1773258201543774700,1.507774658203125,-0.13811026513576508,-0.8705489039421082,0.7492941617965698
1773258201553790000,1.5177900390625,-0.25358957052230835,-0.6400446891784668,0.42992156744003296
1773258201563805000,1.527804931640625,-0.17877790331840515,-0.7450592517852783,0.30282169580459595
1773258201573821000,1.537821044921875,-0.023161543533205986,-0.7851352691650391,-0.05416882038116455
1773258201583836000,1.5478359375,0.01242920570075512,-0.7737030982971191,-0.4063609540462494
1773258201593851000,1.557850830078125,-0.020700717344880104,-0.8826884627342224,-0.5586187243461609
1773258201603867000,1.567866943359375,-0.03540642186999321,-0.9996614456176758,-0.6225047707557678
1773258201613881900,1.5778818359375,-0.024938004091382027,-1.0200042724609375,-0.6344621181488037
1773258201623898000,1.587898193359375,0.03262435644865036,-0.861701488494873,-0.642432689666748
1773258201633912800,1.597912841796875,0.18017710745334625,-0.22382046282291412,-0.5586409568786621
1773258201643927800,1.607927734375,0.26088660955429077,0.1744808405637741,-0.4368063807487488
1773258201653944000,1.617944091796875,0.3784237205982208,0.4749166965484619,-0.24677880108356476
1773258201663959000,1.627958984375,0.5066405534744263,0.6781816482543945,-0.10286451131105423
1773258201673973800,1.637973876953125,0.6815328001976013,0.6836786270141602,0.022152265533804893
1773258201683990000,1.647989990234375,0.8648443222045898,0.5031530261039734,0.10897477716207504
1773258201694005000,1.6580048828125,1.0848103761672974,0.2584364414215088,0.1752535104751587
1773258201704020000,1.66802001953125,1.2274796962738037,-0.03030562214553356,0.22059568762779236
1773258201714036000,1.678035888671875,1.3309433460235596,-0.3753320276737213,0.2754577696323395
1773258201724051000,1.688051025390625,1.427899956703186,-0.6485385298728943,0.3898908495903015
1773258201734067000,1.69806689453125,1.5107307434082031,-0.8372858166694641,0.517741322517395
1773258201744082000,1.70808203125,1.6241248846054077,-1.1503262519836426,0.7182930707931519
1773258201754097000,1.718096923828125,1.6727855205535889,-1.3089275360107422,0.9288322329521179
1773258201764113000,1.72811279296875,1.5260703563690186,-1.162383794784546,1.0826020240783691
1773258201774127900,1.7381279296875,1.2508373260498047,-0.9723926782608032,1.2028601169586182
1773258201784142800,1.748142822265625,0.9477267265319824,-0.8213357925415039,1.3290588855743408
1773258201794158800,1.758158935546875,0.6773775219917297,-0.6993376016616821,1.441820502281189
1773258201804173800,1.768173828125,0.5600697994232178,-0.5759781002998352,1.530511498451233
1773258201814189000,1.77818896484375,0.5026472806930542,-0.4757939279079437,1.5746990442276
1773258201824204800,1.788204833984375,0.4400794804096222,-0.581082284450531,1.5334045886993408
1773258201834220000,1.798219970703125,0.3980044722557068,-0.8134811520576477,1.3586533069610596
1773258201844235800,1.80823583984375,0.298245906829834,-0.7655365467071533,1.1188257932662964
1773258201854251000,1.8182509765625,0.18428447842597961,-0.5797966718673706,0.7833001613616943
1773258201864266000,1.828265869140625,0.1723489910364151,-0.3901875615119934,0.3754596710205078
1773258201874282000,1.838281982421875,0.17624004185199738,-0.16709628701210022,0.00870835967361927
1773258201884297000,1.848296875,0.16808384656906128,0.0021329475566744804,-0.24702833592891693
1773258201894312000,1.85831201171875,0.19439569115638733,0.030705027282238007,-0.41727694869041443
1773258201904328000,1.868327880859375,0.1720549613237381,0.06901459395885468,-0.4878358244895935
1773258201914343000,1.878343017578125,0.12396220117807388,0.09477845579385757,-0.49825096130371094
1773258201924358100,1.888358154296875,0.044098254293203354,0.06661579757928848,-0.47561702132225037
1773258201934374100,1.8983740234375,-0.03209300711750984,-0.028747405856847763,-0.4247683882713318
1773258201944389000,1.90838916015625,-0.12062473595142365,-0.18555806577205658,-0.34003591537475586
1773258201954405400,1.9184052734375,-0.23326952755451202,-0.30039116740226746,-0.2987326979637146
1773258201964420400,1.92842041015625,-0.32988154888153076,-0.4403277635574341,-0.33264750242233276
1773258201974435000,1.93843505859375,-0.35976457595825195,-0.5822533965110779,-0.39552202820777893
1773258201984451300,1.948451416015625,-0.39749863743782043,-0.6735340356826782,-0.481026291847229
1773258201994466300,1.95846630859375,-0.41200530529022217,-0.7980215549468994,-0.5722967386245728
1773258202004481300,1.968481201171875,-0.3774491846561432,-0.9634989500045776,-0.680250346660614
1773258202014497300,1.978497314453125,-0.2098359763622284,-1.0644875764846802,-0.7871631979942322
1773258202024512300,1.98851220703125,0.00934538058936596,-1.0291186571121216,-0.8393494486808777
1773258202034528300,1.9985283203125,0.1926773190498352,-0.9410590529441833,-0.834693431854248
1773258202044543200,2.008543212890625,0.22771599888801575,-0.9244491457939148,-0.7361764311790466
1773258202054558200,2.01855810546875,0.1179090291261673,-0.831203043460846,-0.5504831075668335
1773258202064574200,2.02857421875,-0.03873969614505768,-0.6575058102607727,-0.33562809228897095
1773258202074589200,2.038589111328125,-0.16975757479667664,-0.6590162515640259,-0.1515662670135498
1773258202084604200,2.048604248046875,-0.15842662751674652,-1.0298023223876953,-0.052827440202236176
1773258202094620200,2.0586201171875,-0.03031942993402481,-1.6184298992156982,-0.04263903200626373
1773258202104635100,2.06863525390625,0.28547021746635437,-2.1658427715301514,-0.06701654940843582
1773258202114650400,2.078650390625,0.6258797645568848,-2.6250407695770264,-0.1471758782863617
1773258202124666000,2.088666015625,0.8403521180152893,-3.0652997493743896,-0.2787432074546814
1773258202134681300,2.098681396484375,0.9563610553741455,-3.3818812370300293,-0.3897443413734436
1773258202144697000,2.108697021484375,0.9904974102973938,-3.5790605545043945,-0.36679506301879883
1773258202154712300,2.11871240234375,1.022988200187683,-3.6007726192474365,-0.2188946008682251
1773258202164727300,2.128727294921875,1.2279285192489624,-3.2838549613952637,-0.14514315128326416
1773258202174743300,2.138743408203125,1.6109542846679688,-3.272258996963501,0.010914748534560204
1773258202184758300,2.14875830078125,2.013361692428589,-3.267535924911499,0.3621835708618164
1773258202194773200,2.158773193359375,2.3588061332702637,-3.076451301574707,0.791612982749939
1773258202204789200,2.168789306640625,2.6000020503997803,-2.7700297832489014,1.1326826810836792
1773258202214804200,2.17880419921875,2.639660596847534,-2.4338278770446777,1.2442432641983032
1773258202224819200,2.188819091796875,2.5371365547180176,-2.0374231338500977,1.1613489389419556
1773258202234835200,2.198835205078125,2.39953351020813,-1.377457857131958,0.9116518497467041
1773258202244850200,2.20885009765625,2.330338954925537,-0.4987489879131317,0.5042968988418579
1773258202254866200,2.2188662109375,2.2947630882263184,0.4010970890522003,-0.008615288883447647
1773258202264881200,2.228881103515625,2.248934507369995,1.201158881187439,-0.6007667183876038
1773258202274896100,2.238896240234375,2.2139623165130615,1.7955665588378906,-1.2206594944000244
1773258202284912000,2.248912109375,2.19771409034729,2.1578071117401123,-1.7799848318099976
1773258202294927000,2.258927001953125,2.1680312156677246,2.458359718322754,-2.2130398750305176
1773258202304942000,2.268942138671875,2.1291847229003906,2.7209978103637695,-2.516840696334839
1773258202314958000,2.2789580078125,2.0769360065460205,2.9650497436523438,-2.7109181880950928
1773258202324973000,2.28897314453125,1.3744231462478638,1.3530454635620117,-3.0597996711730957
1773258202334989300,2.2989892578125,0.975285530090332,0.23973402380943298,-2.4634780883789062
1773258202345004300,2.30900439453125,-0.015546451322734356,0.014919282868504524,-1.984916090965271
1773258202355019000,2.31901904296875,-1.078718900680542,0.352910578250885,-1.624544382095337
1773258202365035300,2.32903515625,-1.4308825731277466,1.2091466188430786,-1.5944453477859497
1773258202375050200,2.33905029296875,-1.4272657632827759,1.9687258005142212,-1.2769982814788818
1773258202385065200,2.349065185546875,-0.9884276986122131,2.5528786182403564,-1.12625253200531
1773258202395081200,2.359081298828125,-0.4834820628166199,2.8906729221343994,-1.12669038772583
1773258202405096200,2.36909619140625,-0.21194002032279968,2.928400754928589,-1.1690239906311035
1773258202415112200,2.3791123046875,-0.12387190014123917,2.804853677749634,-1.2481688261032104
1773258202425127200,2.389127197265625,-0.1048571988940239,2.4005792140960693,-1.2956054210662842
1773258202435142400,2.399142333984375,-0.3806058466434479,1.8533580303192139,-1.1734875440597534
1773258202445158100,2.409158203125,-0.5097049474716187,1.2460066080093384,-0.8575479984283447
1773258202455173400,2.41917333984375,-0.4469296634197235,0.9242032170295715,-0.4520863890647888
1773258202465188400,2.429188232421875,-0.3231544494628906,0.715403139591217,-0.25744926929473877
1773258202475204400,2.439204345703125,-0.17753241956233978,0.21415844559669495,-0.3451234996318817
1773258202485219300,2.44921923828125,-0.2135830968618393,-0.6523433327674866,-0.13539770245552063
1773258202495235300,2.4592353515625,-0.14727221429347992,-1.3660743236541748,0.16752290725708008
1773258202505250300,2.469250244140625,0.11007597297430038,-2.0293874740600586,0.40853846073150635
1773258202515265300,2.479265380859375,0.3648220896720886,-2.603527307510376,0.7168333530426025
1773258202525281300,2.48928125,0.5984737277030945,-3.0033328533172607,1.109304666519165
1773258202535296300,2.499296142578125,0.2831963896751404,-2.8816888332366943,1.5985959768295288
1773258202545311200,2.509311279296875,0.25347578525543213,-2.7684221267700195,1.89933180809021
1773258202555327200,2.5193271484375,0.7022580504417419,-2.386836290359497,1.9372320175170898
1773258202565342200,2.52934228515625,0.8222396373748779,-1.0321892499923706,1.6156622171401978
1773258202575358200,2.539358154296875,1.3121598958969116,-0.05920765548944473,1.1241170167922974
1773258202585373200,2.549373291015625,1.2847833633422852,0.024659812450408936,0.7365327477455139
1773258202595388200,2.55938818359375,0.5491830110549927,-0.5737782716751099,0.6190270185470581
1773258202605404200,2.569404052734375,0.31535857915878296,-1.0307306051254272,0.6049607396125793
1773258202615419100,2.579419189453125,0.3438529968261719,-1.616521954536438,0.3445892035961151
1773258202625435100,2.58943505859375,0.3068195879459381,-2.263798713684082,0.06955310702323914
1773258202635450000,2.5994501953125,0.3646599352359772,-2.5237531661987305,-0.26789286732673645
1773258202645465000,2.609465087890625,0.5027613639831543,-2.463350772857666,-0.5191130638122559
1773258202655481000,2.619481201171875,0.670283854007721,-2.2158608436584473,-0.4721914231777191
1773258202665496000,2.62949609375,1.0660709142684937,-2.0775763988494873,-0.38373667001724243
1773258202675511000,2.639510986328125,1.3358172178268433,-1.166442632675171,-0.24649743735790253
1773258202685527000,2.649527099609375,1.5599900484085083,-0.17583517730236053,-0.06695670634508133
1773258202695542000,2.6595419921875,1.6246182918548584,0.55494624376297,0.14855435490608215
1773258202705558300,2.669558349609375,1.5543092489242554,1.1984831094741821,0.4293047785758972
1773258202715573200,2.6795732421875,1.550203800201416,1.8522560596466064,0.6873109340667725
1773258202725588200,2.689588134765625,1.5147813558578491,2.6980674266815186,0.8523131608963013
1773258202735604200,2.699604248046875,1.0703436136245728,2.367546796798706,0.5092803239822388
1773258202745619200,2.709619140625,0.6458694934844971,1.2496510744094849,0.4366319179534912
1773258202755635200,2.71963525390625,0.5009329915046692,0.370166152715683,0.47151562571525574
1773258202765650200,2.729650146484375,0.41974762082099915,-0.4611116051673889,0.2612888813018799
1773258202775665400,2.73966552734375,0.3613647520542145,-1.0528444051742554,0.0851120799779892
1773258202785681200,2.74968115234375,0.10659957677125931,-1.4123280048370361,0.19824209809303284
1773258202795696400,2.7596962890625,-0.03822390362620354,-1.4600169658660889,0.34808531403541565
1773258202805712100,2.769712158203125,-0.025221819058060646,-1.2192035913467407,0.446084588766098
1773258202815727400,2.779727294921875,0.07622586935758591,-0.6096788644790649,0.49757564067840576
1773258202825742300,2.789742431640625,0.24947620928287506,0.3358090817928314,0.47547778487205505
1773258202835758300,2.79975830078125,0.4504795968532562,1.0894190073013306,0.42295849323272705
1773258202845773300,2.809773193359375,0.7193856239318848,1.685545563697815,0.4115271270275116
1773258202855789300,2.819789306640625,0.9438387155532837,1.953553557395935,0.4354611933231354
1773258202865804300,2.82980419921875,1.114492416381836,1.9401326179504395,0.4456813335418701
1773258202875819300,2.8398193359375,1.218220591545105,1.7335374355316162,0.4549649655818939
1773258202885835300,2.849835205078125,1.1314382553100586,1.3306200504302979,0.4048927426338196
1773258202895850200,2.859850341796875,1.0533382892608643,1.1218057870864868,0.5191917419433594
1773258202905865200,2.869865234375,0.9387340545654297,1.0536893606185913,0.4974829852581024
1773258202915881200,2.879881103515625,0.8618298172950745,0.8312996625900269,0.45771804451942444
1773258202925895700,2.889895751953125,0.9105952382087708,0.7087575197219849,0.43496423959732056
1773258202935911700,2.89991162109375,1.0064576864242554,1.010311245918274,0.4273923635482788
1773258202945926700,2.9099267578125,1.0493358373641968,1.4965794086456299,0.42863234877586365
1773258202955942700,2.919942626953125,1.045413851737976,2.169565200805664,0.5163728594779968
1773258202965957600,2.92995751953125,0.9457802176475525,2.705596685409546,0.6549155116081238
1773258202975972600,2.93997265625,0.7051696181297302,2.8033437728881836,0.6833238005638123
1773258202985988600,2.949988525390625,0.47122371196746826,2.5154902935028076,0.4868254065513611
1773258202996003600,2.960003662109375,0.2982058823108673,1.7130448818206787,0.1714916080236435
1773258203006019600,2.97001953125,0.23792897164821625,0.7809795141220093,-0.04719439148902893
1773258203016034600,2.98003466796875,0.36582839488983154,-0.3501422107219696,-0.12185049802064896
1773258203026049500,2.990049560546875,0.5986589789390564,-1.053030252456665,-0.1731427162885666
1773258203036065800,3.000065673828125,0.6407239437103271,-0.3798968493938446,0.0011440266389399767
1773258203046080500,3.01008056640625,0.5430043339729309,0.3521457016468048,-0.18250195682048798
1773258203056096800,3.0200966796875,0.5463052988052368,0.687494695186615,-0.3371801972389221
1773258203066111700,3.03011181640625,0.7571304440498352,1.105059266090393,-0.47547921538352966
1773258203076126700,3.040126708984375,0.9480898380279541,1.1406006813049316,-0.663537859916687
1773258203086142700,3.050142822265625,0.9517120122909546,0.8948286175727844,-0.7629472613334656
1773258203096157700,3.06015771484375,0.848172128200531,0.561824381351471,-0.760672926902771
1773258203106173700,3.070173583984375,0.7300936579704285,0.3429849147796631,-0.6727063059806824
1773258203116188700,3.080188720703125,0.6635560989379883,0.3793267607688904,-0.6110886335372925
1773258203126204700,3.09020458984375,0.6025470495223999,0.6935595273971558,-0.6121816039085388
1773258203136219600,3.1002197265625,0.545236349105835,0.996943473815918,-0.6214212775230408
1773258203146234600,3.110234619140625,0.5094839930534363,1.0437610149383545,-0.5703229308128357
1773258203156250600,3.120250732421875,0.4947551488876343,1.0065314769744873,-0.5065661072731018
1773258203166265600,3.130265625,0.420389324426651,0.9888683557510376,-0.464120090007782
1773258203176281600,3.140281494140625,0.3892311453819275,0.9057095646858215,-0.3972680866718292
1773258203186296600,3.150296630859375,0.37569135427474976,0.5807623863220215,-0.3483849763870239
1773258203196311800,3.160311767578125,0.34064385294914246,0.07674019783735275,-0.3237036168575287
1773258203206327600,3.17032763671875,0.26761090755462646,-0.2010919451713562,-0.3524324595928192
1773258203216342800,3.1803427734375,0.20773527026176453,-0.055172745138406754,-0.41460320353507996
1773258203226358500,3.190358642578125,0.1696334183216095,0.16025887429714203,-0.41026490926742554
1773258203236373800,3.200373779296875,0.22740815579891205,0.4909711182117462,-0.32680264115333557
1773258203246389500,3.210389404296875,0.2281261384487152,0.8255424499511719,0.007574554532766342
1773258203256404700,3.22040478515625,0.2120215892791748,0.872488796710968,1.026896595954895
1773258203266419700,3.230419677734375,0.3312177360057831,1.3502590656280518,1.6952160596847534
1773258203276435700,3.240435791015625,0.4500519931316376,1.5671659708023071,1.658834457397461
1773258203286450700,3.25045068359375,0.47793343663215637,1.245276927947998,1.1467901468276978
1773258203296466700,3.260466796875,0.5137240886688232,0.9347187876701355,0.9827086329460144
1773258203306481700,3.270481689453125,0.5397245287895203,0.7069860100746155,1.1116600036621094
1773258203316498000,3.280497802734375,0.5442086458206177,0.7600409984588623,1.4139384031295776
1773258203326513000,3.290512939453125,0.5041863918304443,1.0141764879226685,1.7088823318481445
1773258203336529000,3.30052880859375,0.41293865442276,1.2937541007995605,1.7828216552734375
1773258203346543900,3.3105439453125,0.3845605254173279,1.3864256143569946,1.6795088052749634
1773258203356558800,3.320558837890625,0.26224756240844727,1.2583303451538086,1.5953152179718018
1773258203366574800,3.330574951171875,0.13517722487449646,0.9928379654884338,1.646329641342163
1773258203376589800,3.34058984375,0.03496202826499939,0.9480255246162415,1.7904847860336304
1773258203386605800,3.350605712890625,-0.036919619888067245,0.879993200302124,2.000919818878174
1773258203396620800,3.360620849609375,-0.09467998892068863,0.8554020524024963,2.155582904815674
1773258203406636800,3.37063671875,-0.2257128357887268,1.0227333307266235,2.336315631866455
1773258203416651800,3.38065185546875,-0.23828066885471344,1.376213788986206,2.4411838054656982
1773258203426666800,3.390666748046875,-0.0997326523065567,1.2557425498962402,2.4050052165985107
1773258203436682800,3.400682861328125,-0.1382557451725006,0.7398041486740112,2.3616998195648193
1773258203446697700,3.41069775390625,-0.28430214524269104,0.8315191864967346,2.1328344345092773
1773258203456713700,3.420713623046875,-0.31241706013679504,0.8861685395240784,1.8538131713867188
1773258203466728700,3.430728759765625,-0.3912721872329712,0.40602216124534607,1.779976487159729
1773258203476744700,3.44074462890625,-0.5656969547271729,-0.07399918884038925,1.77789306640625
1773258203486759700,3.450759765625,-0.7338012456893921,-0.4632289707660675,1.5618820190429688
1773258203496774700,3.460774658203125,-0.791647732257843,-0.7536177635192871,1.1969047784805298
1773258203506790700,3.470790771484375,-0.7672518491744995,-0.9255104064941406,0.8220539689064026
1773258203516805600,3.4808056640625,-0.7056984305381775,-1.066825270652771,0.4821874499320984
1773258203526821600,3.490821533203125,-0.6305142045021057,-1.3310502767562866,0.21341483294963837
1773258203536836600,3.500836669921875,-0.5663635730743408,-1.818876028060913,-0.06045247241854668
1773258203546852600,3.5108525390625,-0.5385521650314331,-2.290205478668213,-0.4515504539012909
1773258203556867600,3.52086767578125,-0.5370383262634277,-2.4641480445861816,-0.9552390575408936
1773258203566883800,3.5308837890625,-0.5452538728713989,-2.381476879119873,-1.472489833831787
1773258203576898800,3.54089892578125,-0.5676149725914001,-2.2821669578552246,-1.8709291219711304
1773258203586913800,3.550913818359375,-0.6284253597259521,-2.290790557861328,-2.1246237754821777
1773258203596929800,3.5609296875,-0.7536769509315491,-2.4435818195343018,-2.253797769546509
1773258203606944800,3.57094482421875,-0.966259241104126,-2.7820394039154053,-2.3253252506256104
1773258203616960800,3.580960693359375,-1.2182419300079346,-3.249976396560669,-2.4165427684783936
1773258203626975700,3.590975830078125,-1.4321683645248413,-3.3971664905548096,-2.4832732677459717
1773258203636991700,3.60099169921875,-1.5722726583480835,-3.331270217895508,-2.4917702674865723
1773258203647006700,3.6110068359375,-1.7151129245758057,-3.146226644515991,-2.396775960922241
1773258203657021700,3.621021728515625,-1.8046170473098755,-2.6477127075195312,-2.126260280609131
1773258203667037700,3.63103759765625,-1.9323326349258423,-2.445284366607666,-1.8128399848937988
1773258203677052700,3.641052734375,-1.935774326324463,-2.5212488174438477,-1.2463278770446777
1773258203687068700,3.651068603515625,-1.7578465938568115,-2.5380678176879883,-0.6004143357276917
1773258203697083600,3.661083740234375,-1.2914597988128662,-2.365114688873291,-0.08198210597038269
1773258203707099600,3.671099609375,-0.6247017979621887,-2.1409125328063965,0.2034757286310196
1773258203717114600,3.681114501953125,-0.05251746252179146,-1.8266758918762207,0.3089359402656555
1773258203727129600,3.691129638671875,0.11539857089519501,-1.6304885149002075,0.5031741261482239
1773258203737145600,3.7011455078125,0.12221641093492508,-1.5580216646194458,0.7759628295898438
1773258203747160600,3.71116064453125,0.0041145458817481995,-1.3964060544967651,0.9020611643791199
1773258203757176600,3.721176513671875,-0.2802066504955292,-1.4499486684799194,0.798951268196106
1773258203767191600,3.731191650390625,-0.46276047825813293,-1.317564845085144,0.5573599338531494
1773258203777207600,3.74120751953125,-0.7765161395072937,-1.296270489692688,0.34426358342170715
1773258203787222500,3.751222412109375,-1.1925439834594727,-1.1051570177078247,0.2351493537425995
1773258203797237800,3.76123779296875,-1.491166114807129,-0.7675164341926575,0.2072782665491104
1773258203807253500,3.77125341796875,-1.766783356666565,-0.016140738502144814,0.12238627672195435
1773258203817268700,3.781268798828125,-1.9862890243530273,0.7827222347259521,-0.01002951804548502
1773258203827284700,3.79128466796875,-2.2808938026428223,1.190774917602539,-0.22665396332740784
1773258203837299700,3.8012998046875,-2.5399577617645264,1.449418067932129,-0.45998242497444153
1773258203847315700,3.811315673828125,-2.673858404159546,1.6433427333831787,-0.6004329919815063
1773258203857330700,3.82133056640625,-2.6707923412323,1.9193809032440186,-0.6437260508537292
1773258203867346000,3.831345947265625,-2.6367383003234863,2.156933546066284,-0.6416599750518799
1773258203877361700,3.841361572265625,-2.551013231277466,2.220837116241455,-0.7750847339630127
1773258203887377000,3.851376953125,-2.4961042404174805,2.192540168762207,-1.0159095525741577
1773258203897392600,3.861392578125,-2.4462389945983887,2.163485050201416,-1.1647990942001343
1773258203907408000,3.871407958984375,-2.385359525680542,2.165266990661621,-1.2831207513809204
1773258203917423600,3.881423583984375,-2.396052837371826,2.120227813720703,-1.422577977180481
1773258203927439400,3.891439453125,-2.5081279277801514,2.0304927825927734,-1.5855813026428223
1773258203937454300,3.901454345703125,-2.623276948928833,2.0737688541412354,-1.6892144680023193
1773258203947470300,3.91147021484375,-2.5951011180877686,2.485633373260498,-1.6165215969085693
1773258203957485300,3.9214853515625,-2.619183301925659,2.585629463195801,-1.5530354976654053
1773258203967501600,3.93150146484375,-2.7516517639160156,2.462463855743408,-1.7745585441589355
1773258203977516500,3.9415166015625,-2.9108469486236572,2.832158327102661,-2.0245625972747803
1773258203987532500,3.951532470703125,-3.1077687740325928,3.0599021911621094,-2.110431432723999
1773258203997547500,3.961547607421875,-3.3451175689697266,3.207650899887085,-2.0386624336242676
1773258204007562800,3.971562744140625,-3.5969693660736084,3.3585658073425293,-1.8809932470321655
1773258204017578500,3.98157861328125,-3.8527684211730957,3.5143685340881348,-1.7309696674346924
1773258204027593700,3.99159375,-4.104556560516357,3.6293303966522217,-1.610329031944275
1773258204037609500,4.001609375,-4.383440971374512,3.721501111984253,-1.4972256422042847
1773258204047624700,4.011624755859375,-4.7237043380737305,3.816545009613037,-1.4161951541900635
1773258204057640400,4.021640380859375,-5.031195640563965,3.669145345687866,-1.313723087310791
1773258204067655700,4.03165576171875,-5.316911697387695,3.306964874267578,-1.179155707359314
1773258204077670700,4.041670654296875,-5.554736137390137,2.716578483581543,-1.0379364490509033
1773258204087686700,4.051686767578125,-5.750882625579834,1.9585140943527222,-0.9401733875274658
1773258204097701600,4.06170166015625,-5.978139400482178,1.1940834522247314,-0.9460894465446472
1773258204107717600,4.071717529296875,-6.228329658508301,0.6371504664421082,-1.102185606956482
1773258204117732600,4.081732666015625,-6.481741428375244,0.5880186557769775,-1.3199745416641235
1773258204127747600,4.09174755859375,-6.7332868576049805,0.8288400769233704,-1.5210094451904297
1773258204137763600,4.101763671875,-6.938340187072754,1.0901538133621216,-1.5867999792099
1773258204147778600,4.111778564453125,-7.100356101989746,1.3052823543548584,-1.5263763666152954
1773258204157794600,4.121794677734375,-7.210145950317383,1.491920828819275,-1.330761194229126
1773258204167809500,4.1318095703125,-7.225703239440918,1.572522759437561,-1.051689863204956
1773258204177825500,4.141825439453125,-7.168471813201904,1.4619275331497192,-0.7529535889625549
1773258204187840500,4.151840576171875,-7.042141437530518,1.043514609336853,-0.4169982671737671
1773258204197855500,4.16185546875,-6.8155951499938965,0.46116241812705994,-0.04499874636530876
1773258204207871500,4.17187158203125,-6.528819561004639,0.17813152074813843,0.301998108625412
1773258204217886500,4.181886474609375,-6.175830364227295,0.057397738099098206,0.6677448153495789
1773258204227902700,4.19190283203125,-5.673125267028809,-0.07544499635696411,1.0543662309646606
1773258204237917400,4.20191748046875,-4.962879657745361,-0.1273747980594635,1.3958871364593506
1773258204247933700,4.21193359375,-4.114193916320801,-0.14885132014751434,1.6518962383270264
1773258204257948700,4.22194873046875,-3.1769378185272217,-0.2402462214231491,1.783177375793457
1773258204267963600,4.231963623046875,-2.386791944503784,-0.4810577630996704,1.7924946546554565
1773258204277979600,4.241979736328125,-1.6486941576004028,-0.7207927703857422,1.5380247831344604
1773258204287994600,4.25199462890625,-1.131108283996582,-1.136898159980774,1.2456282377243042
1773258204298010600,4.2620107421875,-0.9190638661384583,-1.2519235610961914,1.2921146154403687
1773258204308025600,4.272025634765625,-0.8834643363952637,-1.1595219373703003,1.6998411417007446
1773258204318041600,4.28204150390625,-0.7996126413345337,-1.3060269355773926,2.1612186431884766
1773258204328056600,4.292056640625,-0.5908514261245728,-1.4142522811889648,2.392328977584839
1773258204338071600,4.302071533203125,-0.3410035967826843,-1.3284047842025757,2.459235191345215
1773258204348087600,4.312087646484375,-0.1352459043264389,-1.0191439390182495,2.5516934394836426
1773258204358102500,4.3221025390625,0.07780787348747253,-0.7111413478851318,2.6723339557647705
1773258204368118500,4.332118408203125,0.20196470618247986,-0.3860436975955963,2.7324106693267822
1773258204378133500,4.342133544921875,0.3270232081413269,-0.26206499338150024,2.7646989822387695
1773258204388148500,4.3521484375,0.43944960832595825,-0.2192424237728119,2.74981689453125
1773258204398164500,4.36216455078125,0.663575291633606,-0.3602382242679596,2.6393680572509766
1773258204408179500,4.372179443359375,0.9687296152114868,-0.4742420017719269,2.4311439990997314
1773258204418195500,4.382195556640625,1.0982980728149414,-0.12488462775945663,2.006624698638916
1773258204428210400,4.39221044921875,1.2011961936950684,-0.41805341839790344,1.6307401657104492
1773258204438226400,4.402226318359375,1.3136615753173828,-0.42753908038139343,1.3053878545761108
1773258204448241400,4.412241455078125,1.3390157222747803,-0.23892761766910553,0.9907800555229187
1773258204458256400,4.42225634765625,1.2937387228012085,0.10974361002445221,0.7373596429824829
1773258204468272400,4.4322724609375,1.2814249992370605,0.6576024889945984,0.5037045478820801
1773258204478287400,4.442287353515625,1.240144968032837,1.1965276002883911,0.2558044493198395
1773258204488303400,4.452303466796875,1.113817572593689,1.4937517642974854,0.07256458699703217
1773258204498318300,4.462318359375,0.9105139374732971,1.715988039970398,0.023782864212989807
1773258204508334600,4.47233447265625,0.7950504422187805,1.6658830642700195,0.028519563376903534
1773258204518349600,4.482349609375,0.9182199239730835,1.316723108291626,-0.03340466320514679
1773258204528364500,4.492364501953125,1.1602199077606201,0.8261632919311523,-0.11932249367237091
1773258204538380500,4.502380615234375,1.229638934135437,0.1694185733795166,-0.11741085350513458
1773258204548395500,4.5123955078125,1.2374886274337769,-0.6026994585990906,-0.13537122309207916
1773258204558411500,4.52241162109375,1.208724021911621,-0.8823200464248657,-0.2298201322555542
1773258204568426500,4.532426513671875,0.9880526661872864,-0.8579422831535339,-0.3765866756439209
1773258204578442500,4.5424423828125,0.6580503582954407,-0.4948500990867615,-0.6146703958511353
1773258204588457500,4.55245751953125,0.27353113889694214,0.03224886581301689,-0.7783874273300171
1773258204598472700,4.56247265625,0.1355849951505661,0.4841919541358948,-0.7452669143676758
1773258204608488400,4.572488525390625,-0.1115635484457016,0.6947050094604492,-0.9465928077697754
1773258204618503700,4.582503662109375,-0.5171803832054138,0.6514981985092163,-1.359179139137268
1773258204628519400,4.59251953125,-0.7856573462486267,0.09221196174621582,-1.5071203708648682
1773258204638534700,4.60253466796875,-0.7985759377479553,0.335086852312088,-1.514255404472351
1773258204648550400,4.61255029296875,-0.6309850811958313,-0.04357684403657913,-1.0401325225830078
1773258204658565600,4.622565673828125,-0.39941880106925964,0.20741550624370575,-0.41931840777397156
1773258204668580600,4.63258056640625,-0.23403358459472656,0.3384843170642853,0.01248280517756939
1773258204678596600,4.6425966796875,-0.10881542414426804,0.00009785074507817626,0.04207232967019081
1773258204688611600,4.652611572265625,0.038796134293079376,-0.2579480707645416,-0.24996165931224823
1773258204698627600,4.662627685546875,0.16832993924617767,-0.23592814803123474,-0.6316424608230591
1773258204708642600,4.672642578125,0.29936492443084717,-0.1198233887553215,-0.9076128005981445
1773258204718658600,4.682658447265625,0.3404179513454437,0.027062544599175453,-1.0874236822128296
1773258204728673500,4.692673583984375,0.28728359937667847,0.09522322565317154,-1.295362949371338
1773258204738688500,4.7026884765625,0.2014031857252121,-0.010309160687029362,-1.4441025257110596
1773258204748704500,4.71270458984375,0.13065870106220245,-0.010921421460807323,-1.495038628578186
1773258204758719500,4.722719482421875,0.0391351543366909,-0.08345920592546463,-1.2476246356964111
1773258204768735700,4.73273583984375,0.05025145411491394,0.21319268643856049,-1.273730754852295
1773258204778750500,4.74275048828125,0.07096210867166519,0.18504048883914948,-1.2509257793426514
1773258204788766700,4.7527666015625,0.13172239065170288,0.2282247096300125,-1.1715768575668335
1773258204798781700,4.76278173828125,0.11408815532922745,0.18106447160243988,-1.109607458114624
1773258204808796700,4.772796630859375,0.06446707248687744,0.06923539936542511,-1.1535178422927856
1773258204818812700,4.782812744140625,0.0054346066899597645,-0.24868130683898926,-1.4749853610992432
1773258204828827600,4.79282763671875,0.014699744060635567,-0.33955103158950806,-2.0395352840423584
1773258204838843600,4.80284375,0.06765852123498917,-0.2934607267379761,-2.4985122680664062
1773258204848858600,4.812858642578125,0.18132063746452332,-0.3146035373210907,-2.552564859390259
1773258204858874600,4.82287451171875,0.08977638930082321,-0.5173508524894714,-2.329752206802368
1773258204868889600,4.8328896484375,0.12391091883182526,-0.6664292812347412,-2.0119094848632812
1773258204878905600,4.842905517578125,0.0818002000451088,-0.8138746619224548,-1.8439489603042603
1773258204888920600,4.852920654296875,0.0778195708990097,-0.5904085636138916,-1.4712251424789429
1773258204898935600,4.862935546875,0.23086750507354736,-0.2931441366672516,-1.0778883695602417
1773258204908951600,4.87295166015625,0.42343267798423767,-0.2005140483379364,-0.7930639982223511
1773258204918966500,4.882966552734375,0.4986867606639862,-0.169478639960289,-0.5584025382995605
1773258204928981200,4.892981201171875,0.549541175365448,0.25570249557495117,-0.38705605268478394
1773258204938996200,4.902996337890625,0.3889041543006897,0.7205495834350586,-0.4689580500125885
1773258204949012200,4.91301220703125,0.1689789742231369,1.0109268426895142,-0.5349911451339722
1773258204959027200,4.923027099609375,-0.05777272582054138,1.178240418434143,-0.524975061416626
1773258204969042200,4.933042236328125,-0.4187503457069397,1.1654481887817383,-0.36963585019111633
1773258204979058200,4.94305810546875,-0.9914947748184204,1.1815130710601807,0.01775245927274227
1773258204989073200,4.9530732421875,-1.6067750453948975,1.2006031274795532,0.33853232860565186
1773258204999089200,4.963089111328125,-1.9318511486053467,1.2830337285995483,0.40054208040237427
1773258205009104100,4.973104248046875,-1.9607360363006592,1.324671983718872,0.29887402057647705
1773258205019120000,4.9831201171875,-1.9369456768035889,1.347002625465393,0.15293556451797485
1773258205029135000,4.993135009765625,-1.7377902269363403,1.3010751008987427,0.03961992636322975
1773258205039150300,5.003150390625,-1.4242385625839233,1.2293667793273926,-0.0008121563587337732
1773258205049166300,5.013166259765625,-1.1154391765594482,0.9937057495117188,-0.07472845911979675
1773258205059181300,5.023181396484375,-0.8282781839370728,0.6820985078811646,-0.2640717625617981
1773258205069197300,5.033197265625,-0.6177342534065247,0.33638954162597656,-0.4968253970146179
1773258205079212500,5.043212646484375,-0.4924260377883911,0.08636925369501114,-0.6901171803474426
1773258205089228300,5.053228271484375,-0.4487443268299103,-0.03666772320866585,-0.8039873242378235
1773258205099243500,5.063243408203125,-0.471847802400589,0.05824641138315201,-0.8717554211616516
1773258205109258500,5.073258544921875,-0.46798834204673767,0.31612429022789,-0.9024912118911743
1773258205119274500,5.0832744140625,-0.3927074670791626,0.6395370960235596,-0.9119675755500793
1773258205129289500,5.09328955078125,-0.26754075288772583,0.7687214612960815,-0.8483456969261169
1773258205139305500,5.103305419921875,-0.10902059823274612,0.6902431845664978,-0.7570220828056335
1773258205149320400,5.113320556640625,0.060305044054985046,0.503440797328949,-0.6893690228462219
1773258205159336400,5.12333642578125,0.15978719294071198,0.3167727589607239,-0.5853722095489502
1773258205169351400,5.133351318359375,0.1960461288690567,0.2278817594051361,-0.38231417536735535
1773258205179366400,5.143366455078125,0.16061465442180634,0.015231139026582241,-0.08687584847211838
1773258205189382400,5.15338232421875,0.11220423877239227,-0.3665146231651306,0.24868537485599518
1773258205199397400,5.1633974609375,0.0400543250143528,-0.6512748003005981,0.5595649480819702
1773258205209413400,5.173413330078125,-0.006709984038025141,-0.7502831220626831,0.7892540693283081
1773258205219428400,5.183428466796875,-0.016044896095991135,-0.9045627117156982,0.9027311205863953
1773258205229444400,5.1934443359375,-0.03856538608670235,-0.6200779676437378,0.9582199454307556
1773258205239459300,5.203459228515625,-0.053223200142383575,-0.5024982690811157,0.9946611523628235
1773258205249474300,5.213474365234375,-0.0768214762210846,-0.22905631363391876,1.0053890943527222
1773258205259490300,5.223490234375,-0.0901915654540062,-0.24230074882507324,0.9526098370552063
1773258205269505300,5.23350537109375,-0.12604036927223206,-0.22511883080005646,0.8264665007591248
1773258205279521300,5.243521240234375,-0.16158458590507507,-0.03078596480190754,0.7224801778793335
1773258205289536300,5.253536376953125,-0.1681106686592102,0.05391853675246239,0.6635337471961975
1773258205299552500,5.263552490234375,-0.1461922824382782,0.13261626660823822,0.6608921885490417
1773258205309567200,5.273567138671875,-0.09726600348949432,0.07250526547431946,0.7058578133583069
1773258205319582200,5.283582275390625,0.02516261674463749,-0.035122763365507126,0.7051819562911987
1773258205329598500,5.293598388671875,0.18870973587036133,-0.22628073394298553,0.6685264706611633
1773258205339613400,5.303613525390625,0.3302653133869171,-0.3499249219894409,0.616464376449585
1773258205349629400,5.31362939453125,0.42959800362586975,-0.3065124750137329,0.5960296988487244
1773258205359644400,5.32364453125,0.4337274432182312,-0.2816353142261505,0.6152186989784241
1773258205369660400,5.333660400390625,0.41108763217926025,-0.3100440502166748,0.6541889905929565
1773258205379675400,5.34367529296875,0.31311967968940735,-0.24039006233215332,0.7006529569625854
1773258205389690400,5.3536904296875,0.19662100076675415,-0.22455145418643951,0.7259268760681152
1773258205399706400,5.363706298828125,0.12276436388492584,-0.1030760332942009,0.6645808815956116
1773258205409721300,5.373721435546875,0.11319269239902496,0.0030267001129686832,0.5293410420417786
1773258205419737300,5.3837373046875,0.1491408497095108,0.16671614348888397,0.3393568992614746
1773258205429752300,5.39375244140625,0.25245657563209534,0.337765097618103,0.13584637641906738
1773258205439768300,5.403768310546875,0.3452434241771698,0.33923643827438354,-0.060887254774570465
1773258205449783300,5.413783203125,0.405117928981781,0.2086251825094223,-0.2233765721321106
1773258205459798300,5.42379833984375,0.42435720562934875,0.039707642048597336,-0.3558798134326935
1773258205469814300,5.433814208984375,0.34841078519821167,-0.10567431896924973,-0.462537556886673
1773258205479829200,5.443829345703125,0.1403702199459076,-0.17360958456993103,-0.5024296641349792
1773258205489845200,5.45384521484375,-0.1672363430261612,-0.1889730989933014,-0.4208458364009857
1773258205499860200,5.463860107421875,-0.460913747549057,-0.2464839369058609,-0.3108671307563782
1773258205509876200,5.473876220703125,-0.683679461479187,-0.2204398214817047,-0.2496248036623001
1773258205519891200,5.48389111328125,-0.8371407985687256,-0.07794104516506195,-0.20805774629116058
1773258205529906200,5.49390625,-0.8880380392074585,0.17408215999603271,-0.114814892411232
1773258205539922200,5.503922119140625,-0.8393663763999939,0.4400010406970978,0.01948830857872963
1773258205549937200,5.513937255859375,-0.6413313746452332,0.5298818945884705,0.1731465756893158
1773258205559953200,5.523953125,-0.32007062435150146,0.32931390404701233,0.33535295724868774
1773258205569968000,5.533968017578125,-0.07837491482496262,0.1431645303964615,0.3874119222164154
1773258205579984400,5.543984375,0.10087078809738159,0.010145967826247215,0.3768475353717804
1773258205589999400,5.553999267578125,0.3311484456062317,-0.18945981562137604,0.3403529226779938
1773258205600014300,5.564014404296875,0.46400582790374756,-0.30399900674819946,0.2381848245859146
1773258205610030300,5.5740302734375,0.4979587495326996,-0.28717315196990967,0.16236861050128937
1773258205620045300,5.58404541015625,0.4644482433795929,-0.11812475323677063,0.11693672090768814
1773258205630061300,5.594061279296875,0.37160298228263855,0.04025262966752052,0.13841857016086578
1773258205640076300,5.604076171875,0.2503148317337036,0.12417659163475037,0.17322799563407898
1773258205650091500,5.614091552734375,0.12324903905391693,0.18451902270317078,0.17108042538166046
1773258205660107300,5.624107177734375,-0.009048683568835258,0.2111930400133133,0.1588968187570572
1773258205670122500,5.63412255859375,-0.15198692679405212,0.21109023690223694,0.17242248356342316
1773258205680138200,5.64413818359375,-0.310547411441803,0.1483297199010849,0.239281564950943
1773258205690153500,5.654153564453125,-0.4340254068374634,0.02944887988269329,0.3245692849159241
1773258205700169200,5.664169189453125,-0.49920570850372314,-0.08882096409797668,0.3959338963031769
1773258205710184400,5.674184326171875,-0.5357748866081238,-0.2844759523868561,0.429924339056015
1773258205720199400,5.684199462890625,-0.5377862453460693,-0.4427637755870819,0.40140795707702637
1773258205730215400,5.69421533203125,-0.49410372972488403,-0.6036498546600342,0.29242685437202454
1773258205740230400,5.70423046875,-0.41297340393066406,-0.6552783846855164,0.2076343595981598
1773258205750246400,5.714246337890625,-0.3005179464817047,-0.6989203691482544,0.1061553955078125
1773258205760261400,5.724261474609375,-0.1603110432624817,-0.6649265885353088,-0.03862300515174866
1773258205770277400,5.73427734375,-0.03856782615184784,-0.5183746814727783,-0.2759905457496643
1773258205780292400,5.744292236328125,0.040281493216753006,-0.3673524558544159,-0.5314674973487854
1773258205790307300,5.754307373046875,0.07712899148464203,-0.2945155203342438,-0.7849271893501282
1773258205800323300,5.7643232421875,0.02308235503733158,-0.15766069293022156,-1.0342354774475098
1773258205810338300,5.77433837890625,-0.08281025290489197,-0.02998369187116623,-1.2544139623641968
1773258205820354300,5.784354248046875,-0.18834607303142548,0.14737866818904877,-1.430822730064392
1773258205830369300,5.794369384765625,-0.3100607693195343,0.42586833238601685,-1.5618863105773926
1773258205840385500,5.804385498046875,-0.43197324872016907,0.7282276749610901,-1.60601007938385
1773258205850400500,5.814400390625,-0.5591919422149658,1.126918077468872,-1.4857102632522583
1773258205860415200,5.824415283203125,-0.6814043521881104,1.4034357070922852,-1.2749882936477661
1773258205870431500,5.834431396484375,-0.7480403780937195,1.4758707284927368,-1.0471447706222534
1773258205880446500,5.844446533203125,-0.7445042729377747,1.3268322944641113,-0.8486541509628296
1773258205890462500,5.85446240234375,-0.7191643118858337,1.1517211198806763,-0.7291051149368286
1773258205900477400,5.8644775390625,-0.6837548017501831,1.0757406949996948,-0.5857009887695312
1773258205910492400,5.874492431640625,-0.6066266894340515,0.9230564832687378,-0.3617187440395355
1773258205920508400,5.88450830078125,-0.5071706175804138,0.6756715774536133,-0.10538285970687866
1773258205930524400,5.8945244140625,-0.3944203555583954,0.40899837017059326,0.16494451463222504
1773258205940540400,5.90454052734375,-0.2708481550216675,0.03431857377290726,0.4110618233680725
1773258205950555400,5.914555419921875,-0.09940660744905472,-0.39412838220596313,0.5362903475761414
1773258205960571400,5.9245712890625,0.051178548485040665,-0.6961629986763,0.6767199635505676
1773258205970586400,5.93458642578125,0.19214418530464172,-0.9342309236526489,0.7824775576591492
1773258205980601300,5.944601318359375,0.28256526589393616,-1.0598366260528564,0.8169600963592529
1773258205990617300,5.954617431640625,0.2930213510990143,-1.0258086919784546,0.8023050427436829
1773258206000632300,5.96463232421875,0.2704411447048187,-0.8658789992332458,0.8180042505264282
1773258206010648300,5.9746484375,0.2779752314090729,-0.7542808651924133,0.8158657550811768
1773258206020663300,5.984663330078125,0.2683761417865753,-0.6896213293075562,0.7618429064750671
1773258206030679300,5.99467919921875,0.22692164778709412,-0.6833103895187378,0.700516402721405
1773258206040694300,6.0046943359375,0.16899189352989197,-0.6765891909599304,0.6502062678337097
1773258206050709200,6.014709228515625,0.10992990434169769,-0.6085765957832336,0.5600598454475403
1773258206060725200,6.024725341796875,0.08247033506631851,-0.4748748242855072,0.38811901211738586
1773258206070740200,6.034740234375,0.06450651586055756,-0.3381257653236389,0.25542062520980835
1773258206080756200,6.044756103515625,0.05475945770740509,-0.39912647008895874,0.23114633560180664
1773258206090771200,6.054771240234375,0.06070522964000702,-0.4610005021095276,0.19099731743335724
1773258206100786200,6.0647861328125,0.053433340042829514,-0.5203827023506165,0.08131077885627747
1773258206110802200,6.07480224609375,0.034902531653642654,-0.5059019923210144,-0.011821296066045761
1773258206120817200,6.084817138671875,0.015165621414780617,-0.39632049202919006,-0.04427101090550423
1773258206130833400,6.09483349609375,-0.018717510625720024,-0.25497668981552124,-0.04267657548189163
1773258206140848400,6.104848388671875,-0.03833044692873955,-0.0569409504532814,-0.07660707831382751
1773258206150864400,6.114864501953125,-0.019977541640400887,0.13662664592266083,-0.1182517260313034
1773258206160879400,6.12487939453125,-0.11197979003190994,0.6961572766304016,-0.1824594885110855
1773258206170894300,6.134894287109375,-0.505024790763855,1.2676020860671997,-0.19465677440166473
1773258206180910300,6.144910400390625,-0.5223762392997742,1.564444661140442,0.023227538913488388
1773258206190925300,6.15492529296875,-0.5470494031906128,1.6397393941879272,0.12164971232414246
1773258206200941300,6.16494140625,-0.6102597117424011,1.3140754699707031,0.1635270118713379
1773258206210956300,6.174956298828125,-0.5660078525543213,0.8439034223556519,0.16991567611694336
1773258206220971300,6.18497119140625,-0.4640248417854309,0.4125567674636841,0.2734512686729431
1773258206230987300,6.1949873046875,-0.34881970286369324,-0.03673288971185684,0.5044536590576172
1773258206241002200,6.205002197265625,-0.2165892869234085,-0.44562605023384094,0.6224174499511719
1773258206251018200,6.215018310546875,-0.025298159569501877,-0.7228842973709106,0.7192505598068237
1773258206261033200,6.225033203125,0.107886902987957,-0.8262667059898376,0.7640308737754822
1773258206271049200,6.23504931640625,0.16353179514408112,-0.7443491816520691,0.7928614616394043
1773258206281064200,6.245064208984375,0.18021591007709503,-0.6382288336753845,0.8084814548492432
1773258206291079200,6.2550791015625,0.10718218237161636,-0.5570162534713745,0.7456779479980469
1773258206301095200,6.26509521484375,0.005477794911712408,-0.40430158376693726,0.6476622223854065
1773258206311110100,6.275110107421875,-0.09431351721286774,-0.13106496632099152,0.5922370553016663
1773258206321126100,6.285126220703125,-0.2457953691482544,0.1591719686985016,0.5465942621231079
1773258206331141000,6.29514111328125,-0.40901705622673035,0.3242535889148712,0.5028571486473083
1773258206341157000,6.3051572265625,-0.5514674782752991,0.2944774925708771,0.4342578947544098
1773258206351172000,6.315172119140625,-0.6386215686798096,0.1907159388065338,0.3600830137729645
1773258206361187300,6.325187255859375,-0.6653086543083191,0.059704892337322235,0.3125903308391571
1773258206371203000,6.335203125,-0.6121823191642761,-0.07843726128339767,0.2986910343170166
1773258206381218300,6.34521826171875,-0.5064431428909302,-0.19552840292453766,0.25608453154563904
1773258206391234300,6.355234375,-0.3445453345775604,-0.3443002998828888,0.20101384818553925
1773258206401249300,6.365249267578125,-0.19988517463207245,-0.3799126446247101,0.12714754045009613
1773258206411264300,6.37526416015625,-0.1443159282207489,-0.3183997571468353,0.06628204882144928
1773258206421280500,6.385280517578125,-0.06441136449575424,-0.37048226594924927,0.02215082198381424
1773258206431295500,6.39529541015625,-0.05833003669977188,-0.18691590428352356,-0.08149567991495132
1773258206441311200,6.405311279296875,-0.09787537902593613,-0.08689510077238083,-0.09022033214569092
1773258206451326500,6.415326416015625,-0.13231219351291656,-0.016575129702687263,-0.09830143302679062
1773258206461342200,6.42534228515625,-0.16192010045051575,0.02449960634112358,-0.16815185546875
1773258206471357400,6.435357421875,-0.2256450057029724,0.2030983865261078,-0.20147038996219635
1773258206481372400,6.445372314453125,-0.22293537855148315,0.18786835670471191,-0.14542940258979797
1773258206491388400,6.455388427734375,-0.24073755741119385,0.2902277410030365,-0.05415329709649086
1773258206501403400,6.4654033203125,-0.08187536895275116,-0.9481890797615051,-0.026378771290183067
1773258206511419400,6.47541943359375,-0.018304653465747833,-0.9999223351478577,-0.12166187912225723
1773258206521434400,6.485434326171875,-0.022811587899923325,-0.6240109801292419,0.002743740566074848
1773258206531449300,6.495449462890625,-0.014158711768686771,-0.6100525856018066,0.09781060367822647
1773258206541465300,6.50546533203125,-0.06352865695953369,-0.3585076928138733,0.005321946926414967
1773258206551480300,6.515480224609375,-0.16268053650856018,-0.3886544108390808,-0.07517476379871368
1773258206561496300,6.525496337890625,-0.3660403788089752,-0.26832085847854614,-0.1712537556886673
1773258206571511300,6.53551123046875,-0.6548615097999573,-0.007918308489024639,-0.17099197208881378
1773258206581527300,6.54552734375,-0.9421259164810181,-0.1809248924255371,-0.06596097350120544
1773258206591542300,6.555542236328125,-1.144444465637207,-0.14175087213516235,0.018047377467155457
1773258206601557200,6.56555712890625,-1.2551921606063843,-0.1645696461200714,0.11058150231838226
1773258206611573200,6.5755732421875,-1.3139300346374512,-0.14558663964271545,0.11027310788631439
1773258206621588200,6.585588134765625,-1.2905668020248413,0.05021701008081436,0.12061560899019241
1773258206631604200,6.595604248046875,-1.217451572418213,0.13134807348251343,0.112540103495121
1773258206641619200,6.605619140625,-1.0696357488632202,0.21011100709438324,0.032012611627578735
1773258206651634200,6.61563427734375,-0.8966192007064819,0.15755166113376617,-0.09857495874166489
1773258206661650200,6.625650146484375,-0.6516612768173218,0.06924813240766525,-0.1970674842596054
1773258206671665200,6.6356650390625,-0.32228901982307434,-0.03629346936941147,-0.22120797634124756
1773258206681681400,6.645681396484375,0.0161801315844059,-0.1275503784418106,-0.19356507062911987
1773258206691696400,6.6556962890625,0.3468901216983795,-0.33445775508880615,-0.1671004444360733
1773258206701712400,6.66571240234375,0.6783421039581299,-0.5644768476486206,-0.20003148913383484
1773258206711727400,6.675727294921875,0.897929847240448,-0.4132809340953827,-0.2811844050884247
1773258206721742300,6.685742431640625,0.9798372983932495,-0.2118528038263321,-0.28030940890312195
1773258206731758300,6.69575830078125,0.9604867696762085,-0.14085453748703003,-0.18697787821292877
1773258206741773300,6.705773193359375,0.7899481058120728,-0.055783435702323914,-0.0667680874466896
1773258206751789300,6.715789306640625,0.5583018064498901,-0.09106738865375519,0.12832337617874146
1773258206761804300,6.72580419921875,0.34125521779060364,-0.3210934102535248,0.41874903440475464
1773258206771819300,6.7358193359375,0.21725258231163025,-0.5940234661102295,0.7080035209655762
1773258206781835300,6.745835205078125,0.2115887850522995,-0.7241277098655701,0.9184840321540833
1773258206791850200,6.755850341796875,0.2618682086467743,-0.7726813554763794,1.0220357179641724
1773258206801866200,6.7658662109375,0.3613252341747284,-0.6852738261222839,1.0731606483459473
1773258206811881200,6.775881103515625,0.4829675257205963,-0.49912527203559875,1.1042951345443726
1773258206821896200,6.785896240234375,0.7118558883666992,-0.6160796284675598,1.172302484512329
1773258206831912200,6.795912109375,0.5724340677261353,-0.22100846469402313,0.9932880401611328
1773258206841927200,6.80592724609375,0.4270782768726349,-0.2471676617860794,0.9239922165870667
1773258206851943200,6.815943115234375,0.17072640359401703,0.01627275161445141,0.8356822729110718
1773258206861958100,6.825958251953125,-0.24353355169296265,-0.008706026710569859,0.8046861886978149
1773258206871974100,6.83597412109375,-0.6817923784255981,-0.08009178936481476,0.8084867596626282
1773258206881989000,6.845989013671875,-1.015100359916687,-0.2920612692832947,0.8317578434944153
1773258206892004400,6.85600439453125,-1.1382262706756592,-0.7334844470024109,0.8002004623413086
1773258206902020000,6.86602001953125,-1.106562614440918,-0.9171874523162842,0.7026025056838989
1773258206912035300,6.876035400390625,-0.9098740816116333,-0.9777698516845703,0.6341060400009155
1773258206922051000,6.886051025390625,-0.6063531041145325,-0.8481569290161133,0.5523321628570557
1773258206932066600,6.896066650390625,-0.2719431519508362,-0.640688955783844,0.4424767792224884
1773258206942081300,6.906081298828125,0.06873863935470581,-0.40184611082077026,0.28150689601898193
1773258206952097500,6.91609765625,0.3207447826862335,-0.36434292793273926,0.12974213063716888
1773258206962112500,6.926112548828125,0.45057669281959534,-0.20997542142868042,0.008972921408712864
1773258206972128500,6.93612841796875,0.4648144841194153,-0.07026360929012299,-0.11509549617767334
1773258206982143500,6.9461435546875,0.4040299355983734,-0.029271669685840607,-0.18120892345905304
1773258206992159500,6.956159423828125,0.3033406138420105,-0.04588526487350464,-0.20559069514274597
1773258207002174500,6.966174560546875,0.16158133745193481,0.011189102195203304,-0.224941685795784
1773258207012189400,6.976189453125,0.03725485876202583,0.09600066393613815,-0.25361168384552
1773258207022205400,6.986205322265625,0.013998668640851974,0.08549437671899796,-0.2670356035232544
1773258207032220400,6.996220458984375,-0.07950172573328018,0.2251846343278885,-0.2789822816848755
1773258207042236400,7.006236328125,-0.2110104113817215,0.2882944345474243,-0.26901179552078247
1773258207052251400,7.01625146484375,-0.2893872559070587,0.3253057301044464,-0.2596491873264313
1773258207062266400,7.026266357421875,-0.3783845603466034,0.15075726807117462,-0.15277878940105438
1773258207072282400,7.036282470703125,-0.42254000902175903,-0.18306224048137665,-0.02057895064353943
1773258207082297300,7.04629736328125,-0.37474125623703003,-0.27095159888267517,0.04854797199368477
1773258207092313300,7.056313232421875,-0.18340060114860535,-0.1291009932756424,0.09232873469591141
1773258207102328300,7.066328369140625,0.06481713056564331,0.017225177958607674,0.191448375582695
1773258207112344300,7.07634423828125,0.22351355850696564,-0.036857232451438904,0.23893040418624878
1773258207122359300,7.086359375,0.32405880093574524,0.09725397080183029,0.15303786098957062
1773258207132374300,7.096374267578125,0.36654582619667053,0.3570999503135681,-0.018862532451748848
1773258207142390300,7.106390380859375,0.28192242980003357,0.5586615800857544,-0.24048110842704773
1773258207152405200,7.1164052734375,0.13185995817184448,0.7319089770317078,-0.45971572399139404
1773258207162421200,7.126421142578125,-0.07638375461101532,0.6730079650878906,-0.7021319270133972
1773258207172436200,7.136436279296875,-0.21110108494758606,0.23327107727527618,-0.8498579859733582
1773258207182451200,7.146451171875,-0.08823369443416595,-0.11816244572401047,-0.8005388379096985
1773258207192467200,7.15646728515625,0.02986178919672966,-0.23776207864284515,-0.6217446327209473
1773258207202482200,7.166482177734375,0.08609627932310104,-0.42966708540916443,-0.48358628153800964
1773258207212498400,7.17649853515625,0.14454680681228638,-0.5615095496177673,-0.47211259603500366
1773258207222513400,7.186513427734375,0.12373972684144974,-0.6891419887542725,-0.4848596155643463
1773258207232528400,7.1965283203125,-0.002083451021462679,-0.6212236881256104,-0.48423776030540466
1773258207242544400,7.20654443359375,-0.14739514887332916,-0.44400203227996826,-0.4109193682670593
1773258207252559400,7.216559326171875,-0.24837155640125275,-0.4314068555831909,-0.3663814663887024
1773258207262575400,7.226575439453125,-0.3454436957836151,-0.10000551491975784,-0.29588785767555237
1773258207272590300,7.23659033203125,-0.47085726261138916,0.029184959828853607,-0.12584076821804047
1773258207282606300,7.2466064453125,-0.5125893354415894,-0.3027992248535156,0.015775177627801895
1773258207292621300,7.256621337890625,-0.4452880620956421,-0.45800161361694336,0.029474478214979172
1773258207302636300,7.26663623046875,-0.35508519411087036,-0.20247703790664673,0.11584264785051346
1773258207312652300,7.27665234375,-0.2606295347213745,-0.18088757991790771,0.3224472403526306
1773258207322667300,7.286667236328125,-0.08838773518800735,-0.3590943515300751,0.4453057646751404
1773258207332683300,7.296683349609375,0.12355674058198929,-0.5302322506904602,0.43354445695877075
1773258207342698200,7.3066982421875,0.26249900460243225,-0.5755161046981812,0.39033231139183044
1773258207352713500,7.31671337890625,0.3667859733104706,-0.5229399800300598,0.3727906048297882
1773258207362729200,7.326729248046875,0.4096631705760956,-0.5148096680641174,0.30796676874160767
1773258207372744400,7.336744384765625,0.3890015780925751,-0.6062144041061401,0.16633722186088562
1773258207382760200,7.34676025390625,0.284033864736557,-0.6864330768585205,-0.03938478231430054
1773258207392775400,7.356775390625,0.11250340193510056,-0.6798681020736694,-0.23285862803459167
1773258207402791200,7.366791259765625,-0.07032863795757294,-0.6166976094245911,-0.38557061553001404
1773258207412806400,7.376806396484375,-0.21935993432998657,-0.35691532492637634,-0.5325909852981567
1773258207422821400,7.3868212890625,-0.3512883186340332,-0.09027563035488129,-0.7212881445884705
1773258207432837000,7.396837158203125,-0.4949309825897217,0.31743380427360535,-0.966548502445221
1773258207442852400,7.406852294921875,-0.550403356552124,0.8066221475601196,-1.1736838817596436
1773258207452868000,7.4168681640625,-0.5730599164962769,1.2238318920135498,-1.1928602457046509
1773258207462883300,7.42688330078125,-0.5968270897865295,1.555985927581787,-1.1107064485549927
1773258207472898300,7.436898193359375,-0.5521515011787415,1.8419440984725952,-1.0191900730133057
1773258207482914600,7.44691455078125,-0.4396042823791504,1.8239448070526123,-0.8207676410675049
1773258207492929300,7.45692919921875,-0.30902308225631714,1.476611614227295,-0.557917058467865
1773258207502945500,7.466945556640625,-0.1469373106956482,0.6875104308128357,-0.3390398323535919
1773258207512960500,7.47696044921875,0.09819095581769943,-0.08366672694683075,-0.1886361986398697
1773258207522976500,7.4869765625,0.2823622524738312,-0.5334653854370117,-0.04211122915148735
1773258207532991500,7.496991455078125,0.3493761718273163,-0.748715877532959,0.08055663108825684
1773258207543006500,7.50700634765625,0.34177669882774353,-0.8788061738014221,0.20003032684326172
1773258207553022500,7.5170224609375,0.20195303857326508,-1.1791551113128662,0.271964967250824
1773258207563037400,7.527037353515625,-0.03624778985977173,-1.204609990119934,0.2912641167640686
1773258207573053400,7.537053466796875,-0.3072012662887573,-1.0106056928634644,0.43101003766059875
1773258207583068400,7.547068359375,-0.4920017123222351,-0.8930118083953857,0.5720286965370178
1773258207593083400,7.55708349609375,-0.5436902046203613,-0.7776545882225037,0.6430463790893555
1773258207603099400,7.567099365234375,-0.4473899006843567,-0.7813907265663147,0.7354787588119507
1773258207613114400,7.5771142578125,-0.2109890878200531,-0.9389318823814392,0.8300358653068542
1773258207623130400,7.58713037109375,0.3022979497909546,-1.8487138748168945,0.9929091334342957
1773258207633145300,7.597145263671875,0.3166377544403076,-2.0573301315307617,0.7694925665855408
1773258207643161300,7.607161376953125,0.6328932046890259,-1.9241998195648193,0.8188817501068115
1773258207653176300,7.61717626953125,0.8449721336364746,-1.882313847541809,0.7619369626045227
1773258207663191300,7.62719140625,0.7873548865318298,-1.3026398420333862,0.6068962812423706
1773258207673207300,7.637207275390625,0.7619746923446655,-0.49424391984939575,0.46389973163604736
1773258207683222300,7.64722216796875,0.7124638557434082,-0.15880107879638672,0.18582680821418762
1773258207693238300,7.65723828125,0.6678157448768616,0.12306389212608337,-0.12283862382173538
1773258207703253200,7.667253173828125,0.5756422877311707,0.22973136603832245,-0.3513559103012085
1773258207713269200,7.677269287109375,0.4245145320892334,0.3949536085128784,-0.4728115200996399
1773258207723284200,7.6872841796875,0.05610553175210953,0.5482664704322815,-0.5848225355148315
1773258207733299200,7.69729931640625,-0.24113014340400696,0.40523576736450195,-0.6823365688323975
1773258207743315200,7.707315185546875,-0.18572315573692322,0.11111734807491302,-0.7185078859329224
1773258207753330200,7.717330078125,-0.010347062721848488,-0.01575084961950779,-0.669975757598877
1773258207763346400,7.727346435546875,0.14914675056934357,-0.07980027049779892,-0.6054781675338745
1773258207773361400,7.737361328125,0.2505332827568054,-0.16366107761859894,-0.6203620433807373
1773258207783377400,7.74737744140625,0.2765887379646301,-0.37311625480651855,-0.6852103471755981
1773258207793392400,7.757392333984375,0.2473251223564148,-0.3750779628753662,-0.839359700679779
1773258207803407400,7.767407470703125,0.15707792341709137,0.07022158056497574,-0.981266438961029
1773258207813423400,7.77742333984375,0.09744895249605179,0.522304117679596,-1.0465754270553589
1773258207823438300,7.787438232421875,0.06886659562587738,0.6985109448432922,-1.1575207710266113
1773258207833454300,7.797454345703125,0.09712513536214828,0.7388091087341309,-1.3452569246292114
1773258207843469300,7.80746923828125,0.22796045243740082,0.9034953713417053,-1.4599202871322632
1773258207853485300,7.8174853515625,0.5055654048919678,0.8416112065315247,-1.44051194190979
1773258207863500300,7.827500244140625,0.7564713954925537,0.7361432909965515,-1.3394885063171387
1773258207873515300,7.837515380859375,0.8230003118515015,0.797077476978302,-1.219152808189392
1773258207883531300,7.84753125,0.8613817095756531,1.1024142503738403,-1.0435543060302734
1773258207893546200,7.857546142578125,0.8839839696884155,0.9605007767677307,-0.8928420543670654
1773258207903562200,7.867562255859375,0.857345700263977,0.5378443598747253,-0.8045526742935181
1773258207913577200,7.8775771484375,0.7239466309547424,0.13280628621578217,-0.7357232570648193
1773258207923593200,7.88759326171875,0.4406532347202301,-0.08753452450037003,-0.47824734449386597
1773258207933608000,7.89760791015625,0.07443584501743317,-0.25065311789512634,-0.1228703185915947
1773258207943622700,7.90762255859375,-0.21361732482910156,-0.3439461290836334,0.15971703827381134
1773258207953639000,7.917638916015625,-0.2956125736236572,-0.38742703199386597,0.3649607300758362
1773258207963654000,7.92765380859375,-0.22392162680625916,-0.48470011353492737,0.5586904287338257
1773258207973670000,7.937669921875,-0.057750776410102844,-0.6396838426589966,0.6775369644165039
1773258207983684900,7.947684814453125,0.3215245008468628,-1.0155566930770874,0.6630301475524902
1773258207993700900,7.957700927734375,0.7395880818367004,-0.5801266431808472,0.5556520223617554
1773258208003715800,7.9677158203125,1.064212679862976,-0.353556364774704,0.5080370306968689
1773258208013730800,7.977730712890625,1.28887939453125,-0.3769455850124359,0.30400609970092773
1773258208023746800,7.987746826171875,1.393200397491455,-0.38363727927207947,0.07949897646903992
1773258208033761800,7.99776171875,1.401064157485962,-0.8971104621887207,-0.10884296894073486
1773258208043777800,8.00777783203125,1.2478854656219482,-1.0260372161865234,-0.3463488519191742
1773258208053792800,8.017792724609375,0.8521125912666321,-0.26270413398742676,-0.36672312021255493
1773258208063808800,8.027808837890625,0.43409842252731323,0.6298505663871765,-0.1299438327550888
1773258208073823700,8.03782373046875,0.2419697493314743,0.5478438138961792,-0.14040926098823547
1773258208083838700,8.047838623046875,0.17486222088336945,0.6669890880584717,-0.45794105529785156
1773258208093854700,8.057854736328125,-0.135703906416893,1.1355350017547607,-0.5690207481384277
1773258208103869700,8.06786962890625,-0.4460911452770233,1.6292823553085327,-0.5250096321105957
1773258208113885700,8.0778857421875,-0.5763413310050964,2.009615898132324,-0.6960141658782959
1773258208123900700,8.087900634765624,-0.6299207210540771,2.123636245727539,-0.9865342974662781
1773258208133916700,8.097916748046876,-0.7127420902252197,2.1375484466552734,-1.1816893815994263
1773258208143931600,8.107931640625,-0.7017384171485901,2.044273614883423,-1.2266122102737427
1773258208153946600,8.117946533203124,-0.5392118096351624,1.7579132318496704,-1.1910851001739502
1773258208163962600,8.127962646484375,-0.17944329977035522,1.1850062608718872,-1.269962191581726
1773258208173977600,8.1379775390625,0.17006808519363403,1.2702093124389648,-1.296497106552124
1773258208183993900,8.147993896484374,0.5516497492790222,0.9933104515075684,-1.2554142475128174
1773258208194008600,8.158008544921875,1.011159062385559,0.9633786082267761,-1.2985585927963257
1773258208204024800,8.16802490234375,1.361998200416565,1.8069101572036743,-1.216688632965088
1773258208214039800,8.178039794921874,1.3904117345809937,2.1225736141204834,-1.1142805814743042
1773258208224054800,8.1880546875,1.2036848068237305,2.2889087200164795,-0.9931743144989014
1773258208234070800,8.19807080078125,0.9333909749984741,2.148780107498169,-0.6438736319541931
1773258208244085800,8.208085693359376,0.5999140739440918,1.6402493715286255,-0.07028482109308243
1773258208254101800,8.218101806640625,0.26567962765693665,0.9816822409629822,0.628001868724823
1773258208264116700,8.22811669921875,0.03629807010293007,-0.6288835406303406,0.9865862727165222
1773258208274132700,8.2381328125,-0.05842258036136627,-1.6011857986450195,0.9847667813301086
1773258208284147700,8.248147705078125,-0.041533078998327255,-2.3663554191589355,1.0606484413146973
1773258208294162700,8.25816259765625,0.17219199240207672,-2.8625075817108154,1.0579378604888916
1773258208304178700,8.2681787109375,0.542076587677002,-2.7858529090881348,0.8659572601318359
1773258208314193700,8.278193603515625,0.7412179112434387,-2.296051263809204,0.5037614703178406
1773258208324209700,8.288209716796874,0.8416940569877625,-0.9168888926506042,0.15157084167003632
1773258208334224600,8.298224609375,0.8289029002189636,-0.00017322166240774095,-0.09804271906614304
1773258208344240600,8.30824072265625,0.7545347809791565,0.6817318797111511,-0.3869471549987793
1773258208354255600,8.318255615234374,0.5606470704078674,1.108963131904602,-0.6369454860687256
1773258208364270600,8.3282705078125,0.2631869316101074,1.0349433422088623,-0.7161457538604736
1773258208374286600,8.33828662109375,-0.10678870975971222,0.6529499292373657,-0.5697054266929626
1773258208384301600,8.348301513671874,-0.4221799969673157,0.1511611044406891,-0.17229516804218292
1773258208394317600,8.358317626953125,-0.5604811310768127,-0.35049960017204285,0.2608943581581116
1773258208404332500,8.36833251953125,-0.5063103437423706,-0.6830888390541077,0.46352729201316833
1773258208414348500,8.3783486328125,-0.2673172354698181,-0.8192986249923706,0.5477774739265442
1773258208424363500,8.388363525390625,0.11668463051319122,-0.9952831864356995,0.5704405307769775
1773258208434378500,8.39837841796875,0.5676382780075073,-0.9226683974266052,0.5638548135757446
1773258208444394500,8.40839453125,0.8962914347648621,-0.6795965433120728,0.5353962779045105
1773258208454409500,8.418409423828125,0.9455540180206299,-0.18292076885700226,0.5043137073516846
1773258208464425700,8.42842578125,0.5555781722068787,2.083322763442993,0.8614829182624817
1773258208474440700,8.438440673828126,-0.03222384303808212,1.1678439378738403,1.1684587001800537
1773258208484456700,8.448456787109375,-0.5925143957138062,-0.3713100552558899,0.6120232939720154
1773258208494471700,8.4584716796875,-1.137093186378479,-0.6493304371833801,0.5394620299339294
1773258208504487000,8.46848681640625,-1.1525946855545044,-0.9932164549827576,0.8331831097602844
1773258208514502700,8.478502685546875,-0.7150588631629944,-1.165238857269287,1.0449100732803345
1773258208524518000,8.488517822265624,-0.06510831415653229,-1.4620747566223145,1.0415985584259033
1773258208534533600,8.49853369140625,0.6652694940567017,-1.594069480895996,0.8326486945152283
1773258208544548900,8.508548828125,1.2000055313110352,-1.4462305307388306,0.5222786068916321
1773258208554564600,8.518564697265624,1.466593623161316,-1.0650628805160522,0.2567388415336609
1773258208564579800,8.528579833984375,1.5612058639526367,-0.38503092527389526,0.07438784092664719
1773258208574594800,8.5385947265625,1.5005124807357788,-0.006838340777903795,-0.05526869371533394
1773258208584610800,8.54861083984375,1.357356309890747,0.12166333943605423,-0.20768238604068756
1773258208594625800,8.558625732421875,1.2525297403335571,0.3036682903766632,-0.436418354511261
1773258208604641800,8.568641845703125,1.1678073406219482,0.29470890760421753,-0.6148924827575684
1773258208614656800,8.57865673828125,1.061722755432129,0.28020668029785156,-0.5785459280014038
1773258208624672800,8.5886728515625,1.1141936779022217,0.40505895018577576,-0.2274467945098877
1773258208634687700,8.598687744140625,0.10005716234445572,0.42284539341926575,-0.23988856375217438
1773258208644702700,8.60870263671875,-0.8483040928840637,-0.4047596752643585,-0.2744416892528534
1773258208654718700,8.61871875,-1.005405068397522,-0.5788702368736267,-0.008162862621247768
1773258208664733700,8.628733642578124,-0.6715494394302368,-0.6075268983840942,0.31511563062667847
1773258208674749700,8.638749755859376,-0.2606971859931946,-0.6621389985084534,0.1440432071685791
1773258208684764700,8.6487646484375,-0.022077510133385658,-0.3436146080493927,-0.048406198620796204
1773258208694779600,8.658779541015624,0.004343710374087095,-0.22702302038669586,-0.11622359603643417
1773258208704795600,8.668795654296876,-0.04185866937041283,-0.07199161499738693,-0.09491804242134094
1773258208714810600,8.678810546875,-0.11611932516098022,-0.05864651873707771,-0.03868166729807854
1773258208724827000,8.688826904296874,-0.19437745213508606,-0.161250501871109,-0.10100067406892776
1773258208734841900,8.698841796875,-0.3048619031906128,-0.32777902483940125,-0.16390825808048248
1773258208744857900,8.70885791015625,-0.3893677890300751,-0.3795320689678192,-0.01371889840811491
1773258208754872800,8.718872802734374,-0.3905766010284424,-0.8017781376838684,0.22011782228946686
1773258208764887800,8.7288876953125,-0.5165309309959412,-1.0624490976333618,0.345252126455307
1773258208774903800,8.73890380859375,-0.5862098932266235,-1.5111430883407593,0.5082902908325195
1773258208784918800,8.748918701171876,-0.6233568787574768,-1.71110200881958,0.6283321380615234
1773258208794934800,8.758934814453125,-0.6204692125320435,-1.7531133890151978,0.6925353407859802
1773258208804949800,8.76894970703125,-0.640116274356842,-1.6412218809127808,0.6782095432281494
1773258208814965800,8.7789658203125,-0.5523219704627991,-1.3350154161453247,0.6175781488418579
1773258208824980700,8.788980712890625,-0.4074404239654541,-0.9320489764213562,0.5305323004722595
1773258208834995700,8.79899560546875,-0.32439878582954407,-0.5612589120864868,0.4070846736431122
1773258208845011700,8.80901171875,-0.14140476286411285,-0.35611650347709656,0.14516358077526093
1773258208855026700,8.819026611328125,-0.12979312241077423,-0.19190627336502075,-0.1326587200164795
1773258208865042700,8.829042724609375,-0.48086220026016235,-0.1966487318277359,-0.5550175309181213
1773258208875057700,8.8390576171875,-0.8070206046104431,0.3800249695777893,-1.1295257806777954
1773258208885072600,8.84907275390625,-0.760911762714386,1.4451488256454468,-1.1602128744125366
1773258208895088600,8.859088623046874,-0.37111446261405945,1.450297474861145,-1.1203632354736328
1773258208905103600,8.869103515625,-0.03204059600830078,1.4315519332885742,-1.036934733390808
1773258208915119600,8.87911962890625,0.2687344253063202,1.2002675533294678,-0.8301830887794495
1773258208925135000,8.889135009765624,0.6196076273918152,0.8807002305984497,-0.6175310611724854
1773258208935151000,8.899151123046876,0.7620965838432312,0.5475803017616272,-0.434569776058197
1773258208945166000,8.909166015625,0.5744130611419678,-0.0016229967586696148,-0.1886756271123886
1773258208955181000,8.91918115234375,0.2757377326488495,-0.2669649124145508,0.07926233112812042
1773258208965197000,8.929197021484375,-0.15656016767024994,-0.14098139107227325,0.29624131321907043
1773258208975212000,8.9392119140625,-0.3809836804866791,-0.3872886300086975,0.45316755771636963
1773258208985228000,8.94922802734375,-0.4904817044734955,-0.7947448492050171,0.48806366324424744
1773258208995243000,8.959242919921875,-0.35601815581321716,-0.8175495266914368,0.498371422290802
1773258209005259000,8.969259033203125,-0.09547919780015945,-0.8156737089157104,0.5322263836860657
1773258209015274000,8.97927392578125,0.19687463343143463,-0.9006866216659546,0.48812389373779297
1773258209025289000,8.9892890625,0.441847026348114,-0.7023515105247498,0.3883492052555084
1773258209035305000,8.999304931640625,0.6226352453231812,-0.5283765196800232,0.282696008682251
1773258209045320000,9.00931982421875,0.7071285247802734,-0.29555606842041016,0.14098383486270905
1773258209055336000,9.0193359375,0.610193133354187,-0.06806804239749908,0.012545423582196236
1773258209065351000,9.029350830078124,0.39884117245674133,0.07539983093738556,-0.11070874333381653
1773258209075366100,9.0393662109375,0.2563077509403229,0.08052988350391388,-0.22136840224266052
1773258209085382000,9.0493818359375,0.24761240184307098,0.005047794431447983,-0.24359166622161865
1773258209095397000,9.059397216796874,0.281036376953125,-0.0725087821483612,-0.1387864202260971
1773258209105413000,9.0694130859375,0.2974300980567932,-0.14694735407829285,-0.01974770985543728
1773258209115428000,9.079427978515625,0.40997982025146484,-0.12163107842206955,-0.08760638535022736
1773258209125444000,9.089444091796874,0.43618443608283997,-0.1898455023765564,-0.30318570137023926
1773258209135459000,9.099458984375,0.5240002870559692,-0.1628066897392273,-0.2919127941131592
1773258209145474300,9.109474365234375,0.6195094585418701,-0.15486076474189758,-0.06546078622341156
1773258209155490000,9.119489990234374,0.6326808929443359,-0.3898221552371979,0.038790784776210785
1773258209165505300,9.12950537109375,0.4961422085762024,-0.774240255355835,-0.09473949670791626
1773258209175521000,9.13952099609375,0.1540389508008957,-1.0409704446792603,-0.3064184784889221
1773258209185536300,9.149536376953124,-0.16798388957977295,-1.1622815132141113,-0.2732643783092499
1773258209195552000,9.159552001953125,-0.2955929934978485,-1.2578401565551758,-0.08613709360361099
1773258209205567200,9.169567138671875,-0.19065754115581512,-1.3441331386566162,0.10563693940639496
1773258209215582200,9.179582275390626,0.06911518424749374,-1.454156517982483,0.194266676902771
1773258209225598200,9.18959814453125,0.2730715572834015,-1.4142065048217773,0.2239176481962204
1773258209235613200,9.19961328125,0.37617558240890503,-1.3204655647277832,0.2473294883966446
1773258209245629200,9.209629150390626,0.31545746326446533,-1.0417391061782837,0.2339784950017929
1773258209255644200,9.21964404296875,0.16418510675430298,-0.7659724354743958,0.2096278816461563
1773258209265659100,9.2296591796875,-0.05893632769584656,-0.6002294421195984,0.17040205001831055
1773258209275675100,9.239675048828126,-0.38255059719085693,-0.43253394961357117,0.14322103559970856
1773258209285690000,9.249690185546875,-0.6422313451766968,-0.12052908539772034,0.21657530963420868
1773258209295706000,9.2597060546875,-0.8495094180107117,0.18768998980522156,0.36364251375198364
1773258209305721000,9.26972119140625,-0.8994328379631042,0.3539726138114929,0.4146760106086731
1773258209315737000,9.279737060546875,-0.8051332235336304,0.26916107535362244,0.39857080578804016
1773258209325752000,9.289751953125,-0.723551332950592,-0.014371871016919613,0.43584537506103516
1773258209335767000,9.29976708984375,-0.6052007079124451,-0.24382609128952026,0.5451529622077942
1773258209345783000,9.309782958984375,-0.4223378896713257,-0.46269142627716064,0.7064569592475891
1773258209355798000,9.319798095703124,-0.213401198387146,-0.8722304701805115,0.7498524188995361
1773258209365814000,9.32981396484375,-0.051473282277584076,-1.4058361053466797,0.5373574495315552
1773258209375829000,9.3398291015625,0.06610554456710815,-1.8038785457611084,0.41733062267303467
1773258209385844000,9.349843994140626,0.09935473650693893,-1.881705403327942,0.3963577449321747
1773258209395860200,9.359860107421875,0.13423308730125427,-1.6277955770492554,0.4144776165485382
1773258209405875000,9.369875,0.18883906304836273,-1.358656406402588,0.4325149357318878
1773258209415891200,9.37989111328125,0.2418101280927658,-1.085385799407959,0.3563549220561981
1773258209425906200,9.38990625,0.29953861236572266,-0.8597203493118286,0.2838720679283142
1773258209435922200,9.399922119140625,0.37551435828208923,-0.6109052300453186,0.22352777421474457
1773258209445937200,9.409937255859376,0.40466150641441345,0.07591981440782547,0.19500403106212616
1773258209455952100,9.4199521484375,0.5735235214233398,0.4070782959461212,0.4975660443305969
1773258209465968000,9.429968017578124,0.8196806907653809,0.11181408911943436,0.5900113582611084
1773258209475983000,9.439983154296876,0.5959426760673523,-0.4183829426765442,0.5770569443702698
1773258209485999000,9.4499990234375,0.5112816691398621,-2.247051954269409,0.2905420958995819
1773258209496014000,9.46001416015625,-0.381915420293808,-1.6142390966415405,-0.010165011510252953
1773258209506029000,9.470029052734375,-0.8184910416603088,-1.4018598794937134,-0.005896734073758125
1773258209516045000,9.480045166015625,-0.8069462180137634,-1.117422342300415,-0.23293812572956085
1773258209526060000,9.49006005859375,-0.4454476237297058,-0.6203112602233887,-0.6188238263130188
1773258209536076000,9.500075927734375,0.12578152120113373,-0.0016395084094256163,-0.8566595315933228
1773258209546091000,9.510091064453125,0.6062058806419373,0.4380429685115814,-0.8662136197090149
1773258209556107000,9.52010693359375,1.0369285345077515,0.5572060942649841,-0.7793951034545898
1773258209566122000,9.5301220703125,1.3913148641586304,0.5018519759178162,-0.7177767753601074
1773258209576137000,9.540136962890625,1.5219740867614746,0.4715508222579956,-0.6200951933860779
1773258209586153000,9.550153076171876,1.425342321395874,0.6269897222518921,-0.5588775873184204
1773258209596168000,9.56016796875,1.1842976808547974,0.9099740386009216,-0.5784467458724976
1773258209606184000,9.570183837890625,0.8733858466148376,1.3259841203689575,-0.6648661494255066
1773258209616199000,9.580198974609376,0.6969543099403381,1.6461727619171143,-0.7827219367027283
1773258209626214100,9.590214111328125,0.6077982783317566,1.8454340696334839,-0.685822069644928
1773258209636230000,9.60022998046875,0.23376452922821045,2.0867133140563965,-0.12373822182416916
1773258209646245000,9.6102451171875,-0.3499310612678528,2.2054829597473145,0.5146940350532532
1773258209656260900,9.6202607421875,-0.8344359397888184,2.061316728591919,0.8218651413917542
1773258209666276000,9.630276123046874,-1.1637611389160156,1.7322680950164795,0.8963013887405396
1773258209676292000,9.6402919921875,-1.4080369472503662,1.349513292312622,0.8748205900192261
1773258209686307000,9.65030712890625,-1.571961522102356,1.132153034210205,0.8871374130249023
1773258209696322000,9.660322021484374,-1.6242207288742065,0.8964840769767761,0.8964768648147583
1773258209706338000,9.670338134765625,-1.5539189577102661,0.5758641362190247,0.7916733026504517
1773258209716353300,9.680353271484375,-1.375597357749939,0.25265491008758545,0.6038613319396973
1773258209726369000,9.690369140625,-1.1709182262420654,-0.016730310395359993,0.3909405767917633
1773258209736384300,9.70038427734375,-0.974419355392456,-0.24321405589580536,0.2039416879415512
1773258209746400000,9.71039990234375,-0.7865641713142395,-0.4315846264362335,0.0699109211564064
1773258209756415200,9.720415283203126,-0.6145588159561157,-0.5710501074790955,-0.018591247498989105
1773258209766430200,9.73043017578125,-0.46567773818969727,-0.6097851395606995,-0.06635290384292603
1773258209776446200,9.7404462890625,-0.34507834911346436,-0.572844386100769,-0.10238467156887054
1773258209786461200,9.750461181640626,-0.275451123714447,-0.4719800055027008,-0.13537733256816864
1773258209796477200,9.760477294921875,-0.2618280053138733,-0.31956809759140015,-0.13859257102012634
1773258209806492200,9.7704921875,-0.28240418434143066,-0.13509510457515717,-0.1173374205827713
1773258209816507100,9.780507080078126,-0.3118129372596741,0.030174270272254944,-0.09848196804523468
1773258209826523100,9.790523193359375,-0.32092297077178955,0.21079835295677185,-0.10193827003240585
1773258209836538000,9.8005380859375,-0.3149290084838867,0.378264844417572,-0.08185190707445145
1773258209846554000,9.81055419921875,-0.2945787012577057,0.47612130641937256,-0.06015394255518913
1773258209856569000,9.820569091796875,-0.2317853569984436,0.5925185084342957,-0.07686341553926468
1773258209866584000,9.830583984375,-0.13774332404136658,0.6717807650566101,-0.11205782741308212
1773258209876600000,9.84060009765625,-0.06471758335828781,0.6766194105148315,-0.1502925604581833
1773258209886615000,9.850614990234375,-0.035598333925008774,0.6526239514350891,-0.1812869757413864
1773258209896631000,9.860631103515624,-0.046023279428482056,0.6461553573608398,-0.2114374190568924
1773258209906646000,9.87064599609375,-0.07380737364292145,0.6542099714279175,-0.2403835952281952
1773258209916662000,9.880662109375,-0.1187969520688057,0.6131754517555237,-0.2856520116329193
1773258209926677200,9.89067724609375,-0.19217033684253693,0.5993454456329346,-0.3626823425292969
1773258209936692200,9.900692138671875,-0.2652735710144043,0.6436207294464111,-0.41921937465667725
1773258209946708200,9.910708251953125,-0.31274259090423584,0.6490638256072998,-0.4246514141559601
1773258209956723200,9.92072314453125,-0.33559784293174744,0.6280485391616821,-0.4300440549850464
1773258209966739200,9.9307392578125,-0.359629362821579,0.5885438323020935,-0.442608118057251
1773258209976754200,9.940754150390624,-0.3752717077732086,0.5672774314880371,-0.42825472354888916
1773258209986770200,9.950770263671876,-0.36349478363990784,0.5721946358680725,-0.3853159546852112
1773258209996785200,9.96078515625,-0.3308159410953522,0.5459142923355103,-0.3387244939804077
1773258210006800100,9.970800048828124,-0.31229838728904724,0.43674352765083313,-0.29850611090660095
1773258210016816000,9.980816162109376,-0.2985559403896332,0.3343886733055115,-0.26621901988983154
1773258210026831000,9.9908310546875,-0.2623448073863983,0.25241026282310486,-0.22596746683120728
1773258210036847000,10.00084716796875,-0.22693783044815063,0.15072840452194214,-0.17005279660224915
1773258210046862000,10.010862060546875,-0.2126520425081253,0.04513213783502579,-0.12352379411458969
1773258210056877000,10.020876953125,-0.21178412437438965,-0.024444540962576866,-0.09296374768018723
1773258210066893000,10.03089306640625,-0.21676751971244812,-0.11758092045783997,-0.060561403632164
1773258210076908000,10.040907958984375,-0.2347867339849472,-0.23086139559745789,-0.03762093558907509
1773258210086924300,10.05092431640625,-0.23922574520111084,-0.25954651832580566,-0.04430799186229706
1773258210096939000,10.06093896484375,-0.2204030454158783,-0.20917175710201263,-0.04337188974022865
1773258210106955300,10.070955322265625,-0.1950453221797943,-0.1865844428539276,-0.02921697124838829
1773258210116970200,10.08097021484375,-0.17100070416927338,-0.16252011060714722,-0.02765662595629692
1773258210126985200,10.090985107421876,-0.15343382954597473,-0.09836647659540176,-0.05594348534941673
1773258210137001200,10.101001220703125,-0.1421545296907425,-0.030493687838315964,-0.09139575064182281
1773258210147016200,10.11101611328125,-0.12224794179201126,0.01837771385908127,-0.12658382952213287
1773258210157032200,10.1210322265625,-0.10418158769607544,0.09353478252887726,-0.15305590629577637
1773258210167047200,10.131047119140625,-0.10267046838998795,0.1914277970790863,-0.17098616063594818
1773258210177062400,10.1410625,-0.12319011986255646,0.2599312365055084,-0.1795186549425125
1773258210187078100,10.151078125,-0.1571454107761383,0.3129025399684906,-0.19522444903850555
1773258210197093400,10.16109326171875,-0.1888205111026764,0.346273273229599,-0.19559170305728912
1773258210207109000,10.171109130859374,-0.20687143504619598,0.3552676737308502,-0.193583682179451
1773258210217124000,10.1811240234375,-0.19752268493175507,0.36679649353027344,-0.1765836626291275
1773258210227140000,10.19114013671875,-0.1696823686361313,0.3961905539035797,-0.1493586003780365
1773258210237155000,10.201155029296874,-0.12476895749568939,0.48594680428504944,-0.12134800851345062
1773258210247170300,10.21117041015625,-0.05928106978535652,0.5664189457893372,-0.1050398200750351
1773258210257186000,10.22118603515625,0.011201083660125732,0.6146716475486755,-0.10218970477581024
1773258210267201300,10.231201171875,0.06968467682600021,0.5850739479064941,-0.11478598415851593
1773258210277217000,10.241217041015625,0.11496960371732712,0.5178014039993286,-0.13268454372882843
1773258210287232300,10.251232177734375,0.14198175072669983,0.4271951913833618,-0.14803075790405273
1773258210297247200,10.261247314453126,0.13789592683315277,0.3038588762283325,-0.15753372013568878
1773258210307263200,10.27126318359375,0.11000382900238037,0.20045582950115204,-0.16891759634017944
1773258210317278200,10.2812783203125,0.06719617545604706,0.12870439887046814,-0.17887967824935913
1773258210327294200,10.291294189453126,0.028081176802515984,0.1092565655708313,-0.17624817788600922
1773258210337309200,10.30130908203125,0.014607710763812065,0.1261442005634308,-0.15095479786396027
1773258210347325200,10.3113251953125,0.010525351390242577,0.1479480266571045,-0.10388316959142685
1773258210357340200,10.321340087890626,-0.013156542554497719,0.15191134810447693,-0.049887582659721375
1773258210367355100,10.331355224609375,-0.0273316390812397,0.1305110603570938,0.0024559469893574715
1773258210377371400,10.341371337890624,-0.0963786169886589,0.07486245036125183,-0.007622786331921816
1773258210387386400,10.351386474609376,-0.2899359166622162,0.2642228305339813,0.0430879108607769
1773258210397402400,10.36140234375,-0.44695401191711426,0.34583088755607605,0.19751237332820892
1773258210407417300,10.371417236328124,-0.4978330135345459,0.25961753726005554,0.23627780377864838
1773258210417432300,10.381432373046875,-0.44802045822143555,0.20346982777118683,0.2583466172218323
1773258210427448300,10.3914482421875,-0.34490254521369934,0.19902421534061432,0.29157090187072754
1773258210437463300,10.40146337890625,-0.27488937973976135,0.17489545047283173,0.34214672446250916
1773258210447479300,10.411479248046875,-0.19445748627185822,0.03639375790953636,0.327336847782135
1773258210457494300,10.421494384765625,-0.12163255363702774,-0.03831003978848457,0.25805923342704773
1773258210467510300,10.43151025390625,-0.06655092537403107,-0.03815663978457451,0.21132129430770874
1773258210477525200,10.441525146484375,0.0032318851444870234,-0.03027661330997944,0.19005009531974792
1773258210487540200,10.451540283203125,0.07766419649124146,-0.004483282566070557,0.1509702503681183
1773258210497556200,10.46155615234375,0.12501253187656403,0.07726244628429413,0.10588319599628448
1773258210507571200,10.4715712890625,0.08654981106519699,0.23737384378910065,0.04447397217154503
1773258210517587200,10.481587158203125,0.02485768496990204,0.3776918053627014,0.028007909655570984
1773258210527602200,10.491602294921876,0.007788064889609814,0.4005357027053833,-0.02665385976433754
1773258210537617200,10.5016171875,0.042310621589422226,0.4252104163169861,-0.07681183516979218
1773258210547633200,10.511633056640624,0.06187138706445694,0.41992390155792236,-0.06700894981622696
1773258210557648100,10.521648193359376,0.03326956927776337,0.37639108300209045,-0.043820809572935104
1773258210567664000,10.5316640625,0.006820583716034889,0.2984042763710022,-0.023253783583641052
1773258210577679000,10.54167919921875,0.007217660546302795,0.21852728724479675,0.007253527175635099
1773258210587695000,10.551695068359376,-0.010566684417426586,0.18174533545970917,0.05718014016747475
1773258210597710000,10.5617099609375,-0.04881446808576584,0.18226198852062225,0.13082773983478546
1773258210607725000,10.57172509765625,-0.08661460131406784,0.18718913197517395,0.1948738992214203
1773258210617741000,10.581740966796875,-0.11539725214242935,0.20980122685432434,0.23324978351593018
1773258210627756000,10.591756103515625,-0.14743758738040924,0.25686654448509216,0.2609225809574127
1773258210637772300,10.601772216796874,-0.17213387787342072,0.28567662835121155,0.28183746337890625
1773258210647787000,10.611787109375,-0.1843337118625641,0.25676262378692627,0.27734455466270447
1773258210657803300,10.62180322265625,-0.17424458265304565,0.22616395354270935,0.2512924373149872
1773258210667818200,10.631818359375,-0.15677571296691895,0.19462330639362335,0.21689309179782867
1773258210677833200,10.641833251953125,-0.1375918984413147,0.16951261460781097,0.19754815101623535
1773258210687849200,10.65184912109375,-0.1109500378370285,0.1522820144891739,0.18605990707874298
1773258210697864200,10.6618642578125,-0.07569697499275208,0.13788922131061554,0.16582253575325012
1773258210707880200,10.671880126953125,-0.03816000744700432,0.12633635103702545,0.12451812624931335
1773258210717895200,10.681895263671874,0.004049763549119234,0.12399357557296753,0.06697706878185272
1773258210727910400,10.691910400390626,0.0354936420917511,0.14374013245105743,0.009801977314054966
1773258210737926100,10.701926025390625,0.06112043932080269,0.1957319676876068,-0.03678123652935028
1773258210747941400,10.71194140625,0.08015404641628265,0.23960381746292114,-0.07589588314294815
1773258210757957000,10.72195703125,0.08756642788648605,0.2432456910610199,-0.12212435901165009
1773258210767972400,10.731972412109375,0.09600234776735306,0.22125884890556335,-0.1586095243692398
1773258210777988000,10.741988037109374,0.09811343252658844,0.1910029500722885,-0.17247925698757172
1773258210788003300,10.75200341796875,0.10031414031982422,0.17039550840854645,-0.16548821330070496
1773258210798018300,10.762018310546875,0.10585004836320877,0.10807354003190994,-0.17275597155094147
1773258210808034300,10.772034423828124,0.12078669667243958,0.13251438736915588,-0.17393536865711212
1773258210818049300,10.78204931640625,0.12541048228740692,0.13823086023330688,-0.15742376446723938
1773258210828065300,10.792065185546875,0.13624142110347748,0.0965065285563469,-0.1355752795934677
1773258210838080300,10.802080322265626,0.12964051961898804,0.08573484420776367,-0.13085722923278809
1773258210848096300,10.81209619140625,0.1091979518532753,0.10981296002864838,-0.12987753748893738
1773258210858111200,10.822111328125,0.0861019566655159,0.09562043845653534,-0.14207962155342102
1773258210868126200,10.832126220703126,0.05192238837480545,0.11168160289525986,-0.16954249143600464
1773258210878142200,10.84214208984375,0.009704096242785454,0.16686470806598663,-0.1872599571943283
1773258210888157200,10.8521572265625,0.0018760696984827518,0.1681060492992401,-0.2102830410003662
1773258210898173200,10.862173095703126,0.021806634962558746,0.14712965488433838,-0.27913373708724976
1773258210908188200,10.872188232421875,0.03654356673359871,0.1112227588891983,-0.40806275606155396
1773258210918204400,10.882204345703125,-0.015627490356564522,0.11320921033620834,-0.5754477381706238
1773258210928219100,10.89221923828125,-0.01913607120513916,0.24496889114379883,-0.6097353100776672
1773258210938235400,10.9022353515625,-0.016585562378168106,0.11309581249952316,-0.6848146319389343
1773258210948250000,10.91225,-0.014390630647540092,0.0441686175763607,-0.8433742523193359
1773258210958265000,10.92226513671875,-0.046593572944402695,0.1248709186911583,-0.8599558472633362
1773258210968281300,10.93228125,-0.09086809307336807,0.2884937822818756,-0.6847814917564392
1773258210978296300,10.94229638671875,-0.0996573269367218,0.3755703568458557,-0.5254166126251221
1773258210988312300,10.952312255859376,-0.12059783190488815,0.28062939643859863,-0.5086233019828796
1773258210998327300,10.962327392578125,-0.24195168912410736,0.1369244009256363,-0.571128249168396
1773258211008343300,10.97234326171875,-0.45302140712738037,0.004976664669811726,-0.6329614520072937
1773258211018358300,10.982358154296875,-0.7151970863342285,-0.06767702847719193,-0.7010380029678345
1773258211028373200,10.992373291015625,-0.9265902042388916,0.04093317314982414,-0.6534255146980286
1773258211038389200,11.00238916015625,-1.0404362678527832,0.2344973087310791,-0.5113924741744995
1773258211048404200,11.012404296875,-1.0410006046295166,0.4121250808238983,-0.3601369857788086
1773258211058420200,11.022420166015625,-0.9864364266395569,0.45307862758636475,-0.31218674778938293
1773258211068435200,11.032435302734376,-0.934505045413971,0.3615279495716095,-0.3631894886493683
1773258211078451200,11.042451171875,-0.9037114381790161,0.2811044752597809,-0.4365888833999634
1773258211088466200,11.052466064453125,-0.8984450101852417,0.2701413929462433,-0.46996721625328064
1773258211098482200,11.062482177734376,-0.9019923210144043,0.32628586888313293,-0.4628656208515167
1773258211108497200,11.0724970703125,-0.9265767931938171,0.3797086179256439,-0.42386487126350403
1773258211118512000,11.08251220703125,-0.9452705383300781,0.33394911885261536,-0.3344748020172119
1773258211128528100,11.092528076171876,-0.971528172492981,0.16319076716899872,-0.22528594732284546
1773258211138543000,11.102543212890625,-1.0244262218475342,-0.025464622303843498,-0.1396663784980774
1773258211148559000,11.11255908203125,-1.0783137083053589,-0.2210046947002411,-0.12074754387140274
1773258211158574000,11.122573974609375,-1.1091477870941162,-0.25470301508903503,-0.11336126923561096
1773258211168590000,11.132590087890625,-1.080384373664856,-0.20924949645996094,-0.0936267077922821
1773258211178605000,11.14260498046875,-1.01104736328125,-0.11733449250459671,-0.09620465338230133
1773258211188620000,11.1526201171875,-0.9238595366477966,0.022835608571767807,-0.10032491385936737
1773258211198636000,11.162635986328125,-0.810339093208313,0.057729944586753845,-0.10661822557449341
1773258211208651000,11.172651123046874,-0.6745364665985107,0.021479342132806778,-0.13328832387924194
1773258211218667300,11.182667236328125,-0.5428985953330994,-0.029427513480186462,-0.14348769187927246
1773258211228682200,11.19268212890625,-0.4101641774177551,-0.036796484142541885,-0.12092456966638565
1773258211238698200,11.2026982421875,-0.2765941619873047,-0.042505767196416855,-0.05431092157959938
1773258211248713200,11.212713134765625,-0.15380558371543884,-0.11787250638008118,0.021496009081602097
1773258211258728200,11.222728271484375,-0.04011816158890724,-0.1528770923614502,0.10260177403688431
1773258211268744200,11.232744140625,0.07483328133821487,-0.0945030003786087,0.22848811745643616
1773258211278759200,11.24275927734375,0.21347211301326752,-0.10935172438621521,0.354093462228775
1773258211288775200,11.252775146484375,0.37290969491004944,-0.24206234514713287,0.41221141815185547
1773258211298790100,11.2627900390625,0.5218640565872192,-0.4326850175857544,0.42335009574890137
1773258211308806100,11.27280615234375,0.6264703273773193,-0.6066129207611084,0.4230850040912628
1773258211318821000,11.282821044921874,0.6697866320610046,-0.7175500988960266,0.4180433750152588
1773258211328837000,11.292837158203126,0.6581518054008484,-0.6789941787719727,0.43958088755607605
1773258211338852000,11.30285205078125,0.622167706489563,-0.6773933172225952,0.43801894783973694
1773258211348867000,11.3128671875,0.5880359411239624,-0.7174054384231567,0.44678378105163574
1773258211358883000,11.322883056640626,0.5498611330986023,-0.7833591103553772,0.4279800057411194
1773258211368898000,11.33289794921875,0.5236405730247498,-0.8076624870300293,0.3578239977359772
1773258211378914000,11.3429140625,0.5208791494369507,-0.7548618912696838,0.2740097939968109
1773258211388929000,11.352928955078125,0.5329048037528992,-0.690803050994873,0.19620434939861298
1773258211398945000,11.362945068359375,0.5478584170341492,-0.6397513151168823,0.12038176506757736
1773258211408960000,11.3729599609375,0.5735166668891907,-0.5542181730270386,0.05978977680206299
1773258211418975200,11.382975341796875,0.6075885891914368,-0.4930674731731415,0.006756652146577835
1773258211428991000,11.392990966796875,0.6497503519058228,-0.43254780769348145,-0.05624924972653389
1773258211439006200,11.403006103515626,0.6921114325523376,-0.30632516741752625,-0.12523417174816132
1773258211449022000,11.41302197265625,0.712147057056427,-0.21576760709285736,-0.17762863636016846
1773258211459037200,11.423037109375,0.7100277543067932,-0.16289612650871277,-0.21851028501987457
1773258211469053200,11.43305322265625,0.6783365607261658,-0.11999455839395523,-0.26104894280433655
1773258211479068200,11.443068115234375,0.6029696464538574,-0.09298824518918991,-0.29447826743125916
1773258211489084200,11.453084228515625,0.5053988695144653,-0.04639933258295059,-0.3068724274635315
1773258211499099100,11.46309912109375,0.4031963348388672,0.036438822746276855,-0.29505279660224915
1773258211509114400,11.4731142578125,0.2988681495189667,0.06696714460849762,-0.2770879566669464
1773258211519130000,11.483130126953125,0.1959148496389389,0.09238595515489578,-0.2662510275840759
1773258211529145300,11.493145263671876,0.11763336509466171,0.17850369215011597,-0.27836376428604126
1773258211539161000,11.5031611328125,0.06368491053581238,0.2675485908985138,-0.2850664258003235
1773258211549176300,11.51317626953125,0.018233204260468483,0.3357059359550476,-0.2867940664291382
1773258211559192000,11.523192138671876,-0.022718755528330803,0.43399283289909363,-0.2793782353401184
1773258211569207300,11.533207275390625,-0.039738599210977554,0.5243857502937317,-0.25414013862609863
1773258211579222300,11.54322216796875,-0.02623690664768219,0.5512799024581909,-0.24348269402980804
1773258211589238300,11.55323828125,0.0027937956620007753,0.5508407354354858,-0.2459218055009842
1773258211599253200,11.563253173828125,0.03560047969222069,0.5294443964958191,-0.23618289828300476
1773258211609269200,11.573269287109374,0.06118440255522728,0.5047889947891235,-0.21806080639362335
1773258211619284200,11.5832841796875,0.08245506882667542,0.46323248744010925,-0.21795028448104858
1773258211629300200,11.59330029296875,0.10302865505218506,0.4027058184146881,-0.2543819546699524
1773258211639315200,11.603315185546874,0.11974664777517319,0.38686320185661316,-0.287099152803421
1773258211649330200,11.613330078125,0.13886138796806335,0.38820016384124756,-0.2932293713092804
1773258211659346200,11.62334619140625,0.16465117037296295,0.3956626057624817,-0.3049156069755554
1773258211669361200,11.633361083984376,0.19380278885364532,0.4217401146888733,-0.33420541882514954
1773258211679377200,11.643377197265625,0.21347609162330627,0.48608314990997314,-0.37818700075149536
1773258211689392000,11.65339208984375,0.24613359570503235,0.5709949135780334,-0.4175739288330078
1773258211699408100,11.663408203125,0.2876426875591278,0.6131652593612671,-0.4510224163532257
1773258211709423000,11.673423095703125,0.3329560458660126,0.6140065789222717,-0.49040815234184265
1773258211719438000,11.68343798828125,0.3833441138267517,0.6187467575073242,-0.5321792960166931
1773258211729454300,11.693454345703126,0.42777836322784424,0.6080619096755981,-0.5532664656639099
1773258211739469000,11.703468994140625,0.46723681688308716,0.5647799372673035,-0.5645617246627808
1773258211749485300,11.7134853515625,0.5002025365829468,0.5167823433876038,-0.5750466585159302
1773258211759500300,11.723500244140626,0.5120802521705627,0.4766243100166321,-0.5780360698699951
1773258211769516300,11.733516357421875,0.49588724970817566,0.4325019419193268,-0.5641472935676575
1773258211779531300,11.74353125,0.4752240478992462,0.4028966426849365,-0.5331587195396423
1773258211789546200,11.753546142578125,0.4459199011325836,0.40913859009742737,-0.4787995219230652
1773258211799562200,11.763562255859375,0.4115304946899414,0.4048578143119812,-0.4027388393878937
1773258211809577200,11.7735771484375,0.37845855951309204,0.3558725416660309,-0.3234291672706604
1773258211819593200,11.78359326171875,0.3581136167049408,0.3089543282985687,-0.25107747316360474
1773258211829608200,11.793608154296875,0.3451348543167114,0.19529174268245697,-0.17657029628753662
1773258211839624200,11.803624267578124,0.3390974700450897,0.037013694643974304,-0.09403413534164429
1773258211849639200,11.81363916015625,0.32413968443870544,-0.08995325863361359,-0.025078684091567993
1773258211859655200,11.8236552734375,0.30029481649398804,-0.16086338460445404,0.018942303955554962
1773258211869670100,11.833670166015626,0.2825228273868561,-0.1502014398574829,0.04891509935259819
1773258211879685000,11.84368505859375,0.2550757825374603,-0.12746204435825348,0.059223394840955734
1773258211889701000,11.853701171875,0.20753782987594604,-0.1204385980963707,0.05699548497796059
1773258211899716000,11.863716064453126,0.1468244045972824,-0.03260408341884613,0.06446617841720581
1773258211909732000,11.873732177734375,0.0764874517917633,0.05312272906303406,0.07145410031080246
1773258211919747000,11.8837470703125,0.013063210994005203,0.09086105227470398,0.0760994553565979
1773258211929763300,11.893763427734376,-0.03129107132554054,0.07504821568727493,0.05689796805381775
1773258211939778300,11.9037783203125,-0.03862408548593521,0.0327172726392746,0.023767711594700813
1773258211949793300,11.913793212890624,-0.013657216913998127,-0.019728627055883408,-0.01560153253376484
1773258211959809300,11.923809326171876,0.020671460777521133,-0.026444319635629654,-0.05334864556789398
1773258211969824300,11.93382421875,0.047757141292095184,-0.014135723002254963,-0.06786846369504929
1773258211979840300,11.94384033203125,0.056485388427972794,0.003786286571994424,-0.057220615446567535
1773258211989855200,11.953855224609375,0.052813440561294556,0.054354630410671234,-0.05575568228960037
1773258211999871200,11.963871337890625,0.04376614838838577,0.15441091358661652,-0.058357592672109604
1773258212009886200,11.97388623046875,0.02535887062549591,0.20214931666851044,-0.0537840873003006
1773258212019901200,11.983901123046875,0.01368517056107521,0.16451138257980347,-0.034762192517519
1773258212029917200,11.993917236328125,0.006283667404204607,0.11834857612848282,-0.02199413999915123
1773258212039932200,12.00393212890625,0.00020233960822224617,0.06634582579135895,0.00023207045160233974
1773258212049948200,12.0139482421875,0.003996612504124641,0.0038079647347331047,0.03617183119058609
1773258212059963100,12.023963134765625,0.021421141922473907,-0.04825577139854431,0.056857671588659286
1773258212069978000,12.03397802734375,0.04593316465616226,-0.09003903716802597,0.04071120172739029
1773258212079994400,12.043994384765625,0.07031334191560745,-0.12016205489635468,0.015035133808851242
1773258212090009000,12.054009033203124,0.10608560591936111,-0.15042975544929504,-0.005670040845870972
1773258212100025300,12.064025390625,0.12944205105304718,-0.19592958688735962,-0.03140762820839882
1773258212110040300,12.074040283203125,0.14443238079547882,-0.18265517055988312,-0.06328669935464859
1773258212120056300,12.084056396484375,0.16110163927078247,-0.11843304336071014,-0.09482758492231369
1773258212130071300,12.0940712890625,0.17420989274978638,-0.07731298357248306,-0.12475713342428207
1773258212140086500,12.10408642578125,0.17479978501796722,-0.048757776618003845,-0.15231925249099731
1773258212150102300,12.114102294921874,0.18286015093326569,-0.04748094826936722,-0.16671767830848694
1773258212160117500,12.124117431640625,0.19898240268230438,-0.09358825534582138,-0.17056888341903687
1773258212170133200,12.13413330078125,0.19784826040267944,-0.12955549359321594,-0.1743277758359909
1773258212180148500,12.1441484375,0.1791190505027771,-0.1758529543876648,-0.16429857909679413
1773258212190164200,12.154164306640626,0.16155731678009033,-0.2607855200767517,-0.1441067010164261
1773258212200179500,12.164179443359375,0.1732318252325058,-0.32501325011253357,-0.11960694938898087
1773258212210194400,12.1741943359375,0.1833501011133194,-0.4257126450538635,-0.09937509149312973
1773258212220210400,12.18421044921875,0.1926727592945099,-0.5159624218940735,-0.09121330082416534
1773258212230225400,12.194225341796875,0.22949835658073425,-0.636074960231781,-0.10770487785339355
1773258212240241400,12.204241455078124,0.27818867564201355,-0.7414735555648804,-0.12535737454891205
1773258212250256400,12.21425634765625,0.3576781153678894,-0.9269540905952454,-0.11660715192556381
1773258212260272400,12.2242724609375,0.4216850697994232,-1.161882758140564,-0.09406189620494843
1773258212270287400,12.234287353515626,0.48772603273391724,-1.329592227935791,-0.0668346956372261
1773258212280302300,12.24430224609375,0.5811728835105896,-1.4450253248214722,-0.056488849222660065
1773258212290318300,12.254318359375,0.6605431437492371,-1.5387376546859741,-0.08342179656028748
1773258212300333300,12.264333251953126,0.7496010661125183,-1.595154881477356,-0.12824545800685883
1773258212310349300,12.274349365234375,0.829992413520813,-1.5992958545684814,-0.13876791298389435
1773258212320364300,12.2843642578125,0.8906419277191162,-1.6485224962234497,-0.10924172401428223
1773258212330380500,12.294380615234376,0.9617127776145935,-1.800943374633789,-0.06860469281673431
1773258212340395300,12.304395263671875,1.0273562669754028,-1.9467618465423584,-0.03728298842906952
1773258212350410200,12.31441015625,1.0813026428222656,-2.013667583465576,-0.010151342488825321
1773258212360426500,12.324426513671876,1.1412546634674072,-2.0804054737091064,0.03296603262424469
1773258212370441500,12.33444140625,1.2338693141937256,-2.1091978549957275,0.08361206948757172
1773258212380457500,12.34445751953125,1.3741209506988525,-2.0445570945739746,0.15989406406879425
1773258212390472400,12.354472412109375,1.5623623132705688,-1.9885321855545044,0.23802652955055237
1773258212400488400,12.364488525390625,1.8029526472091675,-1.924757957458496,0.293497771024704
1773258212410503400,12.37450341796875,2.111584424972534,-1.7708380222320557,0.37392866611480713
1773258212420518400,12.384518310546875,2.4557838439941406,-1.54083251953125,0.4695635735988617
1773258212430534400,12.394534423828125,2.7792861461639404,-1.314318299293518,0.5801352262496948
1773258212440549400,12.40454931640625,3.0549044609069824,-1.0761544704437256,0.7168667316436768
1773258212450565400,12.4145654296875,3.264310598373413,-0.8060302734375,0.8715643882751465
1773258212460580400,12.424580322265625,3.3678605556488037,-0.537645161151886,1.0086109638214111
1773258212470596400,12.434596435546876,3.4025819301605225,-0.320208877325058,1.1146942377090454
1773258212480611300,12.444611328125,3.367936849594116,-0.0897011011838913,1.2408982515335083
1773258212490626300,12.454626220703124,3.3073530197143555,0.18279294669628143,1.4505575895309448
1773258212500642300,12.464642333984376,3.2356719970703125,0.36954179406166077,1.7035589218139648
1773258212510657300,12.4746572265625,3.179431200027466,0.3887004554271698,1.9309829473495483
