time,seconds_elapsed,z,y,x
1773258211437438500,0.0654384765625,-0.515220974445343,-0.10433803409188985,0.18409575367867945
1773258211447450400,0.075450439453125,-0.5669605140328406,-0.06911036110520362,0.1677170119382441
1773258211457462300,0.085462158203125,-0.5637187556326388,-0.06486293279379605,0.099903704906255
1773258211467474400,0.095474365234375,-0.5795926165908575,-0.09091390437334776,0.0070588324703276155
1773258211477486300,0.105486328125,-0.5971791266858577,-0.14634557647705076,-0.09520137243419885
1773258211487499500,0.11549951171875,-0.6036322483479977,-0.15220248581171034,-0.15073621265143156
1773258211497511400,0.125511474609375,-0.5640753139853477,-0.10224398442208767,-0.15047887688949704
1773258211507523300,0.1355234375,-0.5166869553446769,-0.038787995816767215,-0.07466799523234367
1773258211517535500,0.145535400390625,-0.4925631524354219,0.006012976679205894,0.03491699960231781
1773258211527547400,0.15554736328125,-0.4650321714311838,0.07984569013118743,0.09069938483983278
1773258211537559600,0.1655595703125,-0.510263644298911,0.1974371735498309,0.00599310293495655
1773258211547571500,0.175571533203125,-0.5380892243355512,0.015386661963164806,0.229599029225111
1773258211557583400,0.185583251953125,-0.4384229814469814,-0.06720481974482535,0.23063640944883226
1773258211567595500,0.195595458984375,-0.2935954083174467,-0.09331599707901478,0.22471432592347262
1773258211577608400,0.2056083984375,-0.22469605961441994,-0.14841244587898253,0.19008564174324272
1773258211587620600,0.21562060546875,-0.2474059040725231,-0.053827451777458186,0.17856369238421319
1773258211597632500,0.225632568359375,-0.3385831355571747,0.3067185092628002,0.013400018190592526
1773258211607644400,0.23564453125,-0.5033212778151035,0.22959376852810381,0.3325723508350551
1773258211617656600,0.245656494140625,-0.6158575236707925,0.09193769446313381,0.6180578101940453
1773258211627668500,0.25566845703125,-0.6562777968645096,0.059631754142045974,0.6425834719024598
1773258211637680400,0.265680419921875,-0.6041144789069891,0.2871656675308943,0.5369447304755449
1773258211647692500,0.275692626953125,-0.5955775367081165,0.4659247363567352,0.4146194965332746
1773258211657704400,0.285704345703125,-0.6156663850128651,0.35318156975209714,0.4337703333355486
1773258211667716600,0.295716552734375,-0.5904711534798145,0.10465279912948608,0.5942552020631731
1773258211677729300,0.305729248046875,-0.5409533815950155,-0.07331950323283672,0.8507100895099341
1773258211687741400,0.315741455078125,-0.6338011766403913,-0.15456336972415446,1.1229055669240653
1773258211697753300,0.32575341796875,-0.8639595933139324,-0.1556079103410244,1.3727873595908284
1773258211707765200,0.33576513671875,-1.1192150418430566,-0.04840776481628418,1.463592396762222
1773258211717777400,0.34577734375,-1.1959849777907132,0.01766132889688015,1.3081668572507799
1773258211727789300,0.355789306640625,-1.1055559343248604,0.4629010046213865,0.8827126629702746
1773258211737801200,0.36580126953125,-0.9147054456889628,0.9171627757132053,0.3242836843088269
1773258211747813400,0.3758134765625,-0.5036158768475055,0.9346323814302683,-0.14508622406572103
1773258211757825300,0.3858251953125,0.026939444851875303,0.7952817784070968,-0.5181237101495265
1773258211767838500,0.39583837890625,0.459951507166028,0.9055886577755212,-0.7451125568762421
1773258211777850400,0.405850341796875,0.6482762767165899,1.0417378344088792,-0.6811191003933549
1773258211787862300,0.4158623046875,0.7618629084080457,1.1512748984485863,-0.7514502354651689
1773258211797874400,0.42587451171875,1.0199527035802602,1.2782535111546516,-1.0432605139315128
1773258211807886300,0.43588623046875,1.092318851611018,1.5465180788606405,-0.9849839737907051
1773258211817898500,0.4458984375,0.830884422186017,2.9615199015855787,-0.5301224832400679
1773258211827910400,0.455910400390625,0.4304945265352726,2.0274504147350787,-0.789216487018764
1773258211837922300,0.46592236328125,0.34164719930291176,1.093083990764618,-1.1468006756439804
1773258211847934500,0.4759345703125,0.6712988403856754,0.909397402408719,-0.9973767146348953
1773258211857946400,0.4859462890625,0.9465122043162584,0.5987970832765102,-1.3104475155338644
1773258211867959600,0.49595947265625,1.2858464505016802,0.36639877872169013,-1.5516355680048466
1773258211877971500,0.505971435546875,2.4074013334691524,-0.23044541692137716,0.36269437124580145
1773258211887983400,0.5159833984375,2.4104320794671774,-0.16328385179638863,1.4556705177217721
1773258211897995500,0.52599560546875,2.7089088300853965,1.3836258567303419,0.5886661498844623
1773258211908007400,0.53600732421875,3.614901977008581,3.193283999890089,1.422730955672264
1773258211918019300,0.546019287109375,3.57558937279582,2.7890853596061467,0.4452656869485974
1773258211928031500,0.556031494140625,3.148506700530648,2.5463953781396147,-0.6194456112906337
1773258211938043400,0.56604345703125,1.7906529984384774,2.3715876772880553,-1.6366475548580288
1773258211948055600,0.5760556640625,0.19748715017139912,1.6142828705757855,-2.945788371707499
1773258211958067500,0.5860673828125,-0.7834522244036197,1.0266074852943419,-3.4573531617328523
1773258211968080600,0.59608056640625,-0.7293424485534429,0.32190497247874733,-3.169330877372622
1773258211978092500,0.606092529296875,-0.028048282876610754,-0.48671325736343857,-2.96853007260859
1773258211988104400,0.6161044921875,0.9846084184765815,-1.6168448300182818,-3.7445021703898904
1773258211998116600,0.62611669921875,1.8654186088263986,-5.176826299315691,-6.798986186876893
1773258212008128500,0.63612841796875,1.8582383419334887,-5.842573350793123,-6.934112450203299
1773258212018140400,0.646140380859375,1.5621499477565288,-1.830904344806075,-2.11156925214082
1773258212028152600,0.656152587890625,0.9065069416642189,0.8182780385911465,0.0786991504445672
1773258212038164500,0.66616455078125,0.8668202434420585,0.8255138350635767,1.0374652716562152
1773258212048176400,0.67617626953125,0.8462164313524961,-0.036945290559530254,1.1057204772368072
1773258212058188500,0.6861884765625,0.04282850337922573,-0.426045730432868,0.5024564776793122
1773258212068201200,0.696201171875,-1.0065402642995118,-0.8677204071521758,-0.0348420346699655
1773258212078213400,0.70621337890625,-1.8607967942446468,-1.475188288140297,-0.0877946033090353
1773258212088225300,0.716225341796875,-2.219965037190914,-1.8617174162209034,-0.05994944178909063
1773258212098237400,0.726237548828125,-2.3632763605386016,-1.6550065106302498,-0.07761325490400195
1773258212108249300,0.736249267578125,-2.3457699299424886,-1.0749094516485929,0.2251386888153851
1773258212118261200,0.74626123046875,-2.070285347855091,-0.37126141632199283,0.48878889459371566
1773258212128273400,0.7562734375,-1.768042522701621,0.2534703186780214,0.7823097763702273
1773258212138285300,0.766285400390625,-1.677214835307002,0.41386546329557894,1.1077663038507104
1773258212148297200,0.776297119140625,-1.9598317534923553,0.03526829725801944,1.6497811771973967
1773258212158310400,0.786310302734375,-2.0528870538085697,0.1061111812442541,0.9381159857623279
1773258212168322300,0.796322265625,-1.59127901160717,0.04782207388281822,0.1865364248290658
1773258212178334500,0.80633447265625,-0.8109691768825054,-0.2507394324094057,-0.08445552201420069
1773258212188346400,0.816346435546875,-0.2662766087591648,-0.005770400094985962,-0.052511546873301264
1773258212198358300,0.826358154296875,0.1103723458200693,0.585613776576519,0.7022416756600142
1773258212208370400,0.836370361328125,0.07424070973098278,0.6457791992038489,1.2497851031698286
1773258212218382300,0.84638232421875,-0.0035299276918172836,0.443761419865489,1.2234779648721217
1773258212228394500,0.85639453125,-0.17425240505635736,0.08680851488113403,1.116087776667997
1773258212238406400,0.866406494140625,-0.43395372707843777,0.15700316409170625,0.6555423221968114
1773258212248418300,0.876418212890625,-1.0346148506611585,0.2527227151811123,0.7514638255991041
1773258212258431500,0.886431396484375,-1.3668892414629459,0.8164408862918615,0.012402385455369948
1773258212268443400,0.896443359375,-1.5705805069714784,0.884620688548684,-0.028464170201122758
1773258212278455600,0.90645556640625,-1.2446914332926273,0.8933990382879972,0.29548348708637057
1773258212288467500,0.916467529296875,-0.5854115320026875,1.0626531966656445,0.24998517997600136
1773258212298479400,0.926479248046875,-0.3880915550917387,1.1849077034592628,0.16806746934372932
1773258212308491500,0.936491455078125,-0.465068996310234,1.2499784337848425,0.11173026323504745
1773258212318503400,0.94650341796875,-0.41646307857334613,1.3688953205883503,-0.004169339840207249
1773258212328515300,0.956515380859375,-0.2089718362599611,1.4456097269564867,-0.001228628479503095
1773258212338527500,0.966527587890625,0.12801613906025885,1.3693401417464017,0.06552951607690193
1773258212348539400,0.976539306640625,0.3228349468052387,1.2192898655325173,-0.004684235126362182
1773258212358552600,0.986552490234375,0.23363982904851435,1.3435305777072906,-0.0559079569790978
1773258212368564500,0.996564453125,0.7454527486160397,1.375816644284129,0.0918146252058912
1773258212378576600,1.00657666015625,1.3320336166590452,1.5078092857599257,0.32059451093468816
1773258212388588500,1.016588623046875,1.3426584710478782,1.8727274705350399,0.5958073268759996
1773258212398600400,1.026600341796875,0.968600117483735,1.7527993608623742,1.3062006717443466
1773258212408612600,1.036612548828125,0.7048056809291243,1.642171578976512,1.0665151327908038
1773258212418624500,1.04662451171875,0.11752514018416405,0.9681669867634772,0.41656178970746693
1773258212428636400,1.056636474609375,-0.11788520566821098,-0.16086919187009333,-0.5918962909121066
1773258212438648600,1.066648681640625,-0.5169698639392852,-0.747913878032565,-1.5358628293335437
1773258212448660500,1.076660400390625,-0.35792204227745533,-0.937689430913329,-1.424489489777386
1773258212458673400,1.08667333984375,0.28351357476413247,-0.8872972142815589,-0.9819251707419753
1773258212468685300,1.096685302734375,0.6785328832924366,-0.5506593675732613,-0.3491093884097412
1773258212478697200,1.106697265625,0.5779767058268189,-0.06358487568199635,0.17020579654667525
1773258212488709400,1.11670947265625,0.49936815627515313,0.9228314689993857,0.8666993204761296
1773258212498721300,1.12672119140625,0.4711506543114781,1.6589438500791787,1.3424540345169602
1773258212508733400,1.1367333984375,0.3687450495868921,1.4495336224019526,1.2146456199232487
1773258212518745300,1.146745361328125,-0.06552373479008675,1.2238766088008879,0.9905356165684759
1773258212528757200,1.15675732421875,-0.4204278905510902,1.2271370719015597,0.7905849258277565
1773258212538769400,1.166769287109375,-0.9244348125427961,-0.19947510911822317,-0.13143564691385254
1773258212548781300,1.17678125,-0.5905439264550805,-2.9589339767456053,-2.0410367492780086
1773258212558794500,1.18679443359375,0.003144435505568981,-2.1511580429464576,-1.6061626924842596
1773258212568806400,1.196806396484375,0.24695699126124382,-0.41241760257482524,-0.5807673959912731
1773258212578818300,1.206818359375,0.6730734488427639,0.4399602740168571,0.05610007288455963
1773258212588830500,1.21683056640625,1.114249820651114,0.7056985381156206,-0.11136727514155208
1773258212598842400,1.22684228515625,1.3469213891893626,0.01689092904627323,-0.6457126367736608
1773258212608854300,1.236854248046875,1.7398104076907037,-0.25387889947891235,-0.5283173335142434
1773258212618866400,1.246866455078125,2.3890546526566148,-0.6061228961199522,-0.7657102314859628
1773258212628878300,1.25687841796875,3.105727296990156,-2.7134114022016522,-2.3763597139954564
1773258212638890500,1.266890380859375,3.3394793542414902,-3.4679853226453066,-2.4035215694263576
1773258212648902400,1.27690234375,2.6292577857434747,-2.1964742714881895,-1.3426409353911877
1773258212658915600,1.28691552734375,1.8165408884108065,-0.7619628616511821,-0.4675408663164824
1773258212668927500,1.296927490234375,1.039149571481347,0.0771504596978426,0.25621128794923426
1773258212678939400,1.306939453125,0.0045651159584522245,0.3884305777877569,0.7106966386638581
1773258212688951600,1.31695166015625,-1.1959639350026845,0.8863561340391636,1.2645242610096932
1773258212698963500,1.32696337890625,-2.115118176794052,1.0386334386527538,1.270562518260628
1773258212708975400,1.336975341796875,-2.3225977286696433,0.787041773328185,0.8488326052002608
1773258212718987500,1.346987548828125,-2.108447612988949,0.5267033224463462,0.7002196683131158
1773258212728999400,1.35699951171875,-1.6785422845184803,0.42224341554045675,0.5440617228738963
1773258212739011300,1.36701123046875,-1.0777800386488436,0.4026987571150064,0.2621719499193132
1773258212749023500,1.3770234375,-0.4797007482528686,0.25330431446135043,-0.014674714301526545
1773258212759035400,1.387035400390625,-0.34368192000091075,0.6469938356906175,0.17007950328588484
1773258212769048600,1.397048583984375,-0.18104104228317736,0.6732984897702932,0.6634943041145801
1773258212779060500,1.407060546875,0.029255905100703236,0.8133236310541629,0.9843263866648078
1773258212789072600,1.41707275390625,0.15227379748225212,1.0789683716505765,1.0881089057657867
1773258212799084500,1.42708447265625,0.06530746169090271,1.273726389119029,1.144451774430275
1773258212809096400,1.437096435546875,-0.16879004799723624,1.3325982648044823,1.2387170350581407
1773258212819108600,1.447108642578125,-0.35051439636945725,1.250865153491497,1.1770921343374996
1773258212829120500,1.45712060546875,-0.2958306200236082,1.0510860929906367,0.9378259898398071
1773258212839132400,1.46713232421875,-0.2609709035664797,0.8571844000905752,0.6834587223220616
1773258212849143800,1.477143798828125,-0.4125210629492998,0.5287807132422924,0.4596037897069007
1773258212859156000,1.487156005859375,-0.6423661758899688,0.7716179942250251,0.2530249129980802
1773258212869168600,1.497168701171875,-0.8095797683507203,0.7698293572425842,-0.6452586824610829
1773258212879180500,1.5071806640625,-0.8471931674301624,0.3766524617105722,-0.8266711884051561
1773258212889192700,1.517192626953125,-1.091936574295163,0.33249183294475076,0.23658947263434527
1773258212899204600,1.52720458984375,-1.1528466778099535,1.2677443920999765,0.3165551358833909
1773258212909216800,1.537216796875,-1.4923258854240178,0.37198563894331454,-0.9023695495985448
1773258212919228700,1.547228759765625,-1.7537363494515419,-1.5178940419226883,-0.9044891721010208
1773258212929240600,1.557240478515625,-1.0954384449362755,-2.517582540631294,-1.465800428200513
1773258212939252700,1.567252685546875,-1.158478546217084,-2.736566067817807,-0.8074703749813139
1773258212949264600,1.5772646484375,-1.0977437992691994,-2.4442209518224,-1.1421709700167177
1773258212959276800,1.58727685546875,-1.1175742888987064,-2.2525416111469267,-2.255831300342083
1773258212969288700,1.597288818359375,-0.8849836766421795,-1.544152518773079,-2.489903675588965
1773258212979301600,1.607301513671875,0.03620762393474579,-1.4805080218583344,-2.476412325853109
1773258212989313800,1.617313720703125,1.0546002385914326,-1.5398118592202663,-1.894629505741596
1773258212999325700,1.62732568359375,4.288164810943603,-1.2135299868315457,-1.3659218577355146
1773258213009337600,1.637337646484375,5.3859430970042945,-0.5008469966560601,-0.11638766058683395
1773258213019349800,1.647349853515625,3.0999837849020957,1.4659294614076614,1.7550842569291591
1773258213029361700,1.657361572265625,1.9781115065485237,2.403179916381836,0.36038580204248427
1773258213039373800,1.667373779296875,0.32643326355814933,0.9920634106576443,-1.3722056141801178
1773258213049385700,1.6773857421875,-0.6714145757198333,-0.021471242573857307,-0.6902063699513673
1773258213059397600,1.687397705078125,-1.8220149359077213,-1.2061153266608715,-0.5945628067076206
1773258213069409800,1.697409912109375,-2.860157960695028,-2.136283714419603,-0.4797651917912066
1773258213079422700,1.707422607421875,-3.0287112773269413,-2.3028572554111477,-0.9904371976952999
1773258213089435000,1.717434814453125,-2.4028186818540096,-1.690426199057698,-1.5908096405297516
1773258213099446800,1.72744677734375,-1.500562967893481,-1.3353911103934049,-1.5965803328856825
1773258213109458700,1.737458740234375,-0.8574386671125889,-1.2480272997170685,-1.3914610804006458
1773258213119470800,1.747470947265625,-0.8704302506327628,-0.9355904128074646,-1.0783050123710185
1773258213129482800,1.757482666015625,-0.7907225076675415,-0.3853250129878521,0.09890683935601263
1773258213139495000,1.767494873046875,-0.010734744504094123,0.3000684037238359,1.1062396788053215
1773258213149506800,1.7775068359375,0.4984229843795299,-0.5800958899378776,1.4344881750918923
1773258213159518700,1.787518798828125,0.3428483917862177,-1.1831278343051672,0.6101008963728323
1773258213169531000,1.79753076171875,0.14939327360987661,-1.2703759096473455,0.8987130729176104
1773258213179543800,1.807543701171875,0.888024359512329,-0.2983405570179224,0.8680746274173259
1773258213189556000,1.817555908203125,2.098271671411395,1.8196300865978001,-1.294621877631545
1773258213199568000,1.82756787109375,2.125329189684987,1.4275100066423416,-1.8841499050423502
1773258213209579800,1.837579833984375,1.7024270179748535,0.9182423876434564,-1.766642738906294
1773258213219592000,1.847592041015625,1.0280711281061172,0.3648182315319776,-1.391647689013928
1773258213229603800,1.857603759765625,0.6276122588723898,0.00962298386991024,-0.4067807657316327
1773258213239615700,1.86761572265625,-1.9512860434651373,-0.9389613505452871,2.342125582090765
1773258213249628000,1.8776279296875,-1.7183248443305492,-0.9263432765126228,2.362322713075578
1773258213259639800,1.887639892578125,-0.7016121455848217,-0.5824708023756742,0.9785901811003684
1773258213269652000,1.89765185546875,-1.6041092670857906,-0.9849088627278805,1.3885793874844907
1773258213279663900,1.907663818359375,-1.6027350561231373,-0.9561147299200295,1.1421858022596687
1773258213289676500,1.917676513671875,-1.2216168471753597,-0.8097679843991994,0.7995285491313785
1773258213299688700,1.927688720703125,-0.9786755212962627,-0.6687766284316777,0.45516704936847086
1773258213309700600,1.93770068359375,-0.761381262370944,-0.5326543398052453,0.12050707860440014
1773258213319712800,1.947712646484375,-0.44120004494488235,-0.3895388312906027,-0.10675342467054724
1773258213329724700,1.957724609375,-0.027329905474185942,-0.20554244633316993,-0.20180574402287602
1773258213339736600,1.967736572265625,0.18564824381768702,-0.2005769328802824,-0.38361623630858954
1773258213349748700,1.977748779296875,0.008052958074212075,-0.21523966448307036,-0.3686354517325759
1773258213359760600,1.9877607421875,-0.19522212784886359,-0.09342588719427584,-0.39243616016730665
1773258213369772800,1.997772705078125,-0.5213227984517812,0.06703238578736782,-0.23668840296417473
1773258213379784700,2.00778466796875,-0.9469956039190291,1.3860440237879752,2.660332138442993
1773258213389796600,2.017796630859375,-1.0335457601249218,2.2554273957163096,1.3140209901064634
1773258213399809800,2.027809814453125,-0.37289047882854937,2.75502410005033,0.24987901618778705
1773258213409821700,2.03782177734375,0.8071282835453748,2.496300683149695,1.0576597722925245
1773258213419833900,2.047833740234375,1.5692413673222063,1.9256898299157619,0.314834449570626
1773258213429845800,2.057845703125,1.8575117812246082,1.599919414180517,-0.3088995796289295
1773258213439857700,2.067857666015625,1.5560381868779658,2.142178033155203,-0.37676921995803714
1773258213449869800,2.077869873046875,0.44752983248829836,3.0928152084469795,-0.6363971844829619
1773258213459881700,2.0878818359375,-0.2920271360874176,3.0719787566453216,-0.8132027811534702
1773258213469893600,2.0978935546875,-0.10753332300186157,2.712155264660716,-0.5618709358088672
1773258213479905800,2.10790576171875,0.18643676384687421,2.35570797111094,-0.14097995779067277
1773258213489918700,2.117918701171875,0.3481657874166965,1.5105921944767235,-0.2606805423177779
1773258213499931000,2.127930908203125,0.2508434773057699,0.43678748919963833,-0.34763796415030956
1773258213509942800,2.13794287109375,-0.03690378950536251,-0.4695458494633436,-0.16341361565589904
1773258213519954700,2.14795458984375,0.1676326946556568,-0.33275895944833755,-0.26103651614859696
1773258213529966800,2.157966796875,0.48102235224545,0.2850555435091257,-0.19384484814628958
1773258213539978800,2.167978759765625,0.5767910031735897,0.4663222112417221,0.27191987534314394
1773258213549991000,2.177990966796875,1.3717916265517471,0.2788298008620739,0.024913199721276758
1773258213560002800,2.1880029296875,1.6777005729973316,-0.10889935065805911,-0.36099341254681344
1773258213570014700,2.1980146484375,1.4867501311182976,-0.5755839654713869,-0.744101918528974
1773258213580027000,2.20802685546875,0.7233470075309276,-0.04084814321696758,-0.8844929705157876
1773258213590038800,2.218038818359375,-0.19668109448552132,1.0447995600670577,-0.32965427143126724
1773258213600052000,2.228052001953125,-0.8492425011754036,1.9016221411079168,0.5845379640385509
1773258213610064000,2.23806396484375,-0.9981330859601497,1.9274907418578862,0.8373921966448425
1773258213620075800,2.24807568359375,-1.0937117672741412,1.7233189993560314,0.5289174913644791
1773258213630088000,2.258087890625,-1.419096398562193,1.6458908917605877,-0.0017605799317359924
1773258213640099800,2.268099853515625,-1.4122282663583754,1.5398714804530143,-1.5806415899977087
1773258213650111700,2.27811181640625,-1.2396522700816393,3.585388297754526,-1.8397396854296326
1773258213660124000,2.2881240234375,0.0982253964304924,3.852781343322992,-0.1693082266524434
1773258213670135800,2.2981357421875,1.215418577057123,1.5462135429561137,-0.28908816002607346
1773258213680148000,2.30814794921875,1.217666063722968,-0.8186959717422724,-2.0639596519649026
1773258213690159900,2.318159912109375,1.3931898038893937,-3.868546483209729,-5.593971514934301
1773258213700171800,2.328171875,1.4716045844346284,-6.4008133827537295,-1.8602572805404662
1773258213710184700,2.338184814453125,0.8950579114109277,-6.650078066435456,-0.3564116377145052
1773258213720196600,2.348196533203125,0.23172435081601142,-5.267940402436256,-0.41065146968513727
1773258213730208800,2.358208740234375,0.5708101751983166,-4.189878039714694,0.984967607177794
1773258213740220700,2.368220703125,0.35155367628932,-2.7285312299221753,1.7635241684943437
1773258213750232600,2.378232666015625,-0.7328086633592844,-0.7641285152524709,1.9432474061772227
1773258213760244700,2.38824462890625,-0.7035159333795309,0.3094739454507828,1.3598115581616759
1773258213770256600,2.398256591796875,-0.4639700951576233,0.325309227964282,0.2870443792387843
1773258213780268500,2.4082685546875,-0.2425648937821388,0.11146773984134196,0.08249328203052282
1773258213790280700,2.41828076171875,-0.11186404568254947,-0.3294540726840496,-0.024435353076457975
1773258213800292600,2.428292724609375,-0.23004443490505216,-0.6414642586141824,0.17751140685230493
1773258213810304800,2.4383046875,-0.5661638106971979,-0.6265162803292275,0.28665274957269427
1773258213820317700,2.448317626953125,-0.6785995187878608,-0.5559557204157114,0.13496931919902563
1773258213830329900,2.458329833984375,-0.7574415848344564,-0.624019787338376,-0.015420856493711471
1773258213840341800,2.468341796875,-0.754318484377861,-0.5663982039749622,-0.08782441392540931
1773258213850354400,2.4783544921875,-0.6995832701057195,-0.48912441015839575,-0.02932254059612751
1773258213860366300,2.488366455078125,-0.721070879292488,-0.29920331132709976,0.10074731612354516
1773258213870378500,2.49837841796875,-0.6161784261882305,-0.11917115382552146,0.13590572326630354
1773258213880390400,2.508390380859375,-0.37592823908925055,-0.08227671667039393,0.24544658669829367
1773258213890402300,2.51840234375,-0.14897475593686102,-0.17695172714293003,0.025859248399734497
1773258213900414500,2.52841455078125,-0.08024141145050526,-0.19335867206454277,-0.13235504504740236
1773258213910426400,2.53842626953125,-0.11526830116808413,-0.21409926227629184,0.023328268617391585
1773258213920439600,2.548439453125,-0.2700567118197679,-0.013617606464028358,0.34632308215945956
1773258213930451500,2.558451416015625,-0.8549515264719724,0.4138572799891233,-0.3559852289959788
1773258213940463400,2.56846337890625,-0.3400637295037508,0.9543103108465671,0.336562735645473
1773258213950475500,2.5784755859375,0.46656946400105953,1.0924053608506916,0.4793897826075554
1773258213960487400,2.5884873046875,-0.1371025318354368,0.887701703429222,0.0923144188210368
1773258213970499600,2.59849951171875,-0.7884586543887853,0.6915472631663083,-0.1575739497169852
1773258213980511500,2.608511474609375,-1.0807342122793198,0.196955819773674,-1.42954531186223
1773258213990523400,2.6185234375,-0.07929974668622017,0.0678822806149721,-0.7988245655804872
1773258214000535600,2.62853564453125,0.0824175864458084,0.002163315513730049,-0.7330702369049191
1773258214010547500,2.63854736328125,-0.12137187874019145,0.2696650821536779,-0.9513803948745131
1773258214020560400,2.648560302734375,0.5844891564607619,0.4496592457324266,-1.0103042930081485
1773258214030572300,2.658572265625,1.8614041124880312,-0.20263971062898634,-1.9894892251312732
1773258214040584400,2.66858447265625,2.200789212077856,-1.6957710672169923,-2.4412784686297178
1773258214050596400,2.678596435546875,-0.8427332654118538,-1.3600871602326632,-0.2838005750119686
1773258214060608500,2.6886083984375,-0.21157354319095611,-0.38609249022901054,-0.11157967578321695
1773258214070620400,2.698620361328125,1.6089917784303427,0.0636211160391569,-1.614279947966337
1773258214080632600,2.708632568359375,1.8623031071543692,0.6532271771222352,0.10223550885468721
1773258214090644500,2.71864453125,-1.5899030470788478,1.1144728157520294,2.0295298513576387
1773258214100656400,2.728656494140625,-0.45418987489938734,1.330355454313755,1.615615872745216
1773258214110668500,2.73866845703125,0.26544600315392014,0.4649807335048914,0.25645371840298176
1773258214120681200,2.74868115234375,0.9782704476267099,-1.222601182037592,-0.08249474333524703
1773258214130693400,2.758693359375,1.7339298252195119,-1.8906448200196027,0.6329033510178327
1773258214140705300,2.768705322265625,1.5132354024618864,-1.8624691113710403,0.8744441624492406
1773258214150717400,2.778717529296875,1.4608838684558867,-1.4912152938336134,1.1455044983536005
1773258214160729300,2.788729248046875,1.8307512000709771,-1.4260183067798613,1.1291741257995367
1773258214170741200,2.7987412109375,1.6695371402859687,-1.239732934102416,1.140462412533164
1773258214180753400,2.80875341796875,0.1893818773880601,-0.6098083066344261,0.8057862212866544
1773258214190765300,2.818765380859375,-0.8520067051917314,0.34806524965167046,0.04559913713634014
1773258214200777200,2.828777099609375,-0.512350679706037,0.9616787937879562,-0.2216957087546587
1773258214210790400,2.838790283203125,-0.4110755403161049,0.9040683163404464,-0.06207096398770809
1773258214220802300,2.84880224609375,-1.158359011490643,1.0274854371726512,-0.09029226534366608
1773258214230814500,2.858814453125,-1.866751610995829,1.7391262248188257,0.5879951187551021
1773258214240826400,2.868826416015625,-2.5478493763402104,1.5694757605999707,1.0392156224548816
1773258214250838500,2.878838623046875,-2.9383778031900523,1.8539058656871317,0.07778758855760097
1773258214260850400,2.888850341796875,-2.2409230695456266,2.742331207215786,-0.41285424042642116
1773258214270862300,2.8988623046875,-2.2183568713419137,2.835124641725421,-0.18150515266358852
1773258214280874500,2.90887451171875,-2.5427485460698604,3.0224697525888677,-0.33275311422944065
1773258214290886400,2.918886474609375,-1.965775025936216,2.6823767969906327,-0.4362573278456926
1773258214300899600,2.928899658203125,-1.4128371920369565,1.5589783319830894,-0.09527648349702357
1773258214310911500,2.938911376953125,-0.14002806389331818,0.8919564382642508,-0.21554829204082487
1773258214320923400,2.94892333984375,0.1624047308743,-0.7345879479914903,-0.509940988215804
1773258214330935600,2.958935546875,-0.6057797087054699,-1.028919853889942,-0.2629571089476347
1773258214340947500,2.968947509765625,-0.1897567751150578,-0.2418552842080593,1.102048802986741
1773258214350959400,2.97895947265625,0.5483482410866767,-0.5371726940125227,0.6443447824865579
1773258214360971500,2.988971435546875,0.9275638312835246,-2.8507629403620958,-0.43958384191989897
1773258214370983400,2.9989833984375,1.544596170887351,-2.325474160888791,-0.8055868993222713
1773258214380995600,3.00899560546875,0.9207435568094253,-1.2993635192006825,-0.657681233921647
1773258214391008300,3.01900830078125,0.4134427809040993,-1.220978549271822,-0.7225485506296158
1773258214401020400,3.0290205078125,0.2531786422550678,-1.6132909369289874,-0.36859658102691173
1773258214411032300,3.0390322265625,0.10661328554749488,-1.22489835306406,0.4821031332194805
1773258214421044200,3.049044189453125,0.12453531120717524,-0.6464484767675399,1.3255705581247805
1773258214431056400,3.059056396484375,-0.09879530527293681,-0.5992313830405473,1.2672627460628747
1773258214441068300,3.069068359375,-0.58373157955911,-0.7138771683961153,0.845302823638916
1773258214451080400,3.07908056640625,-0.7447405086934566,-0.5988508592903614,0.4995961198121309
1773258214461092400,3.08909228515625,0.013364508485794067,-0.35340719520151614,0.11922259175181388
1773258214471104300,3.099104248046875,0.3155903825044632,-0.3172235366642475,0.44596272930204867
1773258214481117400,3.109117431640625,0.14802377535495906,-0.2398375146448612,0.7968523887246847
1773258214491129300,3.11912939453125,0.29059973363280295,-0.09300853856503963,0.8169336382448673
1773258214501141200,3.129141357421875,0.21410627653896808,0.05229892703592777,0.40595162143111224
1773258214511153400,3.1391533203125,0.07639058124125003,0.008088613909482956,0.3088800712108612
1773258214521165300,3.149165283203125,0.2705535554260015,-0.23446400491297242,-0.2545703888744116
1773258214531177500,3.159177490234375,0.16869126379787922,-0.06859539732038974,0.12943302012085914
1773258214541189400,3.169189453125,0.058766077223420136,0.15729893216788768,0.3997860845386982
1773258214551201300,3.179201171875,0.13375910315904765,0.41528585148751734,0.47434594322144985
1773258214561213400,3.18921337890625,-0.17859123797826468,1.1582201875418423,-0.16569968076646327
1773258214571226400,3.199226318359375,-0.4049818630835041,1.5729203480958938,-0.5768102923959493
1773258214581238500,3.209238525390625,-0.03812719382047653,1.1935177108943462,-0.5049082547456025
1773258214591250400,3.21925048828125,0.3344739832052961,0.4071306020826101,-0.35906244448423386
1773258214601262300,3.229262451171875,0.4220891017615795,0.12790215729176999,-0.684787267512083
1773258214611274500,3.2392744140625,0.3538122688710689,0.09585574468970298,-0.9241226778537034
1773258214621286400,3.249286376953125,0.277763084946014,-0.11604454623758792,-0.36243688935339446
1773258214631298300,3.25929833984375,0.24720424402058122,0.28581659100949763,0.006169628545641899
1773258214641310500,3.269310546875,0.14219843020234257,0.9434159918665885,-0.026540216401219365
1773258214651322400,3.279322265625,-0.24331772144343702,0.7199561960488557,-0.2350356673210859
1773258214661335600,3.28933544921875,-0.6948883902877568,0.3674474109917879,-0.5989221709609032
1773258214671347500,3.299347412109375,-0.9874562091231346,0.37799277040362356,-0.1217272680491209
1773258214681359400,3.309359375,-0.8295189790517091,0.45052083099782464,0.9502724336326122
1773258214691371500,3.31937158203125,-0.6794751325786114,0.4516629867702722,1.1882879935473203
1773258214701383400,3.329383544921875,-0.3854704858731478,-0.09270575622618198,0.8410475042819976
1773258214711395600,3.3393955078125,-0.2907177705219015,-0.6500204900354146,1.0182026450425385
1773258214721407500,3.349407470703125,-0.5750333458513021,-0.4414654178828001,1.8257284034729002
1773258214731419400,3.35941943359375,-0.44689270362854,-0.28677929856181145,1.1042957051306963
1773258214741432300,3.369432373046875,0.08966916500926017,-0.36671208245456216,-1.3661165035247802
1773258214751444200,3.3794443359375,0.2755371525248512,0.14120879811048506,-2.2859008599132298
1773258214761456400,3.389456298828125,1.013199722188711,0.5634989754021168,-1.9099772969990967
1773258214771468300,3.39946826171875,1.2130693835824726,0.7805120792984962,-1.3744196369677781
1773258214781480200,3.409480224609375,0.43638007744252677,0.8167500983715057,-0.027549393443763254
1773258214791492400,3.419492431640625,-0.5391904270431026,0.36371874585747715,0.2894219220250845
1773258214801504300,3.429504150390625,-0.4314589145880192,-0.1258230129301548,-0.6744438604131341
1773258214811516400,3.439516357421875,-0.2229933473497629,-0.3951362129062414,-0.9832938287466764
1773258214821528300,3.4495283203125,-0.3256487621169537,-0.8235615319520234,-0.22226561759710312
1773258214831541200,3.459541259765625,-0.18263444895446299,-0.1973947957128286,-0.043804070413112635
1773258214841553400,3.469553466796875,-0.2953121491074562,0.10984861420691013,-0.8997764643654227
1773258214851565300,3.4795654296875,-0.4210831030568108,0.5690706380546092,0.38787469747066494
1773258214861577500,3.489577392578125,-0.3755698906382546,0.7614397145599127,-0.3097282124727964
1773258214871589400,3.49958935546875,-0.08360993803553282,0.23740531906187534,-0.8313082005560397
1773258214881601300,3.509601318359375,-0.06023384822104126,-0.4428302764952183,-1.27225105586946
1773258214891613400,3.519613525390625,-0.10225856093671172,-0.49762043582499027,-0.6640396630376577
1773258214901625300,3.529625244140625,-0.13247775811161844,-0.012290157252550124,0.14454875618815421
1773258214911637500,3.539637451171875,-0.08917871461119502,0.15656769528388975,0.13100363043844698
1773258214921650400,3.549650390625,0.1672269999315962,0.2970598695576191,0.05457213266491889
1773258214931662600,3.55966259765625,0.4704372453451156,0.5037298586159944,0.06722177087962627
1773258214941674500,3.569674560546875,0.4900450321346521,0.38018063583672046,-0.3366638579323888
1773258214951686400,3.579686279296875,0.20275838683890177,-0.24650690940618514,-0.7217725978210568
1773258214961698600,3.589698486328125,-0.18771273859944193,-0.490138555637002,-0.34436434930711984
1773258214971710500,3.59971044921875,-0.40719665305614466,-0.6444535035580397,-0.1746878738641739
1773258214981722400,3.609722412109375,-0.2982084185382351,-0.49007367370724675,-0.13798691345453262
1773258214991734500,3.619734619140625,0.11423482993450015,-0.18092063077390194,-0.00005465279668569564
1773258215001746400,3.629746337890625,0.4087303654294461,-0.09765548758804797,-0.10629384433478116
1773258215011759600,3.639759521484375,0.5349147224852815,-0.25736148089766503,-0.21988895159363744
1773258215021771500,3.649771484375,0.6919885771930218,-0.4178928191155195,0.04560235200673342
1773258215031783400,3.659783447265625,0.8484090460259467,-0.71547232863307,0.30767186446487904
1773258215041795600,3.669795654296875,0.6320231341172009,-0.9566267710953951,0.27284897288680077
1773258215051807500,3.679807373046875,-0.5226016592811793,-0.9481798452675342,-0.5065460850805044
1773258215061819600,3.689819580078125,-1.1958259878367186,-0.5248971498072147,-1.4079232626408338
1773258215071831600,3.69983154296875,-0.41809623273313046,0.06018588089346885,-1.347110482020676
1773258215081843500,3.709843505859375,0.16469897929131982,0.4417033182919025,-1.1581745948344468
1773258215091855600,3.719855712890625,0.2701034735709429,0.43669981091618537,-0.9182485251232981
1773258215101868300,3.729868408203125,0.23738719888329504,0.6334165612369775,-0.606322802606225
1773258215111880400,3.73988037109375,-0.035322584728524085,0.9593658406704664,-0.08387830664813518
1773258215121892400,3.749892333984375,-0.78509297734797,1.3474264161020517,0.9745505503207444
1773258215131904300,3.759904296875,-1.3296896838814019,0.7782318594068288,0.8443266720831394
1773258215141916400,3.76991650390625,-1.3204881402939557,-0.17665946619808673,0.023752631509304047
1773258215151928300,3.77992822265625,-1.0374490511737764,-0.33031507342755795,0.09460720593333244
1773258215161940200,3.789940185546875,-0.5831826404394581,-0.24903788918852804,0.21478315288722513
1773258215171952400,3.799952392578125,-0.5410621026664972,-0.3516811020612716,0.26904899608194827
1773258215181964300,3.80996435546875,-0.5407832857251167,-0.4476362154722213,0.44904374418258663
1773258215191977500,3.8199775390625,-0.27813944397773593,-0.09523264435529709,0.05170855992734432
1773258215201989400,3.8299892578125,0.09032441404759883,0.16741116085946559,-0.648544572263956
1773258215212001500,3.84000146484375,0.2719540698736906,0.058842065069079394,-0.330201091659069
1773258215222013400,3.850013427734375,0.22827684071063994,0.05561842684745788,-0.007310615274310111
1773258215232025300,3.860025390625,-0.05867781441807746,0.056815527677536004,-0.3323503786474466
1773258215242037500,3.87003759765625,0.22376261468920855,-0.20064532194137571,-0.8072773366272449
1773258215252049400,3.88004931640625,-0.11584938899166881,0.09445289215445518,-0.712784696984291
1773258215262061300,3.890061279296875,-0.2331809793651104,-0.14076573051810265,-0.6777285811722278
1773258215272073500,3.900073486328125,-0.09539448385350406,-0.1508504866808653,-0.7263701547443866
1773258215282086400,3.91008642578125,0.420118678471446,0.12118483173549174,-0.7521610140830278
1773258215292098600,3.9200986328125,0.2274988786080852,0.20639643281400202,-0.23478841456174848
1773258215302110500,3.9301103515625,0.24223989961147308,0.22026889082193374,0.4063678010165691
1773258215312122400,3.940122314453125,0.5678776288777589,0.1982195560991764,0.5977618950098753
1773258215322134500,3.950134521484375,0.09186170661747455,0.010702595800161361,0.4560065689325332
1773258215332146400,3.960146484375,-0.17597027835752813,-0.2985322801977396,0.04407061239480972
1773258215342158600,3.97015869140625,-0.2138432416886091,-0.519711856123805,-0.2221738476604223
1773258215352170500,3.98017041015625,-0.3049702042907476,-0.636841859510541,-0.46082536739110946
1773258215362182400,3.990182373046875,0.005945208672620356,-0.4888607907861471,-0.5158581033051014
1773258215372195600,4.000195556640625,0.5083393982380628,-0.16320786395072936,-0.1450368319660425
1773258215382207500,4.01020751953125,0.5344160887807607,0.09095452864468097,0.37857729229331016
1773258215392219600,4.0202197265625,0.1925379302661866,0.11849603104293346,0.6324018312364816
1773258215402231600,4.0302314453125,-0.0994020389944315,-0.06508358980715274,0.5370347468465566
1773258215412243500,4.040243408203125,-0.36350780652053655,-0.044098669445514674,0.19534663101136684
1773258215422255600,4.050255615234375,-0.41589433877468107,0.09909808761179446,-0.055337856340408324
1773258215432267500,4.060267578125,-0.08793430404067039,0.24365970328152178,-0.19561025038361549
1773258215442279400,4.070279541015625,0.3991706560540944,0.22540800727605817,-0.24979659860134124
1773258215452291600,4.08029150390625,0.3929834918517619,-0.04019464774429798,0.06142798990905284
1773258215462304300,4.09030419921875,-0.22873853993825613,-0.2401163315862417,0.5305670121371746
1773258215472316400,4.10031640625,-0.5578226833313703,-0.22511925346255302,0.37635084841549393
1773258215482328300,4.110328369140625,-0.6612381957508623,-0.07551146031916141,0.3675082012683153
1773258215492340500,4.120340576171875,-0.47182541176788506,-0.08790157081484794,0.3825999719381332
1773258215502352400,4.130352294921875,-0.4114764492671937,-0.24235446590185164,-0.2334457677811384
1773258215512364300,4.1403642578125,-1.1322113015383481,-0.5065238732486963,-1.0328747289955615
1773258215522376400,4.15037646484375,-1.9769816257357595,0.520925908088684,3.188845140659809
1773258215532388400,4.160388427734375,0.031233781044930218,0.9886188231617211,5.72396392250359
1773258215542400300,4.170400146484375,3.0998832471370696,0.7060860761284827,2.8745740240603683
1773258215552413400,4.180413330078125,4.599567678630351,0.99953126232028,0.33922260250449177
1773258215562425300,4.19042529296875,4.119167842197418,1.4528700733482838,-0.058202013599872586
1773258215572437500,4.2004375,2.497636900189519,1.123116140934825,0.6120929104402661
1773258215582449400,4.210449462890625,0.6240145266413688,0.4125929591417312,-0.7881815910130738
1773258215592461300,4.22046142578125,1.3149547638252377,-0.4962795426100492,-2.0372645372629163
1773258215602473500,4.230473388671875,1.6484531434640288,-1.1582570124208926,-2.955324261815846
1773258215612485400,4.2404853515625,1.199372282141447,-1.3354215055316685,-2.381163607145846
1773258215622497500,4.25049755859375,0.08966478109508752,-1.059775010880828,-2.3041864581882954
1773258215632509400,4.260509521484375,-0.2028933931291103,-0.21956746455430984,-2.245313997980952
1773258215642521300,4.270521240234375,-0.4496875950440764,0.6389274336129427,-0.9668483053803444
1773258215652534500,4.280534423828125,-1.1683154650986194,0.9210042535722255,0.17850275597721338
1773258215662546400,4.29054638671875,-1.6946645672798155,0.7132078908324241,0.8677724296003579
1773258215672558600,4.30055859375,-1.5055658907473086,0.6533528493285179,1.8260624577328561
1773258215682570500,4.310570556640625,-1.7516186266452074,0.6344435661971569,2.3085236106097695
1773258215692582400,4.32058251953125,-2.0996979048222304,0.6782260093003512,0.9301420842736959
1773258215702594600,4.330594482421875,-1.0865481592550874,0.8812818995147943,-0.6408227458402515
1773258215712606500,4.3406064453125,-1.0553723920077085,0.4425672416448593,-0.14260668220967054
1773258215722618400,4.350618408203125,-0.5282137270092964,0.08011515472233295,-0.03087152360379696
1773258215732630500,4.360630615234375,-1.0164315437167881,0.36512685908973214,-0.1639466996192932
1773258215742642400,4.370642333984375,0.08844459165036678,0.98759532533288,-0.6176683724850416
1773258215752655600,4.380655517578125,1.0893860130295157,0.421869906052947,-1.7499457249969244
1773258215762667500,4.39066748046875,0.8370584346458315,0.3606108429700136,-2.5750918957918882
1773258215772679400,4.400679443359375,-1.0824801791638134,0.41638709072768687,-2.096288973161578
1773258215782691600,4.410691650390625,-2.6450413380697366,-0.31958675866425035,-1.0634542839154602
1773258215792703500,4.420703369140625,-1.8217516087964176,-1.1206605644762515,0.08052782717645168
1773258215802715600,4.430715576171875,0.5038496856033802,-0.8494570207089185,1.0995900116577744
1773258215812727600,4.4407275390625,3.908714827468991,0.06239946528971195,1.9644784102544188
1773258215822739500,4.450739501953125,3.2364854282349347,0.14089666342139243,1.2583368045464158
1773258215832751600,4.460751708984375,1.099475153106451,0.3342933294087648,-0.11657236950397491
1773258215842764300,4.470764404296875,0.16274404583126306,0.21538345686793325,-0.21450901212096213
1773258215852776200,4.480776123046875,-0.22875468735545873,-0.19771160657703876,-0.9499807572096586
1773258215862788400,4.490788330078125,-0.8199126540556549,-0.2297036586433649,-1.0375634713336825
1773258215872800300,4.50080029296875,-0.6068237378656863,-0.028818682727217673,-0.620992840732634
1773258215882812400,4.5108125,-0.7242322659328579,-0.14102292014956475,-0.31955753256976605
1773258215892824300,4.52082421875,0.4498272957757115,-0.3931739729225635,-0.07439356220513582
1773258215902836200,4.530836181640625,-0.18812135593295096,-0.4329413351655006,-1.0604337670505046
1773258215912848400,4.540848388671875,-0.5582941002354026,-0.42264673564434047,-0.318005919213593
1773258215922860300,4.5508603515625,-0.4986220140829682,-0.14947978284955024,0.5916746840506791
1773258215932872200,4.5608720703125,0.5081029591336846,0.19293489369452,0.6203203482985497
1773258215942885400,4.570885498046875,0.4111407145068049,-0.01175005902647972,0.7343295893162488
1773258215952897300,4.580897216796875,-1.378834530800581,0.5837620112299918,1.071774076232314
1773258215962909400,4.590909423828125,-0.7656669768661261,0.4090992718070745,-0.9262216959595679
1773258215972921300,4.60092138671875,-0.49913522430211305,0.049369303324818606,-1.6534110581323505
1773258215982933500,4.61093359375,-0.28382103327810765,0.7442810744881629,-0.24784108061939478
1773258215992945400,4.6209453125,0.2986573678821325,0.7353373050540685,0.531224599263072
1773258216002957300,4.630957275390625,-0.18109949447214602,0.5503899029821158,0.27259704395234585
1773258216012969500,4.640969482421875,-0.27507804711312056,0.18134733175337314,0.7668006570711732
1773258216022981400,4.6509814453125,-1.2689827017232775,-0.286267257386446,1.4590192436277865
1773258216032994600,4.66099462890625,-1.8954194870755074,-0.41135085012614725,0.16779022330492735
1773258216043006500,4.67100634765625,-1.1440037384018302,0.3240793939083814,-0.9204881207436323
1773258216053018400,4.681018310546875,-0.632880554664135,0.3518172956615686,0.3852203835695982
1773258216063030500,4.691030517578125,-0.24183336463719604,-0.05787994203865528,0.9893512290894985
1773258216073042400,4.70104248046875,0.02575403445959091,-0.4110959985822439,0.5719023543491959
1773258216083054300,4.711054443359375,1.1837608715116976,-0.5139332727223634,0.17234657143503426
1773258216093066500,4.72106640625,1.333368956916034,-0.6434019486784934,1.3708619444862007
1773258216103078400,4.731078369140625,0.36863662077635523,-1.0558704046577214,1.2281871654763816
1773258216113090600,4.741090576171875,-0.35456367176026105,-0.572418779438734,-0.4588429614022374
1773258216123102500,4.7511025390625,-0.27536007892489434,-0.20798516331017017,0.07044248649179935
1773258216133115400,4.761115478515625,0.11760785003155469,-0.17453297556340694,1.1225623064443468
1773258216143127600,4.77112744140625,-0.07430559166073798,-0.6114163263529538,0.3231286690548062
1773258216153139500,4.781139404296875,0.3907555136039853,-0.5808534303069114,-0.396226053969562
1773258216163151600,4.791151611328125,0.2619339033797383,-0.1569932272195816,-1.1745683880135416
1773258216173163500,4.80116357421875,-0.08036620687395334,-0.20160159975290298,-0.6275736804276705
1773258216183175400,4.811175537109375,0.08297112867534161,-0.009225508984923362,-0.48562546212673185
1773258216193187600,4.8211875,-0.14601122995615004,0.4808680384665727,-1.166921088130772
1773258216203199500,4.831199462890625,-0.40767713004946704,0.8142220411986112,-1.6891317753329873
1773258216213211400,4.84121142578125,-0.667472560095787,0.9848632700204849,-2.1752479435861107
1773258216223223600,4.8512236328125,-0.433559759324789,0.9448848953753709,-1.4680638430878519
1773258216233236200,4.861236328125,0.12722908033579589,0.9160492615133523,-0.059138709928095334
1773258216243248400,4.871248291015625,0.8382625497385859,0.4085784628033638,0.01274783789217472
1773258216253260300,4.88126025390625,1.1297750143021343,-0.09185235426723956,0.13736322859823702
1773258216263272400,4.8912724609375,-0.8884732723236084,-0.29631928032338617,0.8564832660838961
1773258216273284400,4.901284423828125,-0.515215421487391,-0.6404290703475475,1.070823059117794
1773258216283296300,4.911296142578125,-0.3395557799816131,-0.7393453716516495,0.685514705003798
1773258216293308400,4.921308349609375,-0.00798953744918108,-0.7147586274057627,0.2554708448454738
1773258216303320300,4.9313203125,0.557994825027883,0.11013619897663593,0.5430506461352109
1773258216313332200,4.941332275390625,1.2062675946131347,1.2203589560687542,1.1661965732485056
1773258216323344400,4.951344482421875,0.22832535602748394,0.8359118949592113,0.9486310961663722
1773258216333357300,4.961357421875,-0.879609582388401,-0.41266777794361115,-0.21177461872100828
1773258216343369500,4.971369384765625,-0.26313451134115456,-0.4882756843745708,-0.6317176483646035
1773258216353381400,4.98138134765625,-0.17434885116815566,-0.3586363280266523,-0.589692570322752
1773258216363393300,4.991393310546875,-0.48571051006168126,-0.035326164925098415,-0.7559235814869404
1773258216373405400,5.001405517578125,-0.289247442241013,-0.24835809023082256,-0.4700941309958696
1773258216383417300,5.011417236328125,-0.19563626160770653,-0.6454764168649911,0.46781098849475383
1773258216393429500,5.021429443359375,0.01904547673165798,-0.21057342623770237,-0.08966244300752878
1773258216403441400,5.03144140625,0.11806611519306898,0.019890110862255096,-0.5678729527026415
1773258216413453300,5.041453369140625,0.619040245360136,-0.03148585610985756,-0.35320144349634647
1773258216423465500,5.051465576171875,0.5895087381884455,0.019227263039350507,-0.5113350729227065
1773258216433478400,5.061478515625,-0.17045973477512597,0.039297406643629074,-1.067934059678018
1773258216443490600,5.071490478515625,-1.0466332052350045,0.33028000211417674,-1.4334189384251832
1773258216453502500,5.08150244140625,-0.0023459786042571065,0.359116220498085,-0.9071531306132674
1773258216463514400,5.091514404296875,0.4408879102557897,0.5111538711369037,-0.5194985056340694
1773258216473526500,5.101526611328125,0.08778145156651734,0.6639835489362478,-0.14709084188640117
1773258216483538400,5.111538330078125,0.13624386917948722,0.7618348513573407,-0.2928872600480914
1773258216493550300,5.12155029296875,0.1969908910870552,0.6220388426542282,-0.6500672517865896
1773258216503562500,5.1315625,0.2704085939973593,0.13933248284459113,-0.2724275326043367
1773258216513574400,5.141574462890625,-0.024188684839010238,-0.31952713743150235,-0.06506254701912403
1773258216523586600,5.151586669921875,-0.18274667715728282,-0.7649906850397586,0.1763420708119869
1773258216533599500,5.161599609375,-0.32440906425416466,-1.3434732945621013,0.5086807590216398
1773258216543611400,5.171611328125,-0.4074088345021009,-1.0063228221565483,0.23289865529239176
1773258216553623600,5.18162353515625,0.12325111661553383,-0.09993979913294315,-0.3119517337411642
1773258216563635500,5.191635498046875,0.05912848079502582,0.00410042105615139,1.2992325862973928
1773258216573647600,5.201647705078125,-0.3315045754730701,0.38862580809891223,1.0311237936750053
1773258216583659500,5.211659423828125,-0.5283101731210946,0.29405834965407845,0.47617023603916164
1773258216593671400,5.22167138671875,-0.21850421923696994,0.3567641044139862,0.09200725256800651
1773258216603683600,5.23168359375,0.09632073185294866,0.12487374938130379,0.1197796411126852
1773258216613695500,5.241695556640625,-0.1391594643652439,0.34470950948297974,-0.1712207822754979
1773258216623707400,5.251707275390625,-0.2592164611145854,0.5668699131399393,-0.5185583021745085
1773258216633720300,5.26172021484375,0.05226707059293985,0.5099146847307682,-0.15907470966875553
1773258216643732200,5.271732177734375,0.7703168484985828,0.3426718661755323,0.2559165427863598
1773258216653744400,5.281744384765625,1.8309981605693697,0.10312368986606597,0.47122371954768894
1773258216663756300,5.29175634765625,-0.26864333789050576,0.37367081555128095,-0.23083266267329453
1773258216673768400,5.3017685546875,-0.1436608674377203,0.03925415202379227,-0.5587000506877898
1773258216683780400,5.3117802734375,0.7847586308270692,-0.28403438376784323,-0.32108547278940675
1773258216693792300,5.321792236328125,1.156147180660069,-0.12365619028508662,0.009574760814011096
1773258216703804400,5.331804443359375,0.8901093490928411,0.166229842120409,0.23839900627434252
1773258216713816300,5.34181640625,0.1625377096042037,0.3100771720409393,0.2975242721989751
1773258216723828200,5.351828125,-1.0121978516697883,0.20005904648602008,0.03134995477050543
1773258216733841400,5.36184130859375,-1.7384589930817484,-0.5454506930142641,-0.19340280346721408
1773258216743853300,5.371853271484375,-1.9509683558180928,-0.9807681096613406,-0.604267623642087
1773258216753865500,5.381865478515625,-0.4689645424440503,-0.7085393144994974,-1.1637445039212704
1773258216763877400,5.39187744140625,0.4058540062755346,-0.16729951717853545,-0.9242416280582547
1773258216773889300,5.40188916015625,0.0948027285054326,0.2778308529525995,-0.062243105684220784
1773258216783901400,5.4119013671875,-0.27716742060780525,0.4682552251309156,0.24633301414400338
1773258216793913300,5.421913330078125,-0.1805862842530012,0.3418248939573765,0.23557430424243211
1773258216803925500,5.431925537109375,-0.2872439934641123,0.067947747066617,0.2494344872906804
1773258216813937400,5.4419375,-0.23868366843461988,-0.062802200871706,0.1749362956672907
1773258216823950300,5.451950439453125,0.018085107266902923,-0.07129705749452114,0.2614484579503536
1773258216833962500,5.46196240234375,-0.08259118944704533,-0.14792787723243236,0.27482962531000377
1773258216843974100,5.47197412109375,-0.22355478062480688,-0.14079086495935916,0.07234685880839824
1773258216853986300,5.481986328125,-0.010717793369293212,-0.030804888108372685,-0.11805296345055102
1773258216863998200,5.491998291015625,0.07394435713291168,0.4484492854207754,0.17922843990325926
1773258216874010000,5.502010009765625,-0.3227688958317041,0.5378799654990434,0.49486996807307004
1773258216884022300,5.512022216796875,-0.8224810432389378,0.05561433519423008,0.2480412793666124
1773258216894034200,5.5220341796875,-1.1204054206714034,-0.38187574931681156,-0.1932353379458189
1773258216904046000,5.532046142578125,-0.6634802755892276,-0.24752163940668104,-0.41886341771334407
1773258216914059300,5.542059326171875,0.42395021945834155,-0.3448550554335117,-0.3720274322584271
1773258216924071200,5.5520712890625,0.4202651012048125,0.009317278921604156,0.08249971177130937
1773258216934083300,5.562083251953125,-0.7165373275160789,-0.08619418237507342,0.3219046802178025
1773258216944095200,5.57209521484375,-1.298767891395092,-0.9460796581178903,0.7275348146095871
1773258216954107100,5.582107177734375,-1.5245134600624441,-1.5007342328071593,0.2956973490327596
1773258216964119300,5.592119384765625,-1.2312801630556582,-1.4080360753655432,-0.9530407293021679
1773258216974131200,5.602131103515625,-1.1011872177213429,-0.9685597854733466,-1.8269632059648633
1773258216984143400,5.612143310546875,0.04296703506708145,-0.9888058701664209,-2.238478891263902
1773258216994156000,5.622156005859375,-0.2746446241319179,-0.6117150170385838,-1.9582944609224795
1773258217004168200,5.632168212890625,-0.5647039672777057,-0.3920610432446003,-0.9713868255928159
1773258217014180000,5.64218017578125,0.33474691839516163,0.31475802333354946,-0.03621493045836687
1773258217024192000,5.65219189453125,0.23254501954913137,1.8644716833651065,1.34991910970062
1773258217034204200,5.6622041015625,-0.39016953040957447,2.859904862716794,2.0029241685047743
1773258217044216000,5.672216064453125,-0.9694789461448788,2.833939815855026,1.431841313844919
1773258217054228000,5.68222802734375,-1.388461606323719,2.1150871971338985,1.3369769182801245
1773258217064240000,5.692240234375,-2.198537633758783,1.7052116802573203,-0.1096688737258315
1773258217074253000,5.702253173828125,-2.5246535019308327,2.214372331750393,-0.5473651483334601
1773258217084265200,5.71226513671875,-2.290436749777198,2.480172555169463,0.3060217591702938
1773258217094277000,5.722277099609375,-1.6061995173633097,0.9919698871552943,0.37454087638407946
1773258217104289000,5.7322890625,-2.2368819774612785,-0.25880700353085995,0.6828394944451749
1773258217114301200,5.74230126953125,0.3163663353130221,-2.1714263394713402,-1.099147966978699
1773258217124313000,5.75231298828125,3.0589816201671955,-3.035515112122893,-1.0268716891884804
1773258217134325200,5.7623251953125,5.412703093636035,-0.21249007351398466,-0.14028379222005605
1773258217144337200,5.772337158203125,6.5748460075795645,3.6492484832465646,1.056138115683198
1773258217154350000,5.78235009765625,2.5869246646657587,2.404578092741966,0.9138578889489173
1773258217164362200,5.7923623046875,0.07228840661942959,-0.018677812463045118,0.41260727992802854
1773258217174374100,5.8023740234375,-1.0253528090581296,-1.4899059648007154,0.6931093979164957
1773258217184386300,5.81238623046875,-1.674342494741082,-0.31963176684975625,0.9140680245682596
1773258217194398200,5.822398193359375,-2.0145465094983575,1.1744061831891537,0.48638139506056904
1773258217204410000,5.83241015625,0.5759466613039373,0.009742810857295989,0.6580594195842743
1773258217214422300,5.84242236328125,1.43587714523226,-0.3459890278995037,0.07891556967422365
1773258217224435200,5.852435302734375,0.7769824438676237,-0.12588789485991,-0.8247446042567491
1773258217234447400,5.862447265625,0.6798524414584041,-0.7854010203838347,-0.4900235509552061
1773258217244459300,5.872459228515625,1.0542810896396637,-0.5750479588985443,-1.1210348046161234
1773258217254471200,5.88247119140625,1.1177958226948976,0.8464297818422317,-1.4012107593901455
1773258217264483300,5.8924833984375,-0.8639239374786615,-0.2379687981635332,0.9261017228417098
1773258217274495200,5.9024951171875,0.6502797254934907,-2.7853835824787616,0.8502981477081775
1773258217284507100,5.912507080078125,1.3756985708624123,-3.129638918453455,0.40329511557295916
1773258217294519300,5.922519287109375,0.9229469120725989,-2.001419901421666,0.3830966694138944
1773258217304532000,5.932531982421875,0.8055024359092116,-0.714230219617486,-0.09925517786964773
1773258217314544000,5.942544189453125,0.8175017935216427,0.5264607458621263,-0.7206301497876644
1773258217324556000,5.95255615234375,0.8276385721325874,1.080465332210064,0.04662614209651947
1773258217334568200,5.962568115234375,0.6017667467370629,1.1078314780414105,-0.12006269583776592
1773258217344580000,5.972580078125,0.4700719191640615,1.720555964383483,-0.8590515091367066
1773258217354592000,5.982592041015625,-0.3665861179873347,2.155193582072854,-0.33376652905568477
1773258217364604200,5.992604248046875,-1.219506723153591,1.966701054739952,-0.16064692742154002
1773258217374617000,6.0026171875,-1.1888558565631508,0.7005284420013427,-0.6439893931776285
1773258217384629200,6.012629150390625,-0.38209377598166466,-1.5220213509857654,-0.6749132314905524
1773258217394641200,6.02264111328125,-0.16015373707711697,-1.7727391560852526,-0.7941577428132295
1773258217404653000,6.032653076171875,-1.0177285977900028,0.2162444576114416,-0.2623253869153559
1773258217414665200,6.042665283203125,-0.5997483926519751,1.181749531689286,0.5069555426642298
1773258217424677000,6.052677001953125,-0.3185594614431262,0.7938280724674462,0.5804565399438143
1773258217434689000,6.06268896484375,-0.9647790978908538,0.11973346388339996,0.39529812546968457
1773258217444701200,6.072701171875,-1.4948051350191234,-0.8526344817012548,0.48895153780952094
1773258217454714000,6.082714111328125,-0.7990054751053453,-2.0341957973420617,0.793964850589633
1773258217464726300,6.092726318359375,0.5075847804784774,-1.9463199454903601,-0.30889263843148945
1773258217474738200,6.10273828125,0.46970337811261414,-0.4538257177621126,-1.939697312480211
1773258217484750300,6.112750244140625,0.5373474660575389,0.442090271782875,-0.5837231405243277
1773258217494762200,6.12276220703125,0.39826398953795433,0.6587742898553609,0.5630586842887103
1773258217504774100,6.132774169921875,1.1750777988404035,0.5273924737542868,0.6640514996059238
1773258217514786300,6.142786376953125,0.8441621291711926,1.182307750093937,-0.08648644331991671
1773258217524799200,6.15279931640625,0.6936395592704415,1.7528250798255205,-0.37114582711830735
1773258217534811100,6.16281103515625,1.133852639004588,1.4477847329080105,-0.6666469229266047
1773258217544823300,6.1728232421875,1.396723530973494,-0.454365815988183,0.5642107769332826
1773258217554835200,6.182835205078125,1.5663248953536153,-0.4830348611116409,-0.26236951831802724
1773258217564847000,6.19284716796875,0.9102055039212107,0.023266309297084807,-0.6266079041354358
1773258217574859300,6.202859375,0.7309323480933905,-0.7939771255493163,-0.22907018304541707
1773258217584871200,6.21287109375,0.2738125572219491,-1.3224731766313313,0.5929457268998026
1773258217594884000,6.222884033203125,0.02292582529634237,-1.1752566625386476,0.5348797607697546
1773258217604896000,6.23289599609375,0.2028635825127363,-1.1588678377956152,-0.5165197820842266
1773258217614908200,6.242908203125,-1.2917507061094045,-0.6780570824742317,-3.3164430543079972
1773258217624920000,6.252920166015625,0.28651217205822466,0.31036826394200323,-0.20075623496994374
1773258217634932000,6.262931884765625,1.7943518529564142,1.1216232720285653,-0.6283988792054355
1773258217644944100,6.272944091796875,1.1317270251527427,1.726712148925662,-0.3481773317240178
1773258217654956000,6.2829560546875,0.10790858605504035,1.0892144558548926,0.14100333866626025
1773258217664968200,6.29296826171875,0.09822831903994082,0.5749661258339882,0.6636665919415652
1773258217674981000,6.302981201171875,0.05205342784225941,0.5261117862939835,0.829570563108474
1773258217684993300,6.3129931640625,-0.5935284952238202,0.6148293496668339,1.014325365217775
1773258217695005200,6.323005126953125,-0.8902256689488888,0.4811731588929891,0.2783769425280392
1773258217705017000,6.33301708984375,-1.3540718454658984,-0.423072852101922,-0.32546251882985233
1773258217715029200,6.343029296875,-1.525934725037217,-1.1676192995280026,-0.9426447152331471
1773258217725041200,6.353041259765625,-1.5390090184047818,-1.4350918400734662,-1.3561197179064153
1773258217735053000,6.363052978515625,-0.8770204426780343,-1.4291601119369268,-1.1122492944836615
1773258217745066200,6.373066162109375,0.33568682959377766,-0.8685621186733246,-0.966384487260878
1773258217755078100,6.383078125,-0.0202668352201581,0.02055003607571125,-1.6187719986885785
1773258217765090300,6.39309033203125,-0.4790653729587793,0.3650771747291088,-1.5884730142757295
1773258217775102200,6.403102294921875,-1.30224053594172,0.891260272693634,-0.19407208103090523
1773258217785114000,6.413114013671875,-3.149655286043882,1.480893221783638,2.155626128271222
1773258217795126300,6.423126220703125,-1.7491034289538858,0.9684498953580856,1.6876169868558644
1773258217805138200,6.43313818359375,0.09251403304636478,0.13173895897567273,-0.32122868065237997
1773258217815151000,6.443151123046875,1.3289666303038596,-0.8340776652693748,0.7865551588550209
1773258217825163000,6.4531630859375,1.6943442492842673,-0.692926150304079,0.6481035504981875
1773258217835175000,6.4631748046875,0.5374252074688672,0.08140636357665061,-0.01068564466536045
1773258217845187000,6.47318701171875,-0.3305114727824926,0.13096680555939674,-0.18264292452186345
1773258217855199000,6.483198974609375,-0.8302408635854721,-0.2914677486389875,0.6937643546938895
1773258217865211100,6.493211181640625,-0.8622320388689637,-0.65517655762434,0.7951406163707375
1773258217875223000,6.50322314453125,-0.04749678745120763,-0.7729419363051653,0.2691702843740582
1773258217885235000,6.51323486328125,0.24525720160603523,-0.9121218589365482,0.381274276292324
1773258217895248000,6.523247802734375,0.6354021820962429,-0.8636907132446765,0.2557423552632332
1773258217905259800,6.533259765625,0.3311199600696563,-0.6462298655807972,0.3050657736197114
1773258217915272000,6.54327197265625,0.8545993520334363,-0.8123439723670483,0.40463936978876586
1773258217925283800,6.553283935546875,-2.207463867536187,-2.5207816289335487,0.892433408126235
1773258217935296000,6.5632958984375,-3.897030234894156,-11.836972755300998,-1.1408160482764242
1773258217945308000,6.573307861328125,13.82534554362297,-2.700060337719321,-3.1641549360394476
1773258217955319800,6.58331982421875,8.395373919799923,9.784090962189435,-1.4170491106435656
1773258217965332000,6.59333203125,-0.6943909621596336,11.626191823792457,2.3788024309724567
1773258217975343900,6.60334375,-2.2598989881724116,4.4172219834893935,-0.07328910809457302
1773258217985357000,6.613357177734375,-2.675962838295102,2.170719652506709,-0.11741904946118592
1773258217995369000,6.623368896484375,-3.365636708804965,3.8157080424696206,0.9048723261997104
1773258218005380900,6.633380859375,-2.230919854186475,2.9817952123731373,0.10574556280225515
1773258218015393000,6.64339306640625,-2.1675372230783103,1.3635568821698427,-1.3351809747740626
1773258218025405000,6.653405029296875,-1.3985221048280596,-0.16926000359654425,-1.5602493748322128
1773258218035416800,6.663416748046875,-0.20205051256418227,-0.8247446042567491,-1.3798515988886355
1773258218045429000,6.673428955078125,0.1410153213649988,-1.1576339120864867,-1.02684450892061
1773258218055441000,6.68344091796875,1.1827806283026934,-0.9776233818948268,-1.0269441699028015
1773258218065454000,6.6934541015625,1.9132322071418164,-1.153480299538374,-0.33095512489676476
1773258218075466000,6.703466064453125,2.273230178910494,-1.6622803010255098,0.25786738459318875
1773258218085478000,6.713477783203125,1.7119263754650949,-1.7591788327664135,0.13697539832442998
1773258218095490000,6.723489990234375,0.7565124872907996,-1.5212404297411442,0.8094064576104283
1773258218105502000,6.733501953125,0.8198363739490508,-1.3615414506942034,0.8674220087274909
1773258218115514000,6.74351416015625,1.327843179231882,-1.1127549059182404,0.20693916138857602
1773258218125526000,6.753526123046875,1.3553873119786382,-0.9364332933723926,-0.8217138582587241
1773258218135538000,6.763537841796875,0.09365385073125362,-0.5043278245091438,-1.248308454746008
1773258218145550000,6.773550048828125,-0.6850187381803989,0.3865454946935177,1.1354840395987034
1773258218155562800,6.783562744140625,-0.8057754076316952,0.8478793961286545,1.8246499605864286
1773258218165575000,6.793574951171875,0.5265437479704618,0.5421399610310793,1.562048825469613
1773258218175586800,6.8035869140625,1.3016972228452564,0.28440438612401486,1.6963474058002233
1773258218185599000,6.813598876953125,2.3407325202971694,0.11611293529868125,1.3690776914179323
1773258218195611000,6.82361083984375,2.948777324390411,0.005333762243390083,0.8426584466099739
1773258218205622800,6.833622802734375,2.847748560976982,-0.386309932371974,1.1365525456130503
1773258218215635000,6.843635009765625,0.6470160475224256,-1.8658418026745318,1.1966618541389704
1773258218225646800,6.853646728515625,-8.299428743261098,-2.9949767655074595,3.7683126695662734
1773258218235659800,6.86365966796875,-1.5409858714357016,-0.41007893049418925,2.3941432079672813
1773258218245672000,6.873671875,0.3073591452538967,1.5247440539479256,-1.8273995515555141
1773258218255683800,6.883683837890625,0.2070686329871416,2.4983295586287975,-2.6515187173902985
1773258218265696000,6.893696044921875,2.427098552107811,1.7574147457033396,-4.181937894365191
1773258218275708000,6.9037080078125,3.8452462716430422,0.3835755389720201,-5.817394485872984
1773258218285719800,6.9137197265625,3.882790989400446,-0.24997370873391628,-4.501151728063822
1773258218295732000,6.92373193359375,2.4645392249688505,0.7646680289566516,-1.5138631789714097
1773258218305744000,6.933743896484375,-0.722928489857912,1.0195487989544867,-0.10620002857148647
1773258218315755800,6.943755859375,-0.004377484431862831,-1.8897160147368908,0.389070044735074
1773258218325768000,6.953767822265625,-1.1226625519484281,0.6660802289545535,1.5899766968369482
1773258218335780900,6.96378076171875,-1.6700450898081063,0.634465778028965,2.6204870347887277
1773258218345793000,6.97379296875,-1.886735245360434,0.0014028525352478027,2.252102635207772
1773258218355805000,6.983804931640625,-1.9907126294463873,0.3919634280890226,-0.1636889254659414
1773258218365816800,6.99381689453125,-3.365672364640236,0.5285480735301971,-0.9476964456647634
1773258218375829000,7.0038291015625,-3.223602858047187,0.6721732851326465,-0.07619242832064628
1773258218385841000,7.0138408203125,-2.093021203537285,-0.31448972778618334,0.08401040859520435
1773258218395853000,7.02385302734375,-2.678822319379449,-0.721442050692439,0.3556891686588526
1773258218405865000,7.033864990234375,-2.3473285575613376,-0.4888227968633175,-0.19733692804574965
1773258218415876900,7.043876953125,-2.268267003545165,-0.06799801594913006,-0.1900637221723795
1773258218425889000,7.053888916015625,-1.6117352319195866,0.556579405272007,0.03036298955976963
1773258218435902000,7.06390185546875,-2.265789799776673,1.3452058174431323,0.11852817974686622
1773258218445914000,7.0739140625,-2.3589333628982305,1.2179033796101808,-0.4063894283264875
1773258218455926000,7.083926025390625,-0.5413432576954365,0.5819108304053545,-1.2481056256502867
1773258218465938000,7.09393798828125,1.3430378257542848,-0.16560148108899592,-1.1607470756709575
1773258218475950000,7.1039501953125,0.8030258166626095,-1.0789292086839675,-1.1476280663788319
1773258218485962000,7.1139619140625,-0.4347992379918694,-1.0723732111692428,0.11328677196204662
1773258218495974100,7.12397412109375,-1.0617711531341076,-0.6939058089911937,0.9090572106689214
1773258218505986000,7.133986083984375,-1.0089192683905361,0.015343115082383155,0.537287844824791
1773258218515998000,7.143998046875,-1.0123936665028332,0.631149785348773,-0.16527414883077143
1773258218526010000,7.154010009765625,-1.1674763839259743,1.0158160421669482,0.12586802111566067
1773258218536022000,7.16402197265625,-0.8285030800074339,1.2580477584719658,0.18045593587160108
1773258218546035000,7.174034912109375,0.21826514978408812,0.3089449531406164,-0.31537410940527916
1773258218556046800,7.184046875,0.879268221604824,-0.35640813058316706,0.3080997344881296
1773258218566058800,7.194058837890625,0.573267505222559,-0.5375882890760898,0.727104314237833
1773258218576071000,7.20407080078125,1.0279963093042372,-0.15028993018865586,-0.14872691865563392
1773258218586082800,7.214082763671875,1.024406468118727,0.02170855846107006,-1.871031772533059
1773258218596094700,7.2240947265625,-1.1797492977827786,0.14537293205261229,0.5053337866812944
1773258218606107000,7.23410693359375,-0.686243896061182,0.006941781961917877,2.0608003111511466
1773258218616118800,7.244118896484375,-1.5164794989496468,-0.007407061386108398,1.854015171280503
1773258218626131000,7.254130859375,-1.99285197956264,-0.302867679053545,0.9354448668569326
1773258218636142800,7.264142822265625,-1.7389461920768021,-0.1043120228677988,1.1949386836081743
1773258218646155000,7.274155029296875,1.7400228813976049,-1.214036767309904,1.1529425393998622
1773258218656168000,7.28416796875,2.7125270205825567,-0.7551958517342805,-0.7780822218030691
1773258218666179800,7.294179931640625,3.401352749830484,-0.35019174028635025,-1.627993416020274
1773258218676192000,7.30419189453125,2.4775053817868233,0.2921884641289711,-0.965343746036291
1773258218686204000,7.314203857421875,0.9116752842128276,1.0903747318059205,-0.024455226820707318
1773258218696215800,7.3242158203125,-0.6863046863377094,1.2153612939119338,1.081742512539029
1773258218706228000,7.33422802734375,-1.4332751460403204,0.4346405402988195,0.8901011657863854
1773258218716240000,7.344239990234375,-0.48171091903150076,-0.520344308808446,0.365796721175313
1773258218726251800,7.354251708984375,-0.40885991009324785,-0.8637824831813573,0.632656682780385
1773258218736264000,7.364263916015625,-0.496526210847497,-1.1300146682769059,2.236741399946809
1773258218746275800,7.37427587890625,-0.2786597049921751,-0.859094617626071,1.991857707828283
1773258218756288000,7.3842880859375,-1.3438883051037787,-1.0540274071395397,0.018652678021788598
1773258218766300000,7.3942998046875,-0.9737444946348667,-1.330411568415165,-0.13128303190171717
1773258218776312800,7.404312744140625,-0.014908815318346022,-0.976015362176299,-0.5966366903722286
1773258218786325000,7.414324951171875,0.4161936139822006,-0.486149193739891,-0.2287789450138807
1773258218796337000,7.4243369140625,1.2393173390388488,0.13104980766773222,-0.02112520561516285
1773258218806349000,7.43434912109375,1.2957692941009997,0.9697650696098804,-0.11680968539118766
1773258218816361000,7.44436083984375,0.8055904064536095,1.9927116943091152,0.13947802879512308
1773258218826372900,7.454372802734375,1.215399872356653,2.696152808886766,-0.4790343932986259
1773258218836385000,7.464385009765625,0.8652765211313962,2.559358320087194,-0.7865981212139129
1773258218846397000,7.47439697265625,0.9836252526581287,1.7355267390221356,0.28645547343492506
1773258218856409000,7.4844091796875,2.005243259102106,0.721499918359518,0.9096218588143586
1773258218866421000,7.4944208984375,1.6393284645050763,-0.5974854161560536,0.41109453727751966
1773258218876433200,7.50443310546875,2.5114976677596568,0.3520201247572899,-0.24437165094316005
1773258218886446000,7.514446044921875,2.506665425297618,-0.07195289105474949,-0.6085957159742713
1773258218896458200,7.524458251953125,2.340539628073573,-0.7954051125258207,-1.085185346469283
1773258218906470100,7.53447021484375,1.4818448234200476,-0.1814882015287876,-0.7837424395218491
1773258218916482000,7.54448193359375,0.9659364512324332,0.8433306467831134,0.4756248771160841
1773258218926494200,7.554494140625,0.37624972612857815,1.4805886858791113,0.6757827078014612
1773258218936506000,7.564506103515625,-0.29474750096201896,1.2579010434776543,0.6777502084821462
1773258218946518000,7.57451806640625,-0.9723001410454511,0.6695400140196085,1.809283464628458
1773258218956530200,7.5845302734375,-1.2412743183255195,0.6163502756237983,2.8854671739965676
1773258218966542000,7.5945419921875,-1.3355840026170014,1.3405167828440665,3.3694477915257215
1773258218976554000,7.604553955078125,-0.013561492362618445,0.4841898763656616,2.490353172922134
1773258218986566100,7.614566162109375,-0.22649054181575773,0.4358218590378761,1.5374413306966423
1773258218996578000,7.624578125,0.7137883210688829,-1.344028005835414,0.18002572776079176
1773258219006591000,7.634591064453125,2.21618668769598,-3.673522508281469,-3.8501772983044384
1773258219016603000,7.644602783203125,0.39839375339746474,-2.8196926793158053,-4.229146220263838
1773258219026615000,7.654614990234375,1.894018095844984,-3.0147762754768133,-3.6277941918075083
1773258219036627000,7.664626953125,1.5698106916427612,-1.4014543588876724,-1.5439976204723118
1773258219046638800,7.674638916015625,-1.0737743101388215,-0.09912439109683036,-2.172486369918287
1773258219056651000,7.684651123046875,-4.024892060175538,1.901295393371582,-4.213843437191843
1773258219066663000,7.694662841796875,-0.4725643205016851,2.5067706392377613,-0.3662438804209232
1773258219076674800,7.7046748046875,-0.1034708958685398,1.4731044676035643,0.7088593402341008
1773258219086687000,7.71468701171875,-0.25717618745863435,0.25050971530675886,0.11061550692617893
1773258219096699000,7.724698974609375,-0.7726204492658376,-0.029155951857566833,0.27695816177129745
1773258219106710800,7.734710693359375,-1.6796078679233788,0.7309428694874048,1.0746826571553945
1773258219116723000,7.744722900390625,-0.8951602027416229,-0.45008711575567717,1.7245155156642198
1773258219126736000,7.75473583984375,-1.8782891963154076,0.5241612367480993,0.7642255458861589
1773258219136748000,7.764748046875,-3.727479723918438,1.3491373116731642,-1.2784919960856438
1773258219146760000,7.774760009765625,-3.040860564804077,0.09039747928380966,-0.4306459177047014
1773258219156772000,7.784772216796875,-1.94445532066226,0.0009913491249084472,-0.9749620537310838
1773258219166784000,7.794783935546875,0.03634147944748401,-0.5147983651190996,0.4385261495605111
1773258219176796000,7.8047958984375,-0.4218704905748367,-0.31782325612306594,0.1320493400990963
1773258219186808000,7.81480810546875,-0.7456932793736457,-0.3010539076298475,-0.9003650779083371
1773258219196820000,7.824820068359375,0.7987269504249096,-0.09835808289945125,-0.7509747269079089
1773258219206831900,7.834831787109375,2.1821792041540147,0.648054158398509,-0.7523924847513437
1773258219216844000,7.844843994140625,1.7116595412224531,1.211429799681902,0.22962854758054016
1773258219226856000,7.85485595703125,1.513802973216772,1.198706511709094,0.6211360485956072
1773258219236868000,7.8648681640625,0.6871417216837405,0.6821656868368386,0.31024551434516906
1773258219246881000,7.874881103515625,0.29120997448563574,-0.05051847335994243,0.6515539832130074
1773258219256893000,7.884892822265625,-0.4965151049315929,-0.6972153719305991,1.9647469980627297
1773258219266905000,7.894905029296875,-2.208487949886918,-0.7218798575878143,1.306427466237545
1773258219276917000,7.9049169921875,-4.7117181400388475,-0.5576549255490303,0.5081885915905237
1773258219286929200,7.91492919921875,-5.615608177202939,-0.9347375953704118,-0.20125205566287038
1773258219296941000,7.924941162109375,-4.986005036774277,-1.8269997385829686,0.28784342066198587
1773258219306953000,7.934952880859375,-3.5634734030663964,-2.361584169667959,-0.35702830830812454
1773258219316965000,7.944965087890625,5.373271831479668,-0.4292728757858276,-3.301463511840999
1773258219326977000,7.95497705078125,9.955962609589099,-0.40415129401087757,-5.304876340645551
1773258219336989000,7.964989013671875,6.629763592681289,0.9758066878616809,-1.4932958994999528
1773258219347001000,7.9750009765625,1.744949816405773,2.681348622986674,0.9084621673852205
1773258219357013000,7.985012939453125,-5.780186160463094,0.7654740846425294,1.6537573873519897
1773258219367026200,7.995026123046875,-1.9147756371915339,0.3855407015651464,3.2862457767039537
1773258219377038000,8.0050380859375,8.299206624943018,2.264608481037617,3.1462042688071725
1773258219387050000,8.015050048828124,9.638177347388863,3.158637633922696,3.202157334436476
1773258219397062100,8.025062255859375,4.536052361053228,2.2290280490905046,0.0907657280743122
1773258219407074000,8.035073974609375,2.532597154411673,1.2483745057195423,0.587116874615848
1773258219417086200,8.045086181640626,3.788029177427292,-0.12148936764001846,2.487809625919163
1773258219427098000,8.05509814453125,1.9287848733216524,-1.007519338464737,2.7263804816290733
1773258219437110000,8.065110107421875,0.15683131465613842,-1.5182622907131909,2.738782282562554
1773258219447122200,8.0751220703125,-0.8549456812530756,-1.4804542458444834,2.726116862256825
1773258219457134000,8.085134033203126,-1.5182476776659488,-1.2209095756888388,2.275460422180593
1773258219467146000,8.09514599609375,-1.9956822345525025,-1.010624318742752,1.7677002851352095
1773258219477158100,8.105158203125,-2.089181186982989,-0.6789999162822962,1.0033084427714347
1773258219487170800,8.1151708984375,-1.7932336625814438,0.3082195614755153,-0.5863251397162675
1773258219497183000,8.125182861328126,-1.7562158913075923,2.058876649612188,-2.3201427367329597
1773258219507195000,8.13519482421875,-1.7152350616216658,1.779055499625206,-1.0571996074348688
1773258219517207000,8.14520703125,-1.0417302356243132,1.426136380201578,0.13798895928114652
1773258219527219000,8.155218994140625,-0.704138449192047,1.1191291171252726,0.0024155367091298102
1773258219537230800,8.16523095703125,0.08847907844185829,0.9196358878284692,-0.6741442929446697
1773258219547243000,8.175242919921875,0.07522913624644278,0.5150502940535545,-1.0206921237707138
1773258219557255000,8.1852548828125,-0.6070727441906929,-0.6637666913151741,-1.240143268468976
1773258219567266800,8.195266845703125,-2.064369986331463,-1.3988678495258091,-1.7564526226729154
1773258219577279000,8.205279052734374,-2.8555431603759525,-1.1639642841517925,-1.9191364627495406
1773258219587291000,8.215290771484375,-3.339190600427985,-0.7845756754755974,-1.6182745705604553
1773258219597303000,8.225302978515625,-4.298767453500628,-0.6086790103435517,-2.2334406048357485
1773258219607315000,8.23531494140625,-4.764682837507128,-0.38659401001036164,-2.4492016628444193
1773258219617327900,8.245327880859374,-3.9701241126775737,-0.15945114176571368,-1.7050217106431722
1773258219627340000,8.255340087890625,-2.0307669919371603,0.1931435680091381,-1.450930045196414
1773258219637352000,8.26535205078125,0.6742419081002473,0.6286269888728857,-1.4012228882193565
1773258219647364000,8.275364013671876,2.892753239351511,1.1459013887166976,-1.058594276663661
1773258219657376000,8.2853759765625,3.30354119489789,1.4266057512789965,-0.6149643742233515
1773258219667388000,8.295387939453125,2.4996838958472014,1.206690496200323,-0.3257984727859497
1773258219677400000,8.305400146484375,1.3376526255846022,0.8644739725768565,-0.4123562277764082
1773258219687412000,8.315411865234376,0.7370937933325767,0.6880541603535414,-0.20180589015334843
1773258219697424000,8.325423828125,0.42998716153502464,0.635150253161788,0.41855595919936894
1773258219707436000,8.33543603515625,0.25047698208093644,0.7057435463011265,0.8806637676164507
1773258219717448000,8.345447998046875,0.24233342311382292,0.7037988419741392,0.7861103376969695
1773258219727460000,8.355460205078124,0.23023323547542093,0.3382423592954874,0.41859073825180526
1773258219737473000,8.36547314453125,-0.3695850075423717,-0.5052344179600476,0.08562193544507027
1773258219747485000,8.37548486328125,-1.550754108995199,-1.3669295734733342,-0.21268851869553326
1773258219757497000,8.3854970703125,-2.363805352848768,-1.6848825934559106,-0.2903299767807126
1773258219767509000,8.395509033203124,-2.2335651079982517,-1.693044857123494,-0.5661933290526271
1773258219777521200,8.405521240234375,-1.1915402733415366,-1.4458721772849559,-1.175844983820617
1773258219787533000,8.415532958984375,-0.005040916776657104,-0.7103688680142164,-1.409277015337348
1773258219797545000,8.425544921875,0.5092763868272304,0.28318331989645956,-0.9501280567258595
1773258219807557000,8.43555712890625,0.4884218148469925,1.0125257684499025,-0.283924785913527
1773258219817569000,8.445569091796875,0.5534317548960447,1.166652500322461,-0.043700902299582955
1773258219827581000,8.455580810546875,1.0115659835070372,0.8989736235499382,-0.3053112728133797
1773258219837593000,8.465593017578126,1.4981366175293922,0.5096843831062317,-0.5709662425428629
1773258219847605200,8.475605224609374,1.81606801020205,0.3069096479207277,-0.6709817372605205
1773258219857617200,8.4856171875,1.8883581703871488,0.33019583096206184,-0.6932309784695506
1773258219867630300,8.49563037109375,1.7845336387753485,0.2920724365338683,-0.6203247322127222
1773258219877642200,8.505642333984374,1.4792548069268465,0.14323241289258,-0.4850511693701148
1773258219887654100,8.515654052734375,0.7365045952677727,-0.02963876693844795,0.030320027200877665
1773258219897666300,8.525666259765625,0.014410218146443367,-0.27539924189150333,0.42374972845017905
1773258219907678200,8.53567822265625,-0.43934068081378935,-0.38059447733461854,0.09342384136766195
1773258219917690000,8.545690185546874,0.6392325540393591,-0.8756865637257695,0.5159077876657248
1773258219927702300,8.555702392578125,0.3887923968374729,-2.5642475534334777,1.4204644720450044
1773258219937714200,8.565714111328125,-2.7533839316278694,-2.507043610960245,1.3795578766390681
1773258219947726300,8.575726318359376,-2.4162615162730217,-0.6186033152475953,2.1502163781821726
1773258219957738200,8.58573828125,-1.3409002292037009,1.3883856184780596,2.596520760528743
1773258219967750100,8.595750244140625,-0.41998131582736964,2.287869821898639,2.3324971913933754
1773258219977762300,8.60576220703125,0.5894412259101868,2.176659856210649,1.452878841176629
1773258219987774200,8.615774169921876,0.5500789373368025,1.5895885743021965,0.44439650289863347
1773258219997787100,8.625787109375,0.025161329263448714,0.4895630938366055,-0.24070786773860453
1773258220007799000,8.635799072265625,-0.5334598109692334,-0.5387777911216021,-0.4988055539563298
1773258220017811000,8.64581103515625,-1.4961913286805153,-1.1967620996430515,-0.5384858224377036
1773258220027823000,8.655822998046874,-2.95786196359992,-1.7297998858079313,0.00019084639698266982
1773258220037835000,8.6658349609375,-3.643655193284154,-2.544908938974142,0.6394324605256319
1773258220047847200,8.67584716796875,-0.8245762619525193,-2.18973151922971,-1.497631590616703
1773258220057859000,8.685859130859376,1.282051734393835,-0.0641942397519946,-2.6397297876581547
1773258220067871000,8.69587109375,2.4780565859287975,1.8580825668498873,-2.1126105778872963
1773258220077883100,8.705883056640625,2.363865558603406,2.7126836724489927,-1.3365201144233345
1773258220087895000,8.71589501953125,0.9281137933164835,2.1681530168890952,-1.0336772775501013
1773258220097907000,8.725906982421876,-0.7241326049506663,0.8235320135965943,-0.7666267618089914
1773258220107919000,8.735919189453124,-2.167327671980858,-0.4885968791529536,-0.6818354319691657
1773258220117932000,8.74593212890625,-2.77139889626801,-1.3425070798784493,-0.958572059944272
1773258220127944200,8.755944091796875,-2.054775644034147,-1.704580104355514,-1.5594988487258552
1773258220137956000,8.7659560546875,-0.7794424042403697,-1.655884754769504,-2.0818159189119934
1773258220147968000,8.775968017578125,0.5650853678107262,-1.2506959344044326,-2.142284416139126
1773258220157980200,8.785980224609375,1.5929063205480574,-0.7209867081403731,-1.6972908241301774
1773258220167992000,8.795991943359375,1.834246640971303,-0.5158312152981758,-0.7790756167545915
1773258220178004200,8.806004150390624,0.2509340781986713,0.03934709100425243,-0.5122907662123442
1773258220188016000,8.81601611328125,1.340821903270483,0.8659346927791833,-0.16585165645778177
1773258220198028000,8.826028076171875,1.5128466954052446,1.0489601868778466,0.5430363253489137
1773258220208040200,8.836040283203126,0.6790010853260755,0.8893003707975149,1.5198840466961263
1773258220218052000,8.846052001953124,0.4280179072886705,0.8401070085614919,1.6384052121803163
1773258220228064000,8.85606396484375,0.48178223070204257,1.031076155140996,1.1507505823135376
1773258220238076200,8.866076171875,0.35585458835363387,1.1841308738678693,0.9273325798109173
1773258220248089000,8.876089111328126,0.09716039754748344,0.9049141195148229,1.0946388189911842
1773258220258101200,8.886101318359374,-0.10538345149159431,0.4080605764091015,1.0750722409948705
1773258220268113200,8.896113037109375,-0.45935704840421676,0.08081658098995685,0.7045718721732497
1773258220278125000,8.906125,-0.8795973074287176,-0.009526537758111953,0.5135156318321824
1773258220288137200,8.91613720703125,-1.034932830569148,-0.05001227740347385,0.5801797688290476
1773258220298149000,8.926149169921874,-0.9807996738433837,-0.05016191500723362,0.6331076414182781
1773258220308161300,8.936161376953125,-0.933724618935585,0.016767010405659675,0.42360038310736414
1773258220318173200,8.946173095703125,-0.8935860852926969,0.05821954925656318,0.18435352783203124
1773258220328185000,8.95618505859375,-0.5691267521560192,-0.2940875757485628,-0.08642682208716869
1773258220338197200,8.966197265625,-0.9648276132076978,-0.16542203286886215,0.6523533168971538
1773258220348209200,8.976209228515625,-0.9543985736519097,-0.03290799786746502,0.317121829855442
1773258220358221000,8.986220947265625,-0.5889169097751379,-0.06264204187393188,0.058528469075262546
1773258220368234200,8.996234130859374,0.2740963425993919,0.17718670494258404,0.01516249781847
1773258220378246100,9.00624609375,0.669117404693365,0.5231313091784715,-0.014293606029450892
1773258220388258300,9.01625830078125,0.8301315579921007,0.6089116500556468,0.023503040662407874
1773258220398270200,9.026270263671876,0.8478688747346401,0.41648236779570574,0.14891425792127846
1773258220408282000,9.0362822265625,0.9648913260936737,0.21882570627629755,-0.43310646259933705
1773258220418294300,9.046294189453125,1.0066939935564994,0.0917418796300888,-0.588575548991561
1773258220428306200,9.05630615234375,0.9590601357221603,-0.264786077940464,0.5326081625759601
1773258220438318300,9.066318359375,0.9982166725903749,-0.46028877629637716,0.9648600541725754
1773258220448330200,9.076330322265624,0.9688637368559837,-0.24809622442424295,0.615019319280982
1773258220458342100,9.086342041015625,0.757087949091196,0.02586567814052105,0.13534399773031472
1773258220468354300,9.096354248046875,0.5442781421035527,0.15257716434299945,-0.15907909358292818
1773258220478366200,9.1063662109375,0.14954174216985702,0.14274725972414015,-0.3203653418213129
1773258220488379100,9.116379150390625,-0.02304828263223171,0.05740180313289165,-0.5736690717607736
1773258220498391000,9.12639111328125,-0.17960721008777616,-0.027519875088334082,-0.690137980890274
1773258220508403000,9.13640283203125,-0.21978490669727324,-0.1828729338854551,-0.7294204822257161
1773258220518415000,9.1464150390625,-0.06704407622516155,-0.2174123323470354,-0.8979048252746462
1773258220528427000,9.156427001953125,0.057063364958763116,-0.17373042700886726,-0.9202981511294841
1773258220538439200,9.166439208984375,0.009602525603771209,-0.08795300874114036,-0.7559741426303982
1773258220548451000,9.176451171875,-0.06766133134067058,0.03221767751574516,-0.5002426010221243
1773258220558463000,9.186462890625,-0.2067149972438812,0.1350771634876728,-0.30431758560091254
1773258220568475100,9.19647509765625,-0.4351671945214271,0.16842647538185118,-0.14690554844737053
1773258220578487000,9.206487060546875,-0.6405062272369861,0.1511152750968933,-0.014130524422228336
1773258220588499000,9.2164990234375,-0.6804962923198938,0.13512392523884773,-0.0071533788859844205
1773258220598511000,9.226510986328124,-0.5859948848485946,0.07103519168794155,-0.027824703253805635
1773258220608523000,9.23652294921875,-0.535491609057784,-0.0011795651733875275,-0.02030424462109804
1773258220618536200,9.2465361328125,-0.5405377865314483,-0.11001169581413268,-0.06173983233720064
1773258220628548000,9.256548095703126,-0.5471130732685328,-0.19645605355799198,-0.136212597258389
1773258220638560000,9.26656005859375,-0.4648977313965559,-0.20599837340712546,-0.262952725033462
1773258220648572200,9.276572265625,-0.1865033993422985,-0.1195090074777603,-0.3326806335151195
1773258220658584000,9.286583984375,0.013503624695539474,-0.09387889165878295,-0.2898883704930544
1773258220668596200,9.29659619140625,0.22632804473042487,-0.13852175098359584,-0.240848737514019
1773258220678608100,9.306608154296875,0.42392450049519537,-0.1736369035065174,-0.22793869479745626
1773258220688620000,9.3166201171875,0.48266135162413115,-0.19131167640686034,-0.13888181646764278
1773258220698632200,9.326632080078125,0.3901385507494211,-0.17897066574990747,-0.017037936301529406
1773258220708644000,9.33664404296875,0.2870131073176861,-0.10393208363950251,0.1898430651590228
1773258220718656000,9.346656005859375,0.21879940279126167,-0.02798047833740711,0.38797845010608434
1773258220728668200,9.356668212890625,0.16128127980232237,0.019907646518945693,0.42403029895722866
1773258220738681000,9.36668115234375,0.15144026926755905,0.028183891955018043,0.3308180545136332
1773258220748693200,9.376693359375,0.10861819562911987,0.020185878938436506,0.22739187456965446
1773258220758705200,9.386705078125,0.050069560548663135,0.028940263280272483,0.2419356559678912
1773258220768717000,9.396717041015625,-0.0781868170082569,0.057413493570685384,0.29067133756428953
1773258220778729200,9.406729248046876,-0.24932488943636416,0.1407066938072443,0.32202859885841606
1773258220788741000,9.4167412109375,-0.3457067038267851,0.16662439439594745,0.2483779639750719
1773258220798753300,9.426753173828125,-0.3555126430481672,0.11279635809659957,0.12303835064768791
1773258220808765200,9.43676513671875,-0.25929098765552044,0.13186696926951408,-0.05712444749623537
1773258220818777000,9.446777099609376,-0.06875906344950199,0.23883505960404872,-0.2082420606806874
1773258220828789200,9.456789306640625,-0.11339432398974895,0.2546738492488861,-0.357711906658113
1773258220838801200,9.46680126953125,-0.2614876209169626,0.08539163382053375,-0.5077276960805058
1773258220848813800,9.476813720703126,-0.3735089029878378,-0.13093290328979493,-0.6265411225095391
1773258220858825700,9.48682568359375,-0.4590747243314981,-0.2640951730668545,-0.7307607909187674
1773258220868838700,9.496838623046875,-0.5145604647099972,-0.2606266201734543,-0.7939242263182997
1773258220878850800,9.506850830078125,-0.45251229707598684,-0.16814941200613975,-0.7050985263958572
1773258220888862700,9.51686279296875,-0.3025836014151573,0.0018295535147190092,-0.6119099550887942
1773258220898875000,9.526875,-0.11863514725267886,0.1492541574001312,-0.6318731311872601
1773258220908886800,9.53688671875,0.013750292932987213,0.26731881128847595,-0.6965259283617139
1773258220918898700,9.546898681640625,0.1285544837206602,0.2952291469991207,-0.619314386126399
1773258220928910800,9.556910888671876,0.11163783571124077,0.24518238280415533,-0.4689814935788512
1773258220938922800,9.5669228515625,-0.018064064478874205,0.18403905505537985,-0.45469344050735233
1773258220948934700,9.5769345703125,-0.04938040924072265,0.1536684667110443,-0.3845446762651205
1773258220958946800,9.58694677734375,-0.15872984175384044,0.1443926888436079,-0.21622136899679897
1773258220968958700,9.596958740234374,-0.18898177215456963,0.1082464397072792,-0.007009586501121521
1773258220978971000,9.606970947265625,-0.2195288861095905,0.0017383680999279022,0.03772854989171028
1773258220988983600,9.616983642578125,-0.253642752635479,-0.07943944741785526,0.17901041323840616
1773258220998995500,9.626995361328126,-0.052284898510575294,-0.10667524486780167,0.18409370785206555
1773258221009007600,9.637007568359374,0.31210721656382084,-0.13711714488267898,0.11996318098604679
1773258221019019500,9.64701953125,0.47675358888506886,-0.19311901808977125,0.1487847863227129
1773258221029031700,9.65703173828125,0.3614081308275461,-0.2577858437895775,0.3545990353345871
1773258221039043600,9.667043701171876,0.007384849554300308,-0.24127777658104896,0.6038344929218292
1773258221049055500,9.677055419921874,-0.18123042737543582,-0.08953940114974974,0.9173936618596314
1773258221059067600,9.687067626953125,0.34846915427744385,-0.21256664588153362,0.818120217680931
1773258221069079600,9.69707958984375,0.48061435596644875,0.13149345978200436,0.6175336401894688
1773258221079091500,9.707091552734376,-0.3603717735171318,0.5279074375391006,0.5073790287733078
1773258221089103600,9.717103515625,-1.1611363672494888,0.5447410834401846,0.25682430528104305
1773258221099115500,9.727115478515625,-1.0390028564870357,0.42791503143608567,-0.08776654625833034
1773258221109128700,9.737128662109376,-1.1084428879380226,0.12436463081538676,-0.3735413439527154
1773258221119140600,9.747140625,-0.981686978071928,-0.06989478948116302,-0.8741545318529009
1773258221129152500,9.757152587890625,-0.17927637069821356,-0.18372458227872848,-1.101963170529902
1773258221139164700,9.76716455078125,0.40619069088399407,-0.19632979682981966,-0.9351078899875283
1773258221149176600,9.777176513671876,0.03655366089344025,-0.11009177531301975,-0.9666542441129684
1773258221159188700,9.787188720703124,0.19976035580039023,-0.14133973101377487,-0.958538449935615
1773258221169200600,9.79720068359375,1.4170003030657767,-0.49813130795657634,-1.3080495144814253
1773258221179212500,9.807212646484375,1.7010399475306273,0.13302023095786572,-1.5392533485546707
1773258221189224700,9.817224609375,0.770109343227744,0.9994032520264386,-0.5670201352655887
1773258221199236600,9.827236572265624,-0.40423604968488214,1.181941839390993,-0.045455929273366925
1773258221209248500,9.83724853515625,-0.5169827234208584,0.5895008471429347,0.3325564226135611
1773258221219260700,9.8472607421875,-0.8283528578817844,-0.294641117978096,1.0453513487309216
1773258221229272600,9.8572724609375,-0.7232815410792827,-0.5807230819255114,1.1932520456954836
1773258221239285800,9.86728564453125,-0.6624450873225927,-0.5016477916449308,1.0320227883413433
1773258221249297700,9.877297607421875,-0.5768833576321601,-0.49792614077329633,0.6362547072723508
1773258221259309800,9.887309814453126,-0.270431390351057,-0.4093500316977501,0.40066842033118005
1773258221269321700,9.89732177734375,-0.2896183213800192,0.09884440511167049,1.2309899479374289
1773258221279333600,9.907333740234375,0.3969698580741882,0.7018956387013197,0.8938722087576985
1773258221289345800,9.917345703125,0.7457809576570987,1.1256623182862997,0.47504532366245983
1773258221299357700,9.927357666015626,0.8308774079233407,1.1578250507444143,-0.020122750574350357
1773258221309369600,9.93736962890625,1.0916887370139359,1.0289046563208102,-0.07194529227018356
1773258221319381800,9.9473818359375,0.9853934313744306,0.6057938102960586,0.17752368181198835
1773258221329393700,9.9573935546875,0.650391076913476,0.21940029129385946,-0.029623861630260942
1773258221339405600,9.967405517578126,0.2811334016293287,-0.23717794004678724,-0.23050620719790457
1773258221349417700,9.977417724609374,-0.08157295231521129,-0.7100736844599247,-0.24546733722537756
1773258221359430700,9.9874306640625,-0.2573632344633341,-0.8880722903072833,-0.22273498867452143
1773258221369442800,9.99744287109375,-0.3270411663234234,-0.7439139947414398,-0.39067426506131886
1773258221379454700,10.007454833984376,-0.048286184263229365,-0.46744800040125845,-0.7115063476115465
1773258221389467000,10.017466796875,0.23908055879771709,-0.130563485455513,-0.8014511146917939
1773258221399478800,10.027478759765625,0.3066892831683159,0.11980594459772109,-0.7527747620671987
1773258221409490700,10.03749072265625,0.05071078106164932,0.19809096128344536,-0.5236623473152517
1773258221419502800,10.0475029296875,-0.2259393376737833,0.21618717446625232,-0.17736147698760032
1773258221429514800,10.0575146484375,-0.6541109742194414,0.12322481313049792,-0.03404956911802292
1773258221439526700,10.067526611328125,-1.180873333376646,-0.15397650974690913,-0.28532851523160935
1773258221449538800,10.077538818359375,-0.667011956846714,0.021199439895153046,-0.1277457976862788
1773258221459550700,10.08755078125,-0.6429857690930366,-0.05529284815490246,-0.4787468085289001
1773258221469563000,10.09756298828125,0.38406712188124653,-0.323938524132967,-0.9608581250548363
1773258221479575600,10.107575439453125,0.5150812737137079,-0.40767654552757737,-1.012155473832786
1773258221489587500,10.11758740234375,0.550133882394433,-0.3176063985019922,-0.8423913201063871
1773258221499599600,10.127599609375,0.4520341581702232,-0.23948797055482862,-0.7527393984928726
1773258221509611500,10.137611572265625,0.36423663225173947,-0.010132102435827255,-0.4731263382986188
1773258221519623700,10.147623779296875,0.16184885055720805,0.29168519078195093,0.016667349423468113
1773258221529635600,10.157635498046876,0.02258651033937931,0.3988683851718902,0.2335422138929367
1773258221539647500,10.1676474609375,-0.06764262664020061,0.21232582286298274,0.1651861782863736
1773258221549659600,10.17765966796875,-0.38132688326239583,-0.17686404885947704,0.19875994658619164
1773258221559671600,10.187671630859375,-0.39765141059756276,-0.2639367676347494,0.2896148142486811
1773258221569683500,10.197683349609376,-0.5002233117997646,-0.05806991165280342,0.19569237570911643
1773258221579695600,10.207695556640624,0.2377595393270254,0.2869429646909237,0.06312748730331659
1773258221589707500,10.21770751953125,0.4319038088113069,0.25352584825754165,-0.37942309546768666
1773258221599720700,10.227720703125,0.18991350004673002,0.01436345639526844,-0.29931583179086446
1773258221609732600,10.237732666015624,0.5366898789316416,0.13529811276197432,-0.11646131034493445
1773258221619744500,10.24774462890625,0.4267535864412784,0.39700843651890755,-0.32570962545871734
1773258221629756700,10.257756591796875,0.06300502996742725,0.14331424595713615,0.05116583135277033
1773258221639768600,10.2677685546875,7.637862192338704,3.021125352242589,-4.321746178027987
1773258221649780700,10.27778076171875,18.46794455472827,5.196371542263031,-7.782118687582016
1773258221659792600,10.287792724609375,8.632229203763604,-0.022685879060626028,1.9545441684782503
1773258221669804500,10.297804443359375,-0.005050853648781776,-1.3410247323662041,4.566525240728259
1773258221679816700,10.307816650390626,-7.649070984095334,-1.958634652662277,1.3711235180318355
1773258221689828600,10.31782861328125,-8.23508282007873,-1.3600456591784953,-1.765269258596003
1773258221699840500,10.327840576171875,-6.350647376093268,-1.3474959742069244,-1.457730811252445
1773258221709852700,10.337852783203125,-4.670877011084556,-1.4433791914254426,1.1846854390107096
1773258221719865600,10.347865478515626,-4.930231711626052,-0.5757078841120005,1.6314909027472138
1773258221729877800,10.357877685546875,-5.927201599025726,0.6624561932384967,0.6933401379324495
1773258221739889700,10.3678896484375,-5.038322083988786,0.8394383155196905,0.9737532624632119
1773258221749901800,10.37790185546875,-3.8543829333007333,0.32991818306446075,1.4602613526433705
1773258221759913700,10.387913818359374,-2.8452748643398285,-0.1809960340976715,1.4354106967642903
1773258221769925600,10.397925537109375,-2.542280344036221,-0.6963210534393787,1.1674795987963675
1773258221779937800,10.407937744140625,-2.8983108734786507,-0.5454115300476551,2.072900498789549
1773258221789949700,10.41794970703125,-0.46768882341980933,0.47448096777796744,2.3536609754532574
1773258221799961600,10.427961669921874,0.8333914365708828,0.7305734516531228,0.7659684440307318
1773258221809973800,10.437973876953125,0.9131243139773607,0.7526999432653189,-0.5911423307396472
1773258221819985700,10.447985595703125,1.0348924985587595,0.8629735048860311,-0.6288593363240361
1773258221829997600,10.45799755859375,1.1675468188136815,1.1299497863471508,-0.29055107218548654
1773258221840010800,10.4680107421875,1.1507353847444057,1.351696933028102,-0.5536600106939673
1773258221850022700,10.478022705078125,1.2224047826826572,1.1637509336620568,-1.0969526488915085
1773258221860034800,10.488034912109375,1.4347627542495727,0.5621890618473291,-1.657011859103292
1773258221870046700,10.498046630859376,1.5269780966103077,-0.045483986324071884,-1.9710517972953616
1773258221880059000,10.508058837890625,1.554132060995698,-0.4804910218477249,-2.073896377959102
1773258221890070800,10.51807080078125,1.9784213031500577,-0.5672036751389503,-2.399260989372432
1773258221900082700,10.528082763671875,2.190461294808984,0.176608612793684,-2.3375031829871236
1773258221910094800,10.5380947265625,1.473358150103688,0.12681670014262197,-1.760730884514004
1773258221920106800,10.548106689453125,0.7343120536595582,-0.3934007674157619,-1.0791787995308637
1773258221930118700,10.55811865234375,-0.4910217682123184,-1.0134639260828495,-0.7069188736908137
1773258221940130800,10.568130859375,-2.2507629110366105,-0.17398878568410872,0.31346433026120063
1773258221950142700,10.578142822265624,-2.0842215187489983,-1.034199840119481,-0.13889467594921587
1773258221960155600,10.58815576171875,-1.7265385459244251,-1.0658639754056929,-0.5813431135199963
1773258221970167600,10.59816748046875,-1.7703332639873026,-1.1231669943392275,-0.19802739452794194
1773258221980179500,10.608179443359376,-2.003310829734802,-0.4725532145857811,0.09499211359769105
1773258221990191600,10.618191650390624,-2.636563140320778,0.8548445589661597,1.0061869208171963
1773258222000203500,10.62820361328125,-2.0387468847751617,1.570952262893319,1.216521715993434
1773258222010215700,10.638215576171875,3.277241216993332,-0.597685907164216,0.4199734247818589
1773258222020227600,10.6482275390625,1.7396715837419032,-1.3729074788391589,-0.0376307886056602
1773258222030239500,10.658239501953124,-0.023942016601562498,-1.019056047001481,-1.0156623129099607
1773258222040251600,10.668251708984375,-0.5695651435732841,-1.7916174595564602,-2.7813445362210274
1773258222050263600,10.678263671875,2.5947873608648777,-1.279196344962716,-2.6347607670739293
1773258222060275500,10.688275390625,5.9156128680407996,-0.5205927306115627,-2.476071549591422
1773258222070288600,10.69828857421875,2.4626889209270475,-1.6724994972229004,-2.3623288505554196
1773258222080300500,10.708300537109375,0.0531166731595993,-1.8176976572304964,-1.6246046503648162
1773258222090312700,10.718312744140626,-0.8484931441128254,-1.823927491530776,-1.9445836232170461
1773258222100324600,10.72832470703125,-0.2349456509500742,-1.4909768089026212,-2.358687863704562
1773258222110336500,10.73833642578125,0.7180839724361896,-1.8204110078424214,-1.8386413687989114
1773258222120348700,10.7483486328125,0.9246750510394572,-1.7330062806338071,0.22031214544177055
1773258222130360600,10.758360595703126,1.52786890797019,-2.05051798658967,2.15051010043174
1773258222140372700,10.768372802734374,1.02883042204082,-2.124545345830917,3.7866383075907826
1773258222150384600,10.778384521484375,-0.06377484529614448,-2.184509108406305,3.52532750454545
1773258222160396500,10.788396484375,-1.6435902136027811,-2.2318401839017867,1.936847768267989
1773258222170408700,10.79840869140625,-4.1746600123167035,-2.180721406561136,0.5814616253331303
1773258222180420600,10.808420654296874,-6.254733763736486,-1.8997697912395,0.2029120978295803
1773258222190432500,10.8184326171875,-6.680978816133737,-1.4128022668540476,0.6015601182490586
1773258222200445700,10.82844580078125,-5.894888059920072,-0.9322808498680591,1.1299988861858845
1773258222210457600,10.83845751953125,-4.99168775858581,-0.655832975706458,0.9903343949079513
1773258222220469800,10.8484697265625,-4.090450866279006,-0.3647790685653686,0.614122370441258
1773258222230481700,10.858481689453125,-2.8548084163606164,-0.04070844248533249,0.8290849715486168
1773258222240493600,10.86849365234375,-1.6478063699930905,0.4900263274341821,1.0338456198543309
1773258222250505700,10.878505615234374,-0.6279781695753336,1.0147568885028362,0.925811361593008
1773258222260517600,10.888517578125,0.16999767022132872,1.332869482961297,0.8203753031313419
1773258222270529800,10.89852978515625,0.6912614319622516,1.7206448117107151,0.9537167288675904
1773258222280541700,10.908541748046876,1.3631202443182469,2.0444144090175627,0.6850909266337752
1773258222290553600,10.9185537109375,1.8109516901016234,1.7274568298131225,0.6285059928417206
1773258222300565800,10.928565673828125,2.1872329804122446,1.8797154297262428,0.8044923820838332
1773258222310578700,10.93857861328125,2.00648536811769,2.2545336617469784,1.0076189994469285
1773258222320590800,10.9485908203125,2.1084540427297354,2.2906834180146456,0.5879600474417209
1773258222330602800,10.958602783203125,2.045721399962902,2.4664503192871807,0.09264759629815816
1773258222340614700,10.96861474609375,2.0724849037259814,2.023840992066264,-0.2292743273153901
1773258222350626800,10.978626708984375,2.4715356597274543,1.0742314062565566,0.035298692396283145
1773258222360638700,10.988638671875,2.7974498678475617,0.0739262369543314,0.4237681408897042
1773258222370651000,10.99865087890625,2.9869886893630024,-0.7279781744629145,0.9518737313494086
1773258222380662800,11.008662841796875,2.672034851196408,-1.1835638876348733,1.0045400303930043
1773258222390674700,11.0186748046875,2.205192415472865,-1.191518646031618,0.9296098770931362
1773258222400686800,11.028686767578124,2.3408956019043923,-0.9627087213575839,0.4703106963559985
1773258222410698800,11.03869873046875,2.3037889833033085,-0.16712591417729852,-0.09031623074114323
1773258222420711700,11.048711669921875,2.1036463501870633,-0.2601578336179256,-0.21633184363394975
1773258222430723600,11.0587236328125,1.8049205932438372,-0.345850496211648,-0.23741028749793766
1773258222440735500,11.068735595703124,0.5670546220570802,-0.08821253646016121,-0.9288716259464621
1773258222450747600,11.07874755859375,-1.06482528000772,0.13515256681144236,-1.6643986083537339
1773258222460759600,11.088759521484375,-1.4673364055961369,0.32144436922967434,-1.7796546345621347
1773258222470771500,11.098771484375,-1.664508498468995,-0.42986733454763887,-1.5578852760493755
1773258222480783600,11.10878369140625,-2.69866333040297,-0.558451628884673,-1.2596505174934862
1773258222490795500,11.11879541015625,-2.79674434992671,-0.8953659544467926,-1.6803782677739858
1773258222500807700,11.1288076171875,-3.1528122887700794,-1.0575503205686807,-1.3838333620011807
1773258222510819600,11.138819580078126,-3.1671850975155826,-0.20396423723101614,-1.3123521801114082
1773258222520831500,11.14883154296875,-2.5481436831116673,0.3060971624940634,-2.1695488551616666
1773258222530843600,11.15884375,-1.3444541222929953,0.3518956215947866,-2.4921020624160763
1773258222540856600,11.168856689453126,-0.9661913027763366,0.704421942308545,-1.7413398092150687
1773258222550868700,11.17886865234375,-0.1508849734723568,1.1291630198836327,-1.9830746819138525
1773258222560880600,11.188880615234375,1.3205500996142625,1.5319734206795692,-2.3656214623600245
1773258222570892500,11.198892578125,2.195197675681114,1.732538078600168,-1.8571604835689066
1773258222580904700,11.20890478515625,2.604652921319008,1.7671534649074077,-1.5016343965172767
1773258222590916600,11.21891650390625,2.989289367520809,1.7474480629622935,-1.5556109013766048
1773258222600928500,11.228928466796875,3.059583385452628,1.804315028566122,-1.6004799706727266
1773258222610940700,11.238940673828125,3.040625002482533,2.2357383603841066,-1.6832289810299872
1773258222620952600,11.24895263671875,3.7520612074673174,2.650160873040557,-1.8532129149869083
1773258222630964700,11.25896484375,4.896409521523117,3.652547524791956,-1.5916665496200322
1773258222640976600,11.2689765625,6.539109508287906,3.8506022457182407,-1.0166425561189651
1773258222650989800,11.27898974609375,6.348129840314388,2.5599533633708953,0.7778115881681442
1773258222661001700,11.289001708984374,3.3671032742261886,-0.04103869735300541,2.3936346739232537
1773258222671013600,11.299013671875,-0.8084358590126037,-1.9653198295146226,2.516777069467306
1773258222681025800,11.30902587890625,-2.265281265732646,-2.491526892876625,1.4255840070158243
1773258222691037700,11.31903759765625,-1.106565988150239,-1.9408686943471432,0.7035270392954349
1773258222701049600,11.329049560546874,0.1848170536905527,-1.8105320033848284,1.3519219739556312
1773258222711061800,11.339061767578125,0.03506722172796726,-1.9881962627112864,1.0270113899201154
1773258222721073700,11.34907373046875,-0.3539747659564018,-1.9985911077365277,0.4960369660258293
1773258222731085600,11.35908544921875,-0.4541296691447496,-1.0067141595616935,0.5506202046066522
1773258222741097700,11.36909765625,-0.05970131224691867,-0.7106333641692996,0.7391945650041103
1773258222751109600,11.379109619140625,0.3855810335755348,-0.6876923413038253,0.15040741908848285
1773258222761122800,11.389122802734375,1.310690968900919,-0.46729865505844354,-0.5754319897800684
1773258222771134700,11.399134765625,1.171436227467656,-0.8092156112134457,-0.7681015105366706
1773258222781147000,11.40914697265625,1.2745213388890027,-0.7706190463155508,-0.379707757627964
1773258222791158800,11.41915869140625,1.5321616367280482,-0.8908122366651892,-0.45314825689196586
1773258222801170700,11.429170654296875,1.6922469847440718,-0.8958195434331894,-0.6369108330935239
1773258222811182800,11.439182861328124,0.9386696741223335,-0.36866087843477724,-0.2253594919592142
1773258222821194800,11.44919482421875,0.14608020353913306,0.04827770869582891,0.44762920120954514
1773258222831206700,11.45920654296875,0.09042553633451461,0.12491495817452668,0.43746202746033663
1773258222841218800,11.46921875,-0.7659066308408975,-0.13836363781243563,0.7895043640494346
1773258222851230200,11.479230224609376,-2.2688287290811537,-0.18479922577291727,1.6835218264967202
1773258222861242000,11.4892421875,-1.0460112739443779,-0.22514380338191986,0.6005956571310759
1773258222871255000,11.499255126953125,-1.0240689067274331,0.6074956457778811,0.4329132781147957
1773258222881267000,11.509266845703126,-0.8681406783908605,0.8633940683856606,0.40697628830373284
1773258222891279000,11.519279052734374,-0.6271738674551248,0.660941404761374,0.12694061878323554
1773258222901291000,11.529291015625,-0.48814358242750167,0.5652417274162173,-0.34473055227100846
1773258222911303200,11.53930322265625,-0.5757423709034919,0.49788990041613573,-0.4925865333110094
1773258222921315000,11.549315185546876,-0.8164718659520149,0.6767524296164512,-0.07685586066544055
1773258222931327200,11.5593271484375,-0.954112742447853,0.9567048047676682,0.5359358456939458
1773258222941339100,11.569339111328125,-0.8836293394237756,1.2703490216404199,0.9361445395588874
1773258222951351000,11.57935107421875,-0.6198989080160856,1.5560010697379707,1.0234189183861018
1773258222961363200,11.58936328125,-0.3600304127335548,1.534698461729288,0.7981284000098705
1773258222971375000,11.599375,-0.274420752248168,1.4740440865412354,0.6051636956989764
1773258222981387300,11.60938720703125,-0.5622136117666959,1.235398412029445,0.23545652308166026
1773258222991400200,11.619400146484375,-0.7917465900182723,0.9764452780261635,0.019763854134082794
1773258223001412000,11.629412109375,0.003925064489245415,1.8170912157699464,0.1115098254173994
1773258223011424000,11.639424072265625,1.4869967993557451,4.514046573211252,2.280844161045551
1773258223021436200,11.649436279296875,2.5763503714203835,5.013650584068894,5.532516637018323
1773258223031448000,11.659447998046875,1.3371961139887572,3.8490412800118325,4.301912765789032
1773258223041460000,11.6694599609375,-1.1732482453256845,2.4685750563561917,2.2492823170900342
1773258223051472100,11.67947216796875,-2.268124964725971,0.7543149772465229,1.0306325030267238
1773258223061484000,11.689484130859375,-1.5271388401299715,-0.05824482982829213,-0.7989397163927555
1773258223071496200,11.69949609375,0.10134674332141876,-0.47285804275125265,-1.73510822134912
1773258223081508000,11.709508056640624,1.0211930590301752,-1.1687331059888004,-1.484975522661209
1773258223091521300,11.719521240234375,1.40330495519042,-1.1597615717649459,-1.286473642489314
1773258223101533200,11.729533203125,1.9927251383125781,-1.28977297629565,-1.049910619470477
1773258223111545000,11.739545166015626,-0.98177640992105,-1.3927135646797715,-1.5395330422788858
1773258223121557200,11.74955712890625,-3.57818172737658,-0.6491054210171103,-0.45270869643092154
1773258223131569200,11.759569091796875,-2.486047584682703,-0.5464496409237385,0.5455874711364508
1773258223141581000,11.7695810546875,-1.0213561406373977,-0.5969491173222661,1.1218798771381377
1773258223151593200,11.77959326171875,-1.0092524458676575,-0.555650599989295,0.823862560725212
1773258223161605000,11.789605224609375,-1.3597434613615274,-0.6838856424972415,0.4525006066381931
1773258223171617300,11.7996171875,-1.0747907937049865,-1.3043588432699442,-0.34763796415030956
1773258223181629200,11.809629150390625,0.25251520991027354,-1.7913693300142883,-1.6459671718671918
1773258223191641000,11.81964111328125,1.2898410730957983,-2.100981514891982,-2.4480396333277223
1773258223201654300,11.829654296875,1.225319793346524,-1.5805147487476467,-1.9439710442766547
1773258223211666200,11.839666259765625,-0.9984878907471895,0.28421090937852855,-1.2029852119415998
1773258223221678300,11.84967822265625,-2.2617700427412983,0.5565536863088607,-0.1464768016412854
1773258223231690200,11.859690185546874,-1.6512731693208216,-0.2620978617697954,0.17501462160050868
1773258223241702100,11.8697021484375,-1.6083552340924738,-0.7357640060335398,0.2339776827007532
1773258223251714300,11.87971435546875,-1.2144289814978837,-1.049619819830358,-0.17072072379887104
1773258223261726200,11.889726318359376,-0.753262837845087,-0.8917518556028604,-0.22446868059933184
1773258223271738000,11.899738037109374,-0.772258045694232,-0.720067547468841,-0.3503612516343593
1773258223281750300,11.909750244140625,-1.376314656934142,-0.895833279697597,-0.239977799898386
1773258223291762200,11.91976220703125,-1.9141069441497325,-1.3051660679996013,0.12781155639886854
1773258223301774300,11.9297744140625,-2.3155267673701045,-1.2556012421026825,0.46690644087046385
1773258223311786200,11.9397861328125,-2.1684815181910992,-0.4638488068655133,-0.5193097050637007
1773258223321799000,11.949798828125,-1.208175181800127,0.19423370133340356,-0.8734004986152052
1773258223331811000,11.95981103515625,-0.2966016043961048,0.4481333513393998,-0.850642431101203
1773258223341823000,11.969822998046874,-0.2483335403114557,0.6771288617134094,-1.0826873921737075
1773258223351835100,11.979835205078125,-0.03693418464362621,0.9655682024419308,-1.3614265921428799
1773258223361847000,11.989846923828125,0.05780746132433414,1.1504933926820755,-1.144328440311551
1773258223371859200,11.999859130859376,-0.5949287174105644,1.0385130271434784,-0.7876829938411712
1773258223381871000,12.00987109375,-0.6053507427036762,0.3834896142542362,-1.741191925176978
1773258223391883000,12.019883056640625,-0.3189560595452785,0.4206757278323173,-1.5189292301893234
1773258223401895200,12.029895263671875,-0.40341947260499,0.26331191373467444,-0.5828221000313758
1773258223411907000,12.039906982421876,-0.3953846347093582,-0.7149076804876328,-0.6238485224246978
1773258223421920000,12.049919921875,-1.066979243171215,-0.9166589178442954,-0.7002858654171228
1773258223431932200,12.05993212890625,-0.9150964908331632,-0.21545418401658534,-0.9763239897340535
1773258223441944000,12.069944091796875,-0.286188931453228,1.1384978344619274,-1.1717214741498232
1773258223451956200,12.079956298828124,0.8668018310025334,1.9766870267033576,-1.2932131798774003
1773258223461968100,12.089968017578125,1.9971724731102585,2.217717550525069,-0.8824626337319612
1773258223471980000,12.09997998046875,2.468900927309692,2.220442591574788,-0.22652385956346988
1773258223481992200,12.1099921875,1.8590066959574818,1.9100947858989237,0.37793724082410335
1773258223492004000,12.120004150390624,0.6599483020707965,1.6021791758060455,-0.24776421599090098
1773258223502016000,12.13001611328125,-0.016343232035636902,1.7882132040709255,-1.1810106960207223
1773258223512028200,12.140028076171875,-0.8575175045024603,1.628258204436302,-1.021885132947564
1773258223522040000,12.1500400390625,-1.1918652675122021,1.4490847095906734,-1.581866455617547
1773258223532052000,12.160052001953124,-1.7810522264003752,1.354337218403816,-1.9900772541522977
1773258223542065200,12.170065185546875,-2.752763753902912,1.5106570764064788,-2.4204782571852204
1773258223552077000,12.1800771484375,-3.1070927401244637,1.8114865276306866,-1.8934727369219064
1773258223562089200,12.190089111328126,-3.2474533969730137,1.6098516101300715,-1.0457523307472467
1773258223572101000,12.20010107421875,-2.939467351992428,1.4071476020932197,-0.7980214325040579
1773258223582113300,12.21011328125,-2.9005703428432343,1.380040983980894,-0.7384247496753931
1773258223592125200,12.220125244140625,-3.1677114594772458,1.358716456401348,-0.9562380640387534
1773258223602137000,12.23013720703125,-3.107730161245167,1.0962445006221533,-0.8725017962098122
1773258223612149200,12.240149169921875,-2.6184692652255297,0.6220908651024103,-0.5316489621549845
1773258223622161200,12.2501611328125,-1.9325883572578428,0.3260544933736324,-0.29756723455786704
1773258223632173000,12.260173095703125,-1.6956459795325993,0.3590899170130491,-0.017181436425447463
1773258223642185200,12.270185302734374,-1.3491723829865454,-0.054501697777211665,-0.010111644169688225
1773258223652198100,12.2801982421875,-1.1747259166628121,-0.5114478856474161,0.20247896710932253
1773258223662210300,12.290210205078125,-1.0733487782031297,-0.946990343222022,0.059767947742342946
1773258223672222200,12.30022216796875,-0.9303080884903668,-1.2662111911833285,-0.04279752371907234
1773258223682234000,12.310234130859374,-0.9499924476474523,-1.4403522448197006,-0.15534370644688605
1773258223692246300,12.320246337890625,-0.806583509144187,-1.4684753464981912,-0.1768961975634098
1773258223702258200,12.330258056640625,-0.6112479840487242,-1.384047004751861,0.027905659535527226
1773258223712270300,12.340270263671876,-0.6170189686655998,-1.341976041741669,0.17038813084363935
1773258223722282200,12.3502822265625,-0.4519295287519693,-1.5551117196828126,0.1316916127026081
1773258223732294100,12.360294189453125,-0.3008762129753828,-1.569115402854979,0.34846272453665733
1773258223742306300,12.370306396484375,-0.04882628248929977,-1.3375154090709984,0.7169143441349267
1773258223752319000,12.380319091796874,0.3174462395042181,-1.3863929833561182,0.9381365901589394
1773258223762331100,12.3903310546875,0.10176467647254467,-1.2819511966288089,1.0546470003426074
1773258223772343000,12.400343017578125,-0.17644903831779957,-1.270442691273242,1.0257277798503637
1773258223782355000,12.41035498046875,-0.6795084503263235,-1.08023459219411,0.9981535442262888
1773258223792367000,12.4203671875,-0.6645400137752294,-0.7330792969942093,0.8515852649092673
1773258223802379000,12.43037890625,-0.4474947611749172,-0.41668402784764763,0.9440133732378482
1773258223812391200,12.44039111328125,-0.1248071138858795,-0.06179959970042109,1.0877630880028009
1773258223822403000,12.450403076171876,0.5912988364756107,0.45822314900346095,0.7764940758287906
1773258223832415000,12.4604150390625,1.0360323162436484,0.6969516794931143,0.33393794009983535
1773258223842427100,12.47042724609375,0.8332645953208208,0.5862075777512044,0.41214755346179005
1773258223852439000,12.48043896484375,0.45947862895727154,0.4674561837077141,0.44584699396789074
1773258223862451700,12.49045166015625,0.12500117515325546,0.43069720950052137,0.22865911802649497
1773258223872464000,12.5004638671875,-0.10853051734566688,0.5449230158783495,0.24457038838565348
1773258223882475800,12.510475830078125,-0.13908464556336403,0.6938146966416389,0.16258651718199252
1773258223892488000,12.520488037109375,0.4787988309770822,0.8688882088225335,0.24441958173811434
1773258223902499800,12.530499755859376,0.9783832603514194,1.0777513970762491,0.4139198238313198
1773258223912511700,12.54051171875,0.9863082081317901,1.1881550878826528,0.3470201245129108
