time,seconds_elapsed,z,y,x
1773258211437438500,0.0654384765625,0.1661527156829834,-0.22406037151813507,0.18772979080677032
1773258211447450400,0.075450439453125,0.16924065351486206,-0.14718742668628693,0.18488074839115143
1773258211457462300,0.085462158203125,0.17185845971107483,-0.05224767327308655,0.1658426821231842
1773258211467474400,0.095474365234375,0.16932207345962524,0.058430902659893036,0.12913793325424194
1773258211477486300,0.105486328125,0.15647757053375244,0.17701368033885956,0.08972775191068649
1773258211487499500,0.11549951171875,0.14131325483322144,0.26440051198005676,0.06362850964069366
1773258211497511400,0.125511474609375,0.13612549006938934,0.3060252368450165,0.051959678530693054
1773258211507523300,0.1355234375,0.131779745221138,0.3168371319770813,0.06886222958564758
1773258211517535500,0.145535400390625,0.13231033086776733,0.3012726604938507,0.10142812877893448
1773258211527547400,0.15554736328125,0.11671806871891022,0.24137844145298004,0.14413991570472717
1773258211537559600,0.1655595703125,0.12756845355033875,0.25988247990608215,0.205791637301445
1773258211547571500,0.175571533203125,0.15073955059051514,0.2662338614463806,0.25482282042503357
1773258211557583400,0.185583251953125,0.16071473062038422,0.24812014400959015,0.28986796736717224
1773258211567595500,0.195595458984375,0.1400025337934494,0.19538342952728271,0.3041566014289856
1773258211577608400,0.2056083984375,0.09395942091941833,0.15374651551246643,0.3077569603919983
1773258211587620600,0.21562060546875,-0.00346699682995677,0.14303475618362427,0.3172684609889984
1773258211597632500,0.225632568359375,-0.042907215654850006,0.17319358885288239,0.3372812271118164
1773258211607644400,0.23564453125,-0.030599413439631462,0.27409571409225464,0.3603340685367584
1773258211617656600,0.245656494140625,-0.013901161961257458,0.4081549644470215,0.3810010552406311
1773258211627668500,0.25566845703125,-0.018547846004366875,0.5241140723228455,0.3918246924877167
1773258211637680400,0.265680419921875,-0.08531375974416733,0.6161801218986511,0.4054757356643677
1773258211647692500,0.275692626953125,-0.19245140254497528,0.7011549472808838,0.42160916328430176
1773258211657704400,0.285704345703125,-0.28787222504615784,0.8101208209991455,0.4449133574962616
1773258211667716600,0.295716552734375,-0.3489672541618347,0.8655412197113037,0.4682181477546692
1773258211677729300,0.305729248046875,-0.3717014193534851,0.7786448001861572,0.48740458488464355
1773258211687741400,0.315741455078125,-0.3605555593967438,0.5834382772445679,0.5107690095901489
1773258211697753300,0.32575341796875,-0.31310415267944336,0.3919072151184082,0.5619543790817261
1773258211707765200,0.33576513671875,-0.2701204717159271,0.3320188522338867,0.6224033236503601
1773258211717777400,0.34577734375,-0.254881352186203,0.41234323382377625,0.6703051328659058
1773258211727789300,0.355789306640625,-0.27641087770462036,0.597700297832489,0.7131261229515076
1773258211737801200,0.36580126953125,-0.3193620443344116,0.851127564907074,0.7403669953346252
1773258211747813400,0.3758134765625,-0.3960339426994324,1.075579285621643,0.7431371808052063
1773258211757825300,0.3858251953125,-0.5027704834938049,1.2231719493865967,0.7353186011314392
1773258211767838500,0.39583837890625,-0.6298043131828308,1.3199467658996582,0.73176509141922
1773258211777850400,0.405850341796875,-0.7788892388343811,1.3636655807495117,0.7307583093643188
1773258211787862300,0.4158623046875,-0.9178798794746399,1.3311731815338135,0.7445366978645325
1773258211797874400,0.42587451171875,-1.0202641487121582,1.2501474618911743,0.7811381220817566
1773258211807886300,0.43588623046875,-0.9908508658409119,1.0910475254058838,0.9043460488319397
1773258211817898500,0.4458984375,-0.8978084921836853,1.029760479927063,1.0401864051818848
1773258211827910400,0.455910400390625,-0.8108911514282227,0.979154109954834,1.2591882944107056
1773258211837922300,0.46592236328125,-0.7360750436782837,0.9200052618980408,1.5119776725769043
1773258211847934500,0.4759345703125,-0.6664519906044006,0.8371068835258484,1.7584476470947266
1773258211857946400,0.4859462890625,-0.587472677230835,0.7635168433189392,1.9724681377410889
1773258211867959600,0.49595947265625,-0.27225831151008606,1.5389846563339233,2.0601537227630615
1773258211877971500,0.505971435546875,0.27092137932777405,1.7294635772705078,2.019540309906006
1773258211887983400,0.5159833984375,0.760802149772644,0.6385502219200134,1.800598382949829
1773258211897995500,0.52599560546875,1.2313740253448486,-0.11136022210121155,1.393291711807251
1773258211908007400,0.53600732421875,1.644089937210083,-0.9151816368103027,0.978314995765686
1773258211918019300,0.546019287109375,1.9474270343780518,-1.6267379522323608,0.6485185623168945
1773258211928031500,0.556031494140625,2.122195243835449,-1.9815056324005127,0.5186231136322021
1773258211938043400,0.56604345703125,2.1357734203338623,-1.645067572593689,0.6022458672523499
1773258211948055600,0.5760556640625,2.0658318996429443,-1.1763458251953125,0.7713955044746399
1773258211958067500,0.5860673828125,1.9836148023605347,-0.8062763810157776,0.9023328423500061
1773258211968080600,0.59608056640625,1.8326956033706665,-0.6175751686096191,0.8792325854301453
1773258211978092500,0.606092529296875,1.5012341737747192,-0.49121126532554626,0.6205657124519348
1773258211988104400,0.6161044921875,0.4982175827026367,0.49467870593070984,-0.6736264824867249
1773258211998116600,0.62611669921875,-0.5171610116958618,0.7888957262039185,-1.8837497234344482
1773258212008128500,0.63612841796875,-0.6830013394355774,0.5055614709854126,-2.172363042831421
1773258212018140400,0.646140380859375,-0.5121949911117554,0.22122091054916382,-2.112722158432007
1773258212028152600,0.656152587890625,-0.2520989179611206,-0.20946043729782104,-2.017061948776245
1773258212038164500,0.66616455078125,-0.034819744527339935,-0.6855708956718445,-1.9250773191452026
1773258212048176400,0.67617626953125,0.07865994423627853,-1.0094763040542603,-1.7228931188583374
1773258212058188500,0.6861884765625,0.082753024995327,-1.1465755701065063,-1.4272443056106567
1773258212068201200,0.696201171875,0.026504401117563248,-1.1420146226882935,-1.0986977815628052
1773258212078213400,0.70621337890625,-0.08818208426237106,-1.1183156967163086,-0.8180266618728638
1773258212088225300,0.716225341796875,-0.2600899338722229,-0.9931674599647522,-0.5670000314712524
1773258212098237400,0.726237548828125,-0.42008426785469055,-0.8888070583343506,-0.32890522480010986
1773258212108249300,0.736249267578125,-0.5195642113685608,-0.9414540529251099,-0.09912422299385071
1773258212118261200,0.74626123046875,-0.5390156507492065,-1.1310961246490479,0.12813130021095276
1773258212128273400,0.7562734375,-0.48974376916885376,-1.4861074686050415,0.38088950514793396
1773258212138285300,0.766285400390625,-0.35094085335731506,-1.9179434776306152,0.7148571610450745
1773258212148297200,0.776297119140625,-0.2575909197330475,-2.22965407371521,1.1097655296325684
1773258212158310400,0.786310302734375,-0.2549019753932953,-2.290127992630005,1.3794625997543335
1773258212168322300,0.796322265625,-0.21434736251831055,-1.9228880405426025,1.1944916248321533
1773258212178334500,0.80633447265625,-0.13646288216114044,-1.402924656867981,0.7071365714073181
1773258212188346400,0.816346435546875,-0.16247904300689697,-1.209626317024231,0.40653836727142334
1773258212198358300,0.826358154296875,-0.13577842712402344,-0.7898788452148438,0.08010803163051605
1773258212208370400,0.836370361328125,0.003710770746693015,-0.5084772706031799,-0.15714100003242493
1773258212218382300,0.84638232421875,0.16921578347682953,-0.4698667526245117,-0.08619029074907303
1773258212228394500,0.85639453125,0.2872824966907501,-0.6559221148490906,0.12529052793979645
1773258212238406400,0.866406494140625,0.432361364364624,-0.929184079170227,0.49039769172668457
1773258212248418300,0.876418212890625,0.3940770924091339,-1.0551702976226807,0.9461382627487183
1773258212258431500,0.886431396484375,0.243260458111763,-1.1532959938049316,1.4093842506408691
1773258212268443400,0.896443359375,0.10784857720136642,-1.3479253053665161,1.8670543432235718
1773258212278455600,0.90645556640625,-0.010531783103942871,-1.7145699262619019,2.2607102394104004
1773258212288467500,0.916467529296875,-0.14989127218723297,-2.0657224655151367,2.619718313217163
1773258212298479400,0.926479248046875,-0.3036918342113495,-2.3180134296417236,2.970399856567383
1773258212308491500,0.936491455078125,-0.43971866369247437,-2.41287899017334,3.280921220779419
1773258212318503400,0.94650341796875,-0.5249895453453064,-2.492109537124634,3.458667278289795
1773258212328515300,0.956515380859375,-0.5850110650062561,-2.5333564281463623,3.445505142211914
1773258212338527500,0.966527587890625,-0.6686455011367798,-2.3998429775238037,3.1887638568878174
1773258212348539400,0.976539306640625,-0.7228240370750427,-1.9836993217468262,2.784447193145752
1773258212358552600,0.986552490234375,-0.7213286757469177,-1.2780629396438599,2.1920673847198486
1773258212368564500,0.996564453125,-0.6776349544525146,-0.36846306920051575,1.415558934211731
1773258212378576600,1.00657666015625,-0.588145911693573,0.4220661520957947,0.590640664100647
1773258212388588500,1.016588623046875,-0.38828444480895996,0.7799941897392273,0.12674860656261444
1773258212398600400,1.026600341796875,-0.18730324506759644,0.8196610808372498,0.10904914885759354
1773258212408612600,1.036612548828125,-0.004240749403834343,0.5866091847419739,0.2888290286064148
1773258212418624500,1.04662451171875,0.02799392305314541,0.5257096290588379,0.4350362718105316
1773258212428636400,1.056636474609375,-0.03891400247812271,0.7969477772712708,0.5270652770996094
1773258212438648600,1.066648681640625,-0.03331351280212402,0.9982756972312927,0.61472088098526
1773258212448660500,1.076660400390625,0.02549760602414608,0.972018301486969,0.5985086560249329
1773258212458673400,1.08667333984375,0.14877091348171234,0.8241711258888245,0.4571414589881897
1773258212468685300,1.096685302734375,0.32993990182876587,0.7167969942092896,0.28955966234207153
1773258212478697200,1.106697265625,0.6213312745094299,0.7136691212654114,0.10846062749624252
1773258212488709400,1.11670947265625,0.9886165857315063,0.8216086626052856,-0.08187069743871689
1773258212498721300,1.12672119140625,1.313302755355835,0.9314157962799072,-0.23920075595378876
1773258212508733400,1.1367333984375,1.5545449256896973,0.9886194467544556,-0.24388578534126282
1773258212518745300,1.146745361328125,1.7351809740066528,0.9710482954978943,-0.10751406103372574
1773258212528757200,1.15675732421875,1.6844147443771362,0.7240539193153381,0.36626124382019043
1773258212538769400,1.166769287109375,1.1356772184371948,0.10599144548177719,1.0882335901260376
1773258212548781300,1.17678125,0.9513816237449646,-0.23686285316944122,1.4137674570083618
1773258212558794500,1.18679443359375,1.1595104932785034,-0.3557741641998291,1.59015691280365
1773258212568806400,1.196806396484375,1.4346507787704468,-0.26717931032180786,1.6077651977539062
1773258212578818300,1.206818359375,1.6075774431228638,0.05123298987746239,1.2789549827575684
1773258212588830500,1.21683056640625,1.6235334873199463,0.4953177571296692,0.680793821811676
1773258212598842400,1.22684228515625,1.6070926189422607,0.7644508481025696,0.03269931674003601
1773258212608854300,1.236854248046875,1.5312572717666626,0.9607702493667603,-0.6314866542816162
1773258212618866400,1.246866455078125,1.0674222707748413,0.9735159873962402,-1.307983160018921
1773258212628878300,1.25687841796875,0.5843254923820496,0.9321759939193726,-1.9936223030090332
1773258212638890500,1.266890380859375,0.33939865231513977,0.910799503326416,-2.4447150230407715
1773258212648902400,1.27690234375,0.2760516405105591,0.8682640194892883,-2.6139652729034424
1773258212658915600,1.28691552734375,0.2949804961681366,0.6337608695030212,-2.5509607791900635
1773258212668927500,1.296927490234375,0.36146366596221924,0.2573148012161255,-2.3441479206085205
1773258212678939400,1.306939453125,0.5066120028495789,0.03221777081489563,-2.0216763019561768
1773258212688951600,1.31695166015625,0.6800887584686279,0.062456101179122925,-1.606291651725769
1773258212698963500,1.32696337890625,0.715610146522522,0.24752627313137054,-1.2256196737289429
1773258212708975400,1.336975341796875,0.7154013514518738,0.2676936089992523,-0.8651214241981506
1773258212718987500,1.346987548828125,0.7005378007888794,0.3757988214492798,-0.6005340218544006
1773258212728999400,1.35699951171875,0.6987577676773071,0.6590020060539246,-0.5357472896575928
1773258212739011300,1.36701123046875,0.79194575548172,1.1398028135299683,-0.8066927790641785
1773258212749023500,1.3770234375,0.7904322743415833,1.5370784997940063,-1.0600956678390503
1773258212759035400,1.387035400390625,0.790294885635376,1.8016161918640137,-1.228890299797058
1773258212769048600,1.397048583984375,0.8352288007736206,1.9683265686035156,-1.347126841545105
1773258212779060500,1.407060546875,0.8998352289199829,2.0736501216888428,-1.4675352573394775
1773258212789072600,1.41707275390625,0.943997859954834,2.060822010040283,-1.5028711557388306
1773258212799084500,1.42708447265625,1.0116894245147705,1.936997413635254,-1.400195598602295
1773258212809096400,1.437096435546875,1.0868229866027832,1.7592663764953613,-1.166985034942627
1773258212819108600,1.447108642578125,1.1721432209014893,1.4714441299438477,-0.8701338171958923
1773258212829120500,1.45712060546875,1.2674977779388428,0.9966772198677063,-0.5050264000892639
1773258212839132400,1.46713232421875,1.2911295890808105,0.5728638172149658,-0.17775945365428925
1773258212849143800,1.477143798828125,1.2634968757629395,0.3052079379558563,0.0696154534816742
1773258212859156000,1.487156005859375,1.1673049926757812,0.2490280717611313,0.26774296164512634
1773258212869168600,1.497168701171875,1.051425576210022,0.4016386568546295,0.4616434574127197
1773258212879180500,1.5071806640625,0.9866675138473511,0.45762598514556885,0.6524317264556885
1773258212889192700,1.517192626953125,1.0210810899734497,0.17323580384254456,0.7907088994979858
1773258212899204600,1.52720458984375,1.1104798316955566,-0.027778662741184235,0.8210509419441223
1773258212909216800,1.537216796875,1.0221824645996094,0.11096137762069702,0.9308860898017883
1773258212919228700,1.547228759765625,0.8463500738143921,0.295113742351532,1.0721580982208252
1773258212929240600,1.557240478515625,0.7751682996749878,0.5826584696769714,1.159472942352295
1773258212939252700,1.567252685546875,0.7726342082023621,0.8076336979866028,1.1487735509872437
1773258212949264600,1.5772646484375,0.4942115843296051,0.8580968379974365,0.9983044266700745
1773258212959276800,1.58727685546875,0.24780972301959991,0.9063953161239624,0.9059296250343323
1773258212969288700,1.597288818359375,0.07226186990737915,1.1502727270126343,0.7678900361061096
1773258212979301600,1.607301513671875,-0.10611215233802795,1.4949954748153687,0.5738518238067627
1773258212989313800,1.617313720703125,-0.2413807511329651,0.5801194310188293,0.3310425877571106
1773258212999325700,1.62732568359375,-0.2672891318798065,-0.5115380883216858,-0.00997590459883213
1773258213009337600,1.637337646484375,-0.1608969271183014,-0.5722362995147705,-0.3728766143321991
1773258213019349800,1.647349853515625,-0.1586938351392746,-0.6675270199775696,-0.6189030408859253
1773258213029361700,1.657361572265625,-0.391011506319046,-0.7782425880432129,-0.7975521087646484
1773258213039373800,1.667373779296875,-0.48681652545928955,-0.3463902473449707,-0.8682366013526917
1773258213049385700,1.6773857421875,-0.3657814562320709,0.23678264021873474,-0.755540132522583
1773258213059397600,1.687397705078125,-0.15588150918483734,0.9754148721694946,-0.5183400511741638
1773258213069409800,1.697409912109375,-0.0715024396777153,1.6073052883148193,-0.24638868868350983
1773258213079422700,1.707422607421875,-0.11243260651826859,1.907112717628479,-0.07312695682048798
1773258213089435000,1.717434814453125,-0.20849469304084778,2.0102479457855225,-0.00897859688848257
1773258213099446800,1.72744677734375,-0.3253099322319031,1.8910517692565918,-0.025603123009204865
1773258213109458700,1.737458740234375,-0.3724694550037384,1.2609490156173706,-0.09648661315441132
1773258213119470800,1.747470947265625,-0.39889299869537354,1.125976800918579,-0.2316078245639801
1773258213129482800,1.757482666015625,-0.4292282462120056,1.4996984004974365,-0.34596022963523865
1773258213139495000,1.767494873046875,-0.40175527334213257,1.8146085739135742,-0.38948771357536316
1773258213149506800,1.7775068359375,-0.39471814036369324,2.028273344039917,-0.31713974475860596
1773258213159518700,1.787518798828125,-0.30287081003189087,2.1744160652160645,-0.2457200437784195
1773258213169531000,1.79753076171875,-0.30042392015457153,2.3266444206237793,-0.13368698954582214
1773258213179543800,1.807543701171875,-0.5845213532447815,2.137528657913208,-0.05887780711054802
1773258213189556000,1.817555908203125,-0.7696318626403809,2.0755507946014404,-0.11450138688087463
1773258213199568000,1.82756787109375,-0.9178433418273926,1.9394512176513672,-0.17271021008491516
1773258213209579800,1.837579833984375,-1.0508487224578857,1.5664925575256348,-0.150289848446846
1773258213219592000,1.847592041015625,-1.110101580619812,0.6524986624717712,-0.31803202629089355
1773258213229603800,1.857603759765625,-0.8591708540916443,-0.4431326687335968,-0.20527859032154083
1773258213239615700,1.86761572265625,-0.6052780747413635,-0.6583858132362366,-0.16065455973148346
1773258213249628000,1.8776279296875,-0.4918699860572815,-0.40774932503700256,-0.17813129723072052
1773258213259639800,1.887639892578125,-0.3117058277130127,-0.29902446269989014,-0.02427792176604271
1773258213269652000,1.89765185546875,-0.15146315097808838,-0.02383122779428959,0.15867751836776733
1773258213279663900,1.907663818359375,-0.0329330749809742,0.18734118342399597,0.2992497682571411
1773258213289676500,1.917676513671875,0.05987941846251488,0.23645280301570892,0.3819989860057831
1773258213299688700,1.927688720703125,0.11455255001783371,0.18883684277534485,0.41146352887153625
1773258213309700600,1.93770068359375,0.13722164928913116,0.21373845636844635,0.39486804604530334
1773258213319712800,1.947712646484375,0.13993756473064423,0.29463785886764526,0.35313093662261963
1773258213329724700,1.957724609375,0.11663571000099182,0.43405115604400635,0.3074289560317993
1773258213339736600,1.967736572265625,0.07604305446147919,0.5712846517562866,0.2953476309776306
1773258213349748700,1.977748779296875,0.039408884942531586,0.6821624636650085,0.3276267349720001
1773258213359760600,1.9877607421875,0.020906537771224976,0.8245313167572021,0.36584028601646423
1773258213369772800,1.997772705078125,0.35794582962989807,0.9597384333610535,0.38100379705429077
1773258213379784700,2.00778466796875,0.4701010584831238,0.7347891330718994,0.4873114228248596
1773258213389796600,2.017796630859375,0.4647398591041565,0.47864681482315063,0.5304144024848938
1773258213399809800,2.027809814453125,0.5222068428993225,0.31929707527160645,0.4375101625919342
1773258213409821700,2.03782177734375,0.49662157893180847,0.09357953816652298,0.2480073720216751
1773258213419833900,2.047833740234375,0.37476468086242676,-0.0981651246547699,0.017322853207588196
1773258213429845800,2.057845703125,0.2296045422554016,-0.19193316996097565,-0.19962862133979797
1773258213439857700,2.067857666015625,-0.0019375435076653957,-0.12006691098213196,-0.2941240966320038
1773258213449869800,2.077869873046875,-0.21587060391902924,0.08267688006162643,-0.284135103225708
1773258213459881700,2.0878818359375,-0.3817749321460724,0.2608700096607208,-0.22800379991531372
1773258213469893600,2.0978935546875,-0.429887592792511,0.472452312707901,-0.18345153331756592
1773258213479905800,2.10790576171875,-0.4474317133426666,0.6261447072029114,-0.12999822199344635
1773258213489918700,2.117918701171875,-0.4828333556652069,0.8224250078201294,-0.057163435965776443
1773258213499931000,2.127930908203125,-0.47729936242103577,1.1475085020065308,0.02942413091659546
1773258213509942800,2.13794287109375,-0.4968935549259186,1.438747525215149,0.08586610108613968
1773258213519954700,2.14795458984375,-0.5515923500061035,1.561400055885315,0.0968143492937088
1773258213529966800,2.157966796875,-0.5688653588294983,1.8175026178359985,0.055843207985162735
1773258213539978800,2.167978759765625,-0.5498254299163818,1.8545589447021484,-0.13859431445598602
1773258213549991000,2.177990966796875,-0.5044243931770325,1.7482359409332275,-0.42378053069114685
1773258213560002800,2.1880029296875,-0.45441439747810364,1.5616874694824219,-0.7365365028381348
1773258213570014700,2.1980146484375,-0.41306617856025696,1.3038372993469238,-0.955519437789917
1773258213580027000,2.20802685546875,-0.37466755509376526,1.0489754676818848,-1.0485230684280396
1773258213590038800,2.218038818359375,-0.2678934633731842,0.7306070327758789,-0.9932811260223389
1773258213600052000,2.228052001953125,-0.13450826704502106,0.5171086192131042,-0.8708012700080872
1773258213610064000,2.23806396484375,-0.027575163170695305,0.4772144556045532,-0.762834370136261
1773258213620075800,2.24807568359375,0.018557213246822357,0.5920025706291199,-0.6051938533782959
1773258213630088000,2.258087890625,-0.14090728759765625,0.4898061752319336,-0.3376138508319855
1773258213640099800,2.268099853515625,-0.3274436891078949,0.576630711555481,0.10405407845973969
1773258213650111700,2.27811181640625,-0.30365365743637085,0.5980265140533447,0.33770331740379333
1773258213660124000,2.2881240234375,-0.2157278209924698,0.5010097622871399,0.40440306067466736
1773258213670135800,2.2981357421875,-0.29985231161117554,0.38072270154953003,0.47024810314178467
1773258213680148000,2.30814794921875,-0.9191949367523193,-0.1535697877407074,0.593666136264801
1773258213690159900,2.318159912109375,-1.1531052589416504,0.11631868034601212,0.5271608829498291
1773258213700171800,2.328171875,-1.0320836305618286,0.9365909695625305,0.2931249439716339
1773258213710184700,2.338184814453125,-0.761106014251709,1.4749692678451538,0.021776782348752022
1773258213720196600,2.348196533203125,-0.4944165050983429,1.6521886587142944,-0.2911587059497833
1773258213730208800,2.358208740234375,-0.3616827130317688,1.3171329498291016,-0.478419691324234
1773258213740220700,2.368220703125,-0.24127797782421112,0.5607877969741821,-0.43388113379478455
1773258213750232600,2.378232666015625,-0.13279330730438232,-0.055998727679252625,-0.35242754220962524
1773258213760244700,2.38824462890625,-0.12125348299741745,-0.4061092734336853,-0.30431991815567017
1773258213770256600,2.398256591796875,-0.1013261154294014,-0.5272697806358337,-0.2855430245399475
1773258213780268500,2.4082685546875,-0.08679806441068649,-0.5494650602340698,-0.2626791000366211
1773258213790280700,2.41828076171875,-0.0349777527153492,-0.5726604461669922,-0.20585310459136963
1773258213800292600,2.428292724609375,0.02309958077967167,-0.629280149936676,-0.1130780279636383
1773258213810304800,2.4383046875,0.06147626414895058,-0.5984484553337097,-0.041715964674949646
1773258213820317700,2.448317626953125,0.08167371153831482,-0.45248880982398987,0.0007883170619606972
1773258213830329900,2.458329833984375,0.08910979330539703,-0.27645573019981384,0.036658432334661484
1773258213840341800,2.468341796875,0.10464630275964737,-0.14951173961162567,0.07830489426851273
1773258213850354400,2.4783544921875,0.12741366028785706,-0.08577510714530945,0.12442471832036972
1773258213860366300,2.488366455078125,0.1460982710123062,-0.07815193384885788,0.15879912674427032
1773258213870378500,2.49837841796875,0.17372749745845795,-0.07800253480672836,0.17889825999736786
1773258213880390400,2.508390380859375,0.17725272476673126,-0.03907005861401558,0.1773238629102707
1773258213890402300,2.51840234375,0.17525561153888702,0.020457182079553604,0.1781957894563675
1773258213900414500,2.52841455078125,0.1908140778541565,0.04939750209450722,0.19772574305534363
1773258213910426400,2.53842626953125,0.2325865626335144,0.07279763370752335,0.23287628591060638
1773258213920439600,2.548439453125,0.19745177030563354,-0.10671591758728027,0.3761000335216522
1773258213930451500,2.558451416015625,0.2478366494178772,-0.16496138274669647,0.4162064492702484
1773258213940463400,2.56846337890625,0.2634655833244324,0.14288291335105896,0.2866182327270508
1773258213950475500,2.5784755859375,0.2775294780731201,0.3400673568248749,0.25052228569984436
1773258213960487400,2.5884873046875,0.2879999577999115,0.4452723562717438,0.301113486289978
1773258213970499600,2.59849951171875,0.16566047072410583,0.6305047869682312,0.37386250495910645
1773258213980511500,2.608511474609375,0.1270262449979782,0.7812391519546509,0.33706411719322205
1773258213990523400,2.6185234375,0.07360829412937164,0.8521990776062012,0.3174920082092285
1773258214000535600,2.62853564453125,-0.00020659301662817597,1.0082440376281738,0.3288464844226837
1773258214010547500,2.63854736328125,-0.07123016566038132,1.2667535543441772,0.26382380723953247
1773258214020560400,2.648560302734375,-0.22720855474472046,1.337189793586731,0.09597821533679962
1773258214030572300,2.658572265625,-0.3899676501750946,0.9155753254890442,-0.06911460310220718
1773258214040584400,2.66858447265625,-0.3941478431224823,0.9603709578514099,0.04582800716161728
1773258214050596400,2.678596435546875,-0.39059439301490784,0.9169944524765015,0.06098885089159012
1773258214060608500,2.6886083984375,-0.5366790294647217,0.6164451837539673,-0.07989084720611572
1773258214070620400,2.698620361328125,-0.5057754516601562,0.12394517660140991,-0.2254112958908081
1773258214080632600,2.708632568359375,-0.33406323194503784,0.767069935798645,-0.0785813182592392
1773258214090644500,2.71864453125,-0.17813114821910858,1.8081516027450562,-0.14087344706058502
1773258214100656400,2.728656494140625,-0.16913802921772003,2.4697115421295166,-0.2429170459508896
1773258214110668500,2.73866845703125,-0.18519875407218933,2.5847980976104736,-0.3806008994579315
1773258214120681200,2.74868115234375,-0.0981786847114563,2.541856288909912,-0.5282996892929077
1773258214130693400,2.758693359375,0.010251389816403389,2.771585464477539,-0.5798483490943909
1773258214140705300,2.768705322265625,0.15942947566509247,3.4408016204833984,-0.616787850856781
1773258214150717400,2.778717529296875,0.30463966727256775,4.103392124176025,-0.6601611375808716
1773258214160729300,2.788729248046875,0.4614172875881195,4.449317932128906,-0.6987560987472534
1773258214170741200,2.7987412109375,0.6190543174743652,4.806581974029541,-0.6072772741317749
1773258214180753400,2.80875341796875,0.7603306770324707,5.232691287994385,-0.39841026067733765
1773258214190765300,2.818765380859375,0.8468117713928223,5.547989845275879,-0.21200017631053925
1773258214200777200,2.828777099609375,0.8544337749481201,5.733669281005859,-0.27559080719947815
1773258214210790400,2.838790283203125,0.7803574204444885,5.736656188964844,-0.37007975578308105
1773258214220802300,2.84880224609375,0.8005451560020447,4.9850897789001465,-0.16253609955310822
1773258214230814500,2.858814453125,0.7176654934883118,3.8726675510406494,0.20270472764968872
1773258214240826400,2.868826416015625,0.4984578490257263,2.8083605766296387,0.5330396294593811
1773258214250838500,2.878838623046875,0.29288044571876526,1.8435871601104736,0.6177601218223572
1773258214260850400,2.888850341796875,0.21812988817691803,1.1967182159423828,0.6375361680984497
1773258214270862300,2.8988623046875,0.0519704669713974,1.4032080173492432,0.7436037659645081
1773258214280874500,2.90887451171875,-0.1713317185640335,1.9376189708709717,0.9543458223342896
1773258214290886400,2.918886474609375,-0.1743251085281372,1.9983611106872559,1.2030634880065918
1773258214300899600,2.928899658203125,-0.10564476996660233,2.16507625579834,1.434614896774292
1773258214310911500,2.938911376953125,-0.006732303649187088,1.737967848777771,1.5043774843215942
1773258214320923400,2.94892333984375,0.0374862402677536,1.2301537990570068,1.7073131799697876
1773258214330935600,2.958935546875,0.2183351069688797,0.8637678027153015,1.6822264194488525
1773258214340947500,2.968947509765625,0.37010568380355835,0.5738480687141418,1.2047655582427979
1773258214350959400,2.97895947265625,0.2396552562713623,0.2551760971546173,0.4973650872707367
1773258214360971500,2.988971435546875,0.02856285683810711,0.16250140964984894,-0.17794643342494965
1773258214370983400,2.9989833984375,-0.12101837247610092,0.28845375776290894,-0.3755761682987213
1773258214380995600,3.00899560546875,-0.13409902155399323,0.5733656883239746,-0.2867705523967743
1773258214391008300,3.01900830078125,-0.06413856893777847,0.7638053894042969,-0.23662321269512177
1773258214401020400,3.0290205078125,0.004401762504130602,0.7274084091186523,-0.20655006170272827
1773258214411032300,3.0390322265625,0.11234980076551437,0.557456374168396,-0.19704711437225342
1773258214421044200,3.049044189453125,0.22010394930839539,0.45236027240753174,-0.19382239878177643
1773258214431056400,3.059056396484375,0.3199367821216583,0.29277485609054565,-0.14238716661930084
1773258214441068300,3.069068359375,0.4404004216194153,0.017369993031024933,-0.07995326817035675
1773258214451080400,3.07908056640625,0.5207682251930237,-0.2127084881067276,-0.10575264692306519
1773258214461092400,3.08909228515625,0.6216762065887451,-0.16264396905899048,-0.1436345875263214
1773258214471104300,3.099104248046875,0.7299392819404602,0.003947407938539982,-0.11681975424289703
1773258214481117400,3.109117431640625,0.8145881295204163,0.1489192247390747,-0.10604392737150192
1773258214491129300,3.11912939453125,0.82439124584198,0.2696320414543152,-0.1256122887134552
1773258214501141200,3.129141357421875,0.844318687915802,0.28737756609916687,-0.13802467286586761
1773258214511153400,3.1391533203125,0.8189893364906311,0.2601930797100067,-0.19245195388793945
1773258214521165300,3.149165283203125,0.8535884618759155,0.27201682329177856,-0.22970284521579742
1773258214531177500,3.159177490234375,0.9311519265174866,0.3774670958518982,-0.21522963047027588
1773258214541189400,3.169189453125,0.9822596311569214,0.5975387692451477,-0.17122937738895416
1773258214551201300,3.179201171875,0.8569735884666443,0.5433818101882935,-0.06776397675275803
1773258214561213400,3.18921337890625,0.639590859413147,0.3972817361354828,-0.00529843894764781
1773258214571226400,3.199226318359375,0.525881826877594,0.2511615455150604,-0.07465061545372009
1773258214581238500,3.209238525390625,0.5203191041946411,0.1911720484495163,-0.193142369389534
1773258214591250400,3.21925048828125,0.4920424818992615,0.21233458817005157,-0.2382267564535141
1773258214601262300,3.229262451171875,0.43278899788856506,0.22584985196590424,-0.24634471535682678
1773258214611274500,3.2392744140625,0.4229834973812103,0.19320881366729736,-0.2656624913215637
1773258214621286400,3.249286376953125,0.39980703592300415,0.16228815913200378,-0.2945139408111572
1773258214631298300,3.25929833984375,0.31781816482543945,0.21665926277637482,-0.30779939889907837
1773258214641310500,3.269310546875,0.23901234567165375,0.26790758967399597,-0.278335303068161
1773258214651322400,3.279322265625,0.18629027903079987,0.2827565670013428,-0.2137773334980011
1773258214661335600,3.28933544921875,0.2352803647518158,0.48196226358413696,-0.1429780274629593
1773258214671347500,3.299347412109375,0.32844093441963196,0.5025644302368164,-0.06024745851755142
1773258214681359400,3.309359375,0.40200772881507874,0.3913867175579071,-0.00396567489951849
1773258214691371500,3.31937158203125,0.4528016746044159,0.3757968544960022,-0.013957588002085686
1773258214701383400,3.329383544921875,0.5358394980430603,0.4349876642227173,-0.029093299061059952
1773258214711395600,3.3393955078125,0.6899672746658325,0.4311351478099823,0.00024594925343990326
1773258214721407500,3.349407470703125,0.77748042345047,0.24679753184318542,-0.010407648980617523
1773258214731419400,3.35941943359375,0.6827049255371094,-0.17275367677211761,-0.08274096250534058
1773258214741432300,3.369432373046875,0.5830257534980774,-0.5797339081764221,-0.14905191957950592
1773258214751444200,3.3794443359375,0.48285147547721863,-0.697584867477417,-0.22946393489837646
1773258214761456400,3.389456298828125,0.3613385260105133,-0.4235380291938782,-0.2534409165382385
1773258214771468300,3.39946826171875,0.33013132214546204,-0.24033091962337494,-0.17748036980628967
1773258214781480200,3.409480224609375,0.3148577809333801,-0.22236844897270203,-0.07464145123958588
1773258214791492400,3.419492431640625,0.24028421938419342,-0.09528160840272903,-0.04799971729516983
1773258214801504300,3.429504150390625,0.1450691670179367,-0.0011586842592805624,-0.024029288440942764
1773258214811516400,3.439516357421875,0.1746041476726532,-0.023894090205430984,0.0036337641067802906
1773258214821528300,3.4495283203125,0.1680353581905365,0.007253597024828196,0.03664243221282959
1773258214831541200,3.459541259765625,0.05991261452436447,0.07172339409589767,0.10288110375404358
1773258214841553400,3.469553466796875,0.19743762910366058,0.312550812959671,0.11466360092163086
1773258214851565300,3.4795654296875,0.16873514652252197,0.26691994071006775,0.10084951668977737
1773258214861577500,3.489577392578125,0.10151718556880951,0.22431494295597076,0.06983625143766403
1773258214871589400,3.49958935546875,0.012022459879517555,0.3973170816898346,0.052477508783340454
1773258214881601300,3.509601318359375,0.002676689764484763,0.5538233518600464,0.05875696241855621
1773258214891613400,3.519613525390625,0.017963500693440437,0.6165837049484253,0.08429241925477982
1773258214901625300,3.529625244140625,-0.028179069980978966,0.5923025012016296,0.10965603590011597
1773258214911637500,3.539637451171875,-0.09047946333885193,0.4277692139148712,0.08747217059135437
1773258214921650400,3.549650390625,-0.1199224591255188,0.14653100073337555,0.033764101564884186
1773258214931662600,3.55966259765625,-0.1498207002878189,-0.02243191748857498,-0.027013765648007393
1773258214941674500,3.569674560546875,-0.1877077966928482,-0.15029259026050568,-0.06051868200302124
1773258214951686400,3.579686279296875,-0.14747782051563263,-0.41541266441345215,-0.08167962729930878
1773258214961698600,3.589698486328125,-0.060895517468452454,-0.5487281084060669,-0.13592581450939178
1773258214971710500,3.59971044921875,-0.022214964032173157,-0.5899946093559265,-0.1426822543144226
1773258214981722400,3.609722412109375,-0.024211177602410316,-0.5891215205192566,-0.13982243835926056
1773258214991734500,3.619734619140625,-0.05981684476137161,-0.587594211101532,-0.1463271975517273
1773258215001746400,3.629746337890625,-0.07631579786539078,-0.5991873145103455,-0.15633314847946167
1773258215011759600,3.639759521484375,-0.056141551584005356,-0.712794303894043,-0.1774597316980362
1773258215021771500,3.649771484375,-0.029471904039382935,-0.9397907257080078,-0.22276362776756287
1773258215031783400,3.659783447265625,-0.017610982060432434,-1.1439971923828125,-0.25185680389404297
1773258215041795600,3.669795654296875,-0.03871525451540947,-0.9453160762786865,-0.21579988300800323
1773258215051807500,3.679807373046875,-0.0794842541217804,-0.3727353811264038,-0.1335044801235199
1773258215061819600,3.689819580078125,-0.06169198453426361,0.057306770235300064,-0.12778212130069733
1773258215071831600,3.69983154296875,-0.09290049970149994,0.4464332163333893,-0.13530421257019043
1773258215081843500,3.709843505859375,-0.15304268896579742,0.8918085694313049,-0.11585774272680283
1773258215091855600,3.719855712890625,-0.20120835304260254,1.1848621368408203,-0.08818350732326508
1773258215101868300,3.729868408203125,-0.20506790280342102,1.2414623498916626,-0.08534517139196396
1773258215111880400,3.73988037109375,-0.16507868468761444,0.8970209956169128,-0.0617612861096859
1773258215121892400,3.749892333984375,-0.15451082587242126,0.48593834042549133,-0.08189551532268524
1773258215131904300,3.759904296875,-0.16046938300132751,0.23549200594425201,-0.0841757208108902
1773258215141916400,3.76991650390625,-0.1332792192697525,0.06225692853331566,-0.005364673212170601
1773258215151928300,3.77992822265625,-0.095585897564888,0.021011220291256905,0.05969954654574394
1773258215161940200,3.789940185546875,-0.05184585228562355,0.0241396464407444,0.12209103256464005
1773258215171952400,3.799952392578125,0.00425123842433095,-0.07016981393098831,0.1783234179019928
1773258215181964300,3.80996435546875,0.016307517886161804,-0.13928347826004028,0.18795423209667206
1773258215191977500,3.8199775390625,-0.03343820199370384,-0.10770877450704575,0.17004740238189697
1773258215201989400,3.8299892578125,-0.06627630442380905,-0.014888277277350426,0.15582171082496643
1773258215212001500,3.84000146484375,-0.06958820670843124,0.019914710894227028,0.13843658566474915
1773258215222013400,3.850013427734375,-0.09226453304290771,-0.024253856390714645,0.1311510056257248
1773258215232025300,3.860025390625,-0.1607799381017685,-0.16665148735046387,0.08484023809432983
1773258215242037500,3.87003759765625,-0.19238539040088654,-0.18135865032672882,0.09598344564437866
1773258215252049400,3.88004931640625,-0.22268417477607727,-0.20769332349300385,0.09878775477409363
1773258215262061300,3.890061279296875,-0.2622492015361786,-0.23985901474952698,0.08890239894390106
1773258215272073500,3.900073486328125,-0.2915234863758087,-0.3655748665332794,0.039099425077438354
1773258215282086400,3.91008642578125,-0.30267515778541565,-0.37635236978530884,0.025074655190110207
1773258215292098600,3.9200986328125,-0.28727808594703674,-0.22641214728355408,-0.0008762520737946033
1773258215302110500,3.9301103515625,-0.2644135057926178,-0.14360886812210083,-0.05771742761135101
1773258215312122400,3.940122314453125,-0.23517866432666779,-0.06698040664196014,-0.07051951438188553
1773258215322134500,3.950134521484375,-0.22672298550605774,0.003681918838992715,-0.059983059763908386
1773258215332146400,3.960146484375,-0.22260840237140656,-0.010171311907470226,-0.0513371080160141
1773258215342158600,3.97015869140625,-0.22070297598838806,-0.04907457157969475,-0.037830181419849396
1773258215352170500,3.98017041015625,-0.22169367969036102,-0.06349185854196548,-0.03982062637805939
1773258215362182400,3.990182373046875,-0.2130081057548523,-0.07451742142438889,-0.08671285957098007
1773258215372195600,4.000195556640625,-0.17139887809753418,-0.0798429474234581,-0.11845827847719193
1773258215382207500,4.01020751953125,-0.11039301753044128,-0.20661495625972748,-0.149648979306221
1773258215392219600,4.0202197265625,-0.07147331535816193,-0.31176242232322693,-0.17871658504009247
1773258215402231600,4.0302314453125,-0.04123900458216667,-0.34446632862091064,-0.17090743780136108
1773258215412243500,4.040243408203125,-0.028456630185246468,-0.33961325883865356,-0.14782395958900452
1773258215422255600,4.050255615234375,-0.036712080240249634,-0.3624095618724823,-0.1573532521724701
1773258215432267500,4.060267578125,-0.06662363559007645,-0.43255749344825745,-0.21885709464550018
1773258215442279400,4.070279541015625,-0.08414992690086365,-0.49638471007347107,-0.26818108558654785
1773258215452291600,4.08029150390625,-0.039502039551734924,-0.5555974245071411,-0.2516354024410248
1773258215462304300,4.09030419921875,0.01272470410913229,-0.5896053910255432,-0.23564815521240234
1773258215472316400,4.10031640625,0.05188702046871185,-0.6207973957061768,-0.21689337491989136
1773258215482328300,4.110328369140625,0.07448535412549973,-0.7260047197341919,-0.2214692085981369
1773258215492340500,4.120340576171875,0.05297819897532463,-0.7583714723587036,-0.22681523859500885
1773258215502352400,4.130352294921875,-0.05738981440663338,-0.7155272960662842,-0.09957156330347061
1773258215512364300,4.1403642578125,0.3124106228351593,-0.4221942126750946,0.10975582152605057
1773258215522376400,4.15037646484375,0.8136312365531921,-0.42940086126327515,0.15720795094966888
1773258215532388400,4.160388427734375,0.9702991247177124,-0.7271478772163391,-0.1391821652650833
1773258215542400300,4.170400146484375,0.9207932949066162,-1.255008578300476,-0.6159594655036926
1773258215552413400,4.180413330078125,0.8767331838607788,-1.770350456237793,-1.0308531522750854
1773258215562425300,4.19042529296875,0.92783522605896,-2.2573628425598145,-1.2676652669906616
1773258215572437500,4.2004375,0.8758479356765747,-2.455077886581421,-1.2856040000915527
1773258215582449400,4.210449462890625,0.7797572016716003,-2.611846446990967,-1.3693419694900513
1773258215592461300,4.22046142578125,0.5945961475372314,-2.7091593742370605,-1.469868540763855
1773258215602473500,4.230473388671875,0.49637338519096375,-2.608196496963501,-1.476117491722107
1773258215612485400,4.2404853515625,0.4047550559043884,-2.260502576828003,-1.3037036657333374
1773258215622497500,4.25049755859375,0.2735861837863922,-1.7832612991333008,-1.1579909324645996
1773258215632509400,4.260509521484375,0.1979348063468933,-1.3222076892852783,-1.0811896324157715
1773258215642521300,4.270521240234375,0.19019535183906555,-0.9145451784133911,-0.986355185508728
1773258215652534500,4.280534423828125,0.21512441337108612,-0.6547085046768188,-0.8493791818618774
1773258215662546400,4.29054638671875,0.304085373878479,-0.3715570569038391,-0.7378360033035278
1773258215672558600,4.30055859375,0.4555148482322693,-0.12937423586845398,-0.5937315821647644
1773258215682570500,4.310570556640625,0.4924880862236023,0.1602240651845932,-0.416297048330307
1773258215692582400,4.32058251953125,0.4018833339214325,0.5333675146102905,-0.3604223430156708
1773258215702594600,4.330594482421875,0.38975679874420166,0.8430850505828857,-0.26289257407188416
1773258215712606500,4.3406064453125,0.39021673798561096,1.1936659812927246,-0.18853206932544708
1773258215722618400,4.350618408203125,0.3782251477241516,1.5452691316604614,0.0091251814737916
1773258215732630500,4.360630615234375,0.3441478908061981,1.9454975128173828,0.026597116142511368
1773258215742642400,4.370642333984375,0.21367494761943817,2.108703851699829,-0.004559587687253952
1773258215752655600,4.380655517578125,-0.0030754650942981243,2.1411595344543457,-0.031592004001140594
1773258215762667500,4.39066748046875,-0.1426655650138855,2.234753370285034,0.07523088157176971
1773258215772679400,4.400679443359375,-0.18980538845062256,2.567636251449585,0.3249512314796448
1773258215782691600,4.410691650390625,-0.15256379544734955,2.877058267593384,0.5312201976776123
1773258215792703500,4.420703369140625,0.00740908645093441,2.4520046710968018,0.563225269317627
1773258215802715600,4.430715576171875,0.22109787166118622,1.0735485553741455,0.19462838768959045
1773258215812727600,4.4407275390625,0.2547498643398285,0.13293041288852692,-0.2800353169441223
1773258215822739500,4.450739501953125,0.17156264185905457,-0.07058534026145935,-0.5517375469207764
1773258215832751600,4.460751708984375,0.18785053491592407,0.18775327503681183,-0.6068080067634583
1773258215842764300,4.470764404296875,0.08382907509803772,0.4812118113040924,-0.5365621447563171
1773258215852776200,4.480776123046875,-0.01189957931637764,0.7941765785217285,-0.4504333436489105
1773258215862788400,4.490788330078125,-0.06047121062874794,0.9061885476112366,-0.4112814962863922
1773258215872800300,4.50080029296875,-0.035826850682497025,1.0211178064346313,-0.3494812250137329
1773258215882812400,4.5108125,0.018414778634905815,0.812173068523407,-0.4087011218070984
1773258215892824300,4.52082421875,-0.037015993148088455,0.8155592679977417,-0.39713340997695923
1773258215902836200,4.530836181640625,-0.007304612081497908,1.096274971961975,-0.31676894426345825
1773258215912848400,4.540848388671875,0.08458509296178818,1.2547199726104736,-0.1966896802186966
1773258215922860300,4.5508603515625,0.12598975002765656,1.2302294969558716,-0.1578138768672943
1773258215932872200,4.5608720703125,0.192210853099823,0.9612334370613098,-0.20916788280010223
1773258215942885400,4.570885498046875,0.2691724896430969,0.9265239238739014,-0.12757794559001923
1773258215952897300,4.580897216796875,0.09796557575464249,0.9121452569961548,-0.06847680360078812
1773258215962909400,4.590909423828125,-0.04472256451845169,1.164784550666809,-0.034348536282777786
1773258215972921300,4.60092138671875,-0.047880273312330246,1.0626757144927979,-0.01741296425461769
1773258215982933500,4.61093359375,-0.02341805212199688,0.6622012257575989,-0.08962640911340714
1773258215992945400,4.6209453125,-0.031686365604400635,0.3421367108821869,-0.19927220046520233
1773258216002957300,4.630957275390625,0.020218588411808014,0.03246799856424332,-0.3374619483947754
1773258216012969500,4.640969482421875,0.08468332886695862,-0.059727173298597336,-0.30469948053359985
1773258216022981400,4.6509814453125,0.05744529142975807,-0.2173096388578415,-0.19796009361743927
1773258216032994600,4.66099462890625,0.0010776198469102383,-0.3219071626663208,-0.16396857798099518
1773258216043006500,4.67100634765625,0.06347127258777618,-0.32176995277404785,-0.06943721324205399
1773258216053018400,4.681018310546875,0.14873476326465607,-0.5414879322052002,-0.030391545966267586
1773258216063030500,4.691030517578125,0.2310227006673813,-0.5670098066329956,-0.013081889599561691
1773258216073042400,4.70104248046875,0.2891821563243866,-0.465852826833725,-0.07261792570352554
1773258216083054300,4.711054443359375,0.42108047008514404,-0.42540162801742554,-0.15157967805862427
1773258216093066500,4.72106640625,0.5928258299827576,-0.4928874373435974,-0.20337922871112823
1773258216103078400,4.731078369140625,0.6009791493415833,-0.3994530737400055,-0.16001057624816895
1773258216113090600,4.741090576171875,0.6492729187011719,-0.4100399315357208,-0.12180700898170471
1773258216123102500,4.7511025390625,0.7514203190803528,-0.5456898808479309,-0.16020560264587402
1773258216133115400,4.761115478515625,0.771503746509552,-0.45630407333374023,-0.1823444366455078
1773258216143127600,4.77112744140625,0.7469329237937927,-0.37526699900627136,-0.20497195422649384
1773258216153139500,4.781139404296875,0.6381358504295349,-0.2917875647544861,-0.19881045818328857
1773258216163151600,4.791151611328125,0.5941012501716614,-0.10968760401010513,-0.1737610399723053
1773258216173163500,4.80116357421875,0.5345585942268372,0.057828161865472794,-0.15213990211486816
1773258216183175400,4.811175537109375,0.4140233099460602,0.1419062614440918,-0.11900604516267776
1773258216193187600,4.8211875,0.27454718947410583,0.23466603457927704,-0.11117928475141525
1773258216203199500,4.831199462890625,0.0971449613571167,0.4746660888195038,-0.059755176305770874
1773258216213211400,4.84121142578125,-0.023344965651631355,0.7617191672325134,-0.010207329876720905
1773258216223223600,4.8512236328125,-0.042373038828372955,0.8727471232414246,-0.030198510736227036
1773258216233236200,4.861236328125,-0.07488997280597687,0.6384952068328857,-0.1300441473722458
1773258216243248400,4.871248291015625,-0.02584140934050083,0.12271258980035782,-0.24162153899669647
1773258216253260300,4.88126025390625,0.07586152106523514,0.22717374563217163,-0.1763210892677307
1773258216263272400,4.8912724609375,0.15064550936222076,0.28016990423202515,-0.1291152834892273
1773258216273284400,4.901284423828125,0.1823139637708664,0.04511529952287674,-0.12862153351306915
1773258216283296300,4.911296142578125,0.17548198997974396,-0.22873027622699738,-0.18088674545288086
1773258216293308400,4.921308349609375,0.2158278077840805,-0.42956459522247314,-0.266092985868454
1773258216303320300,4.9313203125,0.2701398432254791,-0.6758909821510315,-0.41647619009017944
1773258216313332200,4.941332275390625,0.32614263892173767,-0.8507264256477356,-0.49130168557167053
1773258216323344400,4.951344482421875,0.3408794105052948,-0.6560187935829163,-0.43754610419273376
1773258216333357300,4.961357421875,0.3079419732093811,-0.49073556065559387,-0.3501092195510864
1773258216343369500,4.971369384765625,0.3251228928565979,-0.3837222158908844,-0.2500773072242737
1773258216353381400,4.98138134765625,0.2979077696800232,-0.4263109564781189,-0.1802247166633606
1773258216363393300,4.991393310546875,0.2890515923500061,-0.5118030905723572,-0.16827066242694855
1773258216373405400,5.001405517578125,0.39103999733924866,-0.5081335306167603,-0.1504860818386078
1773258216383417300,5.011417236328125,0.3775085508823395,-0.48816320300102234,-0.15460993349552155
1773258216393429500,5.021429443359375,0.3175429403781891,-0.525800883769989,-0.13690656423568726
1773258216403441400,5.03144140625,0.2658563554286957,-0.5630291700363159,-0.1470423936843872
1773258216413453300,5.041453369140625,0.17853209376335144,-0.690712034702301,-0.14178425073623657
1773258216423465500,5.051465576171875,0.0732533186674118,-0.7525991201400757,-0.14651744067668915
1773258216433478400,5.061478515625,-0.014974281191825867,-0.5131769180297852,-0.08406179398298264
1773258216443490600,5.071490478515625,-0.0618952177464962,-0.35996904969215393,-0.05564342811703682
1773258216453502500,5.08150244140625,-0.10548344254493713,-0.22672390937805176,-0.06052979454398155
1773258216463514400,5.091514404296875,-0.14038389921188354,0.024637211114168167,-0.024933187291026115
1773258216473526500,5.101526611328125,-0.19453129172325134,0.26808077096939087,0.018409227952361107
1773258216483538400,5.111538330078125,-0.25334325432777405,0.4705003798007965,0.03795577585697174
1773258216493550300,5.12155029296875,-0.2477402538061142,0.6058267951011658,0.04732158035039902
1773258216503562500,5.1315625,-0.2105736881494522,0.5524849891662598,0.056997671723365784
1773258216513574400,5.141574462890625,-0.16051983833312988,0.3559964597225189,0.023307885974645615
1773258216523586600,5.151586669921875,-0.09381522238254547,0.12431386113166809,-0.013099975883960724
1773258216533599500,5.161599609375,-0.035987868905067444,-0.005827898159623146,-0.014991087839007378
1773258216543611400,5.171611328125,-0.09933903068304062,0.18051360547542572,0.014130464754998684
1773258216553623600,5.18162353515625,-0.03098979964852333,-0.14822380244731903,-0.017793111503124237
1773258216563635500,5.191635498046875,0.028913693502545357,-0.32934999465942383,-0.05467779189348221
1773258216573647600,5.201647705078125,0.05638686567544937,-0.34963446855545044,-0.02939826436340809
1773258216583659500,5.211659423828125,0.039459943771362305,-0.28073355555534363,-0.008950700983405113
1773258216593671400,5.22167138671875,0.05380506068468094,-0.2817535698413849,-0.025985343381762505
1773258216603683600,5.23168359375,0.04460182785987854,-0.21683622896671295,-0.024941928684711456
1773258216613695500,5.241695556640625,0.005504493601620197,-0.15399281680583954,-0.009236468933522701
1773258216623707400,5.251707275390625,-0.006848365068435669,-0.14887267351150513,-0.021740704774856567
1773258216633720300,5.26172021484375,0.0006529605598188937,-0.17846332490444183,-0.07718798518180847
1773258216643732200,5.271732177734375,0.018352031707763672,-0.525665819644928,-0.24731484055519104
1773258216653744400,5.281744384765625,0.00278452318161726,-0.47746896743774414,-0.2456711232662201
1773258216663756300,5.29175634765625,-0.02072431705892086,-0.40006425976753235,-0.24929852783679962
1773258216673768400,5.3017685546875,-0.027954798191785812,-0.4347745478153229,-0.32116472721099854
1773258216683780400,5.3117802734375,-0.006377967074513435,-0.5307754874229431,-0.4351181387901306
1773258216693792300,5.321792236328125,0.018438167870044708,-0.6651991009712219,-0.5219089984893799
1773258216703804400,5.331804443359375,0.03945642709732056,-0.7345898151397705,-0.5276622176170349
1773258216713816300,5.34181640625,0.026332637295126915,-0.6223160028457642,-0.4131886065006256
1773258216723828200,5.351828125,0.02543576806783676,-0.34224456548690796,-0.21738846600055695
1773258216733841400,5.36184130859375,0.01426620315760374,-0.08660561591386795,0.03069111332297325
1773258216743853300,5.371853271484375,-0.045087289065122604,-0.03596842661499977,0.08830289542675018
1773258216753865500,5.381865478515625,-0.0846695825457573,-0.12831220030784607,0.019701460376381874
1773258216763877400,5.39187744140625,-0.06837798655033112,-0.2965717911720276,-0.0301652904599905
1773258216773889300,5.40188916015625,-0.052257612347602844,-0.38806843757629395,-0.03313977271318436
1773258216783901400,5.4119013671875,-0.053277306258678436,-0.39036697149276733,-0.04623068496584892
1773258216793913300,5.421913330078125,-0.0441751554608345,-0.36065995693206787,-0.03157583996653557
1773258216803925500,5.431925537109375,-0.027984436601400375,-0.3094433546066284,-0.008401952683925629
1773258216813937400,5.4419375,0.002226729178801179,-0.23422209918498993,-0.009210756048560143
1773258216823950300,5.451950439453125,0.033013615757226944,-0.17879217863082886,0.005094250198453665
1773258216833962500,5.46196240234375,0.05434553325176239,-0.06727418303489685,0.04429518058896065
1773258216843974100,5.47197412109375,0.053574882447719574,-0.002720141550526023,0.07238338887691498
1773258216853986300,5.481986328125,0.04445648565888405,-0.033345695585012436,0.07480339705944061
1773258216863998200,5.491998291015625,0.054569292813539505,-0.13868732750415802,0.09557904303073883
1773258216874010000,5.502010009765625,0.07541678845882416,-0.2124430388212204,0.15645039081573486
1773258216884022300,5.512022216796875,0.08182360231876373,-0.24616950750350952,0.23775020241737366
1773258216894034200,5.5220341796875,0.07093767076730728,-0.2901580333709717,0.27062079310417175
1773258216904046000,5.532046142578125,0.06645579636096954,-0.44899165630340576,0.1910809874534607
1773258216914059300,5.542059326171875,0.10594834387302399,-0.5827689170837402,0.11905819922685623
1773258216924071200,5.5520712890625,0.14870214462280273,-0.5589067339897156,0.19666646420955658
1773258216934083300,5.562083251953125,0.21373626589775085,-0.528003990650177,0.3391903042793274
1773258216944095200,5.57209521484375,0.24124521017074585,-0.561572253704071,0.48625436425209045
1773258216954107100,5.582107177734375,0.1676439642906189,-0.6644672155380249,0.5436457395553589
1773258216964119300,5.592119384765625,0.03514587879180908,-0.8238255977630615,0.5340642333030701
1773258216974131200,5.602131103515625,-0.06716477870941162,-0.707595944404602,0.40162795782089233
1773258216984143400,5.612143310546875,-0.10659869760274887,-0.3899412453174591,0.38793259859085083
1773258216994156000,5.622156005859375,-0.06071003898978233,-0.21932105720043182,0.44660842418670654
1773258217004168200,5.632168212890625,0.07051341235637665,-0.4250010550022125,0.3690379858016968
1773258217014180000,5.64218017578125,0.26414012908935547,-0.6966685652732849,0.2727234363555908
1773258217024192000,5.65219189453125,0.4064723253250122,-0.8771652579307556,0.2558247148990631
1773258217034204200,5.6622041015625,0.35846003890037537,-1.1535919904708862,0.37544935941696167
1773258217044216000,5.672216064453125,0.2897132337093353,-1.5124398469924927,0.5654833316802979
1773258217054228000,5.68222802734375,0.02730720490217209,-1.7958718538284302,0.8340314626693726
1773258217064240000,5.692240234375,-0.35894787311553955,-1.5961726903915405,1.0417776107788086
1773258217074253000,5.702253173828125,-0.4990253448486328,-1.4706017971038818,1.2076411247253418
1773258217084265200,5.71226513671875,-0.4348071217536926,-1.0429141521453857,1.2509853839874268
1773258217094277000,5.722277099609375,-0.2269900143146515,-0.3815585970878601,1.5525697469711304
1773258217104289000,5.7322890625,-0.25352343916893005,-0.2184387892484665,1.7122447490692139
1773258217114301200,5.74230126953125,-0.18713751435279846,-0.10897593200206757,1.4564372301101685
1773258217124313000,5.75231298828125,-0.0785178616642952,0.1319551318883896,0.9190379977226257
1773258217134325200,5.7623251953125,-0.15539000928401947,0.1323695182800293,0.37856438755989075
1773258217144337200,5.772337158203125,-0.11858971416950226,0.07285179942846298,0.34655627608299255
1773258217154350000,5.78235009765625,-0.00287217041477561,-0.19534502923488617,0.4614937901496887
1773258217164362200,5.7923623046875,0.12150070071220398,-0.7115395665168762,0.5262995958328247
1773258217174374100,5.8023740234375,0.15352016687393188,-1.3360061645507812,0.5637468099594116
1773258217184386300,5.81238623046875,-0.015583721920847893,-1.5787259340286255,0.5676612257957458
1773258217194398200,5.822398193359375,-0.11688903719186783,-1.0971782207489014,0.33935001492500305
1773258217204410000,5.83241015625,-0.17491936683654785,-0.7303088903427124,0.2135903388261795
1773258217214422300,5.84242236328125,-0.21799945831298828,-0.5379983186721802,0.2410363405942917
1773258217224435200,5.852435302734375,-0.11457841098308563,-0.4422977566719055,0.19951951503753662
1773258217234447400,5.862447265625,-0.0986388549208641,-0.632716178894043,0.05210370197892189
1773258217244459300,5.872459228515625,-0.28412967920303345,-0.7821001410484314,-0.16957898437976837
1773258217254471200,5.88247119140625,-0.2049991935491562,-0.832861065864563,-0.09852877259254456
1773258217264483300,5.8924833984375,-0.00699481600895524,-0.9508034586906433,-0.17614437639713287
1773258217274495200,5.9024951171875,0.196232870221138,-1.0396286249160767,-0.25781312584877014
1773258217284507100,5.912507080078125,0.3502061367034912,-0.9727301001548767,-0.2565915286540985
1773258217294519300,5.922519287109375,0.386158287525177,-0.7951180338859558,-0.25196373462677
1773258217304532000,5.932531982421875,0.2657577097415924,-0.7256876826286316,-0.27071574330329895
1773258217314544000,5.942544189453125,0.22194340825080872,-0.7922701835632324,-0.34804782271385193
1773258217324556000,5.95255615234375,0.13211607933044434,-0.8921114802360535,-0.4403783082962036
1773258217334568200,5.962568115234375,-0.015481358394026756,-0.8999238610267639,-0.5364475846290588
1773258217344580000,5.972580078125,-0.0807468593120575,-0.7880918383598328,-0.4977319836616516
1773258217354592000,5.982592041015625,-0.15210412442684174,-0.5167215466499329,-0.33973464369773865
1773258217364604200,5.992604248046875,-0.22995713353157043,-0.29108235239982605,-0.20106174051761627
1773258217374617000,6.0026171875,-0.20977410674095154,-0.20182570815086365,-0.16627712547779083
1773258217384629200,6.012629150390625,-0.18916641175746918,-0.29834380745887756,-0.14253924787044525
1773258217394641200,6.02264111328125,-0.168782576918602,-0.25127750635147095,-0.03712175041437149
1773258217404653000,6.032653076171875,-0.1400415152311325,-0.1355067640542984,0.02807333506643772
1773258217414665200,6.042665283203125,-0.11495214700698853,-0.15513798594474792,0.07449010014533997
1773258217424677000,6.052677001953125,-0.08338925987482071,-0.18764249980449677,0.17851366102695465
1773258217434689000,6.06268896484375,0.011043763719499111,-0.2985788881778717,0.3170587718486786
1773258217444701200,6.072701171875,0.1651240885257721,-0.4101105332374573,0.35196438431739807
1773258217454714000,6.082714111328125,0.2204001396894455,-0.5018734335899353,0.3047278821468353
1773258217464726300,6.092726318359375,0.08525179326534271,-0.4041488766670227,0.2966407239437103
1773258217474738200,6.10273828125,0.03601394221186638,-0.18948876857757568,0.2498266100883484
1773258217484750300,6.112750244140625,0.03938986361026764,-0.06228410452604294,0.2211291491985321
1773258217494762200,6.12276220703125,0.08548624813556671,-0.06070644408464432,0.07062378525733948
1773258217504774100,6.132774169921875,0.029053809121251106,-0.15583275258541107,0.012262489646673203
1773258217514786300,6.142786376953125,-0.036961693316698074,-0.3317931294441223,-0.10120441764593124
1773258217524799200,6.15279931640625,-0.16317914426326752,-0.3066985607147217,-0.2967570722103119
1773258217534811100,6.16281103515625,-0.13652995228767395,0.43495798110961914,-0.43015480041503906
1773258217544823300,6.1728232421875,-0.12890523672103882,1.0353062152862549,-0.5275163054466248
1773258217554835200,6.182835205078125,-0.10306298732757568,1.4071037769317627,-0.5587735772132874
1773258217564847000,6.19284716796875,-0.02050221525132656,1.4373857975006104,-0.5861682891845703
1773258217574859300,6.202859375,0.13544343411922455,1.202879786491394,-0.6300066113471985
1773258217584871200,6.21287109375,0.2129829227924347,0.685594379901886,-0.6667065620422363
1773258217594884000,6.222884033203125,0.21766343712806702,0.2357739359140396,-0.7466296553611755
1773258217604896000,6.23289599609375,-0.05969519913196564,0.4307231903076172,-0.6063879728317261
1773258217614908200,6.242908203125,-0.028759120032191277,0.9369144439697266,-0.573955237865448
1773258217624920000,6.252920166015625,-0.14728550612926483,0.8415924906730652,-0.7052126526832581
1773258217634932000,6.262931884765625,-0.25812387466430664,0.6786502003669739,-0.7997333407402039
1773258217644944100,6.272944091796875,-0.3165053725242615,0.496142715215683,-0.7970806360244751
1773258217654956000,6.2829560546875,-0.2976698875427246,0.2661728858947754,-0.8171103000640869
1773258217664968200,6.29296826171875,-0.26768603920936584,-0.07745358347892761,-0.8547662496566772
1773258217674981000,6.302981201171875,-0.2159584015607834,-0.14322194457054138,-0.8201086521148682
1773258217684993300,6.3129931640625,-0.24879851937294006,-0.10077636688947678,-0.7325618863105774
1773258217695005200,6.323005126953125,-0.30134907364845276,-0.03720378130674362,-0.5986331105232239
1773258217705017000,6.33301708984375,-0.3620012700557709,-0.018249325454235077,-0.4737224876880646
1773258217715029200,6.343029296875,-0.4270431399345398,0.1447201520204544,-0.3369409441947937
1773258217725041200,6.353041259765625,-0.4556262791156769,0.22652211785316467,-0.259580135345459
1773258217735053000,6.363052978515625,-0.4991234242916107,0.3402388393878937,-0.27872881293296814
1773258217745066200,6.373066162109375,-0.6159249544143677,0.6958528161048889,-0.22797079384326935
1773258217755078100,6.383078125,-0.7380204796791077,0.9487801194190979,-0.1328493356704712
1773258217765090300,6.39309033203125,-0.7602399587631226,0.9192691445350647,0.03957106173038483
1773258217775102200,6.403102294921875,-0.5891425013542175,0.5024160146713257,0.35457879304885864
1773258217785114000,6.413114013671875,-0.5263067483901978,0.2362416684627533,0.40819552540779114
1773258217795126300,6.423126220703125,-0.6405182480812073,-0.21898630261421204,0.3053636848926544
1773258217805138200,6.43313818359375,-0.5516319870948792,-0.591464102268219,0.16963718831539154
1773258217815151000,6.443151123046875,-0.47915828227996826,-0.8921613693237305,0.03065561130642891
1773258217825163000,6.4531630859375,-0.4925370216369629,-0.8073320388793945,-0.014396484941244125
1773258217835175000,6.4631748046875,-0.5273293852806091,-0.8234630823135376,0.0296841561794281
1773258217845187000,6.47318701171875,-0.4640146493911743,-0.8242834210395813,0.0990302562713623
1773258217855199000,6.483198974609375,-0.38502901792526245,-0.635648787021637,0.18726077675819397
1773258217865211100,6.493211181640625,-0.3388330340385437,-0.4923188090324402,0.21325749158859253
1773258217875223000,6.50322314453125,-0.2694269120693207,-0.37624266743659973,0.23091985285282135
1773258217885235000,6.51323486328125,-0.21340394020080566,-0.26734447479248047,0.20752139389514923
1773258217895248000,6.523247802734375,-0.14422114193439484,-0.20822842419147491,0.2303774505853653
1773258217905259800,6.533259765625,-0.0748109221458435,-0.14917203783988953,0.1437041461467743
1773258217915272000,6.54327197265625,0.07630695402622223,0.28107625246047974,0.3723144233226776
1773258217925283800,6.553283935546875,0.27199211716651917,1.1494394540786743,1.0519459247589111
1773258217935296000,6.5632958984375,0.20598886907100677,1.5317848920822144,-0.752472460269928
1773258217945308000,6.573307861328125,-0.13534092903137207,0.5927574038505554,-1.5480988025665283
1773258217955319800,6.58331982421875,-0.24891729652881622,0.08691228926181793,-1.0963082313537598
1773258217965332000,6.59333203125,-0.4352445602416992,-0.03133578971028328,-0.4320759177207947
1773258217975343900,6.60334375,-0.39337727427482605,0.17271080613136292,-0.09081075340509415
1773258217985357000,6.613357177734375,-0.3874112367630005,0.1334254890680313,0.18528558313846588
1773258217995369000,6.623368896484375,-0.5626717209815979,0.23723311722278595,0.19746927917003632
1773258218005380900,6.633380859375,-0.8233234882354736,0.5054505467414856,0.20531025528907776
1773258218015393000,6.64339306640625,-0.9797477126121521,0.9563524723052979,0.23705565929412842
1773258218025405000,6.653405029296875,-1.0780900716781616,1.4341028928756714,0.262137234210968
1773258218035416800,6.663416748046875,-1.1127934455871582,1.8766154050827026,0.3530554175376892
1773258218045429000,6.673428955078125,-1.099615454673767,1.956420660018921,0.3247258961200714
1773258218055441000,6.68344091796875,-1.01644766330719,1.8640518188476562,0.21073967218399048
1773258218065454000,6.6934541015625,-0.9382774829864502,1.646661400794983,0.0444226935505867
1773258218075466000,6.703466064453125,-0.9041690826416016,1.3760602474212646,-0.11802268028259277
1773258218085478000,6.713477783203125,-0.7965121269226074,1.2449145317077637,-0.20625236630439758
1773258218095490000,6.723489990234375,-0.7004795670509338,1.2052205801010132,-0.29081863164901733
1773258218105502000,6.733501953125,-0.6482979655265808,1.288794755935669,-0.44271746277809143
1773258218115514000,6.74351416015625,-0.6798495054244995,1.4018193483352661,-0.5646370053291321
1773258218125526000,6.753526123046875,-0.742066502571106,1.4568583965301514,-0.558949887752533
1773258218135538000,6.763537841796875,-0.5871677398681641,1.7592263221740723,-0.5199087262153625
1773258218145550000,6.773550048828125,-0.44530555605888367,2.0837814807891846,-0.410799115896225
1773258218155562800,6.783562744140625,-0.3054690957069397,2.251572847366333,-0.4880360960960388
1773258218165575000,6.793574951171875,-0.18370184302330017,1.9036870002746582,-0.6658613085746765
1773258218175586800,6.8035869140625,-0.08086200803518295,1.347141981124878,-0.9721671342849731
1773258218185599000,6.813598876953125,-0.018024060875177383,0.8914732933044434,-1.3232494592666626
1773258218195611000,6.82361083984375,0.09630171209573746,0.667262077331543,-1.609014630317688
1773258218205622800,6.833622802734375,0.23337087035179138,0.886861264705658,-1.6977849006652832
1773258218215635000,6.843635009765625,0.7970859408378601,1.3385403156280518,-0.7338974475860596
1773258218225646800,6.853646728515625,0.997969388961792,1.6364930868148804,-0.7506818771362305
1773258218235659800,6.86365966796875,0.6871837973594666,1.281707525253296,-0.8567225933074951
1773258218245672000,6.873671875,0.40833666920661926,0.8463147282600403,-0.9697938561439514
1773258218255683800,6.883683837890625,0.006584170274436474,-0.0014533153735101223,-1.2025641202926636
1773258218265696000,6.893696044921875,-0.4622235894203186,-0.35676008462905884,-1.602134108543396
1773258218275708000,6.9037080078125,-0.7657946944236755,-0.6878508925437927,-1.8794724941253662
1773258218285719800,6.9137197265625,-0.8666287064552307,-0.7596055865287781,-2.0550856590270996
1773258218295732000,6.92373193359375,-0.8793676495552063,-0.6183454394340515,-1.889095425605774
1773258218305744000,6.933743896484375,-0.8076423406600952,-0.1831231713294983,-1.964161992073059
1773258218315755800,6.943755859375,-0.6511611342430115,0.12208281457424164,-1.8271620273590088
1773258218325768000,6.953767822265625,-0.40661001205444336,0.31142500042915344,-1.679212212562561
1773258218335780900,6.96378076171875,-0.21752771735191345,0.3212456703186035,-1.5506893396377563
1773258218345793000,6.97379296875,-0.24281099438667297,0.412825345993042,-1.3772810697555542
1773258218355805000,6.983804931640625,-0.32241421937942505,0.4836087226867676,-1.0748006105422974
1773258218365816800,6.99381689453125,-0.36316001415252686,0.7290544509887695,-0.7848894596099854
1773258218375829000,7.0038291015625,-0.36412832140922546,0.832724928855896,-0.58698570728302
1773258218385841000,7.0138408203125,-0.31872618198394775,0.7873609662055969,-0.325559139251709
1773258218395853000,7.02385302734375,-0.33156076073646545,0.6413571834564209,-0.15665879845619202
1773258218405865000,7.033864990234375,-0.32718217372894287,0.4422880709171295,0.050235576927661896
1773258218415876900,7.043876953125,-0.322237491607666,0.49567273259162903,0.18404744565486908
1773258218425889000,7.053888916015625,-0.30642861127853394,0.8167589902877808,0.4388089179992676
1773258218435902000,7.06390185546875,-0.34216368198394775,1.1331661939620972,0.6994458436965942
1773258218445914000,7.0739140625,-0.423221617937088,1.1150078773498535,0.7632262706756592
1773258218455926000,7.083926025390625,-0.49019721150398254,0.45621344447135925,0.6459267735481262
1773258218465938000,7.09393798828125,-0.5695915222167969,-0.1672225147485733,0.5618440508842468
1773258218475950000,7.1039501953125,-0.5311753749847412,-0.2186731994152069,0.5928856134414673
1773258218485962000,7.1139619140625,-0.44507959485054016,-0.0898379534482956,0.6907484531402588
1773258218495974100,7.12397412109375,-0.39318203926086426,-0.1088009923696518,0.7579829096794128
1773258218505986000,7.133986083984375,-0.4076201915740967,-0.2626449763774872,0.8536666035652161
1773258218515998000,7.143998046875,-0.39485275745391846,-0.49463319778442383,0.9594854712486267
1773258218526010000,7.154010009765625,-0.3766348659992218,-0.7176225781440735,1.068838119506836
1773258218536022000,7.16402197265625,-0.4209791421890259,-0.8592537641525269,1.0459895133972168
1773258218546035000,7.174034912109375,-0.4029861390590668,-0.7799164652824402,0.9698453545570374
1773258218556046800,7.184046875,-0.34304583072662354,-0.5389935970306396,0.9332133531570435
1773258218566058800,7.194058837890625,-0.32664167881011963,-0.652210533618927,0.8783169388771057
1773258218576071000,7.20407080078125,-0.4349212944507599,-1.0694963932037354,0.8316037654876709
1773258218586082800,7.214082763671875,-0.3646555244922638,-0.9240296483039856,0.9146438241004944
1773258218596094700,7.2240947265625,-0.18892976641654968,-0.7997644543647766,0.9209728240966797
1773258218606107000,7.23410693359375,-0.025245191529393196,-0.5111499428749084,1.0188984870910645
1773258218616118800,7.244118896484375,0.06325218081474304,-0.24729935824871063,1.1201649904251099
1773258218626131000,7.254130859375,0.1340777724981308,-0.49085354804992676,1.2245527505874634
1773258218636142800,7.264142822265625,0.231439471244812,-0.7096876502037048,1.0220105648040771
1773258218646155000,7.274155029296875,0.17895963788032532,-0.765755832195282,0.806610107421875
1773258218656168000,7.28416796875,0.07451977580785751,-0.9692908525466919,0.5063813328742981
1773258218666179800,7.294179931640625,0.032388683408498764,-1.2122317552566528,0.31540006399154663
1773258218676192000,7.30419189453125,0.048591356724500656,-1.352988600730896,0.23709088563919067
1773258218686204000,7.314203857421875,0.12279099971055984,-1.4695523977279663,0.300728440284729
1773258218696215800,7.3242158203125,0.170926034450531,-1.554593801498413,0.4068029522895813
1773258218706228000,7.33422802734375,0.19812366366386414,-1.704319715499878,0.4105788767337799
1773258218716240000,7.344239990234375,0.24924783408641815,-1.7048283815383911,0.40637561678886414
1773258218726251800,7.354251708984375,0.4786390960216522,-1.901852011680603,0.43322721123695374
1773258218736264000,7.364263916015625,0.6655263900756836,-2.538086175918579,0.46161171793937683
1773258218746275800,7.37427587890625,0.6545915603637695,-2.862467050552368,0.5643281936645508
1773258218756288000,7.3842880859375,0.6671409010887146,-2.9978761672973633,0.629605770111084
1773258218766300000,7.3942998046875,0.6272929906845093,-3.089019298553467,0.5993237495422363
1773258218776312800,7.404312744140625,0.6425832509994507,-3.197429895401001,0.5557549595832825
1773258218786325000,7.414324951171875,0.6796103119850159,-3.5052947998046875,0.434242844581604
1773258218796337000,7.4243369140625,0.709717333316803,-3.6731021404266357,0.4337128698825836
1773258218806349000,7.43434912109375,0.8196443915367126,-3.5186924934387207,0.6275351643562317
1773258218816361000,7.44436083984375,0.8367711901664734,-3.241713762283325,0.7600391507148743
1773258218826372900,7.454372802734375,0.6860415935516357,-2.6877830028533936,0.6480427980422974
1773258218836385000,7.464385009765625,0.5651870965957642,-2.229461193084717,0.48176488280296326
1773258218846397000,7.47439697265625,0.4463133215904236,-1.77004873752594,0.200323686003685
1773258218856409000,7.4844091796875,0.2739865481853485,-0.98841792345047,-0.028086062520742416
1773258218866421000,7.4944208984375,0.11310036480426788,-0.29967743158340454,-0.32510828971862793
1773258218876433200,7.50443310546875,0.007636789232492447,0.16473737359046936,-0.5345606207847595
1773258218886446000,7.514446044921875,-0.08802590519189835,0.47009533643722534,-0.7523930668830872
1773258218896458200,7.524458251953125,-0.15352022647857666,0.7326409220695496,-0.8631784319877625
1773258218906470100,7.53447021484375,-0.14477038383483887,0.8098236322402954,-0.9093597531318665
1773258218916482000,7.54448193359375,-0.13054697215557098,0.7596834897994995,-0.9555610418319702
1773258218926494200,7.554494140625,-0.14133258163928986,0.7184286713600159,-0.9919707775115967
1773258218936506000,7.564506103515625,-0.026394806802272797,0.9135555624961853,-0.9537107944488525
1773258218946518000,7.57451806640625,0.18600612878799438,1.383348822593689,-0.8481284379959106
1773258218956530200,7.5845302734375,0.4516791105270386,1.8851124048233032,-0.7052106857299805
1773258218966542000,7.5945419921875,0.6812227368354797,1.982501745223999,-0.730229914188385
1773258218976554000,7.604553955078125,0.8374480605125427,1.7801458835601807,-0.7708476781845093
1773258218986566100,7.614566162109375,0.8781435489654541,1.361660361289978,-0.9145933389663696
1773258218996578000,7.624578125,0.6169071793556213,1.0746674537658691,-1.065116286277771
1773258219006591000,7.634591064453125,0.37423205375671387,0.6813918948173523,-1.0167993307113647
1773258219016603000,7.644602783203125,0.16869540512561798,-0.2600618898868561,-1.1675081253051758
1773258219026615000,7.654614990234375,0.08103656768798828,-1.1749039888381958,-1.387078881263733
1773258219036627000,7.664626953125,-0.06306654959917068,-1.559716820716858,-1.3075100183486938
1773258219046638800,7.674638916015625,-0.4170897305011749,-0.5536357164382935,-0.9166089296340942
1773258219056651000,7.684651123046875,-0.48233264684677124,-0.1714041531085968,-0.8226355314254761
1773258219066663000,7.694662841796875,-0.4872654676437378,0.008393731899559498,-0.79188472032547
1773258219076674800,7.7046748046875,-0.47507244348526,0.091255322098732,-0.7848781943321228
1773258219086687000,7.71468701171875,-0.4394325613975525,0.008453795686364174,-0.7242084741592407
1773258219096699000,7.724698974609375,-0.3705427050590515,-0.00904876459389925,-0.5970326662063599
1773258219106710800,7.734710693359375,-0.2268858551979065,0.055163074284791946,-0.5188588500022888
1773258219116723000,7.744722900390625,-0.14540137350559235,-0.010124851018190384,-0.3329736590385437
1773258219126736000,7.75473583984375,-0.2539231479167938,0.28956109285354614,0.0025951284915208817
1773258219136748000,7.764748046875,-0.2584734261035919,0.31577804684638977,0.2742530107498169
1773258219146760000,7.774760009765625,-0.32178983092308044,0.26897433400154114,0.4489496648311615
1773258219156772000,7.784772216796875,-0.27159321308135986,0.03716534003615379,0.4366498291492462
1773258219166784000,7.794783935546875,-0.26423731446266174,0.0005766649264842272,0.492793470621109
1773258219176796000,7.8047958984375,-0.32232725620269775,0.012721478007733822,0.553208589553833
1773258219186808000,7.81480810546875,-0.3826368749141693,-0.12443844974040985,0.4594828188419342
1773258219196820000,7.824820068359375,-0.4568650424480438,-0.28242912888526917,0.2586948573589325
1773258219206831900,7.834831787109375,-0.45478084683418274,-0.12615324556827545,0.1185174435377121
1773258219216844000,7.844843994140625,-0.43935075402259827,0.048037730157375336,-0.007242883555591106
1773258219226856000,7.85485595703125,-0.4225742220878601,0.15541471540927887,-0.06626881659030914
1773258219236868000,7.8648681640625,-0.36584410071372986,0.2249024510383606,-0.10567374527454376
1773258219246881000,7.874881103515625,-0.18442077934741974,0.28444144129753113,-0.0610181987285614
1773258219256893000,7.884892822265625,-0.04672203212976456,0.4392496645450592,0.13722164928913116
1773258219266905000,7.894905029296875,0.04283880069851875,0.5542109608650208,0.5687934756278992
1773258219276917000,7.9049169921875,0.04048430174589157,0.419264554977417,1.0271035432815552
1773258219286929200,7.91492919921875,0.1270272135734558,0.2435992956161499,1.4074667692184448
1773258219296941000,7.924941162109375,0.08854400366544724,0.3779869079589844,1.7631769180297852
1773258219306953000,7.934952880859375,-0.1164422482252121,0.5306730270385742,1.185571312904358
1773258219316965000,7.944965087890625,-0.5880846381187439,0.766120433807373,0.3071736693382263
1773258219326977000,7.95497705078125,-0.6702477335929871,0.37854281067848206,-0.1043255552649498
1773258219336989000,7.964989013671875,-0.6916561126708984,-0.1530611515045166,-0.26461002230644226
1773258219347001000,7.9750009765625,-0.5976746082305908,-1.0087021589279175,0.2868657112121582
1773258219357013000,7.985012939453125,-0.4592832028865814,-0.8107172250747681,0.23542355000972748
1773258219367026200,7.995026123046875,-0.3420369327068329,-0.24512457847595215,-0.46798980236053467
1773258219377038000,8.0050380859375,-0.19036298990249634,0.2449473887681961,-1.054337739944458
1773258219387050000,8.015050048828124,-0.30295461416244507,0.8852391839027405,-1.4059274196624756
1773258219397062100,8.025062255859375,-0.3545736074447632,0.7905265092849731,-1.5924839973449707
1773258219407074000,8.035073974609375,-0.2736752927303314,0.3681482970714569,-1.9383690357208252
1773258219417086200,8.045086181640626,-0.11088238656520844,0.18340854346752167,-2.0400984287261963
1773258219427098000,8.05509814453125,0.10613419860601425,0.20564498007297516,-2.0344529151916504
1773258219437110000,8.065110107421875,0.34938544034957886,0.2770605683326721,-1.9804012775421143
1773258219447122200,8.0751220703125,0.5904297232627869,0.3178415298461914,-1.8730138540267944
1773258219457134000,8.085134033203126,0.8191550374031067,0.30092567205429077,-1.7277147769927979
1773258219467146000,8.09514599609375,0.9978480339050293,0.33498209714889526,-1.5820684432983398
1773258219477158100,8.105158203125,1.0421220064163208,0.47571682929992676,-1.4638731479644775
1773258219487170800,8.1151708984375,0.8897622227668762,0.4560011625289917,-1.3254170417785645
1773258219497183000,8.125182861328126,0.8779183626174927,0.06920018047094345,-1.2015224695205688
1773258219507195000,8.13519482421875,0.9289989471435547,-0.09001657366752625,-1.1359816789627075
1773258219517207000,8.14520703125,0.9801673293113708,-0.004861730150878429,-1.080944299697876
1773258219527219000,8.155218994140625,0.9772630333900452,0.1840851902961731,-1.1124356985092163
1773258219537230800,8.16523095703125,0.9420885443687439,0.15463168919086456,-1.118230938911438
1773258219547243000,8.175242919921875,0.9090129733085632,-0.027020353823900223,-1.0812911987304688
1773258219557255000,8.1852548828125,0.8506260514259338,-0.1804003268480301,-0.9124292135238647
1773258219567266800,8.195266845703125,0.754025399684906,-0.19334550201892853,-0.7026368975639343
1773258219577279000,8.205279052734374,0.6605101227760315,-0.22355373203754425,-0.44129106402397156
1773258219587291000,8.215290771484375,0.5044209957122803,-0.2700779438018799,-0.0859404131770134
1773258219597303000,8.225302978515625,0.3536488115787506,-0.3660643994808197,0.3118879199028015
1773258219607315000,8.23531494140625,0.2815163731575012,-0.43626368045806885,0.6257013082504272
1773258219617327900,8.245327880859374,0.2388746440410614,-0.36378681659698486,0.7675886750221252
1773258219627340000,8.255340087890625,0.2003651112318039,-0.20265352725982666,0.6674362421035767
1773258219637352000,8.26535205078125,0.16050665080547333,-0.06755829602479935,0.3736267387866974
1773258219647364000,8.275364013671876,0.1307993084192276,-0.02242335118353367,0.05161196365952492
1773258219657376000,8.2853759765625,0.1085379496216774,-0.06323149800300598,-0.20194973051548004
1773258219667388000,8.295387939453125,0.06464267522096634,-0.113930344581604,-0.3457674980163574
1773258219677400000,8.305400146484375,0.030632246285676956,-0.10671690851449966,-0.4401451349258423
1773258219687412000,8.315411865234376,0.046395231038331985,-0.05861089378595352,-0.49565577507019043
1773258219697424000,8.325423828125,0.10143637657165527,0.04717598855495453,-0.5168873071670532
1773258219707436000,8.33543603515625,0.16103844344615936,0.09663886576890945,-0.5246514081954956
1773258219717448000,8.345447998046875,0.23372116684913635,-0.03397133946418762,-0.5305668711662292
1773258219727460000,8.355460205078124,0.33700960874557495,-0.3071329891681671,-0.4847331643104553
1773258219737473000,8.36547314453125,0.44000017642974854,-0.5671784281730652,-0.36794981360435486
1773258219747485000,8.37548486328125,0.5008312463760376,-0.7237530946731567,-0.23143120110034943
1773258219757497000,8.3854970703125,0.5123158693313599,-0.8023278117179871,-0.12632662057876587
1773258219767509000,8.395509033203124,0.4533484876155853,-0.8256030082702637,-0.09093361347913742
1773258219777521200,8.405521240234375,0.35040348768234253,-0.8555800914764404,-0.11307966709136963
1773258219787533000,8.415532958984375,0.26280853152275085,-0.9089914560317993,-0.12963421642780304
1773258219797545000,8.425544921875,0.21186116337776184,-0.8840456604957581,-0.1067214384675026
1773258219807557000,8.43555712890625,0.17529773712158203,-0.742359459400177,-0.06332750618457794
1773258219817569000,8.445569091796875,0.12743327021598816,-0.553398847579956,-0.055275432765483856
1773258219827581000,8.455580810546875,0.07306864857673645,-0.41261395812034607,-0.10130272060632706
1773258219837593000,8.465593017578126,0.0036232611164450645,-0.31065884232521057,-0.1871419996023178
1773258219847605200,8.475605224609374,-0.07736008614301682,-0.24142952263355255,-0.2853710353374481
1773258219857617200,8.4856171875,-0.1706141233444214,-0.2176738679409027,-0.3919834792613983
1773258219867630300,8.49563037109375,-0.2668531835079193,-0.2267756313085556,-0.49196016788482666
1773258219877642200,8.505642333984374,-0.3263474106788635,-0.2404072880744934,-0.5392491221427917
1773258219887654100,8.515654052734375,-0.35469508171081543,-0.24866433441638947,-0.5381180047988892
1773258219897666300,8.525666259765625,-0.41583460569381714,-0.26331785321235657,-0.5047155618667603
1773258219907678200,8.53567822265625,-0.4357866048812866,-0.31094783544540405,-0.5978931784629822
1773258219917690000,8.545690185546874,-0.3485398590564728,-0.5235453248023987,-0.6346703171730042
1773258219927702300,8.555702392578125,-0.26409482955932617,-0.5584456324577332,-0.3838965892791748
1773258219937714200,8.565714111328125,-0.14737488329410553,-0.43804168701171875,-0.1942100077867508
1773258219947726300,8.575726318359376,-0.04226696863770485,-0.22103865444660187,-0.029361210763454437
1773258219957738200,8.58573828125,0.04300371930003166,0.03798145055770874,0.08785276114940643
1773258219967750100,8.595750244140625,0.08258172124624252,0.08419231325387955,0.07395101338624954
1773258219977762300,8.60576220703125,0.07268887758255005,-0.03560758754611015,-0.004392265807837248
1773258219987774200,8.615774169921876,0.04355873912572861,-0.16321901977062225,-0.0714070051908493
1773258219997787100,8.625787109375,0.026816509664058685,-0.2365395724773407,-0.10356254875659943
1773258220007799000,8.635799072265625,0.0318748764693737,-0.2841295003890991,-0.04322948306798935
1773258220017811000,8.64581103515625,0.09889093041419983,-0.3343881368637085,0.15819844603538513
1773258220027823000,8.655822998046874,0.24567607045173645,-0.22070954740047455,0.4265403747558594
1773258220037835000,8.6658349609375,0.22843344509601593,0.13015925884246826,0.4782789349555969
1773258220047847200,8.67584716796875,0.06521228700876236,0.3146630525588989,0.4236743748188019
1773258220057859000,8.685859130859376,-0.1148831769824028,0.2248988002538681,0.2820168435573578
1773258220067871000,8.69587109375,-0.2531517446041107,0.00701504573225975,0.16121889650821686
1773258220077883100,8.705883056640625,-0.3560467064380646,-0.21207629144191742,0.12354341894388199
1773258220087895000,8.71589501953125,-0.4003198742866516,-0.3967076241970062,0.17571985721588135
1773258220097907000,8.725906982421876,-0.39205819368362427,-0.422578364610672,0.3238459527492523
1773258220107919000,8.735919189453124,-0.3753769099712372,-0.21848300099372864,0.5210163593292236
1773258220117932000,8.74593212890625,-0.39646995067596436,0.00901780091226101,0.6733156442642212
1773258220127944200,8.755944091796875,-0.4814473092556,0.14637552201747894,0.7354682683944702
1773258220137956000,8.7659560546875,-0.6096257567405701,0.21125517785549164,0.7109965085983276
1773258220147968000,8.775968017578125,-0.7313145399093628,0.20542775094509125,0.6276554465293884
1773258220157980200,8.785980224609375,-0.7962117791175842,0.06691968441009521,0.5320119857788086
1773258220167992000,8.795991943359375,-0.8653611540794373,0.04850674420595169,0.5856138467788696
1773258220178004200,8.806004150390624,-0.9098897576332092,0.04007251560688019,0.4951273202896118
1773258220188016000,8.81601611328125,-0.9054211974143982,-0.06524646282196045,0.3981814384460449
1773258220198028000,8.826028076171875,-0.8156852126121521,-0.121026910841465,0.3449743986129761
1773258220208040200,8.836040283203126,-0.7064820528030396,-0.06045173108577728,0.29239895939826965
1773258220218052000,8.846052001953124,-0.635619044303894,0.10788987576961517,0.23346054553985596
1773258220228064000,8.85606396484375,-0.5780360698699951,0.21171066164970398,0.17915502190589905
1773258220238076200,8.866076171875,-0.4943081736564636,0.2290387898683548,0.13212944567203522
1773258220248089000,8.876089111328126,-0.39592665433883667,0.2219708412885666,0.10011215507984161
1773258220258101200,8.886101318359374,-0.3221600353717804,0.2037590891122818,0.10059259086847305
1773258220268113200,8.896113037109375,-0.26905617117881775,0.1656387448310852,0.13524603843688965
1773258220278125000,8.906125,-0.20885062217712402,0.12654221057891846,0.1833464503288269
1773258220288137200,8.91613720703125,-0.14994347095489502,0.13072778284549713,0.23000815510749817
1773258220298149000,8.926149169921874,-0.10662476718425751,0.13816067576408386,0.2828732430934906
1773258220308161300,8.936161376953125,-0.0773659199476242,0.10457450896501541,0.33627206087112427
1773258220318173200,8.946173095703125,-0.0519375242292881,0.0023280372843146324,0.34539684653282166
1773258220328185000,8.95618505859375,0.02940531261265278,-0.019786812365055084,0.38927701115608215
1773258220338197200,8.966197265625,0.09824883192777634,-0.017975863069295883,0.44143447279930115
1773258220348209200,8.976209228515625,0.14291982352733612,0.010508703999221325,0.45159009099006653
1773258220358221000,8.986220947265625,0.18284673988819122,0.0028763506561517715,0.4021458327770233
1773258220368234200,8.996234130859374,0.19769655168056488,-0.03466247022151947,0.3380585014820099
1773258220378246100,9.00624609375,0.20000045001506805,-0.1074535921216011,0.2744819223880768
1773258220388258300,9.01625830078125,0.20995062589645386,-0.15642131865024567,0.21141590178012848
1773258220398270200,9.026270263671876,0.18049658834934235,-0.12145906686782837,0.1465572714805603
1773258220408282000,9.0362822265625,0.15047651529312134,-0.06435942649841309,0.08390499651432037
1773258220418294300,9.046294189453125,0.19504131376743317,-0.07393082231283188,0.018133705481886864
1773258220428306200,9.05630615234375,0.27412149310112,-0.08422686904668808,-0.0513838529586792
1773258220438318300,9.066318359375,0.32108214497566223,-0.09360461682081223,-0.10836771875619888
1773258220448330200,9.076330322265624,0.322506308555603,-0.12477726489305496,-0.14825205504894257
1773258220458342100,9.086342041015625,0.30005478858947754,-0.17599038779735565,-0.1754160225391388
1773258220468354300,9.096354248046875,0.2725267708301544,-0.2013530135154724,-0.17551608383655548
1773258220478366200,9.1063662109375,0.23803268373012543,-0.19210945069789886,-0.17061586678028107
1773258220488379100,9.116379150390625,0.204027459025383,-0.14762146770954132,-0.1583501398563385
1773258220498391000,9.12639111328125,0.16847744584083557,-0.07799100130796432,-0.15148663520812988
1773258220508403000,9.13640283203125,0.11804957687854767,-0.006437826901674271,-0.16680459678173065
1773258220518415000,9.1464150390625,0.06018387898802757,0.031016604974865913,-0.19028913974761963
1773258220528427000,9.156427001953125,0.00569659098982811,0.03912850469350815,-0.20412473380565643
1773258220538439200,9.166439208984375,-0.04034999758005142,0.02578873373568058,-0.20876315236091614
1773258220548451000,9.176451171875,-0.07416035234928131,0.00929797813296318,-0.19297344982624054
1773258220558463000,9.186462890625,-0.0935409739613533,-0.005617055110633373,-0.15985384583473206
1773258220568475100,9.19647509765625,-0.09788499772548676,-0.01626984216272831,-0.10570130497217178
1773258220578487000,9.206487060546875,-0.10017238557338715,-0.03556684032082558,-0.0503951795399189
1773258220588499000,9.2164990234375,-0.10279331356287003,-0.04737914353609085,0.000969411339610815
1773258220598511000,9.226510986328124,-0.09644806385040283,-0.05818678438663483,0.05211355537176132
1773258220608523000,9.23652294921875,-0.09041447937488556,-0.07091009616851807,0.10284846276044846
1773258220618536200,9.2465361328125,-0.08800405263900757,-0.07460124045610428,0.15058349072933197
1773258220628548000,9.256548095703126,-0.09683166444301605,-0.07271789014339447,0.1919865608215332
1773258220638560000,9.26656005859375,-0.11178930848836899,-0.07005526125431061,0.20529623329639435
1773258220648572200,9.276572265625,-0.12469866871833801,-0.07765693962574005,0.20660701394081116
1773258220658584000,9.286583984375,-0.12713013589382172,-0.07229785621166229,0.1915827840566635
1773258220668596200,9.29659619140625,-0.12684984505176544,-0.06350236386060715,0.16041892766952515
1773258220678608100,9.306608154296875,-0.11837032437324524,-0.06652345508337021,0.11939133703708649
1773258220688620000,9.3166201171875,-0.10200545191764832,-0.08043419569730759,0.08471158146858215
1773258220698632200,9.326632080078125,-0.07700476795434952,-0.09197767078876495,0.06202517822384834
1773258220708644000,9.33664404296875,-0.03842476010322571,-0.09205903112888336,0.04321206361055374
1773258220718656000,9.346656005859375,-0.0000677815405651927,-0.07506699860095978,0.0312371626496315
1773258220728668200,9.356668212890625,0.0343412309885025,-0.054832931607961655,0.0240414347499609
1773258220738681000,9.36668115234375,0.05707583948969841,-0.05104006081819534,0.021050438284873962
1773258220748693200,9.376693359375,0.0760602355003357,-0.0660109594464302,0.022021325305104256
1773258220758705200,9.386705078125,0.10550867766141891,-0.08674686402082443,0.031464360654354095
1773258220768717000,9.396717041015625,0.13095644116401672,-0.09736894816160202,0.05180009454488754
1773258220778729200,9.406729248046876,0.1531035602092743,-0.0853373184800148,0.0816461443901062
1773258220788741000,9.4167412109375,0.1688590794801712,-0.05455198138952255,0.10479813814163208
1773258220798753300,9.426753173828125,0.17848001420497894,-0.02229337953031063,0.11595465242862701
1773258220808765200,9.43676513671875,0.1682060807943344,-0.01713295839726925,0.11295586079359055
1773258220818777000,9.446777099609376,0.1477908194065094,-0.03984333202242851,0.11821506917476654
1773258220828789200,9.456789306640625,0.11873181164264679,-0.05302031338214874,0.13804160058498383
1773258220838801200,9.46680126953125,0.08630729466676712,-0.049303870648145676,0.1650196760892868
1773258220848813800,9.476813720703126,0.05152061581611633,-0.04668058827519417,0.20003359019756317
1773258220858825700,9.48682568359375,0.01019607950001955,-0.04620122164487839,0.23714448511600494
1773258220868838700,9.496838623046875,-0.025485828518867493,-0.035073019564151764,0.2638017237186432
1773258220878850800,9.506850830078125,-0.05718889832496643,-0.012612983584403992,0.2789713740348816
1773258220888862700,9.51686279296875,-0.09228544682264328,0.005356611683964729,0.2771017849445343
1773258220898875000,9.526875,-0.13160116970539093,0.015010304749011993,0.26382914185523987
1773258220908886800,9.53688671875,-0.16459371149539948,0.01986873522400856,0.23825731873512268
1773258220918898700,9.546898681640625,-0.1830422282218933,0.020332124084234238,0.21574881672859192
1773258220928910800,9.556910888671876,-0.19942708313465118,0.019092664122581482,0.20488965511322021
1773258220938922800,9.5669228515625,-0.2094152718782425,0.008726841770112514,0.19883042573928833
1773258220948934700,9.5769345703125,-0.21372924745082855,0.009496049024164677,0.21224470436573029
1773258220958946800,9.58694677734375,-0.2020278424024582,0.02092021144926548,0.2340695858001709
1773258220968958700,9.596958740234374,-0.1963120698928833,0.038499847054481506,0.25457340478897095
1773258220978971000,9.606970947265625,-0.18149343132972717,0.05261886492371559,0.28016212582588196
1773258220988983600,9.616983642578125,-0.17636023461818695,0.07079064100980759,0.28641676902770996
1773258220998995500,9.626995361328126,-0.185322567820549,0.09719134867191315,0.26853975653648376
1773258221009007600,9.637007568359374,-0.19202859699726105,0.09988946467638016,0.241061270236969
1773258221019019500,9.64701953125,-0.18429851531982422,0.09455568343400955,0.2215901017189026
1773258221029031700,9.65703173828125,-0.14251288771629333,0.09727752953767776,0.23545977473258972
1773258221039043600,9.667043701171876,-0.07764121890068054,0.13266506791114807,0.2523500919342041
1773258221049055500,9.677055419921874,-0.010998248122632504,0.026103505864739418,0.2053651213645935
1773258221059067600,9.687067626953125,0.059773657470941544,-0.034035731106996536,0.16532449424266815
1773258221069079600,9.69707958984375,0.10424064844846725,0.07180725783109665,0.20557521283626556
1773258221079091500,9.707091552734376,0.12877634167671204,0.19363223016262054,0.29375702142715454
1773258221089103600,9.717103515625,0.13196636736392975,0.15295735001564026,0.3575603663921356
1773258221099115500,9.727115478515625,0.10695023089647293,0.2116270512342453,0.42284536361694336
1773258221109128700,9.737128662109376,0.040718574076890945,0.22629182040691376,0.4930804967880249
1773258221119140600,9.747140625,-0.0532369501888752,0.12227115035057068,0.4890870749950409
1773258221129152500,9.757152587890625,-0.1511513590812683,0.02412930503487587,0.4527471959590912
1773258221139164700,9.76716455078125,-0.2511320114135742,0.03912263363599777,0.4687328338623047
1773258221149176600,9.777176513671876,-0.34676679968833923,0.010812278836965561,0.46159598231315613
1773258221159188700,9.787188720703124,-0.47632959485054016,-0.17959414422512054,0.30210912227630615
1773258221169200600,9.79720068359375,-0.6092194318771362,-0.3239342272281647,0.17628416419029236
1773258221179212500,9.807212646484375,-0.6728761792182922,-0.22084912657737732,0.13068179786205292
1773258221189224700,9.817224609375,-0.6993622183799744,0.07698719203472137,0.1811537891626358
1773258221199236600,9.827236572265624,-0.6693883538246155,0.15924318134784698,0.22035233676433563
1773258221209248500,9.83724853515625,-0.5742434859275818,0.29742398858070374,0.2670750319957733
1773258221219260700,9.8472607421875,-0.4491303265094757,0.33185014128685,0.30913111567497253
1773258221229272600,9.8572724609375,-0.32439589500427246,0.22904565930366516,0.35174769163131714
1773258221239285800,9.86728564453125,-0.2340175211429596,0.12863916158676147,0.3855881989002228
1773258221249297700,9.877297607421875,-0.17690393328666687,0.030349314212799072,0.3943653106689453
1773258221259309800,9.887309814453126,-0.06464263796806335,0.09463348984718323,0.41250914335250854
1773258221269321700,9.89732177734375,0.008766796439886093,0.16310648620128632,0.38193410634994507
1773258221279333600,9.907333740234375,0.049703311175107956,0.13569217920303345,0.33106347918510437
1773258221289345800,9.917345703125,0.03328511491417885,0.09086524695158005,0.280892014503479
1773258221299357700,9.927357666015626,0.019547199830412865,0.11819647252559662,0.20864230394363403
1773258221309369600,9.93736962890625,0.039753079414367676,0.1793511062860489,0.13565900921821594
1773258221319381800,9.9473818359375,0.05060732364654541,0.23371927440166473,0.07385610044002533
1773258221329393700,9.9573935546875,0.07011209428310394,0.2130420058965683,0.013550201430916786
1773258221339405600,9.967405517578126,0.09074333310127258,0.16960397362709045,-0.01645243912935257
1773258221349417700,9.977417724609374,0.12279284000396729,0.13981647789478302,-0.03311775624752045
1773258221359430700,9.9874306640625,0.13049443066120148,0.16218943893909454,-0.031715068966150284
1773258221369442800,9.99744287109375,0.10816559195518494,0.17993079125881195,-0.04461004585027695
1773258221379454700,10.007454833984376,0.06849141418933868,0.1867772489786148,-0.06953643262386322
1773258221389467000,10.017466796875,0.027096590027213097,0.18417508900165558,-0.08658313751220703
1773258221399478800,10.027478759765625,-0.0036682470235973597,0.16016481816768646,-0.07716992497444153
1773258221409490700,10.03749072265625,-0.014144199900329113,0.13449633121490479,-0.043780554085969925
1773258221419502800,10.0475029296875,-0.012124192900955677,0.14519718289375305,0.021168619394302368
1773258221429514800,10.0575146484375,-0.019384851679205894,0.21790698170661926,0.13362163305282593
1773258221439526700,10.067526611328125,-0.010234763845801353,0.17362473905086517,0.20138870179653168
1773258221449538800,10.077538818359375,-0.02523503266274929,0.21689629554748535,0.2664322257041931
1773258221459550700,10.08755078125,-0.07144513726234436,0.14086997509002686,0.2414938509464264
1773258221469563000,10.09756298828125,-0.12951116263866425,0.07758653908967972,0.20472969114780426
1773258221479575600,10.107575439453125,-0.18460237979888916,0.021961893886327744,0.16901271045207977
1773258221489587500,10.11758740234375,-0.24190957844257355,-0.004520267713814974,0.13969500362873077
1773258221499599600,10.127599609375,-0.28337714076042175,-0.002953796647489071,0.11392119526863098
1773258221509611500,10.137611572265625,-0.29362139105796814,0.03719346970319748,0.10497579723596573
1773258221519623700,10.147623779296875,-0.28796055912971497,0.08579935133457184,0.10108251869678497
1773258221529635600,10.157635498046876,-0.2806086838245392,0.05738873779773712,0.11228091269731522
1773258221539647500,10.1676474609375,-0.26674798130989075,0.031055135652422905,0.15118703246116638
1773258221549659600,10.17765966796875,-0.239420548081398,0.047881465405225754,0.18199476599693298
1773258221559671600,10.187671630859375,-0.21673227846622467,0.1360323578119278,0.24005673825740814
1773258221569683500,10.197683349609376,-0.2021312415599823,0.13672558963298798,0.22533166408538818
1773258221579695600,10.207695556640624,-0.2388160079717636,0.1457020342350006,0.21964235603809357
1773258221589707500,10.21770751953125,-0.2649462819099426,0.1510295271873474,0.2136407196521759
1773258221599720700,10.227720703125,-0.2817114293575287,0.12393693625926971,0.18377657234668732
1773258221609732600,10.237732666015624,-0.31784865260124207,0.1342819780111313,0.17359717190265656
1773258221619744500,10.24774462890625,-0.32318028807640076,0.10904932767152786,0.19997496902942657
1773258221629756700,10.257756591796875,-0.6588221192359924,-1.4162603616714478,-0.4415571987628937
1773258221639768600,10.2677685546875,-1.1874330043792725,-5.5792083740234375,-1.7521668672561646
1773258221649780700,10.27778076171875,-1.0515539646148682,-6.799746990203857,-1.9641577005386353
1773258221659792600,10.287792724609375,-0.6761025190353394,-5.869807720184326,-1.7936402559280396
1773258221669804500,10.297804443359375,-0.5649240612983704,-3.9228222370147705,-1.3116726875305176
1773258221679816700,10.307816650390626,-0.6266446709632874,-2.784876585006714,-0.9876741170883179
1773258221689828600,10.31782861328125,-0.7069315314292908,-2.3863229751586914,-0.7111619114875793
1773258221699840500,10.327840576171875,-0.5934300422668457,-2.000532627105713,-0.4426284432411194
1773258221709852700,10.337852783203125,-0.4794289171695709,-1.2929208278656006,-0.18830516934394836
1773258221719865600,10.347865478515626,-0.40196025371551514,-0.4921746253967285,0.13325609266757965
1773258221729877800,10.357877685546875,-0.276165246963501,0.06788124144077301,0.3838388919830322
1773258221739889700,10.3678896484375,-0.09456431865692139,0.24491220712661743,0.640512228012085
1773258221749901800,10.37790185546875,0.12146095186471939,0.16077765822410583,0.877875566482544
1773258221759913700,10.387913818359374,0.32123425602912903,0.34168779850006104,1.1172114610671997
1773258221769925600,10.397925537109375,0.6158506274223328,0.8261129260063171,1.3675298690795898
1773258221779937800,10.407937744140625,0.9279730916023254,0.6512079238891602,1.3820233345031738
1773258221789949700,10.41794970703125,1.0749930143356323,0.2213701605796814,1.3305326700210571
1773258221799961600,10.427961669921874,1.1146578788757324,-0.042081985622644424,1.2761693000793457
1773258221809973800,10.437973876953125,1.1288723945617676,-0.04561644420027733,1.1959071159362793
1773258221819985700,10.447985595703125,1.158900499343872,0.022342629730701447,1.100216269493103
1773258221829997600,10.45799755859375,1.1526930332183838,0.0374913215637207,1.0107827186584473
1773258221840010800,10.4680107421875,1.1027132272720337,0.005962159484624863,0.9165688753128052
1773258221850022700,10.478022705078125,1.0077944993972778,-0.07494968175888062,0.8096796274185181
1773258221860034800,10.488034912109375,0.8874372243881226,-0.1696905642747879,0.7055628299713135
1773258221870046700,10.498046630859376,0.7533301711082458,-0.22240979969501495,0.6075103878974915
1773258221880059000,10.508058837890625,0.5781540870666504,-0.2559991776943207,0.4778149724006653
1773258221890070800,10.51807080078125,0.427338570356369,-0.2143288552761078,0.3718584179878235
1773258221900082700,10.528082763671875,0.3008008897304535,-0.17319552600383759,0.3085803985595703
1773258221910094800,10.5380947265625,0.1578742265701294,-0.37313777208328247,0.22934205830097198
1773258221920106800,10.548106689453125,0.056906864047050476,-0.5122701525688171,0.22976230084896088
1773258221930118700,10.55811865234375,0.09070701152086258,-0.2780226171016693,0.4430602490901947
1773258221940130800,10.568130859375,0.06843313574790955,-0.024791155010461807,0.5731327533721924
1773258221950142700,10.578142822265624,0.019937168806791306,0.017043307423591614,0.6802783012390137
1773258221960155600,10.58815576171875,0.03169023245573044,-0.1291802078485489,0.7986822128295898
1773258221970167600,10.59816748046875,0.04486922547221184,-0.08216230571269989,0.9393047094345093
1773258221980179500,10.608179443359376,0.19574102759361267,0.5507224798202515,1.0040013790130615
1773258221990191600,10.618191650390624,0.27615588903427124,0.824234664440155,1.2185975313186646
1773258222000203500,10.62820361328125,0.22584664821624756,-0.5225182175636292,1.0382996797561646
1773258222010215700,10.638215576171875,0.23867948353290558,-0.39697185158729553,0.7079554200172424
1773258222020227600,10.6482275390625,0.17279021441936493,0.30789366364479065,0.5684108734130859
1773258222030239500,10.658239501953124,-0.05421021208167076,1.049424409866333,0.5537161231040955
1773258222040251600,10.668251708984375,-0.15635254979133606,0.7244998812675476,0.3980037569999695
1773258222050263600,10.678263671875,-0.21562089025974274,0.28497233986854553,-0.15265868604183197
1773258222060275500,10.688275390625,-0.403501033782959,0.7500066161155701,-0.33168622851371765
1773258222070288600,10.69828857421875,-0.5145407915115356,2.117736577987671,-0.36973121762275696
1773258222080300500,10.708300537109375,-0.5688149929046631,3.529653787612915,-0.2502612769603729
1773258222090312700,10.718312744140626,-0.6187055706977844,4.624797344207764,-0.19963565468788147
1773258222100324600,10.72832470703125,-0.7224274277687073,5.767730236053467,-0.5197985172271729
1773258222110336500,10.73833642578125,-0.6779216527938843,6.203097820281982,-0.9972171783447266
1773258222120348700,10.7483486328125,-0.5704101324081421,6.231211185455322,-1.7565046548843384
1773258222130360600,10.758360595703126,-0.39754945039749146,5.704591274261475,-2.4795563220977783
1773258222140372700,10.768372802734374,-0.3615967929363251,4.71469259262085,-2.9741101264953613
1773258222150384600,10.778384521484375,-0.49827075004577637,3.3720366954803467,-3.087444305419922
1773258222160396500,10.788396484375,-0.7124989032745361,2.5521278381347656,-2.950313091278076
1773258222170408700,10.79840869140625,-0.8878117203712463,1.994282603263855,-2.4167277812957764
1773258222180420600,10.808420654296874,-0.9115695357322693,1.1947942972183228,-1.647970199584961
1773258222190432500,10.8184326171875,-0.7592703700065613,0.03185373172163963,-0.8687558174133301
1773258222200445700,10.82844580078125,-0.5433050990104675,-1.3224718570709229,-0.1289384812116623
1773258222210457600,10.83845751953125,-0.31356069445610046,-2.5085082054138184,0.5532587170600891
1773258222220469800,10.8484697265625,-0.10537208616733551,-3.363311767578125,1.1357378959655762
1773258222230481700,10.858481689453125,0.06384740024805069,-3.9390625953674316,1.6426337957382202
1773258222240493600,10.86849365234375,0.16748271882534027,-4.336540699005127,2.0969161987304688
1773258222250505700,10.878505615234374,0.18018589913845062,-4.599883556365967,2.4835002422332764
1773258222260517600,10.888517578125,0.11230111867189407,-4.671592712402344,2.7905023097991943
1773258222270529800,10.89852978515625,-0.08610478788614273,-4.626558780670166,2.937602996826172
1773258222280541700,10.908541748046876,-0.44207143783569336,-4.442099571228027,2.9437344074249268
1773258222290553600,10.9185537109375,-0.7805612683296204,-4.129034519195557,2.795708417892456
1773258222300565800,10.928565673828125,-1.0027533769607544,-3.601834774017334,2.5837347507476807
1773258222310578700,10.93857861328125,-1.1534883975982666,-2.9474856853485107,2.2862727642059326
1773258222320590800,10.9485908203125,-1.2435295581817627,-2.1053569316864014,1.922014832496643
1773258222330602800,10.958602783203125,-1.3329393863677979,-1.182549238204956,1.5052424669265747
1773258222340614700,10.96861474609375,-1.4238083362579346,-0.34108299016952515,0.964988648891449
1773258222350626800,10.978626708984375,-1.548876404762268,0.3222743272781372,0.34254008531570435
1773258222360638700,10.988638671875,-1.5794646739959717,0.7237698435783386,-0.33309879899024963
1773258222370651000,10.99865087890625,-1.5401172637939453,1.0355833768844604,-0.9590627551078796
1773258222380662800,11.008662841796875,-1.4208569526672363,1.4598894119262695,-1.4898278713226318
1773258222390674700,11.0186748046875,-1.3359386920928955,1.9070662260055542,-1.9530096054077148
1773258222400686800,11.028686767578124,-1.3092223405838013,2.4356303215026855,-2.3001511096954346
1773258222410698800,11.03869873046875,-1.3698128461837769,2.7910454273223877,-2.4860286712646484
1773258222420711700,11.048711669921875,-1.4572676420211792,2.9806370735168457,-2.5295841693878174
1773258222430723600,11.0587236328125,-1.5605872869491577,3.1602859497070312,-2.3229334354400635
1773258222440735500,11.068735595703124,-1.619456171989441,3.2958478927612305,-1.8986108303070068
1773258222450747600,11.07874755859375,-1.545299768447876,3.0631191730499268,-1.4510369300842285
1773258222460759600,11.088759521484375,-1.415448546409607,2.4453604221343994,-1.0401673316955566
1773258222470771500,11.098771484375,-1.1746410131454468,1.909196376800537,-0.6010793447494507
1773258222480783600,11.10878369140625,-0.9523134827613831,1.2447797060012817,-0.17813794314861298
1773258222490795500,11.11879541015625,-0.7446432709693909,0.43971872329711914,0.3425612151622772
1773258222500807700,11.1288076171875,-0.42145001888275146,-0.3585353195667267,0.8533376455307007
1773258222510819600,11.138819580078126,-0.10416323691606522,-0.9926319122314453,1.1992076635360718
1773258222520831500,11.14883154296875,0.12039743363857269,-1.7276498079299927,1.3736673593521118
1773258222530843600,11.15884375,0.31959113478660583,-2.2228174209594727,1.5101286172866821
1773258222540856600,11.168856689453126,0.4205153286457062,-2.418828248977661,1.5346007347106934
1773258222550868700,11.17886865234375,0.4158526659011841,-2.633223295211792,1.4255187511444092
1773258222560880600,11.188880615234375,0.35234639048576355,-2.7348687648773193,1.2383261919021606
1773258222570892500,11.198892578125,0.2317102998495102,-2.6343953609466553,1.0355435609817505
1773258222580904700,11.20890478515625,0.042096685618162155,-2.400160074234009,0.8229697942733765
1773258222590916600,11.21891650390625,-0.19794392585754395,-1.9089634418487549,0.6188547611236572
1773258222600928500,11.228928466796875,-0.45783352851867676,-0.8304455876350403,0.4428853392601013
1773258222610940700,11.238940673828125,-0.7673864364624023,0.3980862498283386,0.31739529967308044
1773258222620952600,11.24895263671875,-1.1304129362106323,1.6984270811080933,0.2566787004470825
1773258222630964700,11.25896484375,-1.6693999767303467,2.5363221168518066,0.13553452491760254
1773258222640976600,11.2689765625,-1.950743556022644,2.2446274757385254,-0.2326379120349884
1773258222650989800,11.27898974609375,-2.009031295776367,0.9048054814338684,-0.6855246424674988
1773258222661001700,11.289001708984374,-2.0924272537231445,-0.4470915198326111,-0.8254923820495605
1773258222671013600,11.299013671875,-2.2329535484313965,-0.39764437079429626,-0.8204590678215027
1773258222681025800,11.30902587890625,-2.1230642795562744,0.22311770915985107,-0.428546667098999
1773258222691037700,11.31903759765625,-1.79628324508667,-0.07410049438476562,-0.33415326476097107
1773258222701049600,11.329049560546874,-1.4182488918304443,-0.7803135514259338,-0.3805322051048279
1773258222711061800,11.339061767578125,-1.198035717010498,-1.4577776193618774,-0.3136073052883148
1773258222721073700,11.34907373046875,-1.179079294204712,-1.549662470817566,-0.2586601674556732
1773258222731085600,11.35908544921875,-1.1329759359359741,-1.2153300046920776,-0.2103729546070099
1773258222741097700,11.36909765625,-0.9811763167381287,-0.9416061639785767,-0.18460075557231903
1773258222751109600,11.379109619140625,-0.8706899285316467,-0.858847439289093,-0.28492623567581177
1773258222761122800,11.389122802734375,-0.9091044068336487,-1.0023702383041382,-0.36819398403167725
1773258222771134700,11.399134765625,-1.0109819173812866,-1.0485844612121582,-0.45128828287124634
1773258222781147000,11.40914697265625,-1.139228105545044,-1.2002203464508057,-0.5566381812095642
1773258222791158800,11.41915869140625,-1.2858027219772339,-1.4499154090881348,-0.6826722621917725
1773258222801170700,11.429170654296875,-1.300283670425415,-1.508764386177063,-0.8708845376968384
1773258222811182800,11.439182861328124,-1.247429370880127,-1.3081884384155273,-0.9501810073852539
1773258222821194800,11.44919482421875,-1.2193399667739868,-1.320755124092102,-0.9404500722885132
1773258222831206700,11.45920654296875,-1.2523454427719116,-1.4152004718780518,-0.9008427262306213
1773258222841218800,11.46921875,-1.2019360065460205,-0.8236578106880188,-0.7926744222640991
1773258222851230200,11.479230224609376,-1.1320948600769043,-0.31854158639907837,-0.7535022497177124
1773258222861242000,11.4892421875,-1.063689112663269,-0.07644693553447723,-0.743962824344635
1773258222871255000,11.499255126953125,-0.9757972955703735,0.22842498123645782,-0.7227306962013245
1773258222881267000,11.509266845703126,-0.8877156376838684,0.34037894010543823,-0.6922220587730408
1773258222891279000,11.519279052734374,-0.8725799918174744,0.29498863220214844,-0.5958377122879028
1773258222901291000,11.529291015625,-0.9271875619888306,0.1302790343761444,-0.44474250078201294
1773258222911303200,11.53930322265625,-0.9710792303085327,-0.10135026276111603,-0.25183236598968506
1773258222921315000,11.549315185546876,-0.956577479839325,-0.3937073051929474,-0.03134126588702202
1773258222931327200,11.5593271484375,-0.8586519360542297,-0.6696248650550842,0.1736457645893097
1773258222941339100,11.569339111328125,-0.7179794907569885,-0.8749420642852783,0.34420153498649597
1773258222951351000,11.57935107421875,-0.6167659163475037,-0.9606490135192871,0.4298268258571625
1773258222961363200,11.58936328125,-0.5572439432144165,-0.9451102614402771,0.4199683368206024
1773258222971375000,11.599375,-0.5655504465103149,-0.8054057955741882,0.3657991588115692
1773258222981387300,11.60938720703125,-0.5866288542747498,-0.567895770072937,0.2914285361766815
1773258222991400200,11.619400146484375,-0.6495638489723206,-0.1986284703016281,0.07034968584775925
1773258223001412000,11.629412109375,-0.5439674854278564,0.21693888306617737,-0.4039570391178131
1773258223011424000,11.639424072265625,-0.010667060501873493,0.5935287475585938,-1.0700230598449707
1773258223021436200,11.649436279296875,0.30870214104652405,0.8131390810012817,-1.461437702178955
1773258223031448000,11.659447998046875,0.3350856900215149,0.9235286116600037,-1.3602638244628906
1773258223041460000,11.6694599609375,0.27384525537490845,1.0115821361541748,-1.0059832334518433
1773258223051472100,11.67947216796875,0.08849445730447769,1.0097206830978394,-0.6522465348243713
1773258223061484000,11.689484130859375,-0.057576730847358704,0.9300104379653931,-0.35142725706100464
1773258223071496200,11.69949609375,-0.17829078435897827,0.5775286555290222,-0.12937621772289276
1773258223081508000,11.709508056640624,-0.31843724846839905,0.09196113795042038,0.09879090636968613
1773258223091521300,11.719521240234375,-0.396048903465271,-0.48051804304122925,0.29359206557273865
1773258223101533200,11.729533203125,-0.4412640333175659,-1.1203935146331787,0.8367197513580322
1773258223111545000,11.739545166015626,-0.36070555448532104,-1.6836130619049072,1.7968590259552002
1773258223121557200,11.74955712890625,-0.13458001613616943,-1.7761847972869873,2.4063913822174072
1773258223131569200,11.759569091796875,0.15406858921051025,-1.923832893371582,2.5770139694213867
1773258223141581000,11.7695810546875,0.3202626407146454,-1.9826284646987915,2.6380717754364014
1773258223151593200,11.77959326171875,0.3548795282840729,-1.7856963872909546,2.6842217445373535
1773258223161605000,11.789605224609375,0.2352372705936432,-1.4137018918991089,2.6049394607543945
1773258223171617300,11.7996171875,-0.06807848066091537,-1.00833261013031,2.231787919998169
1773258223181629200,11.809629150390625,-0.4797208905220032,-0.7435150742530823,1.6333950757980347
1773258223191641000,11.81964111328125,-0.8493770956993103,-0.45846027135849,1.0673648118972778
1773258223201654300,11.829654296875,-1.1723730564117432,-0.3381645083427429,0.85307776927948
1773258223211666200,11.839666259765625,-1.276421308517456,-0.1515073925256729,0.9289076924324036
1773258223221678300,11.84967822265625,-1.2617826461791992,0.09090631455183029,1.014491081237793
1773258223231690200,11.859690185546874,-1.1729923486709595,-0.046129412949085236,1.1402240991592407
1773258223241702100,11.8697021484375,-1.1242117881774902,-0.31460535526275635,1.2689722776412964
1773258223251714300,11.87971435546875,-1.078999400138855,-0.5427799820899963,1.37040114402771
1773258223261726200,11.889726318359376,-1.0386760234832764,-0.7954742908477783,1.486182689666748
1773258223271738000,11.899738037109374,-1.0188089609146118,-0.9572034478187561,1.6874823570251465
1773258223281750300,11.909750244140625,-1.015353798866272,-1.0883183479309082,1.9623197317123413
1773258223291762200,11.91976220703125,-0.9948111772537231,-1.193670392036438,2.2881393432617188
1773258223301774300,11.9297744140625,-0.9420475959777832,-1.3952516317367554,2.5821826457977295
1773258223311786200,11.9397861328125,-0.9195563793182373,-1.6269659996032715,2.689666748046875
1773258223321799000,11.949798828125,-0.8506212830543518,-1.763357400894165,2.626901149749756
1773258223331811000,11.95981103515625,-0.7551224231719971,-1.6898763179779053,2.570180654525757
1773258223341823000,11.969822998046874,-0.7038994431495667,-1.5896384716033936,2.4761335849761963
1773258223351835100,11.979835205078125,-0.7576394081115723,-1.3213074207305908,2.2684061527252197
1773258223361847000,11.989846923828125,-0.8962246775627136,-0.4231552183628082,2.067295789718628
1773258223371859200,11.999859130859376,-0.9974339604377747,0.6504243016242981,2.0300521850585938
1773258223381871000,12.00987109375,-1.150197982788086,1.3024522066116333,2.019897222518921
1773258223391883000,12.019883056640625,-1.2554454803466797,1.6868457794189453,2.088968276977539
1773258223401895200,12.029895263671875,-1.3231464624404907,2.1299660205841064,2.305098295211792
1773258223411907000,12.039906982421876,-1.2816061973571777,2.6857247352600098,2.8250181674957275
1773258223421920000,12.049919921875,-1.1746478080749512,3.4208526611328125,3.53509783744812
1773258223431932200,12.05993212890625,-1.0065795183181763,4.107709884643555,4.282541751861572
1773258223441944000,12.069944091796875,-0.8017229437828064,4.326815128326416,4.8872904777526855
1773258223451956200,12.079956298828124,-0.6582729816436768,4.011788368225098,5.223187446594238
1773258223461968100,12.089968017578125,-0.5360357761383057,3.4467742443084717,5.35696268081665
1773258223471980000,12.09997998046875,-0.409426212310791,2.952014207839966,5.435006141662598
1773258223481992200,12.1099921875,-0.3456248641014099,2.7817113399505615,5.573658466339111
1773258223492004000,12.120004150390624,-0.41463449597358704,2.6092753410339355,5.711460113525391
1773258223502016000,12.13001611328125,-0.43474268913269043,2.5761635303497314,5.872310161590576
1773258223512028200,12.140028076171875,-0.4269919991493225,2.6772472858428955,5.975427150726318
1773258223522040000,12.1500400390625,-0.42493870854377747,2.8096907138824463,6.061541557312012
1773258223532052000,12.160052001953124,-0.456698477268219,2.901960849761963,6.210937976837158
1773258223542065200,12.170065185546875,-0.46625709533691406,2.982473850250244,6.3212456703186035
1773258223552077000,12.1800771484375,-0.37239524722099304,3.0227553844451904,6.352352142333984
1773258223562089200,12.190089111328126,-0.2510107457637787,2.9583325386047363,6.2442474365234375
1773258223572101000,12.20010107421875,-0.2034132182598114,2.790295362472534,6.0476975440979
1773258223582113300,12.21011328125,-0.2879563271999359,2.4653635025024414,5.873217582702637
1773258223592125200,12.220125244140625,-0.4552062749862671,2.0261237621307373,5.670124053955078
1773258223602137000,12.23013720703125,-0.6233547925949097,1.6643508672714233,5.346148490905762
1773258223612149200,12.240149169921875,-0.8063037395477295,1.421073317527771,4.849781513214111
1773258223622161200,12.2501611328125,-1.0294818878173828,1.2680771350860596,4.302786350250244
1773258223632173000,12.260173095703125,-1.2732939720153809,1.1023801565170288,3.7849695682525635
1773258223642185200,12.270185302734374,-1.4564129114151,0.9128352403640747,3.3613407611846924
1773258223652198100,12.2801982421875,-1.5956610441207886,0.7400546669960022,3.0278818607330322
1773258223662210300,12.290210205078125,-1.676779866218567,0.6590215563774109,2.736924409866333
1773258223672222200,12.30022216796875,-1.7259478569030762,0.6392528414726257,2.49497389793396
1773258223682234000,12.310234130859374,-1.7514444589614868,0.6611841917037964,2.2705800533294678
1773258223692246300,12.320246337890625,-1.743578553199768,0.6836052536964417,2.05543851852417
1773258223702258200,12.330258056640625,-1.717052698135376,0.702776312828064,1.8792904615402222
1773258223712270300,12.340270263671876,-1.6761428117752075,0.7447086572647095,1.7047172784805298
1773258223722282200,12.3502822265625,-1.614841103553772,0.7464322447776794,1.5388520956039429
1773258223732294100,12.360294189453125,-1.5137933492660522,0.708084762096405,1.347949743270874
1773258223742306300,12.370306396484375,-1.402339220046997,0.6492925882339478,1.0988004207611084
1773258223752319000,12.380319091796874,-1.3299612998962402,0.6295156478881836,0.8773281574249268
1773258223762331100,12.3903310546875,-1.353529930114746,0.6669613122940063,0.685808539390564
1773258223772343000,12.400343017578125,-1.3905409574508667,0.8401570320129395,0.5616894364356995
1773258223782355000,12.41035498046875,-1.4388421773910522,1.109517216682434,0.45720720291137695
1773258223792367000,12.4203671875,-1.4555071592330933,1.3464950323104858,0.366005003452301
1773258223802379000,12.43037890625,-1.421317458152771,1.4803580045700073,0.2748197019100189
1773258223812391200,12.44039111328125,-1.3585180044174194,1.3731600046157837,0.13453897833824158
1773258223822403000,12.450403076171876,-1.2947791814804077,1.025508999824524,-0.016674241051077843
