time,seconds_elapsed,z,y,x
1774473186474110000,0.06410986328125,-1.01617431640625,-0.3246002197265625,0.210113525390625
1774473186484137700,0.0741376953125,-1.0068359375,-0.333709716796875,0.201385498046875
1774473186494166000,0.084166015625,-0.9867095947265625,-0.3336944580078125,0.1954345703125
1774473186504193800,0.09419384765625,-0.9649505615234375,-0.3273162841796875,0.1910400390625
1774473186514221600,0.1042216796875,-0.951080322265625,-0.320343017578125,0.1808319091796875
1774473186524249900,0.114249755859375,-0.928619384765625,-0.3178253173828125,0.16973876953125
1774473186534277600,0.124277587890625,-0.9040069580078125,-0.31329345703125,0.1567840576171875
1774473186544306000,0.134305908203125,-0.8984832763671875,-0.3048858642578125,0.1514892578125
1774473186554333700,0.144333740234375,-0.9139556884765625,-0.2992706298828125,0.1534881591796875
1774473186564361700,0.15436181640625,-0.9364471435546875,-0.294830322265625,0.1566314697265625
1774473186574389800,0.1643896484375,-0.9780731201171875,-0.2864990234375,0.16571044921875
1774473186584417800,0.174417724609375,-1.0153961181640625,-0.2706298828125,0.171173095703125
1774473186594445800,0.18444580078125,-1.01202392578125,-0.2518310546875,0.161376953125
1774473186604475000,0.194474853515625,-0.9864654541015625,-0.2406005859375,0.15045166015625
1774473186614502700,0.204502685546875,-0.9591064453125,-0.2405548095703125,0.1407623291015625
1774473186624530700,0.21453076171875,-0.9457244873046875,-0.2434234619140625,0.1204681396484375
1774473186634558700,0.224558837890625,-0.9370574951171875,-0.2423095703125,0.1036834716796875
1774473186644586800,0.234586669921875,-0.93194580078125,-0.227783203125,0.0972442626953125
1774473186654614800,0.24461474609375,-0.9420928955078125,-0.2085418701171875,0.098297119140625
1774473186664642800,0.254642822265625,-0.9515380859375,-0.2003631591796875,0.095428466796875
1774473186674670600,0.264670654296875,-0.9410858154296875,-0.19183349609375,0.0850677490234375
1774473186684699000,0.274698974609375,-0.93505859375,-0.195892333984375,0.076141357421875
1774473186694726700,0.2847265625,-0.94317626953125,-0.19097900390625,0.076568603515625
1774473186704755000,0.2947548828125,-0.949249267578125,-0.18878173828125,0.0736541748046875
1774473186714782700,0.30478271484375,-0.98248291015625,-0.1946868896484375,0.0830230712890625
1774473186724810800,0.314810791015625,-1.0170440673828125,-0.1865692138671875,0.100433349609375
1774473186734838800,0.3248388671875,-1.0291900634765625,-0.1820068359375,0.1027069091796875
1774473186744866800,0.33486669921875,-1.0263214111328125,-0.189727783203125,0.0994110107421875
1774473186754895600,0.3448955078125,-1.0131683349609375,-0.2022705078125,0.0879058837890625
1774473186764924000,0.354923828125,-0.9903717041015625,-0.2211456298828125,0.0721282958984375
1774473186774951700,0.36495166015625,-0.96685791015625,-0.2419281005859375,0.0497283935546875
1774473186784979700,0.374979736328125,-0.94500732421875,-0.2452392578125,0.0337677001953125
1774473186795007700,0.3850078125,-0.9326629638671875,-0.248046875,0.0241851806640625
1774473186805035800,0.395035888671875,-0.938446044921875,-0.2592620849609375,0.020477294921875
1774473186815063800,0.405063720703125,-0.9475860595703125,-0.2626800537109375,0.0219268798828125
1774473186825091800,0.415091796875,-0.949798583984375,-0.261810302734375,0.0281982421875
1774473186835119600,0.42511962890625,-0.946044921875,-0.251739501953125,0.0320892333984375
1774473186845148000,0.43514794921875,-0.9297027587890625,-0.2450714111328125,0.0253448486328125
1774473186855175700,0.44517578125,-0.9185638427734375,-0.251129150390625,0.0125579833984375
1774473186865204000,0.455203857421875,-0.9227752685546875,-0.2656402587890625,-0.0033416748046875
1774473186875231700,0.465231689453125,-0.931427001953125,-0.27410888671875,-0.005828857421875
1774473186885259800,0.475259765625,-0.9437713623046875,-0.2765655517578125,-0.003631591796875
1774473186895287800,0.485287841796875,-0.9588470458984375,-0.2848358154296875,-0.00726318359375
1774473186905315800,0.49531591796875,-0.9673309326171875,-0.28619384765625,-0.0021514892578125
1774473186915344600,0.5053447265625,-0.9720916748046875,-0.28619384765625,0.00140380859375
1774473186925373000,0.515373046875,-0.976165771484375,-0.2790679931640625,0.0038299560546875
1774473186935400700,0.525400634765625,-0.972625732421875,-0.2575836181640625,0.01312255859375
1774473186945428700,0.5354287109375,-0.96722412109375,-0.237060546875,0.026947021484375
1774473186955456800,0.545456787109375,-0.9699249267578125,-0.22210693359375,0.032257080078125
1774473186965484800,0.55548486328125,-0.96966552734375,-0.209320068359375,0.0314178466796875
1774473186975512800,0.565512939453125,-0.9670867919921875,-0.198455810546875,0.032501220703125
1774473186985540900,0.575540771484375,-0.9953765869140625,-0.2292938232421875,0.0448150634765625
1774473186995568600,0.585568603515625,-1.0180511474609375,-0.248809814453125,0.0520782470703125
1774473187005597000,0.595596923828125,-0.996429443359375,-0.2191162109375,0.044219970703125
1774473187015624700,0.605624755859375,-0.94915771484375,-0.1954803466796875,0.0256500244140625
1774473187025653000,0.615653076171875,-0.90496826171875,-0.1888580322265625,0.00518798828125
1774473187035680800,0.6256806640625,-0.8751983642578125,-0.2125396728515625,-0.021240234375
1774473187045708800,0.635708740234375,-0.879852294921875,-0.2233123779296875,-0.0384063720703125
1774473187055736800,0.64573681640625,-0.897186279296875,-0.2087249755859375,-0.04473876953125
1774473187065764900,0.655764892578125,-0.9361724853515625,-0.1748504638671875,-0.03314208984375
1774473187075793700,0.665793701171875,-0.9961395263671875,-0.1403045654296875,-0.0161590576171875
1774473187085822000,0.675822021484375,-1.0608673095703125,-0.119049072265625,0.0012969970703125
1774473187095849700,0.685849609375,-1.1156463623046875,-0.1115264892578125,0.0116424560546875
1774473187105877800,0.695877685546875,-1.1191253662109375,-0.1158447265625,0.0076751708984375
1774473187115905800,0.70590576171875,-1.090362548828125,-0.1242828369140625,-0.0114593505859375
1774473187125933800,0.715933837890625,-1.033203125,-0.1082916259765625,-0.03619384765625
1774473187135961900,0.7259619140625,-1.0040740966796875,-0.1281585693359375,-0.05291748046875
1774473187145990000,0.735989990234375,-0.9962005615234375,-0.2072296142578125,-0.06390380859375
1774473187156017700,0.746017578125,-0.9878387451171875,-0.2832794189453125,-0.06634521484375
1774473187166046000,0.7560458984375,-0.9598388671875,-0.303070068359375,-0.0618896484375
1774473187176073700,0.76607373046875,-0.9175872802734375,-0.2819366455078125,-0.06103515625
1774473187186101800,0.776101806640625,-0.8850555419921875,-0.2573089599609375,-0.0584259033203125
1774473187196129800,0.7861298828125,-0.898773193359375,-0.236175537109375,-0.04290771484375
1774473187206157600,0.796157470703125,-0.9388580322265625,-0.191925048828125,-0.0272979736328125
1774473187216185900,0.806185791015625,-0.957305908203125,-0.1493988037109375,-0.0256805419921875
1774473187226213600,0.816213623046875,-0.933807373046875,-0.1412200927734375,-0.04644775390625
1774473187236242700,0.82624267578125,-0.954559326171875,-0.1331939697265625,-0.050933837890625
1774473187246271000,0.83627099609375,-0.9973907470703125,-0.109954833984375,-0.0406646728515625
1774473187256298800,0.846298828125,-1.0305938720703125,-0.0814666748046875,-0.0335540771484375
1774473187266326800,0.856326904296875,-1.0277099609375,-0.0743255615234375,-0.0452423095703125
1774473187276354800,0.866354736328125,-1.018798828125,-0.0779876708984375,-0.0638275146484375
1774473187286382600,0.876382568359375,-1.001495361328125,-0.0872802734375,-0.075347900390625
1774473187296411000,0.886410888671875,-0.990264892578125,-0.118743896484375,-0.09246826171875
1774473187306438700,0.896438720703125,-1.0096435546875,-0.1646270751953125,-0.101593017578125
1774473187316466700,0.906466796875,-1.0386199951171875,-0.1995086669921875,-0.0825958251953125
1774473187326494700,0.91649462890625,-1.06988525390625,-0.208221435546875,-0.0543060302734375
1774473187336522800,0.926522705078125,-1.0267181396484375,-0.198577880859375,-0.052032470703125
1774473187346551000,0.936551025390625,-0.9586181640625,-0.20306396484375,-0.0678558349609375
1774473187356579000,0.9465791015625,-0.9101104736328125,-0.2239532470703125,-0.0717010498046875
1774473187366606800,0.95660693359375,-0.8663177490234375,-0.26190185546875,-0.0743560791015625
1774473187376635100,0.96663525390625,-0.81689453125,-0.2650604248046875,-0.0664825439453125
1774473187386663000,0.976662841796875,-0.77703857421875,-0.22589111328125,-0.0485687255859375
1774473187396692000,0.98669189453125,-0.7626190185546875,-0.2154388427734375,-0.030975341796875
1774473187406720000,0.996719970703125,-0.7462005615234375,-0.2221221923828125,-0.0137939453125
1774473187416748000,1.006748046875,-0.7913055419921875,-0.1997528076171875,-0.03125
1774473187426775800,1.01677587890625,-0.8716888427734375,-0.17803955078125,-0.0862884521484375
1774473187436804000,1.02680419921875,-0.897003173828125,-0.1712799072265625,-0.043304443359375
1774473187446831900,1.036831787109375,-0.9356689453125,-0.13970947265625,-0.0310211181640625
1774473187456860200,1.046860107421875,-0.9967498779296875,-0.1221466064453125,-0.006378173828125
1774473187466888000,1.056887939453125,-1.05133056640625,-0.0944366455078125,0.0289306640625
1774473187476916000,1.066916015625,-1.1196746826171875,-0.096710205078125,0.0558319091796875
1774473187486944000,1.076944091796875,-1.1591796875,-0.132080078125,0.0738677978515625
1774473187496972000,1.086971923828125,-1.144073486328125,-0.1811981201171875,0.074066162109375
1774473187507000000,1.097,-1.098876953125,-0.2078704833984375,0.0660552978515625
1774473187517028000,1.107028076171875,-1.0764312744140625,-0.2195892333984375,0.068359375
1774473187527056000,1.117055908203125,-1.079498291015625,-0.194549560546875,0.0823211669921875
1774473187537084200,1.127084228515625,-1.07647705078125,-0.145416259765625,0.10687255859375
1774473187547112000,1.13711181640625,-1.0930328369140625,-0.0899200439453125,0.0903472900390625
1774473187557141000,1.14714111328125,-1.0953369140625,-0.0890960693359375,0.0624542236328125
1774473187567169000,1.1571689453125,-1.05169677734375,-0.088287353515625,0.05963134765625
1774473187577197000,1.167197021484375,-0.991851806640625,-0.0734405517578125,0.076507568359375
1774473187587225000,1.17722509765625,-0.86090087890625,-0.05072021484375,0.17120361328125
1774473187597253000,1.187253173828125,-1.01824951171875,-0.1403656005859375,-0.1707916259765625
1774473187607281000,1.197281005859375,-0.9992218017578125,-0.4477996826171875,-0.1493072509765625
1774473187617309200,1.20730908203125,-0.856292724609375,-0.3019866943359375,0.06072998046875
1774473187627337000,1.2173369140625,-0.8114166259765625,-0.1576385498046875,0.101531982421875
1774473187637365000,1.227364990234375,-0.811859130859375,-0.14141845703125,0.0659637451171875
1774473187647393000,1.23739306640625,-0.8622894287109375,-0.1339569091796875,0.056427001953125
1774473187657421000,1.247421142578125,-0.92083740234375,-0.1241455078125,0.0477294921875
1774473187667449000,1.257448974609375,-0.9797515869140625,-0.141693115234375,0.00537109375
1774473187677477000,1.26747705078125,-0.9959716796875,-0.1563568115234375,0.0142974853515625
1774473187687505000,1.2775048828125,-0.9926300048828125,-0.1659088134765625,0.0031585693359375
1774473187697533200,1.287533203125,-0.981781005859375,-0.130523681640625,0.01910400390625
1774473187707561000,1.29756103515625,-0.9682464599609375,-0.105224609375,0.035400390625
1774473187717590000,1.307590087890625,-0.96575927734375,-0.099639892578125,0.034881591796875
1774473187727618000,1.3176181640625,-1.0484161376953125,-0.1470947265625,0.0533599853515625
1774473187737646000,1.32764599609375,-1.1602325439453125,-0.1647491455078125,0.08087158203125
1774473187747674000,1.337674072265625,-1.20989990234375,-0.1050872802734375,0.1274566650390625
1774473187757702100,1.3477021484375,-1.14825439453125,-0.0838775634765625,0.133697509765625
1774473187767730000,1.35772998046875,-1.0346832275390625,-0.1066131591796875,0.1139984130859375
1774473187777758200,1.36775830078125,-0.928741455078125,-0.1280670166015625,0.0853424072265625
1774473187787786000,1.377785888671875,-0.8712310791015625,-0.13543701171875,0.05975341796875
1774473187797814000,1.38781396484375,-0.921905517578125,-0.138458251953125,0.0521392822265625
1774473187807842000,1.397842041015625,-1.0209197998046875,-0.13348388671875,0.0598297119140625
1774473187817870000,1.4078701171875,-1.0806121826171875,-0.115753173828125,0.06536865234375
1774473187827898000,1.417898193359375,-1.101837158203125,-0.1035919189453125,0.0732269287109375
1774473187837926100,1.427926025390625,-1.1359405517578125,-0.101776123046875,0.0692138671875
1774473187847954000,1.437953857421875,-1.1827239990234375,-0.118011474609375,0.0587921142578125
1774473187857982000,1.44798193359375,-1.1922454833984375,-0.17578125,0.040496826171875
1774473187868011000,1.458010986328125,-1.1598663330078125,-0.2428131103515625,0.0417938232421875
1774473187878039000,1.4680390625,-0.8971099853515625,-0.1916656494140625,0.1210479736328125
1774473187888067000,1.478067138671875,-0.7849578857421875,-0.1440277099609375,0.0883331298828125
1774473187898095000,1.48809521484375,-1.206298828125,-0.0187530517578125,0.0414276123046875
1774473187908123100,1.498123046875,-1.105682373046875,-0.101837158203125,0.0622100830078125
1774473187918151200,1.508151123046875,-1.0290069580078125,-0.2071380615234375,-0.017974853515625
1774473187928179000,1.518178955078125,-1.087432861328125,-0.1692047119140625,-0.0363922119140625
1774473187938207200,1.528207275390625,-1.0681915283203125,-0.1559906005859375,-0.0228729248046875
1774473187948235000,1.538235107421875,-1.0674896240234375,-0.15478515625,0.02166748046875
1774473187958263000,1.548262939453125,-1.099334716796875,-0.119598388671875,0.0436248779296875
1774473187968291000,1.558291015625,-1.06207275390625,-0.0968170166015625,0.0365142822265625
1774473187978318800,1.56831884765625,-0.95751953125,-0.0980224609375,0.04498291015625
1774473187988347100,1.57834716796875,-0.97625732421875,-0.0538482666015625,0.0847320556640625
1774473187998375000,1.588375,-0.9620819091796875,-0.0978546142578125,0.04998779296875
1774473188008403000,1.59840283203125,-0.9132537841796875,-0.12713623046875,0.028411865234375
1774473188018431000,1.608430908203125,-0.8505401611328125,-0.12164306640625,0.0147705078125
1774473188028460000,1.6184599609375,-0.818084716796875,-0.129638671875,0.00262451171875
1774473188038488000,1.628488037109375,-0.8321685791015625,-0.145111083984375,-0.0064239501953125
1774473188048516000,1.63851611328125,-0.919647216796875,-0.1555328369140625,-0.0526123046875
1774473188058543900,1.6485439453125,-0.9640960693359375,-0.26629638671875,-0.0877685546875
1774473188068572200,1.658572265625,-0.702606201171875,-0.449676513671875,-0.104217529296875
1774473188078600000,1.668599853515625,-0.52130126953125,-0.2989959716796875,-0.0521087646484375
1774473188088628000,1.6786279296875,-0.5376434326171875,0.0340118408203125,0.0492095947265625
1774473188098656000,1.688656005859375,-0.6571044921875,0.1538238525390625,0.084686279296875
1774473188108684000,1.69868408203125,-0.8812103271484375,0.098846435546875,0.0760345458984375
1774473188118712000,1.708712158203125,-1.0226898193359375,0.0521240234375,0.06475830078125
1774473188128740000,1.718739990234375,-1.09710693359375,0.043243408203125,0.0464935302734375
1774473188138768000,1.728767822265625,-1.105316162109375,0.0718231201171875,0.0367889404296875
1774473188148796200,1.738796142578125,-1.06695556640625,0.0766754150390625,0.0197296142578125
1774473188158824000,1.748823974609375,-1.0254364013671875,0.0605926513671875,-0.02166748046875
1774473188168852000,1.75885205078125,-0.991668701171875,0.02862548828125,-0.0531005859375
1774473188178881000,1.768881103515625,-1.0065155029296875,-0.014251708984375,-0.0699310302734375
1774473188188909000,1.778908935546875,-1.0106964111328125,-0.0338897705078125,-0.0699615478515625
1774473188198936800,1.788936767578125,-0.997894287109375,-0.0348358154296875,-0.0474395751953125
1774473188208965000,1.798965087890625,-0.9963531494140625,-0.031036376953125,-0.02337646484375
1774473188218993000,1.808992919921875,-1.0052642822265625,-0.0295867919921875,-0.0037384033203125
1774473188229021200,1.819021240234375,-1.004791259765625,-0.034759521484375,0.0247344970703125
1774473188239049000,1.829049072265625,-1.0102386474609375,-0.0538482666015625,0.051666259765625
1774473188249077000,1.839076904296875,-1.0276947021484375,-0.0863189697265625,0.06500244140625
1774473188259105000,1.84910498046875,-1.0297698974609375,-0.1209259033203125,0.085235595703125
1774473188269133000,1.859133056640625,-1.02703857421875,-0.1461944580078125,0.105316162109375
1774473188279161000,1.8691611328125,-1.0294647216796875,-0.1502838134765625,0.130157470703125
1774473188289189000,1.879189208984375,-1.017547607421875,-0.1568756103515625,0.1522216796875
1774473188299217000,1.889216796875,-0.9945831298828125,-0.1681671142578125,0.16558837890625
1774473188309245200,1.8992451171875,-0.9764404296875,-0.1852874755859375,0.1747894287109375
1774473188319273000,1.90927294921875,-0.5270843505859375,-0.3186187744140625,0.371734619140625
1774473188329301000,1.919301025390625,-0.7989349365234375,-0.503204345703125,0.143096923828125
1774473188339330000,1.929330078125,-0.6627197265625,-0.610748291015625,0.234588623046875
1774473188349357300,1.939357421875,-0.791534423828125,-0.736419677734375,0.28607177734375
1774473188359385600,1.949385498046875,-0.94842529296875,-0.7814483642578125,0.3917388916015625
1774473188369413400,1.959413330078125,-1.26153564453125,-0.6297454833984375,0.434295654296875
1774473188379441400,1.96944140625,-1.211395263671875,-0.434173583984375,0.57037353515625
1774473188389469400,1.979469482421875,-1.125762939453125,-0.2964935302734375,0.462493896484375
1774473188399497500,1.98949755859375,-1.0298614501953125,-0.183197021484375,0.418487548828125
1774473188409525500,1.999525390625,-0.9514923095703125,-0.1893768310546875,0.309295654296875
1774473188419553500,2.009553466796875,-0.9002227783203125,-0.2839813232421875,0.2303619384765625
1774473188429581300,2.019581298828125,-0.8116455078125,-0.341705322265625,0.219024658203125
1774473188439609600,2.029609619140625,-0.7618560791015625,-0.359466552734375,0.2080078125
1774473188449637400,2.039637451171875,-0.7837982177734375,-0.3829193115234375,0.2159271240234375
1774473188459665400,2.04966552734375,-0.81103515625,-0.371856689453125,0.250335693359375
1774473188469693400,2.059693359375,-0.861846923828125,-0.3463134765625,0.2773284912109375
1774473188479721200,2.06972119140625,-0.9316558837890625,-0.2954559326171875,0.4300689697265625
1774473188489750300,2.079750244140625,-0.97320556640625,-0.2113037109375,0.501220703125
1774473188499778600,2.089778564453125,-0.9080352783203125,-0.2361602783203125,0.4299468994140625
1774473188509806300,2.099806396484375,-0.8848114013671875,-0.2725372314453125,0.4082489013671875
1774473188519834600,2.109834716796875,-0.93878173828125,-0.0247344970703125,0.512969970703125
1774473188529862400,2.1198623046875,-0.8537445068359375,-0.436767578125,0.391265869140625
1774473188539890400,2.129890380859375,-0.97406005859375,-0.5077056884765625,0.2628021240234375
1774473188549918500,2.13991845703125,-0.9665374755859375,-0.482513427734375,0.3248748779296875
1774473188559946200,2.1499462890625,-1.308502197265625,-0.351409912109375,0.337493896484375
1774473188569974500,2.159974609375,-2.0553741455078125,-0.4201812744140625,0.1900634765625
1774473188580002300,2.170002197265625,-0.444976806640625,-0.482421875,-0.030426025390625
1774473188590030300,2.1800302734375,-0.19317626953125,-0.247589111328125,0.6177215576171875
1774473188600058400,2.190058349609375,-0.7698974609375,-0.255340576171875,0.7240142822265625
1774473188610086400,2.20008642578125,-1.2672271728515625,-0.41455078125,0.3661346435546875
1774473188620114400,2.210114501953125,-1.097381591796875,-0.3394927978515625,0.3406829833984375
1774473188630142500,2.220142578125,-0.8732147216796875,-0.11029052734375,-0.0257415771484375
1774473188640170200,2.230170166015625,-0.86883544921875,-0.0182952880859375,-0.1339263916015625
1774473188650199300,2.24019921875,-0.77801513671875,-0.1780242919921875,0.0078887939453125
1774473188660227300,2.250227294921875,-0.916290283203125,-0.369720458984375,-0.045440673828125
1774473188670255400,2.26025537109375,-0.9353790283203125,-0.3827362060546875,-0.093231201171875
1774473188680283400,2.270283447265625,-0.906524658203125,-0.313995361328125,-0.1393890380859375
1774473188690311400,2.2803115234375,-0.965057373046875,-0.288330078125,-0.132720947265625
1774473188700339200,2.290339111328125,-0.897735595703125,-0.349853515625,-0.122161865234375
1774473188710367500,2.300367431640625,-0.845672607421875,-0.4565277099609375,-0.16558837890625
1774473188720395300,2.310395263671875,-0.97503662109375,-0.4823760986328125,-0.112701416015625
1774473188730423600,2.320423583984375,-1.064117431640625,-0.4036865234375,0.1102447509765625
1774473188740451300,2.330451416015625,-1.124755859375,-0.279266357421875,0.2550506591796875
1774473188750479400,2.340479248046875,-1.0522308349609375,-0.2049560546875,0.291259765625
1774473188760507400,2.35050732421875,-0.996917724609375,-0.23211669921875,0.1962127685546875
1774473188770535400,2.360535400390625,-1.014617919921875,-0.30584716796875,0.1055908203125
1774473188780563500,2.3705634765625,-1.0042724609375,-0.361083984375,0.0947418212890625
1774473188790591500,2.380591552734375,-1.019256591796875,-0.3790435791015625,0.026336669921875
1774473188800620300,2.390620361328125,-1.03265380859375,-0.3873291015625,-0.0678558349609375
1774473188810648300,2.4006484375,-1.0594635009765625,-0.369293212890625,-0.04620361328125
1774473188820676400,2.41067626953125,-1.0384979248046875,-0.355712890625,-0.0088653564453125
1774473188830704400,2.420704345703125,-1.066986083984375,-0.368743896484375,-0.060272216796875
1774473188840732400,2.430732421875,-1.025634765625,-0.367584228515625,-0.1021270751953125
1774473188850760400,2.440760498046875,-0.9860382080078125,-0.295562744140625,-0.0727081298828125
1774473188860786400,2.450786376953125,-1.0269622802734375,-0.2058258056640625,-0.014923095703125
1774473188870814200,2.460814208984375,-1.00933837890625,-0.1710205078125,0.0419769287109375
1774473188880843500,2.470843505859375,-0.9696044921875,-0.16357421875,0.0897674560546875
1774473188890871600,2.48087158203125,-1.001861572265625,-0.1468048095703125,0.17431640625
1774473188900899300,2.4908994140625,-0.9815826416015625,-0.1168365478515625,0.24591064453125
1774473188910927400,2.50092724609375,-0.9284820556640625,-0.0923919677734375,0.2511444091796875
1774473188920955400,2.510955322265625,-0.901214599609375,-0.1179351806640625,0.2179107666015625
1774473188930983400,2.5209833984375,-0.8657684326171875,-0.1632080078125,0.1826629638671875
1774473188941011500,2.531011474609375,-0.8775787353515625,-0.193511962890625,0.1639556884765625
1774473188951039200,2.541039306640625,-0.9020233154296875,-0.1962432861328125,0.1734466552734375
1774473188961067500,2.551067626953125,-0.894744873046875,-0.1862335205078125,0.1685943603515625
1774473188971095300,2.56109521484375,-0.86846923828125,-0.1559295654296875,0.1676025390625
1774473188981123300,2.571123291015625,-0.8885650634765625,-0.14300537109375,0.18341064453125
1774473188991151400,2.5811513671875,-0.8930206298828125,-0.14666748046875,0.2031707763671875
1774473189001179400,2.591179443359375,-0.908416748046875,-0.144439697265625,0.2059478759765625
1774473189011207400,2.60120751953125,-0.914794921875,-0.1139373779296875,0.22802734375
1774473189021235500,2.6112353515625,-0.9072723388671875,-0.1402740478515625,0.208740234375
1774473189031263200,2.62126318359375,-0.942230224609375,-0.17236328125,0.194366455078125
1774473189041292500,2.63129248046875,-0.93231201171875,-0.1869354248046875,0.201324462890625
1774473189051320300,2.6413203125,-0.915802001953125,-0.1990203857421875,0.1899261474609375
1774473189061348400,2.651348388671875,-0.9470672607421875,-0.203704833984375,0.199066162109375
1774473189071376400,2.66137646484375,-0.941162109375,-0.2025299072265625,0.20343017578125
1774473189081404400,2.671404296875,-0.9137725830078125,-0.2007598876953125,0.164398193359375
1774473189091432400,2.681432373046875,-0.919677734375,-0.2197723388671875,0.119384765625
1774473189101460500,2.69146044921875,-0.9418792724609375,-0.2514495849609375,0.0980072021484375
1774473189111488300,2.70148828125,-0.924102783203125,-0.2663421630859375,0.06439208984375
1774473189121516500,2.7115166015625,-0.90118408203125,-0.3002777099609375,-0.00140380859375
1774473189131544300,2.72154443359375,-0.9429779052734375,-0.3332672119140625,-0.04461669921875
1774473189141572400,2.731572265625,-0.951995849609375,-0.334381103515625,-0.047943115234375
1774473189151600400,2.741600341796875,-0.9833984375,-0.299774169921875,-0.03778076171875
1774473189161628400,2.75162841796875,-1.0244293212890625,-0.2653656005859375,-0.00518798828125
1774473189171656400,2.761656494140625,-1.0367889404296875,-0.2196807861328125,0.0244293212890625
1774473189181684500,2.7716845703125,-1.036163330078125,-0.1999053955078125,0.0275421142578125
1774473189191713300,2.78171337890625,-0.9933929443359375,-0.2123870849609375,-0.00482177734375
1774473189201741600,2.791741455078125,-0.9547882080078125,-0.238037109375,-0.047119140625
1774473189211769300,2.801769287109375,-0.9630126953125,-0.2571868896484375,-0.0491485595703125
1774473189221797400,2.81179736328125,-0.946929931640625,-0.24908447265625,-0.02880859375
1774473189231825400,2.821825439453125,-0.9568023681640625,-0.2077484130859375,0.0017242431640625
1774473189241853400,2.831853515625,-0.9688262939453125,-0.1496429443359375,0.0495452880859375
1774473189251881500,2.841881591796875,-0.9546661376953125,-0.1013336181640625,0.068145751953125
1774473189261909500,2.851909423828125,-0.951263427734375,-0.0910797119140625,0.055816650390625
1774473189271937300,2.861937255859375,-0.928680419921875,-0.11370849609375,0.0227203369140625
1774473189281965600,2.871965576171875,-0.9153289794921875,-0.1505889892578125,-0.01910400390625
1774473189291993300,2.881993408203125,-0.9249114990234375,-0.16204833984375,-0.02252197265625
1774473189302021400,2.892021484375,-0.9257049560546875,-0.1468963623046875,0.0023345947265625
1774473189312049400,2.90204931640625,-0.9210968017578125,-0.149627685546875,-0.003570556640625
1774473189322077400,2.912077392578125,-0.9394683837890625,-0.184539794921875,-0.0239105224609375
1774473189332105500,2.92210546875,-0.9391937255859375,-0.20123291015625,-0.02587890625
1774473189342133500,2.932133544921875,-0.9653167724609375,-0.20379638671875,-0.017669677734375
1774473189352161500,2.94216162109375,-0.9699249267578125,-0.1962127685546875,0.0063934326171875
1774473189362190800,2.95219091796875,-0.967926025390625,-0.1813201904296875,0.01318359375
1774473189372218600,2.962218505859375,-1.0160980224609375,-0.1951751708984375,0.014251708984375
1774473189382246700,2.97224658203125,-1.0052642822265625,-0.22430419921875,0.0005340576171875
1774473189392274700,2.982274658203125,-0.9942626953125,-0.24066162109375,-0.032257080078125
1774473189402302700,2.992302734375,-0.9965667724609375,-0.2474212646484375,-0.045654296875
1774473189412330800,3.002330810546875,-0.99566650390625,-0.256103515625,-0.0458526611328125
1774473189422358800,3.01235888671875,-1.0063934326171875,-0.257720947265625,-0.0364532470703125
1774473189432386600,3.022386474609375,-0.9992218017578125,-0.2708587646484375,-0.04071044921875
1774473189442414800,3.032414794921875,-0.99334716796875,-0.2877349853515625,-0.04766845703125
1774473189452442600,3.042442626953125,-0.9763946533203125,-0.290679931640625,-0.0323638916015625
1774473189462470700,3.052470703125,-0.9684600830078125,-0.2930145263671875,-0.0303955078125
1774473189472498700,3.062498779296875,-0.9569244384765625,-0.2988433837890625,-0.04364013671875
1774473189482526700,3.072526611328125,-0.9163055419921875,-0.255157470703125,-0.1411590576171875
1774473189492554800,3.0825546875,-0.8903350830078125,-0.3121337890625,-0.0705718994140625
1774473189502582800,3.092582763671875,-0.9749908447265625,-0.3473968505859375,-0.1143951416015625
1774473189512611600,3.102611572265625,-0.962066650390625,-0.3745880126953125,-0.128997802734375
1774473189522640000,3.112639892578125,-0.9519195556640625,-0.370391845703125,-0.0868377685546875
1774473189532667600,3.122667724609375,-0.972412109375,-0.326080322265625,-0.031219482421875
1774473189542695700,3.13269580078125,-0.9560089111328125,-0.3077545166015625,0.025665283203125
1774473189552723700,3.1427236328125,-0.913726806640625,-0.279327392578125,0.04156494140625
1774473189562751700,3.152751708984375,-0.90185546875,-0.267486572265625,0.035064697265625
1774473189572779800,3.16277978515625,-0.956634521484375,-0.2675018310546875,0.0326690673828125
1774473189582807800,3.172807861328125,-0.932952880859375,-0.2721710205078125,0.0459136962890625
1774473189592835600,3.182835693359375,-0.87432861328125,-0.26593017578125,0.03399658203125
1774473189602863900,3.19286376953125,-0.879913330078125,-0.2711639404296875,0.047393798828125
1774473189612891600,3.2028916015625,-0.9273834228515625,-0.2910003662109375,0.0432586669921875
1774473189622919700,3.212919677734375,-0.970428466796875,-0.3114013671875,0.0275115966796875
1774473189632947700,3.22294775390625,-1.0069580078125,-0.344696044921875,0.0226898193359375
1774473189642975700,3.232975830078125,-1.0515899658203125,-0.360198974609375,0.0279083251953125
1774473189653003800,3.243003662109375,-1.0448455810546875,-0.3469696044921875,0.0466461181640625
1774473189663031800,3.25303173828125,-1.0107269287109375,-0.31585693359375,0.0729217529296875
1774473189673059600,3.2630595703125,-1.0133819580078125,-0.284149169921875,0.07525634765625
1774473189683089000,3.2730888671875,-1.01434326171875,-0.2797393798828125,0.055450439453125
1774473189693116700,3.28311669921875,-1.0208892822265625,-0.2832183837890625,0.03485107421875
1774473189703144700,3.293144775390625,-1.00286865234375,-0.280120849609375,0.0513916015625
1774473189713172700,3.3031728515625,-0.9673309326171875,-0.2802886962890625,0.0654144287109375
1774473189723200800,3.31320068359375,-0.932861328125,-0.2752838134765625,0.041351318359375
1774473189733228800,3.323228759765625,-0.8863983154296875,-0.2724609375,0.00299072265625
1774473189743256800,3.3332568359375,-0.889007568359375,-0.3023529052734375,0.008270263671875
1774473189753284600,3.34328466796875,-0.94293212890625,-0.30474853515625,-0.008392333984375
1774473189763313000,3.35331298828125,-1.0147247314453125,-0.3346099853515625,-0.0127716064453125
1774473189773340700,3.363340576171875,-1.0691070556640625,-0.3526153564453125,-0.0153045654296875
1774473189783368700,3.37336865234375,-1.037933349609375,-0.3188934326171875,-0.0701751708984375
1774473189793396700,3.383396728515625,-0.941009521484375,-0.2763671875,-0.1400909423828125
1774473189803424500,3.393424560546875,-0.86419677734375,-0.277679443359375,-0.165496826171875
1774473189813452800,3.403452880859375,-0.832763671875,-0.321197509765625,-0.133331298828125
1774473189823480600,3.41348046875,-0.818817138671875,-0.263275146484375,-0.1908111572265625
1774473189833508600,3.423508544921875,-0.802032470703125,-0.2218170166015625,-0.2179718017578125
1774473189843538000,3.433537841796875,-0.800689697265625,-0.2247161865234375,-0.19818115234375
1774473189853565700,3.443565673828125,-0.8198699951171875,-0.195281982421875,-0.1893463134765625
1774473189863593700,3.45359375,-0.8315582275390625,-0.1767120361328125,-0.1553955078125
1774473189873621800,3.463621826171875,-0.82452392578125,-0.1727752685546875,-0.1234893798828125
1774473189883649500,3.4736494140625,-0.814300537109375,-0.1560821533203125,-0.1243438720703125
1774473189893677800,3.483677734375,-0.8120574951171875,-0.1394500732421875,-0.127227783203125
1774473189903705600,3.49370556640625,-0.8425750732421875,-0.122802734375,-0.10711669921875
1774473189913733600,3.503733642578125,-0.88751220703125,-0.122314453125,-0.069580078125
1774473189923761700,3.51376171875,-0.9257965087890625,-0.0974578857421875,-0.0562591552734375
1774473189933789700,3.523789794921875,-0.95965576171875,-0.0597381591796875,-0.05865478515625
1774473189943817700,3.533817626953125,-0.9776763916015625,-0.0490875244140625,-0.04547119140625
1774473189953845800,3.543845703125,-0.971466064453125,-0.049346923828125,-0.03448486328125
1774473189963873500,3.55387353515625,-0.9464569091796875,-0.0609283447265625,-0.0144195556640625
1774473189973901800,3.56390185546875,-0.9231109619140625,-0.057647705078125,-0.0211029052734375
1774473189983929600,3.5739296875,-0.900146484375,-0.0419769287109375,-0.0415802001953125
1774473189993957600,3.58395751953125,-0.8734588623046875,-0.039276123046875,-0.055328369140625
1774473190003985700,3.593985595703125,-0.847259521484375,-0.0439300537109375,-0.07086181640625
1774473190014014700,3.6040146484375,-0.82232666015625,-0.0433197021484375,-0.0998992919921875
1774473190024042500,3.61404248046875,-0.8029937744140625,-0.030975341796875,-0.1430816650390625
1774473190034070800,3.62407080078125,-0.7889404296875,-0.02410888671875,-0.1681671142578125
1774473190044098600,3.6340986328125,-0.784210205078125,-0.0187835693359375,-0.1646728515625
1774473190054126800,3.644126953125,-0.7968597412109375,0.00518798828125,-0.15826416015625
1774473190064154600,3.654154541015625,-0.8131866455078125,0.0212860107421875,-0.13128662109375
1774473190074182700,3.6641826171875,-0.8333282470703125,0.0320587158203125,-0.0875244140625
1774473190084210700,3.674210693359375,-0.9981231689453125,0.13287353515625,0.0205230712890625
1774473190094238700,3.68423876953125,-2.9515380859375,1.25714111328125,1.225341796875
1774473190104266800,3.694266845703125,-2.2191314697265625,2.454864501953125,1.751739501953125
1774473190114294800,3.704294677734375,-1.32611083984375,0.8389129638671875,0.697296142578125
1774473190124322600,3.714322509765625,-0.8680419921875,-0.01397705078125,-0.125701904296875
1774473190134350800,3.724350830078125,-0.858123779296875,-0.0218658447265625,-0.5231781005859375
1774473190144378600,3.734378662109375,-0.8469085693359375,-0.0809173583984375,-0.6246795654296875
1774473190154407000,3.744406982421875,-0.9446258544921875,-0.0643768310546875,-0.7200469970703125
1774473190164434700,3.7544345703125,-1.027099609375,-0.0240020751953125,-0.7299346923828125
1774473190174463700,3.764463623046875,-1.0072784423828125,0.0360260009765625,-0.614990234375
1774473190184491500,3.774491455078125,-0.9302978515625,0.1614227294921875,-0.43353271484375
1774473190194519800,3.784519775390625,-0.82098388671875,0.1497650146484375,-0.3377838134765625
1774473190204547600,3.794547607421875,-0.708282470703125,0.0746002197265625,-0.3010406494140625
1774473190214575900,3.804575927734375,-0.6216888427734375,0.039794921875,-0.27288818359375
1774473190224603600,3.814603759765625,-0.622039794921875,0.08221435546875,-0.263519287109375
1774473190234631700,3.824631591796875,-0.60772705078125,0.0879364013671875,-0.2451019287109375
1774473190244659700,3.83465966796875,-0.5694732666015625,0.082794189453125,-0.23797607421875
1774473190254687700,3.844687744140625,-0.552520751953125,0.125030517578125,-0.237152099609375
1774473190264715800,3.8547158203125,-0.5487518310546875,0.1343231201171875,-0.2084503173828125
1774473190274743800,3.864743896484375,-0.514617919921875,0.1762847900390625,-0.0265350341796875
1774473190284771600,3.874771484375,-0.7180938720703125,0.442535400390625,0.178375244140625
1774473190294800000,3.8847998046875,-1.6280517578125,1.8800506591796875,1.8918609619140625
1774473190304827600,3.89482763671875,-2.101654052734375,2.062744140625,1.7807159423828125
1774473190314856000,3.90485595703125,-1.5353546142578125,0.5742950439453125,0.3864593505859375
1774473190324883700,3.9148837890625,-0.7422637939453125,-0.00927734375,-0.096160888671875
1774473190334911500,3.924911376953125,-0.8063201904296875,-0.323486328125,-0.3605804443359375
1774473190344940500,3.9349404296875,-1.23931884765625,-0.3404998779296875,-0.4518280029296875
1774473190354972200,3.94497216796875,-1.43328857421875,0.063568115234375,-0.3345947265625
1774473190365000200,3.955000244140625,-1.4847259521484375,0.4882659912109375,-0.022552490234375
1774473190375028200,3.9650283203125,-1.2936248779296875,0.5981597900390625,-0.17486572265625
1774473190385056300,3.97505615234375,-1.404937744140625,0.3088226318359375,-0.3598480224609375
1774473190395084000,3.985083984375,-1.0194854736328125,0.2536163330078125,-0.4618072509765625
1774473190405112300,3.9951123046875,-0.8546295166015625,0.4001007080078125,-0.5033721923828125
1774473190415140000,4.00514013671875,-0.8050689697265625,0.4843292236328125,-0.5603179931640625
1774473190425168400,4.01516845703125,-0.7491302490234375,0.4608001708984375,-0.5319976806640625
1774473190435196200,4.025196044921875,-0.64398193359375,0.3746185302734375,-0.4884185791015625
1774473190445224200,4.03522412109375,-0.5301361083984375,0.31549072265625,-0.5428924560546875
1774473190455252200,4.045252197265625,-0.5434722900390625,0.324920654296875,-0.6061553955078125
1774473190465280300,4.0552802734375,-0.4937896728515625,0.28765869140625,-0.6263885498046875
1774473190475308300,4.065308349609375,-0.403350830078125,0.15264892578125,-0.66009521484375
1774473190485336300,4.07533642578125,-0.327606201171875,0.129058837890625,-0.5702362060546875
1774473190495364000,4.085364013671875,-0.26971435546875,0.102203369140625,-0.5304107666015625
1774473190505393200,4.09539306640625,-0.264190673828125,0.12176513671875,-0.4789886474609375
1774473190515421200,4.105421142578125,-0.3292694091796875,0.077301025390625,-0.2635650634765625
1774473190525449200,4.11544921875,-0.5045166015625,-0.086212158203125,-0.1234893798828125
1774473190535477200,4.125477294921875,-0.646240234375,-0.167327880859375,-0.20269775390625
1774473190545505300,4.13550537109375,-0.665924072265625,-0.087799072265625,-0.299072265625
1774473190555533000,4.145532958984375,-0.7478485107421875,-0.0265350341796875,-0.3433990478515625
1774473190565561300,4.155561279296875,-0.9348602294921875,0.001251220703125,-0.4340667724609375
1774473190575589000,4.165589111328125,-1.084014892578125,0.0463409423828125,-0.5691070556640625
1774473190585617400,4.175617431640625,-1.1601715087890625,0.08160400390625,-0.6753387451171875
1774473190595645200,4.185645263671875,-1.1970367431640625,0.0820465087890625,-0.7110595703125
1774473190605673200,4.195673095703125,-1.17364501953125,0.084991455078125,-0.7073211669921875
1774473190615701200,4.205701171875,-1.1347808837890625,0.07464599609375,-0.629974365234375
1774473190625729000,4.21572900390625,-1.10748291015625,-0.0023956298828125,-0.502716064453125
1774473190635757300,4.22575732421875,-1.1328582763671875,-0.1292877197265625,-0.397216796875
1774473190645785000,4.23578515625,-1.1644439697265625,-0.2622222900390625,-0.3155670166015625
1774473190655813000,4.245813232421875,-1.15301513671875,-0.4240264892578125,-0.2116241455078125
1774473190665841200,4.255841064453125,-1.112640380859375,-0.5591888427734375,-0.0800628662109375
1774473190675869200,4.265869140625,-1.097991943359375,-0.6397857666015625,0.02362060546875
1774473190685898200,4.275898193359375,-1.125946044921875,-0.72198486328125,0.04827880859375
1774473190695926300,4.28592626953125,-1.145477294921875,-0.80633544921875,-0.0109405517578125
1774473190705954300,4.295954345703125,-1.1544647216796875,-0.8573760986328125,-0.083404541015625
1774473190715982000,4.305982177734375,-1.12774658203125,-0.8751983642578125,-0.1428375244140625
1774473190726010000,4.316010009765625,-0.804779052734375,-0.9438934326171875,-0.2501983642578125
1774473190736038100,4.3260380859375,-1.0942840576171875,-0.8050079345703125,-0.344818115234375
1774473190746066200,4.336066162109375,-0.842010498046875,-0.8111419677734375,-0.4239349365234375
1774473190756094200,4.34609423828125,-0.7195892333984375,-0.818603515625,-0.590179443359375
1774473190766122000,4.3561220703125,-0.654876708984375,-0.829376220703125,-0.7441864013671875
1774473190776150300,4.366150390625,-0.668243408203125,-0.850555419921875,-0.8649749755859375
1774473190786178000,4.376177978515625,-0.6674041748046875,-0.81610107421875,-0.891448974609375
1774473190796206300,4.386206298828125,-0.6046295166015625,-0.809906005859375,-0.9675140380859375
1774473190806234000,4.396234130859375,-0.59539794921875,-0.837188720703125,-1.164825439453125
1774473190816262100,4.40626220703125,-0.755096435546875,-0.7877655029296875,-1.37249755859375
1774473190826290200,4.416290283203125,-0.89190673828125,-0.6798553466796875,-1.548980712890625
1774473190836318200,4.426318115234375,-1.0775299072265625,-0.568572998046875,-1.6370697021484375
1774473190846347000,4.436346923828125,-1.12066650390625,-0.457916259765625,-1.6015167236328125
1774473190856375300,4.446375244140625,-1.0092926025390625,-0.4214935302734375,-1.4830169677734375
1774473190866403000,4.456403076171875,-1.0312347412109375,-0.50714111328125,-1.3808135986328125
1774473190876431000,4.46643115234375,-1.1110382080078125,-0.5630340576171875,-1.31817626953125
1774473190886459100,4.476459228515625,-1.1295928955078125,-0.5471649169921875,-1.2351837158203125
1774473190896487200,4.486487060546875,-1.0839080810546875,-0.603424072265625,-1.1431884765625
1774473190906515200,4.49651513671875,-1.118255615234375,-0.668487548828125,-1.076263427734375
1774473190916543200,4.506543212890625,-1.128448486328125,-0.651336669921875,-1.035369873046875
1774473190926571000,4.516571044921875,-1.0017242431640625,-0.62109375,-0.9729461669921875
1774473190936599300,4.526599365234375,-0.8332672119140625,-0.602783203125,-0.9109954833984375
1774473190946627000,4.536626953125,-0.6902923583984375,-0.57568359375,-0.857452392578125
1774473190956655400,4.5466552734375,-0.5937957763671875,-0.5362091064453125,-0.8083648681640625
1774473190966683100,4.55668310546875,-0.533050537109375,-0.527923583984375,-0.771240234375
1774473190976711200,4.566711181640625,-0.4830780029296875,-0.5241241455078125,-0.715576171875
1774473190986739200,4.5767392578125,-0.3820037841796875,-0.5251007080078125,-0.6588134765625
1774473190996767200,4.586767333984375,-0.2895355224609375,-0.51788330078125,-0.6069793701171875
1774473191006795300,4.596795166015625,-0.26715087890625,-0.5158233642578125,-0.5606536865234375
1774473191016824300,4.60682421875,-0.26165771484375,-0.531005859375,-0.5517120361328125
1774473191026852000,4.61685205078125,-0.2443084716796875,-0.571502685546875,-0.537017822265625
1774473191036880100,4.626880126953125,0.06597900390625,-0.6734161376953125,-0.5029449462890625
1774473191046908200,4.636908203125,0.4500274658203125,-0.85870361328125,-0.43157958984375
1774473191056936200,4.646936279296875,0.1522369384765625,-0.851959228515625,-0.2132720947265625
1774473191066964200,4.656964111328125,-0.1425628662109375,-0.968658447265625,-0.1685638427734375
1774473191076992300,4.6669921875,-0.276611328125,-1.120849609375,-0.1598968505859375
1774473191087020000,4.67702001953125,-0.157928466796875,-1.3307037353515625,-0.167236328125
1774473191097048300,4.68704833984375,-0.1704864501953125,-1.267669677734375,-0.1003265380859375
1774473191107076000,4.697076171875,-0.2061767578125,-1.06134033203125,-0.104827880859375
1774473191117104400,4.7071044921875,-0.272857666015625,-0.9538421630859375,-0.17205810546875
1774473191127132200,4.717132080078125,-0.3181304931640625,-0.8925018310546875,-0.2635345458984375
1774473191137160200,4.72716015625,-0.3563385009765625,-0.7985382080078125,-0.27154541015625
1774473191147188200,4.737188232421875,-0.520660400390625,-0.751220703125,-0.3357391357421875
1774473191157216300,4.74721630859375,-0.5867919921875,-0.79779052734375,-0.4207916259765625
1774473191167244300,4.757244384765625,-0.5512847900390625,-0.795196533203125,-0.470306396484375
1774473191177273300,4.7672734375,-0.5302886962890625,-0.7282562255859375,-0.5250396728515625
1774473191187301000,4.777301025390625,-0.51019287109375,-0.6671295166015625,-0.5893402099609375
1774473191197329400,4.787329345703125,-0.4791259765625,-0.6060943603515625,-0.497589111328125
1774473191207357200,4.797357177734375,-0.440704345703125,-0.6919403076171875,-0.5787811279296875
1774473191217385200,4.80738525390625,-0.4958343505859375,-0.6899566650390625,-0.6398773193359375
1774473191227413200,4.817413330078125,-0.39794921875,-0.652435302734375,-0.5455169677734375
1774473191237441300,4.827441162109375,-0.38824462890625,-0.6495361328125,-0.62115478515625
1774473191247469300,4.83746923828125,-0.3858795166015625,-0.6386260986328125,-0.6683349609375
1774473191257497300,4.847497314453125,-0.247283935546875,-0.668731689453125,-0.7144012451171875
1774473191267525000,4.857525146484375,-0.1539154052734375,-0.644287109375,-0.7457275390625
1774473191277553400,4.867553466796875,-0.1265411376953125,-0.6695556640625,-0.7427825927734375
1774473191287581200,4.877581298828125,-0.091094970703125,-0.6537933349609375,-0.7283172607421875
1774473191297609200,4.887609130859375,-0.144500732421875,-0.58929443359375,-0.675628662109375
1774473191307637200,4.89763720703125,-0.1873016357421875,-0.5767974853515625,-0.613677978515625
1774473191317665000,4.9076650390625,-0.24554443359375,-0.56634521484375,-0.5939178466796875
1774473191327693300,4.917693359375,-0.303955078125,-0.5162353515625,-0.627532958984375
1774473191337722400,4.927722412109375,-0.4281158447265625,-0.5257720947265625,-0.69769287109375
1774473191347750100,4.937750244140625,-0.51776123046875,-0.6640472412109375,-0.8277130126953125
1774473191357774800,4.94777490234375,-0.5391998291015625,-0.815155029296875,-0.8981781005859375
1774473191367803100,4.95780322265625,-0.4365997314453125,-0.8415069580078125,-0.9448089599609375
1774473191377831000,4.967830810546875,-0.2442626953125,-0.6380462646484375,-0.9050750732421875
1774473191387859200,4.977859130859375,-0.1964874267578125,-0.3820953369140625,-0.8808135986328125
1774473191397887000,4.987886962890625,-0.179840087890625,-0.22662353515625,-0.862152099609375
1774473191407915000,4.9979150390625,-0.208831787109375,-0.262176513671875,-0.9259796142578125
1774473191417943000,5.007943115234375,-0.190277099609375,-0.32989501953125,-0.992095947265625
1774473191427971000,5.01797119140625,-0.1995086669921875,-0.36798095703125,-0.998748779296875
1774473191437999000,5.0279990234375,-0.3111114501953125,-0.2963409423828125,-0.9802703857421875
1774473191448027100,5.038027099609375,-0.3688507080078125,-0.1547088623046875,-0.97894287109375
1774473191458055000,5.048054931640625,-0.3278350830078125,-0.2189483642578125,-0.9407196044921875
1774473191468083200,5.058083251953125,-0.4722137451171875,-0.5078582763671875,-0.89019775390625
1774473191478111000,5.068111083984375,-0.443511962890625,-0.62298583984375,-0.8518524169921875
1774473191488139300,5.07813916015625,-0.3574676513671875,-0.615325927734375,-0.886871337890625
1774473191498168000,5.08816796875,-0.375823974609375,-0.63482666015625,-0.851837158203125
1774473191508196000,5.098196044921875,-0.359039306640625,-0.665191650390625,-0.819183349609375
1774473191518224100,5.10822412109375,-0.335784912109375,-0.66961669921875,-0.7826385498046875
1774473191528252200,5.118252197265625,-0.3537445068359375,-0.557281494140625,-0.7372283935546875
1774473191538280000,5.128280029296875,-0.307037353515625,-0.3828125,-0.70562744140625
1774473191548308200,5.13830810546875,-0.248321533203125,-0.243316650390625,-0.705535888671875
1774473191558336000,5.1483359375,-0.2859039306640625,-0.2901458740234375,-0.6871490478515625
1774473191568364000,5.158364013671875,-0.3803863525390625,-0.4566650390625,-0.7050628662109375
1774473191578392000,5.16839208984375,-0.5052032470703125,-0.5015869140625,-0.7602081298828125
1774473191588420000,5.178420166015625,-0.574951171875,-0.42626953125,-0.785308837890625
1774473191598448000,5.1884482421875,-0.510955810546875,-0.349456787109375,-0.7911376953125
1774473191608476000,5.198475830078125,-0.4947052001953125,-0.284149169921875,-0.7780914306640625
1774473191618504000,5.20850390625,-0.4755706787109375,-0.404144287109375,-0.781707763671875
1774473191628532000,5.218531982421875,-0.4931182861328125,-0.4926910400390625,-0.8318634033203125
1774473191638560000,5.22856005859375,-0.5524444580078125,-0.516998291015625,-0.8846282958984375
1774473191648589000,5.238589111328125,-0.51568603515625,-0.5548095703125,-0.9109344482421875
1774473191658617000,5.2486171875,-0.4522857666015625,-0.57879638671875,-0.914398193359375
1774473191668645000,5.25864501953125,-0.40338134765625,-0.633270263671875,-0.91357421875
1774473191678673200,5.268673095703125,-0.3600616455078125,-0.704833984375,-0.9107208251953125
1774473191688701200,5.278701171875,-0.4486083984375,-0.6380767822265625,-0.93109130859375
1774473191698729000,5.28872900390625,-0.505096435546875,-0.448638916015625,-0.9176788330078125
1774473191708757000,5.298757080078125,-0.394683837890625,-0.3549041748046875,-0.8247222900390625
1774473191718785000,5.308784912109375,-0.3662261962890625,-0.4034423828125,-0.7388458251953125
1774473191728813000,5.31881298828125,-0.4185943603515625,-0.49066162109375,-0.746612548828125
1774473191738841000,5.328841064453125,-0.4989013671875,-0.550140380859375,-0.7888336181640625
1774473191748868900,5.338868896484375,-0.617431640625,-0.5421905517578125,-0.762054443359375
1774473191758897200,5.348897216796875,-0.54119873046875,-0.380889892578125,-0.5763397216796875
1774473191768925000,5.358925048828125,-0.3842926025390625,-0.37579345703125,-0.5034027099609375
1774473191778953000,5.368952880859375,-0.3717193603515625,-0.3114471435546875,-0.3522186279296875
1774473191788981000,5.37898095703125,-0.3346405029296875,-0.2857818603515625,-0.3937225341796875
1774473191799010000,5.389010009765625,-0.3517608642578125,-0.2674713134765625,-0.3981781005859375
1774473191809037800,5.399037841796875,-0.40228271484375,-0.324066162109375,-0.4020233154296875
1774473191819066000,5.409066162109375,-0.5057220458984375,-0.4444427490234375,-0.496307373046875
1774473191829094000,5.419093994140625,-0.5251007080078125,-0.4697418212890625,-0.519989013671875
1774473191839122200,5.4291220703125,-0.491058349609375,-0.444793701171875,-0.477386474609375
1774473191849150000,5.43914990234375,-0.454010009765625,-0.52032470703125,-0.484649658203125
1774473191859178000,5.449177978515625,-0.445648193359375,-0.55029296875,-0.4669952392578125
1774473191869206000,5.4592060546875,-0.4526214599609375,-0.5363922119140625,-0.4576568603515625
1774473191879234000,5.469234130859375,-0.4162445068359375,-0.4839935302734375,-0.4038543701171875
1774473191889262000,5.479261962890625,-0.4210357666015625,-0.5195159912109375,-0.419342041015625
1774473191899290000,5.4892900390625,-0.478729248046875,-0.5324859619140625,-0.4370574951171875
1774473191909318000,5.49931787109375,-0.46978759765625,-0.5468597412109375,-0.491241455078125
1774473191919346200,5.50934619140625,-0.496307373046875,-0.562103271484375,-0.5709991455078125
1774473191929374000,5.5193740234375,-0.54132080078125,-0.48577880859375,-0.656707763671875
1774473191939403000,5.529403076171875,-0.4622039794921875,-0.458221435546875,-0.7711029052734375
1774473191949431000,5.53943115234375,-0.3969573974609375,-0.5208892822265625,-0.9103851318359375
1774473191959459000,5.549458984375,-0.2664031982421875,-0.4475555419921875,-1.00921630859375
1774473191969486800,5.55948681640625,-0.200225830078125,-0.3762969970703125,-1.110565185546875
1774473191979515100,5.56951513671875,-0.214111328125,-0.3387451171875,-1.14703369140625
1774473191989543000,5.57954296875,-0.1860198974609375,-0.2642059326171875,-1.158966064453125
1774473191999571200,5.5895712890625,-0.197296142578125,-0.1615142822265625,-1.1632232666015625
1774473192009599000,5.599598876953125,-0.1667938232421875,-0.11065673828125,-1.1356201171875
1774473192019627000,5.609626953125,-0.1587982177734375,-0.076385498046875,-1.0974884033203125
1774473192029655000,5.619655029296875,-0.1787261962890625,-0.0583038330078125,-1.076202392578125
1774473192039683000,5.62968310546875,-0.1853485107421875,-0.0488433837890625,-1.057464599609375
1774473192049711000,5.639711181640625,-0.1883087158203125,-0.071624755859375,-0.9964447021484375
1774473192059739100,5.6497392578125,-0.2507781982421875,-0.0830841064453125,-0.9449462890625
1774473192069767000,5.659766845703125,-0.324462890625,-0.1013641357421875,-0.9295196533203125
1774473192079795200,5.669795166015625,-0.308746337890625,-0.1210479736328125,-0.982391357421875
1774473192089823000,5.679822998046875,-0.31011962890625,-0.211883544921875,-1.0268096923828125
1774473192099852000,5.68985205078125,-0.3120574951171875,-0.3255157470703125,-1.0052947998046875
1774473192109880000,5.699880126953125,-0.2615509033203125,-0.365447998046875,-0.9993896484375
1774473192119908000,5.709908203125,-0.2213134765625,-0.373321533203125,-0.9099273681640625
1774473192129936000,5.719935791015625,-0.1059722900390625,-0.30755615234375,-0.83367919921875
1774473192139964200,5.729964111328125,0.0855560302734375,-0.35552978515625,-0.8748321533203125
1774473192149992000,5.739991943359375,0.178436279296875,-0.3000335693359375,-0.901031494140625
1774473192160020200,5.750020263671875,0.2014312744140625,-0.1563873291015625,-0.9427337646484375
1774473192170048000,5.760048095703125,0.146514892578125,-0.07513427734375,-0.902191162109375
1774473192180076000,5.770075927734375,0.0901031494140625,-0.01300048828125,-0.9005889892578125
1774473192190104000,5.78010400390625,-0.0301055908203125,0.023193359375,-0.951751708984375
1774473192200132000,5.790132080078125,-0.2158203125,0.0267333984375,-0.9900970458984375
1774473192210160000,5.80016015625,-0.386199951171875,0.01666259765625,-1.04425048828125
1774473192220188200,5.810188232421875,-0.381256103515625,0.015625,-1.151336669921875
1774473192230217000,5.820217041015625,-0.30535888671875,0.0687713623046875,-1.131072998046875
1774473192240245000,5.830244873046875,-0.10528564453125,0.082183837890625,-1.089599609375
1774473192250273000,5.84027294921875,0.0275421142578125,0.0348358154296875,-1.1562347412109375
1774473192260301000,5.850301025390625,-0.1041412353515625,0.0535125732421875,-1.1351776123046875
1774473192270329000,5.8603291015625,-0.280731201171875,-0.05029296875,-1.074432373046875
1774473192280357000,5.870357177734375,-0.412933349609375,-0.1878662109375,-1.0803375244140625
1774473192290385000,5.880385009765625,-0.4583282470703125,-0.2202301025390625,-1.0689849853515625
1774473192300413200,5.8904130859375,-0.461700439453125,-0.1929168701171875,-1.0233306884765625
1774473192310441000,5.90044091796875,-0.4492645263671875,-0.1596832275390625,-1.0002899169921875
1774473192320469200,5.91046923828125,-0.421875,-0.185150146484375,-1.0202484130859375
1774473192330497000,5.9204970703125,-0.3856658935546875,-0.19586181640625,-1.0913848876953125
1774473192340525000,5.930525146484375,-0.3956298828125,-0.14349365234375,-1.057159423828125
1774473192350553000,5.940552978515625,-0.3099517822265625,-0.0282135009765625,-1.00689697265625
1774473192360580900,5.950580810546875,-0.4196014404296875,0.058624267578125,-0.915008544921875
1774473192370610000,5.96060986328125,-0.592498779296875,-0.0169219970703125,-0.83013916015625
1774473192380638200,5.97063818359375,-0.738525390625,-0.15570068359375,-0.8166351318359375
1774473192390666000,5.980666015625,-0.74346923828125,-0.232940673828125,-0.7696533203125
1774473192400694000,5.990694091796875,-0.704986572265625,-0.2232818603515625,-0.76318359375
1774473192410722000,6.00072216796875,-0.71209716796875,-0.16729736328125,-0.7631378173828125
1774473192420750000,6.01075,-0.62286376953125,-0.04705810546875,-0.71435546875
1774473192430778000,6.020778076171875,-0.5502471923828125,0.08612060546875,-0.625274658203125
1774473192440806100,6.03080615234375,-0.5169219970703125,0.1336212158203125,-0.5712127685546875
1774473192450834000,6.040833984375,-0.518218994140625,0.1863555908203125,-0.5531463623046875
1774473192460862000,6.050862060546875,-0.572418212890625,0.250885009765625,-0.5899810791015625
1774473192470890000,6.060889892578125,-0.6127166748046875,0.2446136474609375,-0.686431884765625
1774473192480918000,6.07091796875,-0.5549774169921875,0.15704345703125,-0.748138427734375
1774473192490946000,6.080946044921875,-0.529510498046875,0.032501220703125,-0.85302734375
1774473192500975000,6.09097509765625,-0.47357177734375,-0.068450927734375,-1.0021514892578125
1774473192511003100,6.101003173828125,-0.3209381103515625,-0.0756683349609375,-1.030487060546875
1774473192521031200,6.11103125,-0.183868408203125,-0.0207366943359375,-0.9775238037109375
1774473192531059000,6.121058837890625,-0.071441650390625,0.056640625,-0.9146270751953125
1774473192541087200,6.131087158203125,-0.038604736328125,0.1071319580078125,-0.8917999267578125
1774473192551115000,6.141114990234375,-0.11767578125,0.18194580078125,-0.8828887939453125
1774473192561143000,6.15114306640625,-0.2936248779296875,0.2144622802734375,-0.93701171875
1774473192571171000,6.161171142578125,-0.543243408203125,0.17694091796875,-1.024993896484375
1774473192581198800,6.17119873046875,-0.7625885009765625,0.237396240234375,-1.03509521484375
1774473192591227100,6.18122705078125,-0.90509033203125,0.294952392578125,-1.052337646484375
1774473192601255000,6.1912548828125,-0.8834228515625,0.2047271728515625,-1.08380126953125
1774473192611283000,6.201282958984375,-0.7216796875,0.110198974609375,-1.183624267578125
1774473192621311000,6.21131103515625,-0.5470428466796875,0.1137542724609375,-1.220947265625
1774473192631339000,6.221339111328125,-0.4345855712890625,0.090423583984375,-1.2082977294921875
1774473192641368000,6.2313681640625,-0.3648834228515625,0.0802154541015625,-1.1903076171875
1774473192651396000,6.24139599609375,-0.322174072265625,0.0349273681640625,-1.1541748046875
1774473192661423900,6.251423828125,-0.3037872314453125,-0.025177001953125,-1.09039306640625
1774473192671452200,6.2614521484375,-0.32708740234375,-0.1149444580078125,-1.10858154296875
1774473192681480000,6.27147998046875,-0.319091796875,-0.2865447998046875,-1.191558837890625
1774473192691508000,6.281508056640625,-0.2962493896484375,-0.344757080078125,-1.150970458984375
1774473192701536000,6.291535888671875,-0.3093109130859375,-0.2796478271484375,-1.184112548828125
1774473192711564000,6.30156396484375,-0.321380615234375,-0.292572021484375,-1.1365966796875
1774473192721592000,6.311592041015625,-0.3478851318359375,-0.2887420654296875,-0.942535400390625
1774473192731620000,6.3216201171875,-0.3938446044921875,-0.296356201171875,-0.7953338623046875
1774473192741648000,6.33164794921875,-0.4628753662109375,-0.33404541015625,-0.7078704833984375
1774473192751676200,6.34167626953125,-0.5044708251953125,-0.3078460693359375,-0.5970306396484375
1774473192761704000,6.351703857421875,-0.5010528564453125,-0.241302490234375,-0.4639129638671875
1774473192771733000,6.36173291015625,-0.5095367431640625,-0.215118408203125,-0.3723907470703125
1774473192781761000,6.371760986328125,-0.5131378173828125,-0.2991943359375,-0.4307403564453125
1774473192791789000,6.3817890625,-0.4231109619140625,-0.352783203125,-0.422271728515625
1774473192801816800,6.39181689453125,-0.3400421142578125,-0.391845703125,-0.43731689453125
1774473192811845000,6.40184521484375,-0.2808837890625,-0.4210968017578125,-0.380706787109375
1774473192821873000,6.411872802734375,-0.2352142333984375,-0.42364501953125,-0.3018646240234375
1774473192831901200,6.421901123046875,-0.29278564453125,-0.5331268310546875,-0.270233154296875
1774473192841929000,6.431928955078125,-0.3056793212890625,-0.70904541015625,-0.299530029296875
1774473192851957000,6.44195703125,-0.30755615234375,-0.7747344970703125,-0.6734619140625
1774473192861985000,6.451985107421875,-0.21734619140625,-0.7166748046875,-0.8524932861328125
1774473192872013000,6.462012939453125,-0.1159820556640625,-0.5211029052734375,-0.7482452392578125
1774473192882041000,6.472041015625,-0.1039276123046875,-0.4408111572265625,-0.3822174072265625
1774473192892069000,6.482069091796875,-0.172576904296875,-0.5929107666015625,-0.69097900390625
1774473192902097000,6.492096923828125,-0.251007080078125,-0.7862091064453125,-1.16973876953125
1774473192912126000,6.5021259765625,-0.3540802001953125,-0.8056488037109375,-1.338348388671875
1774473192922154000,6.512154052734375,-0.39666748046875,-0.5627593994140625,-1.108673095703125
1774473192932182000,6.52218212890625,-0.3557281494140625,-0.235687255859375,-0.83929443359375
1774473192942210000,6.5322099609375,-0.3491973876953125,-0.10321044921875,-0.9997406005859375
1774473192952238000,6.542238037109375,-0.3672027587890625,-0.03900146484375,-1.0251007080078125
1774473192962265900,6.552265869140625,-0.377044677734375,-0.0742950439453125,-0.927886962890625
1774473192972294100,6.562294189453125,-0.48980712890625,-0.04888916015625,-0.7829742431640625
1774473192982322000,6.572322021484375,-0.517730712890625,-0.033203125,-0.74334716796875
1774473192992350200,6.58235009765625,-0.5767364501953125,-0.1667633056640625,-0.7256011962890625
1774473193002378000,6.5923779296875,-0.6796417236328125,-0.2935943603515625,-0.7122955322265625
1774473193012406000,6.602406005859375,-0.7185516357421875,-0.4474029541015625,-0.82769775390625
1774473193022434000,6.61243408203125,-0.72723388671875,-0.54803466796875,-0.9629058837890625
1774473193032462000,6.622462158203125,-0.6948089599609375,-0.574005126953125,-0.9574432373046875
1774473193042490000,6.632489990234375,-0.6367950439453125,-0.6009979248046875,-0.8613739013671875
1774473193052518100,6.64251806640625,-0.5843353271484375,-0.5614013671875,-0.7435455322265625
1774473193062547000,6.652546875,-0.515716552734375,-0.5735931396484375,-0.7023468017578125
1774473193072575000,6.662574951171875,-0.42724609375,-0.595672607421875,-0.7091064453125
1774473193082603000,6.67260302734375,-0.3941497802734375,-0.6467132568359375,-0.840972900390625
1774473193092631000,6.682631103515625,-0.3521575927734375,-0.6159820556640625,-0.949127197265625
1774473193102659000,6.6926591796875,-0.4056854248046875,-0.55511474609375,-0.623870849609375
1774473193112687000,6.70268701171875,-0.47186279296875,-0.69415283203125,-0.518310546875
1774473193122715000,6.71271484375,-0.3500518798828125,-0.7853851318359375,-0.622039794921875
1774473193132743200,6.7227431640625,-0.2237701416015625,-0.759796142578125,-0.66424560546875
1774473193142771000,6.73277099609375,-0.0692291259765625,-0.7163238525390625,-0.690155029296875
1774473193152799200,6.74279931640625,0.0318756103515625,-0.67938232421875,-0.6843109130859375
1774473193162827000,6.752826904296875,0.0496063232421875,-0.6940155029296875,-0.6871795654296875
1774473193172855000,6.76285498046875,0.072052001953125,-0.7756500244140625,-0.7249755859375
1774473193182883000,6.772883056640625,0.0658721923828125,-0.8318939208984375,-0.7897186279296875
1774473193192911000,6.7829111328125,0.03082275390625,-0.8760528564453125,-0.8931121826171875
1774473193202940000,6.79293994140625,0.0148773193359375,-0.8814849853515625,-1.017059326171875
1774473193212968200,6.80296826171875,0.04327392578125,-0.686798095703125,-0.9727020263671875
1774473193222996000,6.812995849609375,0.0474090576171875,-0.414276123046875,-0.8478546142578125
1774473193233024000,6.82302392578125,0.014404296875,-0.284027099609375,-0.8380889892578125
1774473193243052000,6.833052001953125,-0.006317138671875,-0.26507568359375,-0.889190673828125
1774473193253080000,6.843080078125,-0.1032562255859375,-0.3125762939453125,-0.995758056640625
1774473193263108000,6.853108154296875,-0.2451324462890625,-0.2883758544921875,-0.92254638671875
1774473193273136000,6.86313623046875,-0.383392333984375,-0.2393035888671875,-0.7491455078125
1774473193283164000,6.873163818359375,-0.450042724609375,-0.2141265869140625,-0.6317901611328125
1774473193293192200,6.883192138671875,-0.4059600830078125,-0.18109130859375,-0.6424407958984375
1774473193303220000,6.893219970703125,-0.3156890869140625,-0.22808837890625,-0.5521697998046875
1774473193313248000,6.903248046875,-0.29986572265625,-0.3697509765625,-0.6250762939453125
1774473193323276000,6.913276123046875,-0.282745361328125,-0.4949493408203125,-0.63934326171875
1774473193333303800,6.9233037109375,-0.2935333251953125,-0.5404510498046875,-0.493072509765625
1774473193343333000,6.9333330078125,-0.3319549560546875,-0.5954437255859375,-0.4488677978515625
1774473193353361200,6.943361083984375,-0.3829498291015625,-0.70159912109375,-0.4207611083984375
1774473193363389000,6.953388916015625,-0.483184814453125,-0.8529052734375,-0.356842041015625
1774473193373417200,6.963417236328125,-0.598602294921875,-1.007720947265625,-0.282440185546875
1774473193383445000,6.973445068359375,-0.66815185546875,-1.134307861328125,-0.241241455078125
1774473193393473000,6.98347314453125,-0.69317626953125,-1.2008819580078125,-0.31500244140625
1774473193403501000,6.9935009765625,-0.69757080078125,-1.1883544921875,-0.471649169921875
1774473193413528800,7.00352880859375,-0.641998291015625,-1.0942230224609375,-0.5525054931640625
1774473193423557000,7.01355712890625,-0.655853271484375,-0.9672698974609375,-0.5577850341796875
1774473193433585000,7.0235849609375,-0.63934326171875,-0.8316802978515625,-0.592041015625
1774473193443613000,7.033613037109375,-0.573211669921875,-0.670318603515625,-0.7012939453125
1774473193453641000,7.043640869140625,-0.5571746826171875,-0.4796905517578125,-0.605712890625
1774473193463669000,7.0536689453125,-0.5639190673828125,-0.312530517578125,-0.6233367919921875
1774473193473697000,7.063697021484375,-0.77752685546875,-0.045989990234375,-1.1706390380859375
1774473193483726000,7.07372607421875,-0.921844482421875,-0.4164886474609375,-1.14654541015625
1774473193493754000,7.083754150390625,-0.61004638671875,-0.24554443359375,-0.7290496826171875
1774473193503782100,7.0937822265625,-0.384521484375,-0.2391204833984375,-1.0214691162109375
1774473193513810000,7.103809814453125,-0.32049560546875,-0.3179779052734375,-1.1301116943359375
1774473193523838000,7.113837890625,-0.2302398681640625,-0.258758544921875,-1.121734619140625
1774473193533866000,7.123865966796875,-0.220306396484375,-0.3390960693359375,-1.066650390625
1774473193543894000,7.13389404296875,-0.3004302978515625,-0.4355316162109375,-1.0771026611328125
1774473193553922000,7.143922119140625,-0.294769287109375,-0.5466461181640625,-1.0587005615234375
1774473193563950000,7.1539501953125,-0.2376708984375,-0.5661163330078125,-1.0469207763671875
1774473193573977900,7.163977783203125,-0.1869354248046875,-0.5220489501953125,-1.019927978515625
1774473193584006100,7.174006103515625,-0.2464141845703125,-0.5376739501953125,-0.9420928955078125
1774473193594034000,7.184033935546875,-0.4073028564453125,-0.46405029296875,-0.848419189453125
1774473193604062200,7.194062255859375,-0.5211944580078125,-0.2064666748046875,-0.739990234375
1774473193614090000,7.204090087890625,-0.6056365966796875,0.0590362548828125,-0.4813385009765625
1774473193624118000,7.214117919921875,-0.7935638427734375,0.1477203369140625,-0.3737945556640625
1774473193634146800,7.224146728515625,-0.9534912109375,0.0539398193359375,-0.4545745849609375
1774473193644175000,7.234175048828125,-0.8645782470703125,-0.0902252197265625,-0.5599212646484375
1774473193654203000,7.244202880859375,-0.7774505615234375,-0.091217041015625,-0.5684661865234375
1774473193664231200,7.254231201171875,-0.6505279541015625,0.0264892578125,-0.5465087890625
1774473193674259000,7.264259033203125,-0.462066650390625,0.05609130859375,-0.5359039306640625
1774473193684287000,7.274286865234375,-0.3376617431640625,-0.049346923828125,-0.616302490234375
1774473193694315000,7.28431494140625,-0.215911865234375,-0.306243896484375,-0.662567138671875
1774473193704343000,7.294343017578125,-0.21075439453125,-0.7186126708984375,-0.8508758544921875
1774473193714371000,7.30437109375,-0.19293212890625,-1.051422119140625,-1.0571136474609375
1774473193724399000,7.314399169921875,-0.169281005859375,-1.168609619140625,-0.9869537353515625
1774473193734427000,7.324427001953125,-0.1802215576171875,-1.065338134765625,-0.857635498046875
1774473193744455200,7.334455078125,-0.1920166015625,-0.922760009765625,-0.7127532958984375
1774473193754483000,7.34448291015625,-0.2438201904296875,-0.7404327392578125,-0.6238250732421875
1774473193764511200,7.35451123046875,-0.196258544921875,-0.5897369384765625,-0.61505126953125
1774473193774540000,7.3645400390625,-0.2081451416015625,-0.5225982666015625,-0.702667236328125
1774473193784568000,7.374568115234375,-0.2458038330078125,-0.477996826171875,-0.74407958984375
1774473193794595800,7.384595947265625,-0.31732177734375,-0.4199981689453125,-0.7847442626953125
1774473193804624100,7.3946240234375,-0.3787078857421875,-0.34259033203125,-0.8782501220703125
1774473193814652000,7.40465185546875,-0.5199432373046875,-0.380340576171875,-0.9190521240234375
1774473193824680200,7.41468017578125,-0.6398773193359375,-0.386871337890625,-0.763824462890625
1774473193834708000,7.4247080078125,-0.589324951171875,-0.283355712890625,-0.7147674560546875
1774473193844736000,7.434736083984375,-0.62554931640625,-0.2853240966796875,-0.8361358642578125
1774473193854764000,7.444763916015625,-0.6385040283203125,-0.2950897216796875,-0.8541412353515625
1774473193864792000,7.4547919921875,-0.6447601318359375,-0.3316650390625,-0.8280792236328125
1774473193874820000,7.464820068359375,-0.6710052490234375,-0.3642578125,-0.8271331787109375
1774473193884848000,7.47484814453125,-0.63385009765625,-0.3279266357421875,-0.7925872802734375
1774473193894876000,7.4848759765625,-0.5797119140625,-0.2661895751953125,-0.7609710693359375
1774473193904904200,7.494904296875,-0.5601959228515625,-0.228057861328125,-0.7692413330078125
1774473193914932000,7.504931884765625,-0.5986175537109375,-0.226959228515625,-0.809844970703125
1774473193924961000,7.5149609375,-0.635040283203125,-0.309326171875,-0.76226806640625
1774473193934989000,7.524989013671875,-0.6441497802734375,-0.3507080078125,-0.7888946533203125
1774473193945017000,7.53501708984375,-0.61224365234375,-0.3317108154296875,-0.8235626220703125
1774473193955044900,7.545044921875,-0.5852203369140625,-0.3382415771484375,-0.8363189697265625
1774473193965073200,7.5550732421875,-0.518890380859375,-0.357269287109375,-0.839691162109375
1774473193975101000,7.565100830078125,-0.4397430419921875,-0.386077880859375,-0.8375701904296875
1774473193985129200,7.575129150390625,-0.3653106689453125,-0.3899993896484375,-0.8641357421875
1774473193995157000,7.585156982421875,-0.3489990234375,-0.3476409912109375,-0.848358154296875
1774473194005185000,7.59518505859375,-0.4022064208984375,-0.309814453125,-0.85546875
1774473194015213000,7.605213134765625,-0.459075927734375,-0.297515869140625,-0.8712615966796875
1774473194025241000,7.615240966796875,-0.538909912109375,-0.3013916015625,-0.879547119140625
1774473194035269000,7.62526904296875,-0.609771728515625,-0.274322509765625,-0.872100830078125
1774473194045297200,7.635297119140625,-0.635284423828125,-0.26373291015625,-0.8150634765625
1774473194055325000,7.645324951171875,-0.6279754638671875,-0.3199310302734375,-0.8005218505859375
1774473194065353200,7.655353271484375,-0.5727996826171875,-0.3189239501953125,-0.7916412353515625
1774473194075382000,7.665382080078125,-0.5418243408203125,-0.3404693603515625,-0.754638671875
1774473194085410000,7.67541015625,-0.4870452880859375,-0.4033660888671875,-0.730072021484375
1774473194095438000,7.68543798828125,-0.4240875244140625,-0.4918365478515625,-0.7444305419921875
1774473194105466000,7.695466064453125,-0.36065673828125,-0.4540863037109375,-0.7794036865234375
1774473194115494000,7.705493896484375,-0.326629638671875,-0.358917236328125,-0.69049072265625
1774473194125522200,7.715522216796875,-0.332977294921875,-0.28033447265625,-0.644073486328125
1774473194135550000,7.725550048828125,-0.3570556640625,-0.21478271484375,-0.6246490478515625
1774473194145578200,7.735578125,-0.4149932861328125,-0.181976318359375,-0.6575775146484375
1774473194155606000,7.74560595703125,-0.450042724609375,-0.1983795166015625,-0.6670074462890625
1774473194165634000,7.755634033203125,-0.51934814453125,-0.1973876953125,-0.63665771484375
1774473194175662000,7.765662109375,-0.5377044677734375,-0.2588958740234375,-0.7274017333984375
1774473194185689900,7.77568994140625,-0.5436553955078125,-0.232177734375,-0.75958251953125
1774473194195718100,7.78571826171875,-0.5488739013671875,-0.18292236328125,-0.7689208984375
1774473194205746000,7.795745849609375,-0.55059814453125,-0.142120361328125,-0.8036041259765625
1774473194215774000,7.80577392578125,-0.5067138671875,-0.163818359375,-0.839813232421875
1774473194225803300,7.81580322265625,-0.34991455078125,-0.233154296875,-0.890045166015625
1774473194235831000,7.8258310546875,-0.3214874267578125,-0.283966064453125,-0.8979949951171875
1774473194245859000,7.835859130859375,-0.3541412353515625,-0.3631744384765625,-1.032623291015625
1774473194255887000,7.84588720703125,-0.353179931640625,-0.452392578125,-1.2578887939453125
1774473194265915100,7.8559150390625,-0.4573822021484375,-0.49072265625,-1.4026031494140625
1774473194275943200,7.865943115234375,-0.6755523681640625,-0.4549102783203125,-1.461181640625
1774473194285971000,7.875970947265625,-0.909423828125,-0.4288177490234375,-1.3887481689453125
1774473194295999000,7.8859990234375,-0.8536224365234375,-0.189178466796875,-0.90374755859375
1774473194306027000,7.896027099609375,-0.800567626953125,0.0006866455078125,-0.57843017578125
1774473194316055000,7.906054931640625,-0.6904754638671875,0.1631011962890625,-0.4732666015625
1774473194326083000,7.9160830078125,-0.1971435546875,0.258453369140625,-0.3521728515625
1774473194336111000,7.926111083984375,0.2387542724609375,0.018829345703125,-0.4784698486328125
1774473194346139000,7.936138916015625,0.4655609130859375,-0.3359375,-0.8907623291015625
1774473194356166100,7.946166259765625,0.6726837158203125,-0.5240325927734375,-1.05352783203125
1774473194366195200,7.9561953125,0.5257720947265625,-0.4170684814453125,-0.982391357421875
1774473194376223000,7.966222900390625,0.2958221435546875,-0.2465667724609375,-0.94830322265625
1774473194386251300,7.976251220703125,0.1585235595703125,-0.1229095458984375,-1.051361083984375
1774473194396279000,7.986279052734375,-0.3437347412109375,-0.1860809326171875,-1.2004852294921875
1774473194406307300,7.996307373046875,-0.7750091552734375,-0.359893798828125,-1.1414947509765625
1774473194416335000,8.006335205078125,-0.149688720703125,-0.2234954833984375,-1.010467529296875
1774473194426363100,8.016363037109375,-0.2769927978515625,-0.1432952880859375,-1.009033203125
1774473194436391200,8.02639111328125,-0.3709259033203125,0.0178985595703125,-1.0297698974609375
1774473194446419200,8.036419189453126,-0.316558837890625,0.1826171875,-1.0452423095703125
1774473194456447200,8.046447265625,-0.2685089111328125,0.0438995361328125,-1.080413818359375
1774473194466475300,8.056475341796874,-0.101318359375,-0.2012481689453125,-1.014251708984375
1774473194476503000,8.0665029296875,-0.0460052490234375,-0.330352783203125,-1.0277862548828125
1774473194486531300,8.07653125,-0.2119598388671875,-0.1572113037109375,-1.0276947021484375
1774473194496559000,8.08655908203125,-0.3075714111328125,-0.167022705078125,-1.1165771484375
1774473194506587400,8.09658740234375,-0.207855224609375,-0.3021697998046875,-1.1371307373046875
1774473194516616200,8.1066162109375,-0.37298583984375,-0.25653076171875,-1.07049560546875
1774473194526644200,8.116644287109375,-0.298736572265625,-0.15032958984375,-1.0926513671875
1774473194536672000,8.126672119140625,-0.314361572265625,0.0516815185546875,-1.1121978759765625
1774473194546700300,8.1367001953125,-0.40570068359375,0.0776214599609375,-1.03045654296875
1774473194556728000,8.14672802734375,-0.265045166015625,-0.0088348388671875,-1.0295257568359375
1774473194566756400,8.15675634765625,-0.09173583984375,-0.0485382080078125,-0.91375732421875
1774473194576784100,8.1667841796875,0.0117950439453125,0.01361083984375,-0.8724212646484375
1774473194586812200,8.176812255859375,-0.0279388427734375,0.0051727294921875,-0.902313232421875
1774473194596840200,8.186840087890625,-0.057769775390625,0.0449066162109375,-0.861541748046875
1774473194606868200,8.1968681640625,-0.1293792724609375,0.071075439453125,-0.8392181396484375
1774473194616896300,8.206896240234375,-0.2149658203125,-0.009765625,-0.8763427734375
1774473194626924300,8.21692431640625,-0.29718017578125,-0.1049041748046875,-0.907257080078125
1774473194636952000,8.2269521484375,-0.360992431640625,-0.16741943359375,-0.9495697021484375
1774473194646980000,8.23697998046875,-0.33258056640625,-0.169342041015625,-1.0180206298828125
1774473194657009200,8.247009033203126,-0.26702880859375,-0.0782470703125,-0.9442901611328125
1774473194667037200,8.257037109375,-0.1762847900390625,0.060272216796875,-0.8116302490234375
1774473194677065200,8.267065185546874,-0.1217803955078125,0.015350341796875,-0.8444976806640625
1774473194687093200,8.27709326171875,-0.182861328125,-0.0054168701171875,-0.8663177490234375
1774473194697121000,8.28712109375,-0.31756591796875,0.0980072021484375,-0.8534698486328125
1774473194707149300,8.2971494140625,-0.39483642578125,0.181671142578125,-0.8865966796875
1774473194717177000,8.307177001953125,-0.3455352783203125,0.189910888671875,-0.86383056640625
1774473194727205400,8.317205322265625,-0.3515472412109375,0.1286468505859375,-0.849853515625
1774473194737233200,8.327233154296875,-0.327484130859375,0.0322723388671875,-0.8391876220703125
1774473194747261000,8.337260986328126,-0.25848388671875,0.00299072265625,-0.7840728759765625
1774473194757289200,8.347289306640626,-0.2109375,0.06573486328125,-0.6738739013671875
1774473194767317000,8.35731689453125,-0.214569091796875,0.0747528076171875,-0.5512542724609375
1774473194777345300,8.36734521484375,-0.219573974609375,0.007232666015625,-0.4984283447265625
1774473194787374300,8.377374267578125,-0.1902008056640625,-0.0490264892578125,-0.56121826171875
1774473194797402000,8.387402099609375,-0.1349029541015625,-0.0506439208984375,-0.6212921142578125
1774473194807430100,8.39743017578125,0.0309295654296875,0.1065521240234375,-0.64996337890625
1774473194817458200,8.407458251953125,0.246490478515625,0.2393341064453125,-0.7485198974609375
1774473194827486200,8.417486328125,0.3252716064453125,0.2321929931640625,-1.041717529296875
1774473194837514200,8.42751416015625,0.1896209716796875,0.195831298828125,-1.3137359619140625
1774473194847542000,8.4375419921875,-0.1403961181640625,0.2316741943359375,-1.4888153076171875
1774473194857570000,8.447570068359376,-0.43426513671875,0.27081298828125,-1.441497802734375
1774473194867598000,8.45759814453125,-0.3951873779296875,0.2588958740234375,-1.1699371337890625
1774473194877626000,8.467626220703124,-0.3932342529296875,0.13555908203125,-1.09552001953125
1774473194887654100,8.477654052734374,-0.27899169921875,0.1493072509765625,-1.33245849609375
1774473194897682200,8.48768212890625,-0.0751953125,0.2351837158203125,-1.244171142578125
1774473194907710000,8.4977099609375,0.072509765625,0.2512664794921875,-1.1602020263671875
1774473194917738200,8.50773828125,0.2673797607421875,0.231170654296875,-1.0838470458984375
1774473194927767300,8.517767333984375,0.138214111328125,0.4729461669921875,-0.963134765625
1774473194937795000,8.527795166015625,-0.113311767578125,0.287750244140625,-0.6107330322265625
1774473194947823000,8.537822998046876,-0.456939697265625,0.1134185791015625,-1.135040283203125
1774473194957851100,8.54785107421875,-0.2284698486328125,0.37774658203125,-1.2479400634765625
1774473194967879200,8.557879150390624,-0.0124359130859375,0.3602294921875,-1.15087890625
1774473194977907200,8.5679072265625,0.06732177734375,0.246429443359375,-1.130584716796875
1774473194987935000,8.57793505859375,0.121429443359375,0.2086029052734375,-1.0485992431640625
1774473194997963300,8.58796337890625,0.1579132080078125,0.2295989990234375,-0.846099853515625
1774473195007991000,8.597990966796875,0.1662750244140625,0.2541351318359375,-0.76568603515625
1774473195018019000,8.60801904296875,0.1348114013671875,0.0946807861328125,-0.9109039306640625
1774473195028047000,8.618047119140625,0.05035400390625,0.0108489990234375,-0.8809356689453125
1774473195038075100,8.6280751953125,-0.084075927734375,0.1889495849609375,-0.9535980224609375
1774473195048103200,8.638103271484376,-0.1190032958984375,0.308837890625,-1.0577545166015625
1774473195058132200,8.64813232421875,-0.12799072265625,0.3218841552734375,-1.0126495361328125
1774473195068160000,8.658159912109374,-0.1708831787109375,0.2415771484375,-1.013763427734375
1774473195078188300,8.668188232421874,-0.145660400390625,0.1540679931640625,-0.9903411865234375
1774473195088216000,8.678216064453125,-0.0820465087890625,0.0752716064453125,-0.923614501953125
1774473195098244000,8.688244140625,-0.0137176513671875,0.03118896484375,-0.86419677734375
1774473195108272000,8.698272216796875,0.082763671875,0.1137847900390625,-0.854217529296875
1774473195118300200,8.708300048828125,0.331695556640625,0.242919921875,-0.843109130859375
1774473195128328200,8.718328125,0.2100067138671875,0.273712158203125,-0.930755615234375
1774473195138356200,8.728356201171875,0.03924560546875,0.2904815673828125,-0.9911651611328125
1774473195148384000,8.738384033203126,0.042877197265625,0.2739715576171875,-1.0095672607421875
1774473195158412300,8.748412353515626,0.01873779296875,0.260955810546875,-1.055755615234375
1774473195168440000,8.758440185546876,-0.1033782958984375,0.1889801025390625,-1.018341064453125
1774473195178468400,8.76846826171875,-0.057525634765625,0.115234375,-0.925537109375
1774473195188497200,8.7784970703125,0.175537109375,0.148712158203125,-0.7917022705078125
1774473195198525200,8.788525146484375,0.3687896728515625,0.2183380126953125,-0.7263641357421875
1774473195208553000,8.798552978515625,0.2390289306640625,0.2166290283203125,-0.9099578857421875
1774473195218581200,8.808581298828125,0.0550537109375,0.153656005859375,-1.1217041015625
1774473195228609000,8.818609130859375,-0.0104827880859375,0.08270263671875,-1.28863525390625
1774473195238637300,8.82863720703125,-0.1647491455078125,0.039764404296875,-1.4500579833984375
1774473195248665000,8.8386650390625,-0.1429595947265625,0.03900146484375,-1.4567413330078125
1774473195258693000,8.848693115234376,0.052398681640625,0.0243072509765625,-1.2117919921875
1774473195268721200,8.85872119140625,0.26434326171875,-0.069854736328125,-1.096099853515625
1774473195278749200,8.868749267578124,0.293121337890625,-0.119659423828125,-0.967926025390625
1774473195288777200,8.878777099609374,0.28363037109375,-0.1007537841796875,-0.930694580078125
1774473195298805200,8.88880517578125,0.1721649169921875,-0.112030029296875,-0.970977783203125
1774473195308833000,8.8988330078125,-0.2269744873046875,0.0010223388671875,-0.8690948486328125
1774473195318862000,8.908862060546875,-0.205413818359375,0.122222900390625,-0.6436767578125
1774473195328890000,8.91889013671875,-0.045440673828125,0.0125274658203125,-0.6774139404296875
1774473195338918100,8.928918212890625,0.083465576171875,-0.067901611328125,-0.8909759521484375
1774473195348946200,8.9389462890625,0.07421875,0.0850982666015625,-0.8630828857421875
1774473195358978300,8.948978271484375,0.1532745361328125,0.05072021484375,-0.959686279296875
1774473195369006000,8.959006103515625,0.171234130859375,0.0619354248046875,-0.955780029296875
1774473195379034000,8.9690341796875,0.042633056640625,0.1149139404296875,-0.991119384765625
1774473195389062100,8.979062255859375,-0.26409912109375,0.231781005859375,-1.1106414794921875
1774473195399090200,8.989090087890625,-0.235931396484375,0.121429443359375,-1.2026214599609375
1774473195409118200,8.9991181640625,-0.0441741943359375,0.1063385009765625,-1.119110107421875
1774473195419146000,9.00914599609375,0.32574462890625,0.006866455078125,-1.0677337646484375
1774473195429174300,9.01917431640625,0.126129150390625,0.111785888671875,-0.6220855712890625
1774473195439202000,9.0292021484375,-0.444549560546875,0.0910186767578125,-0.59881591796875
1774473195449230000,9.03922998046875,-0.3637542724609375,0.0992431640625,-0.9757080078125
1774473195459259400,9.04925927734375,-0.0592803955078125,0.2471160888671875,-0.9466094970703125
1774473195469287200,9.059287109375,0.2028045654296875,0.258819580078125,-1.02532958984375
1774473195479315000,9.06931494140625,0.146026611328125,0.2420806884765625,-1.1204681396484375
1774473195489343200,9.07934326171875,-0.15802001953125,0.1938018798828125,-1.16375732421875
1774473195499371000,9.08937109375,-0.313568115234375,0.15850830078125,-1.1306304931640625
1774473195509399300,9.0993994140625,-0.290252685546875,0.175750732421875,-1.090087890625
1774473195519427000,9.109427001953126,-0.280517578125,0.1791534423828125,-1.0799560546875
1774473195529455000,9.119455078125,-0.2536773681640625,0.014495849609375,-1.08929443359375
1774473195539483100,9.129483154296874,0.1002960205078125,0.1089019775390625,-0.932952880859375
1774473195549511200,9.13951123046875,0.268341064453125,0.144134521484375,-0.866729736328125
1774473195559539200,9.149539306640625,0.1859588623046875,0.109527587890625,-0.887542724609375
1774473195569567200,9.159567138671875,0.17376708984375,0.15814208984375,-0.854522705078125
1774473195579595000,9.169594970703125,0.0797576904296875,0.1221771240234375,-0.8764190673828125
1774473195589624000,9.1796240234375,-0.0406341552734375,0.1304168701171875,-0.9071044921875
1774473195599652000,9.189652099609376,-0.137939453125,0.1452484130859375,-0.93341064453125
1774473195609680100,9.19968017578125,-0.01910400390625,0.1625213623046875,-0.8960113525390625
1774473195619708200,9.209708251953124,0.1180877685546875,0.22503662109375,-0.8826751708984375
1774473195629736200,9.219736083984374,0.11669921875,0.30816650390625,-0.7892303466796875
1774473195639764000,9.229763916015624,0.1775970458984375,0.154083251953125,-1.2122650146484375
1774473195649792300,9.239792236328125,-0.1248016357421875,0.043609619140625,-1.2060394287109375
1774473195659820000,9.249820068359375,-0.0447998046875,0.104400634765625,-1.0151824951171875
1774473195669848300,9.259848388671875,0.04156494140625,0.0452117919921875,-1.01019287109375
1774473195679876000,9.2698759765625,0.045745849609375,0.0558319091796875,-0.9981842041015625
1774473195689904000,9.279904052734375,0.0802001953125,0.1210784912109375,-1.0393829345703125
1774473195699932200,9.28993212890625,0.1927642822265625,0.062957763671875,-1.07958984375
1774473195709960200,9.299960205078126,0.2004547119140625,0.08428955078125,-0.9722137451171875
1774473195719989000,9.309989013671874,0.2244415283203125,0.1333770751953125,-1.0386505126953125
1774473195730017300,9.320017333984374,0.1070556640625,0.2065582275390625,-1.1665496826171875
1774473195740045000,9.330045166015625,-0.07586669921875,0.2021484375,-1.286834716796875
1774473195750073000,9.340072998046875,-0.19061279296875,0.1790618896484375,-1.2688446044921875
1774473195760101000,9.35010107421875,-0.1246795654296875,0.114990234375,-1.159942626953125
1774473195770129200,9.360129150390625,-0.1075897216796875,0.1084747314453125,-0.995330810546875
1774473195780157200,9.3701572265625,-0.0457916259765625,0.1133270263671875,-0.9045867919921875
1774473195790185200,9.380185302734375,0.046051025390625,0.139678955078125,-0.840087890625
1774473195800213000,9.390212890625,0.1916046142578125,0.082916259765625,-0.87896728515625
1774473195810241300,9.4002412109375,0.235931396484375,0.0010528564453125,-0.9216461181640625
1774473195820269000,9.41026904296875,0.3031158447265625,-0.006011962890625,-0.886627197265625
1774473195830297300,9.42029736328125,0.1569671630859375,0.0872802734375,-0.878143310546875
1774473195840325000,9.4303251953125,0.0391845703125,0.1674041748046875,-0.8983001708984375
1774473195850353200,9.440353271484375,0.030487060546875,0.1602020263671875,-0.9371490478515625
1774473195860382200,9.45038232421875,0.0099639892578125,0.194580078125,-0.9473419189453125
1774473195870410200,9.46041015625,0.0340118408203125,0.20318603515625,-0.9788970947265625
1774473195880438000,9.47043798828125,0.0237579345703125,0.261688232421875,-0.9723663330078125
1774473195890466300,9.48046630859375,0.1448516845703125,0.3495330810546875,-0.929718017578125
1774473195900494000,9.490494140625,0.1912384033203125,0.3395538330078125,-0.8872528076171875
1774473195910522000,9.500522216796876,0.13714599609375,0.3694000244140625,-0.8582000732421875
1774473195920550100,9.510550048828126,0.132293701171875,0.248504638671875,-0.892059326171875
1774473195930578200,9.520578125,0.0012359619140625,0.2505035400390625,-0.90570068359375
1774473195940606200,9.530606201171874,0.0193023681640625,0.1839141845703125,-1.0035552978515625
1774473195950634200,9.54063427734375,-0.0126953125,0.0735015869140625,-1.0886077880859375
1774473195960662000,9.550662109375,-0.075958251953125,0.002471923828125,-1.10418701171875
1774473195970690300,9.560690185546875,-0.0027313232421875,0.0638885498046875,-0.98944091796875
1774473195980718000,9.570718017578125,0.0947265625,0.1233978271484375,-0.84222412109375
1774473195990747100,9.5807470703125,0.072845458984375,0.085540771484375,-0.849029541015625
1774473196000775200,9.590775146484376,-0.0185089111328125,-0.0131683349609375,-0.93194580078125
1774473196010803200,9.60080322265625,0.011566162109375,-0.102142333984375,-0.98126220703125
1774473196020831200,9.610831298828124,0.0637359619140625,-0.1687469482421875,-1.0455322265625
1774473196030859300,9.620859375,0.048919677734375,-0.1421661376953125,-1.0781707763671875
1774473196040887000,9.630886962890624,0.144378662109375,-0.1245880126953125,-1.0413055419921875
1774473196050915300,9.640915283203125,0.09967041015625,-0.0870361328125,-1.0196075439453125
1774473196060943000,9.650943115234375,0.1801910400390625,-0.0299835205078125,-1.0810394287109375
1774473196070971100,9.66097119140625,0.1742401123046875,0.0333099365234375,-1.02923583984375
1774473196080999200,9.670999267578125,0.078277587890625,0.016693115234375,-1.01788330078125
1774473196091027200,9.681027099609375,0.1220703125,0.0375823974609375,-1.0156402587890625
1774473196101055200,9.69105517578125,0.2117462158203125,0.0757598876953125,-0.9797515869140625
1774473196111083300,9.701083251953126,0.2058258056640625,0.0517425537109375,-0.93084716796875
1774473196121111000,9.711111083984376,0.2038726806640625,0.038726806640625,-1.0040130615234375
1774473196131140400,9.721140380859374,0.155975341796875,0.0520477294921875,-1.0455169677734375
1774473196141168000,9.731168212890625,0.097503662109375,0.1107635498046875,-1.066192626953125
1774473196151196200,9.741196044921875,0.0513153076171875,0.113983154296875,-1.1039886474609375
1774473196161224200,9.75122412109375,-0.03173828125,0.0913848876953125,-1.110198974609375
1774473196171252200,9.761252197265625,0.0354766845703125,0.133209228515625,-0.987884521484375
1774473196181280300,9.7712802734375,0.1373748779296875,0.147247314453125,-0.8964080810546875
1774473196191308300,9.781308349609375,0.1090545654296875,0.1151885986328125,-0.937896728515625
1774473196201336000,9.791336181640625,0.0120697021484375,0.106689453125,-0.9534759521484375
1774473196211364400,9.8013642578125,0.0284881591796875,0.028778076171875,-1.0321044921875
1774473196221392100,9.81139208984375,0.122772216796875,0.0370635986328125,-1.07330322265625
1774473196231420200,9.821420166015624,0.01397705078125,0.0659637451171875,-1.0102996826171875
1774473196241448200,9.8314482421875,0.1151123046875,0.027862548828125,-0.991180419921875
1774473196251476000,9.84147607421875,0.0862579345703125,0.0218963623046875,-1.01019287109375
1774473196261504300,9.851504150390625,0.1690521240234375,0.0723876953125,-1.013336181640625
1774473196271532000,9.861531982421875,0.1634521484375,0.0788726806640625,-1.0363311767578125
1774473196281561000,9.87156103515625,0.0555419921875,0.1075592041015625,-1.012786865234375
1774473196291589400,9.88158935546875,0.1392669677734375,0.0575714111328125,-1.0846405029296875
1774473196301617200,9.8916171875,0.20257568359375,0.016204833984375,-1.0208892822265625
1774473196311645200,9.901645263671876,0.004791259765625,0.142181396484375,-0.91424560546875
1774473196321673200,9.911673095703126,0.132720947265625,0.1268310546875,-0.9913330078125
1774473196331701200,9.921701171875,0.085601806640625,0.14306640625,-0.948211669921875
1774473196341729300,9.931729248046874,0.09637451171875,0.1257171630859375,-0.9177398681640625
1774473196351757000,9.941757080078125,0.078399658203125,0.099700927734375,-0.9220428466796875
1774473196361784800,9.951784912109375,0.055419921875,0.0684967041015625,-0.939178466796875
1774473196371813000,9.961813232421875,0.0655670166015625,0.063446044921875,-0.969329833984375
1774473196381841000,9.9718408203125,0.0875244140625,0.02813720703125,-1.0048675537109375
1774473196391869200,9.981869140625,0.057373046875,0.045135498046875,-1.0255889892578125
1774473196401897000,9.99189697265625,0.099029541015625,0.03057861328125,-1.1244964599609375
1774473196411925000,10.001925048828125,0.0997467041015625,0.1714019775390625,-1.071990966796875
1774473196421954000,10.0119541015625,0.05584716796875,0.1185455322265625,-1.176422119140625
1774473196431982000,10.021982177734374,0.173797607421875,0.1462554931640625,-1.0037994384765625
1774473196442009900,10.032009765625,0.2423248291015625,0.1349945068359375,-0.9111480712890625
1774473196452038100,10.0420380859375,0.2712554931640625,0.087615966796875,-0.8958587646484375
1774473196462066000,10.05206591796875,0.1744384765625,0.0897064208984375,-0.89190673828125
1774473196472094000,10.062093994140625,0.0845489501953125,0.0828399658203125,-0.9614105224609375
1774473196482122000,10.0721220703125,-0.0231170654296875,0.0482330322265625,-0.98089599609375
1774473196492150000,10.08214990234375,-0.0473175048828125,-0.0697784423828125,-1.054962158203125
1774473196502178000,10.092177978515625,-0.0545806884765625,-0.2316741943359375,-1.2786865234375
1774473196512206000,10.1022060546875,-0.5969390869140625,-0.2628173828125,-1.5789031982421875
1774473196522233900,10.11223388671875,-0.314361572265625,-0.0203399658203125,-1.3046875
1774473196532262100,10.12226220703125,0.53216552734375,0.248809814453125,-0.612060546875
1774473196542290000,10.1322900390625,0.429443359375,0.281463623046875,-0.6893768310546875
1774473196552319000,10.142319091796875,0.339019775390625,0.2533416748046875,-0.9923553466796875
1774473196562347000,10.152346923828125,0.261474609375,0.1636505126953125,-1.0112152099609375
1774473196572375000,10.162375,0.2292022705078125,0.189666748046875,-1.043548583984375
1774473196582403000,10.172403076171875,0.0616455078125,0.25286865234375,-1.0041961669921875
1774473196592431000,10.18243115234375,-0.1194915771484375,0.3450775146484375,-0.939697265625
1774473196602459000,10.192458984375,-0.2044677734375,0.339874267578125,-0.910614013671875
1774473196612487200,10.202487060546876,-0.211669921875,0.2604827880859375,-0.8452911376953125
1774473196622515000,10.212514892578126,-0.2018280029296875,0.1725921630859375,-0.7840576171875
1774473196632543000,10.22254296875,-0.1732635498046875,0.09234619140625,-0.71063232421875
1774473196642571000,10.232571044921874,-0.3035430908203125,0.2441864013671875,-0.502471923828125
1774473196652599000,10.24259912109375,-1.0562744140625,1.0348358154296875,-0.0397491455078125
1774473196662627000,10.252626953125,0.1776580810546875,0.237762451171875,-0.7771148681640625
1774473196672655000,10.262655029296875,0.601165771484375,-0.049468994140625,-0.987945556640625
1774473196682683000,10.272682861328125,0.44256591796875,0.03179931640625,-1.1129913330078125
1774473196692711200,10.282711181640625,0.4477081298828125,-0.1151580810546875,-1.227081298828125
1774473196702740000,10.292739990234375,-0.06787109375,-0.308074951171875,-1.110015869140625
1774473196712768000,10.30276806640625,0.112640380859375,-0.3464813232421875,-1.1109466552734375
1774473196722796000,10.312796142578126,0.2296600341796875,-0.2282257080078125,-1.080841064453125
1774473196732824000,10.322823974609374,0.0865631103515625,-0.0842437744140625,-1.0133819580078125
1774473196742852000,10.33285205078125,0.1542205810546875,0.0303955078125,-1.00396728515625
1774473196752880000,10.342880126953125,0.1248321533203125,0.110443115234375,-0.9886322021484375
1774473196762908000,10.352907958984375,0.10479736328125,0.03521728515625,-1.0851287841796875
1774473196772936200,10.362936279296875,0.044464111328125,-0.0073699951171875,-1.0721282958984375
1774473196782964000,10.3729638671875,0.043670654296875,-0.062530517578125,-1.0051422119140625
1774473196792992000,10.382991943359375,0.0477752685546875,-0.0901947021484375,-1.0060272216796875
1774473196803020000,10.39302001953125,0.04852294921875,-0.0667724609375,-1.086395263671875
1774473196813048000,10.403048095703125,-0.000732421875,-0.101593017578125,-1.18157958984375
1774473196823076000,10.413076171875,-0.0239410400390625,-0.1402587890625,-1.199005126953125
1774473196833104100,10.423104248046876,0.0028839111328125,-0.1148529052734375,-1.1343536376953125
1774473196843133000,10.4331328125,0.06390380859375,-0.0992279052734375,-1.0490570068359375
1774473196853161200,10.4431611328125,0.096405029296875,-0.00628662109375,-0.9435577392578125
1774473196863189000,10.45318896484375,0.06488037109375,0.0705108642578125,-0.8988800048828125
1774473196873217000,10.463217041015625,0.064544677734375,0.1460723876953125,-0.929901123046875
1774473196883245000,10.4732451171875,0.0333709716796875,0.1475982666015625,-0.904632568359375
1774473196893273000,10.483273193359375,0.0751953125,0.0772705078125,-0.9543914794921875
1774473196903301000,10.493301025390625,0.131256103515625,0.056488037109375,-0.9651031494140625
1774473196913329200,10.5033291015625,0.1556243896484375,0.038726806640625,-0.94146728515625
1774473196923357000,10.51335693359375,0.1480865478515625,0.0193023681640625,-0.919952392578125
1774473196933385200,10.52338525390625,0.0726470947265625,-0.021392822265625,-0.8468017578125
1774473196943413000,10.5334130859375,0.1981658935546875,0.0165863037109375,-1.12713623046875
1774473196953441000,10.54344091796875,0.2769622802734375,0.1094818115234375,-0.9734344482421875
1774473196963469000,10.553468994140625,0.291351318359375,-0.00433349609375,-0.9561767578125
1774473196973497000,10.5634970703125,0.3276519775390625,-0.0632171630859375,-0.9373931884765625
1774473196983526000,10.57352587890625,0.165496826171875,-0.0608978271484375,-0.8399200439453125
1774473196993554200,10.58355419921875,0.22711181640625,-0.1531219482421875,-1.1141204833984375
1774473197003582000,10.59358203125,0.1707763671875,-0.0157623291015625,-1.1276702880859375
1774473197013610200,10.6036103515625,0.225006103515625,-0.050262451171875,-1.0681304931640625
1774473197023638000,10.613637939453126,0.3531951904296875,0.010650634765625,-1.0437774658203125
1774473197033666000,10.623666015625,0.3845062255859375,0.0126495361328125,-1.01593017578125
1774473197043694000,10.633694091796874,0.3826751708984375,-0.0360107421875,-0.9956512451171875
1774473197053722000,10.64372216796875,0.42694091796875,-0.0726318359375,-1.0392608642578125
1774473197063750100,10.653750244140625,0.4495697021484375,-0.0198974609375,-1.046234130859375
1774473197073778200,10.663778076171875,0.43182373046875,0.065093994140625,-0.9560699462890625
1774473197083806000,10.673805908203125,0.3641357421875,0.0938568115234375,-0.9450836181640625
1774473197093834000,10.683833984375,0.2757720947265625,0.102569580078125,-0.9750823974609375
1774473197103862000,10.693862060546875,0.241912841796875,0.1279754638671875,-0.9529571533203125
1774473197113891000,10.70389111328125,0.2509613037109375,0.104736328125,-0.906402587890625
1774473197123919000,10.713919189453126,0.2634735107421875,0.0825347900390625,-0.912384033203125
1774473197133947100,10.723947021484374,0.284515380859375,0.0721588134765625,-0.91259765625
1774473197143975000,10.733974853515624,0.31341552734375,0.088287353515625,-0.9041290283203125
1774473197154003200,10.744003173828125,0.3260498046875,0.115325927734375,-0.86669921875
1774473197164031000,10.754031005859375,0.3065338134765625,0.1076812744140625,-0.8300628662109375
1774473197174059300,10.764059326171875,0.2797088623046875,0.12200927734375,-0.8134002685546875
1774473197184087000,10.774087158203125,0.238372802734375,0.0954742431640625,-0.826995849609375
1774473197194114800,10.78411474609375,0.19879150390625,-0.01910400390625,-0.8419647216796875
1774473197204143000,10.79414306640625,0.252349853515625,0.0103302001953125,-0.800994873046875
1774473197214171000,10.8041708984375,0.4143829345703125,0.0129241943359375,-0.817718505859375
1774473197224199200,10.81419921875,0.5632781982421875,-0.0137176513671875,-0.8847808837890625
1774473197234228200,10.824228271484374,0.636260986328125,0.017974853515625,-0.8647613525390625
1774473197244256000,10.834256103515624,0.6636962890625,0.0697479248046875,-0.86492919921875
1774473197254284000,10.844283935546875,0.616790771484375,0.2327423095703125,-0.7791748046875
1774473197264312000,10.85431201171875,0.5240936279296875,0.161712646484375,-0.84857177734375
1774473197274340000,10.864340087890625,0.4134063720703125,0.1072845458984375,-0.97705078125
1774473197284368100,10.8743681640625,0.251617431640625,0.0543060302734375,-1.0568084716796875
1774473197294396000,10.88439599609375,0.04058837890625,-0.0054779052734375,-1.070068359375
1774473197304424000,10.894423828125,0.1005096435546875,0.001800537109375,-0.9691314697265625
1774473197314452000,10.904451904296875,0.1620330810546875,-0.0469512939453125,-1.0317535400390625
1774473197324480000,10.91447998046875,0.671112060546875,-0.0490570068359375,-1.002044677734375
1774473197334508000,10.924508056640626,0.6994781494140625,-0.0401763916015625,-1.0259246826171875
1774473197344536000,10.9345361328125,0.3003082275390625,0.0166473388671875,-1.0001983642578125
1774473197354565000,10.944565185546875,0.4690093994140625,-0.023468017578125,-1.0600738525390625
1774473197364589800,10.95458984375,0.27392578125,-0.042083740234375,-1.10504150390625
1774473197374618000,10.9646181640625,0.1847076416015625,0.042083740234375,-1.1322174072265625
1774473197384646000,10.97464599609375,0.183868408203125,0.07513427734375,-1.073974609375
1774473197394674200,10.984674072265625,0.2405548095703125,0.0103607177734375,-1.0008392333984375
1774473197404702000,10.994701904296875,0.2213134765625,-0.1325836181640625,-1.016357421875
1774473197414730000,11.00472998046875,-0.0143280029296875,-0.3561553955078125,-1.09112548828125
1774473197424758000,11.014758056640625,0.1745452880859375,-0.3391876220703125,-1.0880279541015625
1774473197434785800,11.024785888671875,0.3952789306640625,-0.111480712890625,-0.9011688232421875
1774473197444814000,11.03481396484375,0.1996917724609375,-0.0008544921875,-0.8260498046875
1774473197454841900,11.044841796875,0.1490936279296875,0.13677978515625,-0.7958221435546875
1774473197464870000,11.054869873046876,0.1969451904296875,0.224609375,-0.7910614013671875
1774473197474898000,11.06489794921875,0.2547760009765625,0.258453369140625,-0.806671142578125
1774473197484927000,11.074927001953125,0.1752777099609375,0.30718994140625,-0.8076934814453125
1774473197494955000,11.084955078125,0.123504638671875,0.3398284912109375,-0.7782745361328125
1774473197504983000,11.094983154296875,0.2841949462890625,0.295806884765625,-0.85491943359375
1774473197515011000,11.105010986328125,0.1315155029296875,0.1985321044921875,-0.9404296875
1774473197525038800,11.115038818359375,0.167938232421875,0.1450347900390625,-0.997589111328125
1774473197535067000,11.12506689453125,0.37457275390625,0.011322021484375,-1.0737152099609375
1774473197545095000,11.135094970703125,0.368133544921875,0.0260467529296875,-1.0051727294921875
1774473197555123000,11.145123046875,0.412353515625,0.024261474609375,-0.925872802734375
1774473197565151000,11.15515087890625,0.3742828369140625,-0.0026397705078125,-0.878662109375
1774473197575178800,11.1651787109375,0.3579559326171875,0.001953125,-0.8871612548828125
1774473197585207000,11.17520703125,0.2970123291015625,0.0293121337890625,-0.95916748046875
1774473197595234800,11.18523486328125,0.2693023681640625,0.044403076171875,-1.0091552734375
1774473197605264000,11.195263916015625,0.2678680419921875,0.04486083984375,-1.00372314453125
1774473197615292200,11.205292236328125,0.268218994140625,-0.0146026611328125,-0.9959259033203125
1774473197625320000,11.21531982421875,0.1858367919921875,0.00726318359375,-0.96783447265625
1774473197635348000,11.225347900390625,0.1419830322265625,0.039947509765625,-0.887847900390625
1774473197645376000,11.2353759765625,0.1254425048828125,0.016571044921875,-0.934539794921875
1774473197655403800,11.24540380859375,0.2189788818359375,-0.0565032958984375,-1.00982666015625
1774473197665432000,11.25543212890625,0.426300048828125,-0.0123291015625,-0.995758056640625
1774473197675459800,11.2654599609375,0.4553985595703125,0.0465545654296875,-1.1279144287109375
1774473197685487900,11.27548779296875,0.293121337890625,0.089630126953125,-1.074005126953125
1774473197695516000,11.285515869140625,0.4075469970703125,0.0145111083984375,-0.89874267578125
1774473197705544000,11.2955439453125,0.437255859375,-0.0403594970703125,-0.88037109375
1774473197715572000,11.305572021484375,0.337860107421875,-0.06561279296875,-0.99102783203125
1774473197725601000,11.31560107421875,0.3703765869140625,-0.05462646484375,-0.95098876953125
1774473197735628800,11.32562890625,0.3431396484375,0.0372467041015625,-0.8198394775390625
1774473197745657000,11.335656982421876,0.2294158935546875,-0.0095367431640625,-0.7646484375
1774473197755684900,11.345684814453126,0.06488037109375,-0.066253662109375,-0.8458099365234375
1774473197765713000,11.355712890625,0.296966552734375,-0.0277862548828125,-0.8255462646484375
1774473197775741000,11.365740966796874,0.513824462890625,-0.03326416015625,-0.7989654541015625
1774473197785769000,11.37576904296875,0.598297119140625,-0.0001068115234375,-0.77392578125
1774473197795797000,11.385796875,0.49462890625,-0.0810089111328125,-0.7763214111328125
1774473197805825000,11.395824951171875,0.27215576171875,-0.1056060791015625,-0.8706207275390625
1774473197815852800,11.405852783203125,0.218414306640625,-0.0890655517578125,-1.011871337890625
1774473197825881000,11.415881103515625,0.2514801025390625,-0.0150146484375,-1.110107421875
1774473197835908900,11.425908935546875,0.25799560546875,0.015472412109375,-1.221405029296875
1774473197845937000,11.43593701171875,0.271331787109375,0.0149688720703125,-1.2249908447265625
1774473197855966000,11.445966064453126,0.2158355712890625,0.0092010498046875,-1.1402130126953125
1774473197865994000,11.455993896484374,0.0092010498046875,-0.001556396484375,-1.130157470703125
1774473197876021800,11.466021728515624,0.0662841796875,-0.0130157470703125,-1.08843994140625
1774473197886050000,11.476050048828125,0.263824462890625,0.0051727294921875,-0.96826171875
1774473197896077800,11.486077880859375,0.2524261474609375,-0.0213775634765625,-0.8679656982421875
1774473197906106000,11.496106201171875,0.2855377197265625,-0.0473785400390625,-0.8635406494140625
1774473197916134000,11.5061337890625,0.3563079833984375,-0.0354766845703125,-0.8946990966796875
1774473197926162000,11.516161865234375,0.323516845703125,-0.051544189453125,-0.952972412109375
1774473197936190000,11.52618994140625,0.28564453125,-0.0510406494140625,-1.015625
1774473197946218000,11.536218017578125,0.249542236328125,-0.02978515625,-0.9814300537109375
1774473197956246000,11.54624609375,0.2191009521484375,-0.012664794921875,-0.9488372802734375
1774473197966274000,11.556274169921876,0.1311187744140625,0.04974365234375,-0.8947296142578125
1774473197976302800,11.566302734375,0.2750091552734375,-0.0541229248046875,-1.0072784423828125
1774473197986331000,11.576330810546875,0.1167144775390625,-0.1001434326171875,-1.0285491943359375
1774473197996359000,11.58635888671875,0.0754547119140625,0.001708984375,-0.989227294921875
1774473198006387000,11.596386962890625,0.09698486328125,0.1200714111328125,-1.0142974853515625
1774473198016415000,11.6064150390625,0.2450408935546875,0.1515045166015625,-1.067535400390625
1774473198026443000,11.616443115234375,0.0900726318359375,0.0883636474609375,-1.1368408203125
1774473198036470800,11.626470703125,0.0626983642578125,0.1129608154296875,-1.035003662109375
1774473198046499000,11.6364990234375,0.205413818359375,0.075653076171875,-1.0482025146484375
1774473198056526800,11.64652685546875,-0.106292724609375,-0.0812835693359375,-1.1098480224609375
1774473198066555100,11.65655517578125,0.0460968017578125,-0.1818084716796875,-0.9770965576171875
1774473198076583000,11.6665830078125,0.29986572265625,0.1197357177734375,-0.55291748046875
1774473198086611000,11.67661083984375,0.566741943359375,-0.0637969970703125,-0.830596923828125
1774473198096639700,11.6866396484375,0.279296875,-0.195068359375,-0.6746673583984375
1774473198106668000,11.69666796875,0.192138671875,-0.2059326171875,-0.620513916015625
1774473198116695800,11.70669580078125,0.08453369140625,-0.1510467529296875,-0.9121551513671875
1774473198126724000,11.71672412109375,0.1067657470703125,0.01483154296875,-1.1110382080078125
1774473198136751900,11.726751953125,0.1923828125,0.202789306640625,-1.0755767822265625
1774473198146780000,11.73677978515625,0.2477264404296875,0.2692108154296875,-1.10711669921875
1774473198156808000,11.746807861328126,0.2979583740234375,0.2447662353515625,-1.115478515625
1774473198166836000,11.7568359375,0.3637542724609375,0.213348388671875,-1.0767059326171875
1774473198176864000,11.766864013671874,0.4069061279296875,0.14422607421875,-1.0449676513671875
1774473198186892000,11.77689208984375,0.4290771484375,0.1518707275390625,-0.9869537353515625
1774473198196919800,11.786919921875,0.2876434326171875,0.0127716064453125,-0.9455718994140625
1774473198206948000,11.796947998046875,0.26971435546875,-0.1469268798828125,-0.945343017578125
1774473198216977000,11.806976806640625,0.22711181640625,-0.2136077880859375,-0.9237518310546875
1774473198227005000,11.8170048828125,0.1518707275390625,-0.3252716064453125,-0.9502410888671875
1774473198237033000,11.827032958984375,0.1645965576171875,-0.5609588623046875,-0.9517059326171875
1774473198247061000,11.83706103515625,0.16717529296875,-0.4028472900390625,-0.9764556884765625
1774473198257089000,11.847089111328126,0.3087158203125,-0.0792388916015625,-1.0175323486328125
1774473198267117000,11.857116943359374,0.4019775390625,0.1525115966796875,-1.0294036865234375
1774473198277144800,11.867144775390624,0.30706787109375,0.18682861328125,-1.0228118896484375
1774473198287173000,11.877173095703125,0.3060150146484375,0.1923675537109375,-0.9709014892578125
1774473198297201000,11.887200927734375,0.3278961181640625,0.1438140869140625,-0.9879608154296875
1774473198307229000,11.89722900390625,0.3037109375,0.1246490478515625,-0.9518890380859375
1774473198317257000,11.907257080078125,0.27313232421875,0.2263946533203125,-0.936798095703125
1774473198327286000,11.9172861328125,0.2073516845703125,0.117218017578125,-0.9365081787109375
1774473198337313800,11.927313720703125,0.2548065185546875,0.0221710205078125,-0.929229736328125
1774473198347342000,11.937342041015626,0.2477874755859375,0.0818634033203125,-0.955718994140625
1774473198357369900,11.947369873046876,0.2323150634765625,0.1660003662109375,-0.9399566650390625
1774473198367398100,11.957398193359374,0.2539825439453125,0.1258544921875,-0.9395599365234375
1774473198377426000,11.967426025390624,0.2632293701171875,0.093597412109375,-0.9309844970703125
1774473198387454000,11.977453857421875,0.3025970458984375,0.1575775146484375,-0.9120025634765625
1774473198397482000,11.98748193359375,0.32049560546875,0.142059326171875,-0.895050048828125
1774473198407510000,11.997510009765625,0.275665283203125,0.1033935546875,-0.907012939453125
1774473198417538000,12.0075380859375,0.239105224609375,0.1112518310546875,-0.947479248046875
1774473198427566000,12.017566162109375,0.2426910400390625,0.1104888916015625,-0.9884490966796875
1774473198437595000,12.027594970703126,0.267120361328125,0.088104248046875,-0.990234375
1774473198447623000,12.037622802734376,0.31024169921875,0.0688018798828125,-0.98431396484375
1774473198457651000,12.04765087890625,0.3376922607421875,0.00567626953125,-0.975921630859375
1774473198467679000,12.057678955078124,0.313323974609375,0.004302978515625,-0.9635772705078125
1774473198477707000,12.06770703125,0.3242645263671875,0.2362518310546875,-0.96905517578125
1774473198487735000,12.077735107421875,0.2573394775390625,-0.161041259765625,-0.9378509521484375
1774473198497762800,12.0877626953125,0.244384765625,-0.055328369140625,-0.9786529541015625
1774473198507791000,12.097791015625,0.2629547119140625,-0.0137176513671875,-1.0193939208984375
1774473198517819000,12.10781884765625,0.274993896484375,-0.0612640380859375,-0.98602294921875
1774473198527847200,12.11784716796875,0.29730224609375,-0.0182342529296875,-1.0015411376953125
1774473198537875000,12.127875,0.3138275146484375,0.03594970703125,-0.983428955078125
1774473198547904000,12.137904052734376,0.3049774169921875,-0.0039215087890625,-1.020965576171875
1774473198557931800,12.147931884765624,0.2984619140625,-0.059814453125,-1.027435302734375
1774473198567960000,12.1579599609375,0.287200927734375,-0.052520751953125,-0.9885406494140625
1774473198577987800,12.16798779296875,0.2621307373046875,-0.12799072265625,-0.953704833984375
1774473198588016000,12.17801611328125,0.26763916015625,-0.1441497802734375,-0.911773681640625
1774473198598044000,12.1880439453125,0.227447509765625,0.0838165283203125,-0.97552490234375
1774473198608072000,12.198072021484375,0.2866058349609375,-0.213653564453125,-1.02496337890625
1774473198618100000,12.208099853515625,0.272857666015625,-0.0106964111328125,-1.0125274658203125
1774473198628128000,12.2181279296875,0.3575286865234375,0.1700286865234375,-1.007659912109375
1774473198638156000,12.228156005859375,0.3668212890625,0.0881195068359375,-0.9770050048828125
1774473198648185000,12.23818505859375,0.306640625,0.059417724609375,-0.9136810302734375
1774473198658212900,12.248212890625,0.2502288818359375,0.309051513671875,-0.8651885986328125
1774473198668241200,12.2582412109375,0.2567138671875,-0.11126708984375,-0.9471893310546875
1774473198678269000,12.26826904296875,0.2095489501953125,-0.09130859375,-0.9642486572265625
1774473198688297000,12.278296875,0.2891693115234375,0.1701507568359375,-0.9937591552734375
1774473198698325000,12.288324951171875,0.30743408203125,0.30615234375,-0.97747802734375
1774473198708353000,12.29835302734375,0.285736083984375,0.364227294921875,-0.89373779296875
1774473198718381000,12.308381103515625,0.2825469970703125,0.4488372802734375,-0.83087158203125
1774473198728409000,12.3184091796875,0.3083343505859375,0.4615020751953125,-0.772796630859375
1774473198738436900,12.328436767578125,0.338897705078125,0.3244171142578125,-0.7615966796875
1774473198748465200,12.338465087890626,0.3239593505859375,0.16680908203125,-0.7789154052734375
1774473198758494000,12.348493896484374,0.311859130859375,0.1701202392578125,-0.832550048828125
1774473198768522000,12.35852197265625,0.27459716796875,0.1647491455078125,-0.8798828125
1774473198778550000,12.368550048828125,0.2624359130859375,0.11395263671875,-0.897247314453125
1774473198788578000,12.378578125,0.2581634521484375,0.0719757080078125,-0.93963623046875
1774473198798605800,12.388605712890625,0.23284912109375,0.0925750732421875,-1.0228271484375
1774473198808634000,12.398634033203125,0.2466583251953125,0.1019744873046875,-1.0878753662109375
1774473198818662000,12.408661865234375,0.2842559814453125,0.0830078125,-1.119842529296875
1774473198828690200,12.418690185546875,0.3782958984375,0.050689697265625,-1.0009002685546875
1774473198838718000,12.428718017578126,0.2473907470703125,-0.04833984375,-0.96368408203125
1774473198848746000,12.43874609375,0.193695068359375,0.012939453125,-0.943023681640625
1774473198858774000,12.44877392578125,0.1810150146484375,0.066802978515625,-1.01995849609375
1774473198868803000,12.458802978515624,0.215911865234375,0.107421875,-1.0084381103515625
1774473198878830800,12.468830810546875,0.155181884765625,0.172760009765625,-0.95745849609375
1774473198888859100,12.478859130859375,0.227294921875,0.17193603515625,-1.0002288818359375
1774473198898887000,12.488886962890625,0.2942962646484375,0.162109375,-0.9788818359375
1774473198908915000,12.4989150390625,0.3332977294921875,0.1408538818359375,-0.9514312744140625
1774473198918943000,12.50894287109375,0.3930511474609375,0.157562255859375,-0.9005584716796875
1774473198928971000,12.518970947265625,0.1204833984375,0.1368408203125,-0.944000244140625
1774473198938999000,12.5289990234375,-0.006927490234375,0.093414306640625,-1.0004425048828125
1774473198949027000,12.539027099609376,0.110382080078125,0.168792724609375,-1.0131072998046875
1774473198959054800,12.549054931640624,0.1865997314453125,0.25555419921875,-0.964508056640625
1774473198969083100,12.559083251953124,0.2348785400390625,0.2296142578125,-0.945556640625
1774473198979112000,12.56911181640625,0.23370361328125,0.150421142578125,-0.989044189453125
1774473198989140000,12.579139892578125,0.1270751953125,0.1369781494140625,-0.974151611328125
1774473198999168000,12.58916796875,0.1151580810546875,0.0811614990234375,-0.939788818359375
1774473199009196000,12.599196044921875,0.1824493408203125,0.090301513671875,-0.9441680908203125
1774473199019223800,12.609223876953125,0.2104034423828125,0.22271728515625,-0.9571533203125
1774473199029252000,12.619252197265626,0.3576202392578125,0.157745361328125,-0.886810302734375
1774473199039279900,12.62927978515625,0.1513519287109375,0.177947998046875,-0.899017333984375
1774473199049308200,12.63930810546875,0.1227264404296875,0.1684112548828125,-0.9320526123046875
1774473199059336000,12.6493359375,0.06256103515625,0.1535797119140625,-0.937255859375
1774473199069364000,12.659364013671874,0.0728759765625,0.1679840087890625,-0.917510986328125
1774473199079393000,12.66939306640625,0.2846527099609375,0.167205810546875,-0.8981781005859375
1774473199089421000,12.679421142578125,0.331207275390625,0.224884033203125,-0.9113311767578125
1774473199099448800,12.68944873046875,0.3837738037109375,0.26629638671875,-1.008331298828125
1774473199109477000,12.69947705078125,0.3264923095703125,0.2235260009765625,-0.9734039306640625
1774473199119505000,12.7095048828125,0.326507568359375,0.2118377685546875,-0.9910888671875
1774473199129533000,12.719532958984376,0.1491546630859375,0.1384429931640625,-1.0059356689453125
1774473199139561000,12.72956103515625,0.1720123291015625,0.1098480224609375,-1.0068817138671875
1774473199149589000,12.739589111328126,0.2999725341796875,0.10723876953125,-1.0009002685546875
1774473199159617000,12.749616943359374,0.3246002197265625,0.122039794921875,-0.98480224609375
1774473199169645000,12.75964501953125,0.2802581787109375,0.157012939453125,-0.9624786376953125
1774473199179672800,12.7696728515625,0.279998779296875,0.147216796875,-0.9249114990234375
1774473199189702100,12.7797021484375,0.2604217529296875,0.145751953125,-0.8991851806640625
1774473199199730000,12.78972998046875,0.2454071044921875,0.164154052734375,-0.8876800537109375
1774473199209758000,12.799758056640625,0.252716064453125,0.1414794921875,-0.8977203369140625
1774473199219786000,12.809785888671875,0.2564697265625,0.125152587890625,-0.9424896240234375
1774473199229814000,12.81981396484375,0.318206787109375,0.1937408447265625,-1.017791748046875
1774473199239842000,12.829842041015626,0.2655029296875,0.15728759765625,-1.0527191162109375
1774473199249870000,12.8398701171875,0.2121124267578125,0.149261474609375,-1.0345001220703125
1774473199259897900,12.84989794921875,0.2659759521484375,0.131744384765625,-1.00958251953125
1774473199269926100,12.859926025390624,0.25701904296875,0.1096649169921875,-1.0107574462890625
1774473199279954000,12.869953857421875,0.2196502685546875,0.1278076171875,-1.0162811279296875
1774473199289982000,12.87998193359375,0.2380828857421875,0.1298370361328125,-0.9927520751953125
1774473199300011000,12.890010986328125,0.23590087890625,0.1116790771484375,-0.974273681640625
1774473199310039000,12.9000390625,0.2512969970703125,0.07757568359375,-0.953857421875
1774473199320066800,12.91006689453125,0.289459228515625,0.0475921630859375,-0.94189453125
1774473199330095000,12.92009521484375,0.27130126953125,0.0031280517578125,-0.9294281005859375
