time,seconds_elapsed,z,y,x
1774473186484137700,0.0741376953125,-0.8165998762458563,0.12359540000855922,0.24446970449015495
1774473186494166000,0.084166015625,-0.6010381402015685,0.11483517044782637,0.2114784122534096
1774473186504193800,0.09419384765625,-0.384021529173851,0.16284604490101337,0.19683394695967435
1774473186514221600,0.1042216796875,-0.23474165281057358,0.20524960086643695,0.12077975806593894
1774473186524249900,0.114249755859375,0.015168927559256553,0.201709736302495,0.044305736324936146
1774473186534277600,0.124277587890625,0.25745500440001484,0.22611440197974442,-0.054177288128435606
1774473186544306000,0.134305908203125,0.2971908024609089,0.28216917441785333,-0.06414601669609546
1774473186554333700,0.144333740234375,0.14084054931998252,0.3055918433204293,-0.024171733704209327
1774473186564361700,0.15436181640625,-0.07226794835329055,0.31737522009462116,0.03886412979289889
1774473186574389800,0.1643896484375,-0.4864706807792186,0.373031056343019,0.16234350220635532
1774473186584417800,0.174417724609375,-0.7931734079509973,0.48836686978936195,0.23987755439430475
1774473186594445800,0.18444580078125,-0.6816992383688688,0.6206126092433929,0.1946538264416158
1774473186604475000,0.194474853515625,-0.403020244154334,0.6647387512177229,0.15451412375494836
1774473186614502700,0.204502685546875,-0.11528466778099536,0.6115268009901046,0.12686448480710386
1774473186624530700,0.21453076171875,0.019877835902571677,0.5359665330931545,-0.01606361137665808
1774473186634558700,0.224558837890625,0.13380992003083228,0.5118143808722496,-0.10305435095690191
1774473186644586800,0.234586669921875,0.1829781478255987,0.631086364723742,-0.10974427704960107
1774473186654614800,0.24461474609375,0.08969313040673732,0.765991678775847,-0.04432115308977663
1774473186664642800,0.254642822265625,0.029627661022543904,0.809798671798408,-0.053116892355307935
1774473186674670600,0.264670654296875,0.16147534106969832,0.8526783208429813,-0.11919877248480916
1774473186684699000,0.274698974609375,0.20639058759510515,0.7738596356719731,-0.1725459664646536
1774473186694726700,0.2847265625,0.1369499716222286,0.8118675870269536,-0.14178002212718127
1774473186704755000,0.2947548828125,0.07082242572009563,0.7834700523212551,-0.15400347081907093
1774473186714782700,0.30478271484375,-0.2728986572474241,0.7115639230176806,-0.016999503987282515
1774473186724810800,0.314810791015625,-0.5781973628401756,0.7600429995045065,0.1570074749406427
1774473186734838800,0.3248388671875,-0.6551771421462297,0.7501151874691248,0.20757307537794112
1774473186744866800,0.33486669921875,-0.5990460896015167,0.6062073595330119,0.20742219566516576
1774473186754895600,0.3448955078125,-0.4337316087603569,0.4227072336599231,0.14210026705749332
1774473186764924000,0.354923828125,-0.18409692272245884,0.16480828488469124,0.03997508670948446
1774473186774951700,0.36495166015625,0.05857026239037513,-0.08705152985677123,-0.12826404940672217
1774473186784979700,0.374979736328125,0.2894534862071276,-0.15496142913103103,-0.2155240343824029
1774473186795007700,0.3850078125,0.39823651700913903,-0.24580139148533342,-0.2554121734607965
1774473186805035800,0.395035888671875,0.3378226725786924,-0.3908822087235749,-0.2377837239202112
1774473186815063800,0.405063720703125,0.2644283505439758,-0.4435759802959859,-0.17220018523428587
1774473186825091800,0.415091796875,0.2545300568640232,-0.44855099222958084,-0.05808255193866789
1774473186835119600,0.42511962890625,0.3111760731935501,-0.35518297270238397,0.01338633672511205
1774473186845148000,0.43514794921875,0.4834183074712753,-0.30793387640193104,-0.010435158769320696
1774473186855175700,0.44517578125,0.5695464388728142,-0.3820345931403339,-0.1099040889875032
1774473186865204000,0.455203857421875,0.5201105000525713,-0.5262697533346712,-0.2274783290104009
1774473186875231700,0.465231689453125,0.43178573538959025,-0.5947235502272844,-0.20945556465629486
1774473186885259800,0.475259765625,0.30664485950469966,-0.6260131531126797,-0.18232538300529122
1774473186895287800,0.485287841796875,0.16288111621439455,-0.7133651272207499,-0.1957055274516344
1774473186905315800,0.49531591796875,0.09296353037953377,-0.724675187394768,-0.12500938585917465
1774473186915344600,0.5053447265625,0.044943303576111794,-0.7389379598945379,-0.08207353138164616
1774473186925373000,0.515373046875,0.018257541224360466,-0.662203972043097,-0.03437443542452529
1774473186935400700,0.525400634765625,0.061922495427727695,-0.45520007485523817,0.08784521925142035
1774473186945428700,0.5354287109375,0.10655424883663654,-0.27526260989978907,0.23632243746230377
1774473186955456800,0.545456787109375,0.08208733157813548,-0.13941168556064368,0.29759278912423176
1774473186965484800,0.55548486328125,0.08867606231868266,-0.023219255284965035,0.3047549541048705
1774473186975512800,0.565512939453125,0.11734978361725806,0.0685801997512579,0.36477336947694416
1774473186985540900,0.575540771484375,-0.2261386596381664,-0.3015419834077358,0.48887671900764107
1774473186995568600,0.585568603515625,-0.37151334525644775,-0.4139794450640678,0.6005698651026934
1774473187005597000,0.595596923828125,-0.12267010185718535,-0.12468567946329712,0.5243974566567688
1774473187015624700,0.605624755859375,0.3593944529175758,0.07147650571465491,0.36506482670418916
1774473187025653000,0.615653076171875,0.7865262250214815,0.07292012865170835,0.16341600854238494
1774473187035680800,0.6256806640625,1.0480161840260027,-0.20015490807592867,-0.10284091826877556
1774473187045708800,0.635708740234375,0.972982862612605,-0.29134499904215333,-0.2650807865707204
1774473187055736800,0.64573681640625,0.7969283765703439,-0.14121332815513013,-0.32657661755159495
1774473187065764900,0.655764892578125,0.3779530229151249,0.19448197700604794,-0.20758840081123633
1774473187075793700,0.665793701171875,-0.2121826150000095,0.5106782164491713,-0.05267595278793014
1774473187085822000,0.675822021484375,-0.8592699741929769,0.6972869758620858,0.11788922425620257
1774473187095849700,0.685849609375,-1.3363713536024093,0.7507888489469885,0.2231526660973206
1774473187105877800,0.695877685546875,-1.3316916713535785,0.6914419030956923,0.19820554584013297
1774473187115905800,0.70590576171875,-0.9870435366690158,0.6165193485803901,0.03660137249268591
1774473187125933800,0.715933837890625,-0.4466320068657398,0.7625681340679525,-0.15847022270327432
1774473187135961900,0.7259619140625,-0.19050328263342378,0.4682989181421697,-0.26797336620707063
1774473187145990000,0.735989990234375,-0.12944997125566005,-0.3611895196408033,-0.32289109743926675
1774473187156017700,0.746017578125,-0.023210195195674896,-1.0601548039786517,-0.28777656597085294
1774473187166046000,0.7560458984375,0.2634182967185974,-1.1851625550031661,-0.18909783628229052
1774473187176073700,0.76607373046875,0.695156685835123,-0.956945627786219,-0.1540647360196337
1774473187186101800,0.776101806640625,0.96185824200809,-0.7280091541230678,-0.09727445238120853
1774473187196129800,0.7861298828125,0.7805220161706209,-0.5126648602217435,0.07226984804943204
1774473187206157600,0.796157470703125,0.37804537737369537,-0.0550730679243803,0.22053371577057987
1774473187216185900,0.806185791015625,0.2708674436807632,0.31211759182736276,0.2086496916335076
1774473187226213600,0.816213623046875,0.4860054013550281,0.3707425070144236,-0.006917743499204516
1774473187236242700,0.82624267578125,0.22703765430450437,0.4587200656749308,-0.03272500598337501
1774473187246271000,0.83627099609375,-0.1942494834244251,0.7054423713974655,0.0655342561841011
1774473187256298800,0.846298828125,-0.4813187048435211,0.9643192252941429,0.12428396679461001
1774473187266326800,0.856326904296875,-0.42580899906754494,1.0135675325877964,-0.005960515839606523
1774473187276354800,0.866354736328125,-0.33723639712333675,0.9652307871811091,-0.1686959765056148
1774473187286382600,0.876382568359375,-0.15566694705188275,0.8599049110956489,-0.2716289295725524
1774473187296411000,0.886410888671875,-0.08436462886035442,0.5225026558861137,-0.4337054879384115
1774473187306438700,0.896438720703125,-0.29653730698823927,0.08065028451234102,-0.483633082733117
1774473187316466700,0.906466796875,-0.602663695576787,-0.22066212792322037,-0.24419428508225827
1774473187326494700,0.91649462890625,-0.8570049518704413,-0.25168416591361165,0.06816065916493534
1774473187336522800,0.926522705078125,-0.3653828796774149,-0.14334259526878596,0.08984167203195392
1774473187346551000,0.936551025390625,0.2916705777347088,-0.20227116957753896,-0.01487125978693366
1774473187356579000,0.9465791015625,0.7372171274513005,-0.4302206780299544,-0.021937983302772045
1774473187366606800,0.95660693359375,1.1770569899588823,-0.7974702283620834,-0.03301196969859302
1774473187376635100,0.96663525390625,1.6650339836478232,-0.7471532689236104,0.04458594150580465
1774473187386663000,0.976662841796875,2.021561941218376,-0.3676043551191687,0.19465755276866256
1774473187396692000,0.98669189453125,2.1585738721609116,-0.30155162801891566,0.3084595807764679
1774473187406720000,0.996719970703125,2.318010400879383,-0.38162279746904965,0.43951092281416054
1774473187416748000,1.006748046875,1.7431220164567232,-0.1155617311567068,0.004711136833019555
1774473187426775800,1.01677587890625,1.0450929900556802,0.02037088011652231,-0.48445787965208287
1774473187436804000,1.02680419921875,0.8205921607524156,0.11393865999951958,-0.17790236066495999
1774473187446831900,1.036831787109375,0.39746494811475275,0.40652869066670533,-0.21174141057115048
1774473187456860200,1.046860107421875,-0.18920681308209894,0.5731874257236719,-0.06200014550751075
1774473187466888000,1.056887939453125,-0.7380091546118259,0.8313979246661066,0.14330357843264938
1774473187476916000,1.066916015625,-1.4053478591948747,0.7552142641738057,0.3098361298266798
1774473187486944000,1.076944091796875,-1.7357301526397466,0.36587592389136553,0.3955089186761528
1774473187496972000,1.086971923828125,-1.513441154167056,-0.11575900729447602,0.34338480021785944
1774473187507000000,1.097,-1.076601057997346,-0.39608635323792696,0.25645090539138765
1774473187517028000,1.107028076171875,-0.88783614346385,-0.5238827120676637,0.2897110776973888
1774473187527056000,1.117055908203125,-0.9193447959274053,-0.2840747157782316,0.44927886811271306
1774473187537084200,1.127084228515625,-0.8719055838823317,0.16718553541004658,0.7180616144739091
1774473187547112000,1.13711181640625,-1.0569278047561645,0.6308418884433805,0.5197663627900183
1774473187557141000,1.14714111328125,-1.0146832387447358,0.5637058961510658,0.3247759248051792
1774473187567169000,1.1571689453125,-0.5437304450929165,0.5942965569868683,0.3637593335961923
1774473187577197000,1.167197021484375,0.08762743004858493,0.7209734102673828,0.6352825743045657
1774473187587225000,1.17722509765625,1.2665911304116249,1.0090180525898933,1.2773181300006806
1774473187597253000,1.187253173828125,-0.4906377373307943,-0.35383681879043577,-2.2458596491649745
1774473187607281000,1.197281005859375,0.10494681363999843,-2.9813103514656425,-1.4044218303911387
1774473187617309200,1.20730908203125,1.38717273555696,-1.2167254218719898,0.4780539308939129
1774473187627337000,1.2173369140625,1.7621850288450718,-0.008632803788781165,0.6392773430291563
1774473187637365000,1.227364990234375,1.6764268997997045,0.09687266664728522,0.23993359543047843
1774473187647393000,1.23739306640625,1.1636053877115249,0.16289616765305398,0.09054532678928226
1774473187657421000,1.247421142578125,0.5746154127001762,0.23869623565524814,-0.08665288592800498
1774473187667449000,1.257448974609375,0.02952069351673126,0.0016334464207291603,-0.5280582076540217
1774473187677477000,1.26747705078125,-0.07488835998475551,-0.16876052964180707,-0.44430999365895985
1774473187687505000,1.2775048828125,-0.026683424264192578,-0.28412176979035136,-0.5917295560430735
1774473187697533200,1.287533203125,0.08728782283067703,0.03982084599584341,-0.4203278642427176
1774473187707561000,1.29756103515625,0.23580022195279596,0.18407193441167471,-0.31945100345537064
1774473187717590000,1.307590087890625,0.199147192338109,0.17820077735595405,-0.35145211561098694
1774473187727618000,1.3176181640625,-0.7186386837095021,-0.42249819401912386,-0.2039355225931853
1774473187737646000,1.32764599609375,-1.7636217836499213,-0.4903478144735098,0.12012487435378133
1774473187747674000,1.337674072265625,-2.1180232505857943,0.05775134722292423,0.5583733760166913
1774473187757702100,1.3477021484375,-1.4062065218508242,0.16153401245437563,0.5993976795181631
1774473187767730000,1.35772998046875,-0.2685784559607506,-0.116167953421548,0.4057076566074043
1774473187777758200,1.36775830078125,0.7404635620266199,-0.3337168446950614,0.11425707829892634
1774473187787786000,1.377785888671875,1.1919283958762883,-0.41361148853451013,-0.15085224024653435
1774473187797814000,1.38781396484375,0.5752034417212009,-0.4453576760809868,-0.23359584377631543
1774473187807842000,1.397842041015625,-0.3829243815869093,-0.36887218309789893,-0.1892833854496479
1774473187817870000,1.4078701171875,-0.9072972152590751,-0.16465250980108975,-0.15833711610920725
1774473187827898000,1.417898193359375,-1.1085381650060415,-0.03281096723377704,-0.10088928187750279
1774473187837926100,1.427926025390625,-1.4812152933448552,0.013362681854888796,-0.1525498379446566
1774473187847954000,1.437953857421875,-1.9162679215759038,-0.1653198146034032,-0.23114282460100946
1774473187857982000,1.44798193359375,-1.968116766756773,-0.7489159677471965,-0.36536125236749645
1774473187868011000,1.458010986328125,-1.490427358326316,-1.245012335810065,-0.20923348287083207
1774473187878039000,1.4680390625,1.3904852211058139,-0.6727694243948906,0.6821607914660126
1774473187888067000,1.478067138671875,1.5181412946820259,-0.02810205889046192,0.031862251674197616
1774473187898095000,1.48809521484375,-2.2754776655763385,1.1505556442633271,-0.01908164402358234
1774473187908123100,1.498123046875,-0.9166296917498111,0.13331366094648836,-0.010552410207130014
1774473187918151200,1.508151123046875,-0.4507873729795217,-0.6486639608599245,-0.6799871737539768
1774473187928179000,1.518178955078125,-0.9905880774080753,-0.19153306407257914,-0.7374101658053696
1774473187938207200,1.528207275390625,-0.7436527134567499,-0.08820932158976792,-0.5140780514879152
1774473187948235000,1.538235107421875,-0.8157979122132062,-0.02276493564620614,-0.0020448219669051467
1774473187958263000,1.548262939453125,-1.0934317812889813,0.3358709539890289,0.22512880674218758
1774473187968291000,1.558291015625,-0.5945031854748726,0.4952136669442057,0.23073482832200823
1774473187978318800,1.56831884765625,0.3715349725663662,0.47629503146260976,0.4087657290037721
1774473187988347100,1.57834716796875,0.0998942064255476,0.8454998075157404,0.8271604332268238
1774473187998375000,1.588375,0.3357844447493553,0.29050474882572885,0.5089803264901042
1774473188008403000,1.59840283203125,0.8372025192916392,0.04874123455435037,0.3983285061415285
1774473188018431000,1.608430908203125,1.4509762224256992,0.07046542897596955,0.31659049945771695
1774473188028460000,1.6184599609375,1.7027449978828428,-0.04985840201601386,0.25653043690100313
1774473188038488000,1.628488037109375,1.5241899271965027,-0.22506394307874142,0.168397651146166
1774473188048516000,1.63851611328125,0.5297627100169658,-0.35720139985270793,-0.2916997124976478
1774473188058543900,1.6485439453125,0.4314361912995577,-1.7128147026069462,-0.5653177517944946
1774473188068572200,1.658572265625,3.2556022166371346,-3.2265450489789247,-0.6716141899451613
1774473188078600000,1.668599853515625,4.59155212995708,-1.3490429113879798,-0.11601648918688297
1774473188088628000,1.6786279296875,4.423674520629644,1.9492809872530399,0.7429120511572808
1774473188098656000,1.688656005859375,2.988620089957118,2.7913787312403318,0.8547741240784525
1774473188108684000,1.69868408203125,0.846819073420763,2.2897331315524876,0.60959689237345
1774473188118712000,1.708712158203125,-0.45333881102800366,1.9074704287447035,0.359166124054417
1774473188128740000,1.718739990234375,-1.1187637909442185,1.9312910109236836,0.10113342936430125
1774473188138768000,1.728767822265625,-1.1217290704905987,2.243474361463636,-0.040962819105200464
1774473188148796200,1.738796142578125,-0.7379021871060133,2.2741003858737647,-0.2739577013136819
1774473188158824000,1.748823974609375,-0.326433848080039,2.114313436282426,-0.7280399876527488
1774473188168852000,1.75885205078125,-0.05431728112101555,1.7765895479030906,-1.0607337729103863
1774473188178881000,1.768881103515625,-0.22839432961046693,1.383097010550648,-1.2778379160910844
1774473188188909000,1.778908935546875,-0.2392442249268293,1.2235146436206996,-1.315226566503942
1774473188198936800,1.788936767578125,-0.12417115406990051,1.2510899021580815,-1.16133919634521
1774473188208965000,1.798965087890625,-0.14121931950449942,1.3132321778163314,-1.0190223639275877
1774473188218993000,1.808992919921875,-0.23955694413781164,1.3599417604126036,-0.9184135064266622
1774473188229021200,1.819021240234375,-0.24318507150709628,1.3423917829357086,-0.7223319122042506
1774473188239049000,1.829049072265625,-0.34398704042732714,1.1890972641035913,-0.5900250902127474
1774473188249077000,1.839076904296875,-0.5301905800402165,0.9207806739494204,-0.5674330269154161
1774473188259105000,1.84910498046875,-0.5618231511443853,0.6485835891000926,-0.46946591609492894
1774473188269133000,1.859133056640625,-0.569004002559185,0.502674065952748,-0.3777035781987011
1774473188279161000,1.8691611328125,-0.6227028595209121,0.5541985014848411,-0.22200521309524773
1774473188289189000,1.879189208984375,-0.5138344885230064,0.5630176216259598,-0.11153262177109717
1774473188299217000,1.889216796875,-0.33093758924007416,0.5442360565274954,-0.07111950897052884
1774473188309245200,1.8992451171875,-0.09957038129866122,0.4293216833636164,-0.05398337299153209
1774473188319273000,1.90927294921875,4.309602735769748,-1.0206878859870134,1.758979656932503
1774473188329301000,1.919301025390625,1.4719330857366322,-2.5807956603914497,-0.7490360139302908
1774473188339330000,1.929330078125,2.5587276209682224,-3.4472067385107277,0.0700600630454719
1774473188349357300,1.939357421875,1.1272305905163287,-4.534521205963194,0.4731359829097986
1774473188359385600,1.949385498046875,-0.5480085608035326,-4.66128325330913,1.475497500219941
1774473188369413400,1.959413330078125,-3.601577800533175,-2.8117572101414203,1.8804802766188977
1774473188379441400,1.96944140625,-2.780309932476282,-0.8766589158892631,3.087222503006458
1774473188389469400,1.979469482421875,-2.0172078376621005,0.4843003510028124,2.0196160678476094
1774473188399497500,1.98949755859375,-1.0399643949955701,1.5393381042286753,1.6128605826877056
1774473188409525500,1.999525390625,-0.33695816470384593,1.2342331676423548,0.40358313873410223
1774473188419553500,2.009553466796875,0.21818623932898043,0.25971242793798444,-0.22831015845835206
1774473188429581300,2.019581298828125,1.0806763446122407,-0.2684729497596621,-0.43574236406087874
1774473188439609600,2.029609619140625,1.4615128140091895,-0.45552521515637634,-0.5794228129819036
1774473188449637400,2.039637451171875,1.1730278805732726,-0.6725742671489715,-0.5687362915337085
1774473188459665400,2.04966552734375,0.8821317943423986,-0.4881994042679667,-0.26401597035080193
1774473188469693400,2.059693359375,0.31309505855739117,-0.23911270750164984,-0.04319266051650047
1774473188479721200,2.06972119140625,-0.40868016961216924,0.36135873872786756,1.5072452221363781
1774473188489750300,2.079750244140625,-0.6922545346528292,1.0753910976856946,1.8987576915875075
1774473188499778600,2.089778564453125,-0.03856207810640335,0.7171975449904799,1.0751458907529712
1774473188509806300,2.099806396484375,0.05904840129613876,0.5863891448631883,0.9710425421997905
1774473188519834600,2.109834716796875,-0.4557330126881599,2.7320725557908414,1.8794284294784067
1774473188529862400,2.1198623046875,0.3310398805707693,-1.6427800662636756,0.2812248793050647
1774473188539890400,2.129890380859375,-0.8321388061612844,-1.8651339466661214,-0.5895248125404119
1774473188549918500,2.13991845703125,-0.8569014914959668,-1.7070602307334541,0.039104222159087654
1774473188559946200,2.1499462890625,-5.0553620661169285,-0.3259530788257718,0.29458412709385157
1774473188569974500,2.159974609375,-9.999072267997263,-1.7215195487186312,-1.2718036043629048
1774473188580002300,2.170002197265625,6.021236558029055,-1.650860204605758,-2.041821762175858
1774473188590030300,2.1800302734375,6.8030117891311646,0.40064240910708904,5.015226455083489
1774473188600058400,2.190058349609375,1.1287813270896672,-0.047531274242699144,5.144738970181345
1774473188610086400,2.20008642578125,-3.3794682502806186,-1.5513278172299265,2.4397667488925157
1774473188620114400,2.210114501953125,-0.7231815878361463,-0.4532742213591933,2.4299722078479826
1774473188630142500,2.220142578125,0.8103980989962816,1.792570814758539,-1.1158138550974428
1774473188640170200,2.230170166015625,1.036724974682927,2.454099664019048,-1.371736096972227
1774473188650199300,2.24019921875,1.7334212911754845,0.7326599025383591,-0.08818409581696614
1774473188660227300,2.250227294921875,0.23242928421497344,-0.8887430291756987,-0.7012016650877892
1774473188670255400,2.26025537109375,0.2791425200730562,-0.7676172341510653,-1.1481536976881324
1774473188680283400,2.270283447265625,0.38478140763044355,-0.019964637403190134,-1.6633974684871733
1774473188690311400,2.2803115234375,-0.156369542363286,0.18721242439448832,-1.6274533177942037
1774473188700339200,2.290339111328125,0.636140433242917,-0.4761556229919195,-1.780346123957634
1774473188710367500,2.300367431640625,0.8956856879204511,-1.47247844465971,-2.355669100405276
1774473188720395300,2.310395263671875,-0.4560603449463844,-1.6157859686151146,-1.8304431570351123
1774473188730423600,2.320423583984375,-1.2358289124011992,-0.805240570102632,0.23620763370990752
1774473188740451300,2.330451416015625,-1.780437309372425,0.2971729745432734,1.2883809374153614
1774473188750479400,2.340479248046875,-0.8631313257962465,0.794225839613378,1.376048845604807
1774473188760507400,2.35050732421875,-0.5075011938482523,0.3065428604349494,0.21520824643149972
1774473188770535400,2.360535400390625,-0.5931295590341091,-0.5496797088861465,-0.6292268544621765
1774473188780563500,2.3705634765625,-0.5226023168683052,-1.1561091867372393,-0.7909620155118405
1774473188790591500,2.380591552734375,-0.6153454824954271,-1.4541253341063856,-1.6246381142430006
1774473188800620300,2.390620361328125,-0.7746715365767478,-1.6560121805414556,-2.4743098006159068
1774473188810648300,2.4006484375,-0.9209721048682927,-1.6475380744457244,-2.152100438363105
1774473188820676400,2.41067626953125,-0.7142927634596824,-1.7320016336359083,-1.8696157682552932
1774473188830704400,2.420704345703125,-0.9400830480515956,-2.0856210102833805,-2.4031961368642745
1774473188840732400,2.430732421875,-0.4092062393128872,-2.1993628325365484,-2.703208864878118
1774473188850760400,2.440760498046875,-0.10775251871049403,-1.6078864475369452,-2.3663658509865404
1774473188860786400,2.450786376953125,-0.09652969842851161,-1.7785149630077182,-2.410778847078234
1774473188870814200,2.460814208984375,-0.5143360083043576,-1.0923823453012853,-1.9114507305525241
1774473188880843500,2.470843505859375,-0.23291326833963394,-0.9386531613789498,-1.4758406145691871
1774473188890871600,2.48087158203125,0.03690554307103157,-0.9531398788277059,-1.0910539462417363
1774473188900899300,2.4908994140625,-0.28918928231298924,-0.8477963940203189,-0.3249798498794436
1774473188910927400,2.50092724609375,-0.019375147077441215,-0.5776991675270721,0.23440759855061769
1774473188920955400,2.510955322265625,0.46564942654669284,-0.40062604249417777,0.16435221168026326
1774473188930983400,2.5209833984375,0.7253647770941257,-0.6840649445869028,-0.18772154296040533
1774473188941011500,2.531011474609375,1.0565011037766934,-1.0855581253044306,-0.5020207166105508
1774473188951039200,2.541039306640625,0.8953823210597037,-1.2727069829434157,-0.5631327724382281
1774473188961067500,2.551067626953125,0.7028326272904872,-1.1908316136155277,-0.34163463208228345
1774473188971095300,2.56109521484375,0.845946382239461,-0.930935791934654,-0.25185703826248645
1774473188981123300,2.571123291015625,1.084289858934283,-0.4875154405917972,-0.06233619079515337
1774473188991151400,2.5811513671875,0.8734113122701644,-0.19568499612025916,0.30243586350753904
1774473189001179400,2.591179443359375,0.8563456111788749,-0.044538229906558986,0.6583737462304532
1774473189011207400,2.60120751953125,0.6622416737049818,0.2587467977762222,0.9016917964674532
1774473189021235500,2.6112353515625,0.6270405964642762,0.76488094105497,1.2872140855930745
1774473189031263200,2.62126318359375,0.6198954008847475,0.7068395248442888,1.2572433102212845
1774473189041292500,2.63129248046875,0.2256552600353956,0.6786451114952564,1.3623425379440188
1774473189051320300,2.6413203125,0.33596155488193036,0.7959349816188216,1.617269485171139
1774473189061348400,2.651348388671875,0.36426936547756195,0.9286632438927889,1.7143286143012344
1774473189071376400,2.66137646484375,-0.01667231785953045,1.1217428067550061,2.0319696457251903
1774473189081404400,2.671404296875,0.03299216901957989,1.3502271527364849,2.2132672931179402
1774473189091432400,2.681432373046875,0.19254794020354746,1.544060748836398,1.9703001021452247
1774473189101460500,2.69146044921875,0.026200024661421774,1.484634161877632,1.7235064847521482
1774473189111488300,2.70148828125,-0.24521570055186748,1.3276812666684388,1.6812630877844987
1774473189121516500,2.7115166015625,-0.06092939273715019,1.2765049139216542,1.4471788759693502
1774473189131544300,2.72154443359375,0.03415419853627682,0.9939622300162911,0.9061807053845375
1774473189141572400,2.731572265625,-0.399008670425415,0.7201677929729223,0.6327996714476496
1774473189151600400,2.741600341796875,-0.46962475991845126,0.7544780588537454,0.669454600758478
1774473189161628400,2.75162841796875,-0.8005833919465541,1.0562561891049147,0.8117547743022442
1774473189171656400,2.761656494140625,-1.135193532219529,1.3155907236412168,1.1197913804262876
1774473189181684500,2.7716845703125,-1.1785130339860916,1.6517267583072184,1.3292999539114534
1774473189191713300,2.78171337890625,-1.0792489421576261,1.6602195691034196,1.214148337925598
1774473189201741600,2.791741455078125,-0.5357786093056202,1.378927469781041,0.7267356270559132
1774473189211769300,2.801769287109375,-0.16904548406302927,0.9646879124760627,0.20489128894805908
1774473189221797400,2.81179736328125,-0.17731763784587382,0.6525988160908222,0.10739800618439913
1774473189231825400,2.821825439453125,0.04022796549201012,0.614232260556519,0.19813264500070363
1774473189241853400,2.831853515625,-0.03968143752515316,0.9060887162521482,0.44076033835336564
1774473189251881500,2.841881591796875,-0.08217793247103691,1.3442416485860944,0.8217021678209304
1774473189261909500,2.851909423828125,0.10173545037806034,1.6612962584242223,0.8807415820930152
1774473189271937300,2.861937255859375,0.15722703597545623,1.6235057492122054,0.6671447894461453
1774473189281965600,2.871965576171875,0.4203291063517332,1.2948656232595444,0.2481836469793692
1774473189291993300,2.881993408203125,0.5259656558215617,0.9047539605170488,-0.19415071749137713
1774473189302021400,2.892021484375,0.4224935909092426,0.8152442238532006,-0.20935793123440816
1774473189312049400,2.90204931640625,0.44459962425529953,0.9822735457882285,-0.013072530668741091
1774473189322077400,2.912077392578125,0.44677696829438207,0.9343654010571539,-0.1316091220509261
1774473189332105500,2.92210546875,0.261869313710928,0.6422299822896719,-0.31479433675594626
1774473189342133500,2.932133544921875,0.2500783381521702,0.576437951952219,-0.29956706660557536
1774473189352161500,2.94216162109375,-0.06188040985167026,0.6382575715273618,-0.16895006086453795
1774473189362190800,2.95219091796875,-0.05974632043242454,0.8196712465152144,0.09869285867861471
1774473189372218600,2.962218505859375,-0.1543009193956852,1.040180668094754,0.18170620992733164
1774473189382246700,2.97224658203125,-0.6205383749634027,0.9617989130362867,0.22774572950862346
1774473189392274700,2.982274658203125,-0.48861529159247874,0.773199710458517,0.0766251297826413
1774473189402302700,2.992302734375,-0.45542146252095694,0.727721569353342,-0.22229438703386112
1774473189412330800,3.002330810546875,-0.4879670568168163,0.74018357604146,-0.32572650352828203
1774473189422358800,3.01235888671875,-0.528591328150034,0.7341323131784796,-0.3118182070219889
1774473189432386600,3.022386474609375,-0.6353805547863245,0.779410255536437,-0.21676438983231783
1774473189442414800,3.032414794921875,-0.5817068322658538,0.6771373372808098,-0.2822276631394401
1774473189452442600,3.042442626953125,-0.5241840331017971,0.5612240162074565,-0.3263015269372612
1774473189462470700,3.052470703125,-0.36985914830863476,0.56214083879143,-0.1801757306907326
1774473189472498700,3.062498779296875,-0.2907762592434883,0.5425716304466128,-0.2064857002663426
1774473189482526700,3.072526611328125,-0.18379530942738054,0.48286096584945915,-0.4542775166502222
1774473189492554800,3.0825546875,0.3154372377693653,0.9259820419847965,-1.3996252437643706
1774473189502582800,3.092582763671875,0.3887006269007921,0.19680267503857612,-0.7264185969959944
1774473189512611600,3.102611572265625,-0.385959219238162,-0.08350684298723936,-1.3709309180691838
1774473189522640000,3.112639892578125,-0.14256839602589608,-0.4441293763950467,-1.4626339269936084
1774473189532667600,3.122667724609375,-0.1083247656404972,-0.36240561743229627,-1.1287418718621134
1774473189542695700,3.13269580078125,-0.24503917494118213,-0.04501110811531543,-0.6176183227982371
1774473189552723700,3.1427236328125,-0.020533669462800025,0.04089607401192188,-0.1660583945436403
1774473189562751700,3.152751708984375,0.43636371082961556,0.21986060228198764,-0.11601345697958022
1774473189572779800,3.16277978515625,0.4745031796097755,0.2177384955614805,-0.26457860920224335
1774473189582807800,3.172807861328125,-0.04058218575716018,0.1775192978978157,-0.2906885078947991
1774473189592835600,3.182835693359375,0.3244792068809271,0.08836977284848689,-0.19380955763719976
1774473189602863900,3.19286376953125,0.8464403032362461,0.16355799256265163,-0.26338654987346377
1774473189612891600,3.2028916015625,0.7172358311742544,0.08708265564739703,-0.037453568875230846
1774473189622919700,3.212919677734375,0.23075930517613885,-0.0732370856463909,-0.03584438011292368
1774473189632947700,3.22294775390625,-0.17104688701331613,-0.2672051217809319,-0.10034907405357807
1774473189642975700,3.232975830078125,-0.5479916096687316,-0.5852589717894793,-0.06905185411730781
1774473189653003800,3.243003662109375,-0.9550351179897785,-0.7007245490953325,0.0588781775620766
1774473189663031800,3.25303173828125,-0.7958195385456085,-0.5834665354147553,0.34476617157366124
1774473189673059600,3.2630595703125,-0.48291444960236546,-0.3223503781586885,0.6679417850427329
1774473189683089000,3.2730888671875,-0.4969698629617691,-0.12833558027297257,0.7433247236113995
1774473189693116700,3.28311669921875,-0.4752116201400757,-0.22819588442891836,0.604429134346731
1774473189703144700,3.293144775390625,-0.5018126268178225,-0.38187311896830795,0.4850082070112228
1774473189713172700,3.3031728515625,-0.2487994042575359,-0.48637949536442754,0.7247492024790495
1774473189723200800,3.31320068359375,0.11840835275948047,-0.6233347276836634,0.8536476042665541
1774473189733228800,3.323228759765625,0.5148556482642889,-0.6870661722294986,0.6146111768715083
1774473189743256800,3.3332568359375,0.9487661207228898,-0.8077797331914305,0.313781214190647
1774473189753284600,3.34328466796875,0.8832119907945394,-1.203943243318796,0.4285773678023368
1774473189763313000,3.35331298828125,0.3197597771435976,-1.3337097331777215,0.34511122215166684
1774473189773340700,3.363340576171875,-0.37781799835860724,-1.7823858130916952,0.44120008147750045
1774473189783368700,3.37336865234375,-0.818981802946329,-2.0183691365264353,0.4945335026603192
1774473189793396700,3.383396728515625,-0.388277433052659,-1.7936036649376152,0.011344546965509652
1774473189803424500,3.393424560546875,0.5943786823123693,-1.5573615444362163,-0.566945024202764
1774473189813452800,3.403452880859375,1.300229780641198,-1.8028461250573395,-0.6797847830496728
1774473189823480600,3.41348046875,1.582418244281411,-2.3333172756046054,-0.39012086896225806
1774473189833508600,3.423508544921875,1.73111710588634,-1.830596594031155,-1.04746417616643
1774473189843538000,3.433537841796875,1.9103531445741653,-1.6822596976064144,-1.261431409560889
1774473189853565700,3.443565673828125,1.8958236839622258,-1.8344250662781296,-1.159653069889173
1774473189863593700,3.45359375,1.7221902875870465,-1.6861305476903914,-1.1556857736933976
1774473189873621800,3.463621826171875,1.6318705497145651,-1.685782757166028,-0.9213451028991491
1774473189883649500,3.4736494140625,1.7299147443592546,-1.8047532738529144,-0.782961591342464
1774473189893677800,3.483677734375,1.8203011177271604,-1.7809445282422005,-0.9854048295512795
1774473189903705600,3.49370556640625,1.8193214590400457,-1.7770060197494923,-1.145691180032119
1774473189913733600,3.503733642578125,1.469949218443036,-1.7620595027692616,-1.0718831626299767
1774473189923761700,3.51376171875,1.025001803663373,-1.901265290494263,-0.822232621435821
1774473189933789700,3.523789794921875,0.6441635807007551,-1.7253496284008025,-0.8209583637163043
1774473189943817700,3.533817626953125,0.31408406959474083,-1.495962196099758,-0.8478893330007791
1774473189953845800,3.543845703125,0.15572539924085138,-1.4908283403426408,-0.7012699080184102
1774473189963873500,3.55387353515625,0.24421909072995185,-1.5831389597713947,-0.5076690246958285
1774473189973901800,3.56390185546875,0.48872635075151916,-1.7414508683741092,-0.22518165117427705
1774473189983929600,3.5739296875,0.7123831304460764,-1.7188731258630752,-0.19593670585900544
1774473189993957600,3.58395751953125,0.9366460593402385,-1.5808488030076027,-0.260786304247193
1774473190003985700,3.593985595703125,1.1973217793524265,-1.5827850317671894,-0.24794684254880994
1774473190014014700,3.6040146484375,1.4488345342218876,-1.6125556083917616,-0.29403990068193525
1774473190024042500,3.61404248046875,1.6879297060668468,-1.590152637925744,-0.5000108380928635
1774473190034070800,3.62407080078125,1.8653800303816794,-1.4451777652800082,-0.8814614208001643
1774473190044098600,3.6340986328125,1.9984370862185954,-1.3926602270573376,-1.0791219547770916
1774473190054126800,3.644126953125,2.0247318034261466,-1.329423141899705,-1.0878333036947996
1774473190064154600,3.654154541015625,1.8910311889886855,-1.106852988398075,-1.1048939632847905
1774473190074182700,3.6641826171875,1.7262275802791118,-0.9980573903754353,-0.9614750148441642
1774473190084210700,3.674210693359375,1.5454378824084996,-0.9194865424856543,-0.6074159316051752
1774473190094238700,3.68423876953125,-1.43909464597404,0.6264988908030092,1.241581192317605
1774473190104266800,3.694266845703125,-20.338044014847277,13.33716104466319,14.775468339651821
1774473190114294800,3.704294677734375,-10.555233155596255,21.864036607551572,17.180503528511522
1774473190124322600,3.714322509765625,-2.5593945604443546,4.55062478402406,7.07560883308351
1774473190134350800,3.724350830078125,1.0984861420691012,-2.0293378359168766,-0.5242573905989527
1774473190144378600,3.734378662109375,1.072187917730212,-2.382134498004615,-3.6936823759958144
1774473190154407000,3.744406982421875,0.9962614468693732,-3.1830361621201035,-4.671565577870607
1774473190164434700,3.7544345703125,-0.08791559934020042,-3.2488115335837007,-5.552945092540979
1774473190174463700,3.764463623046875,-0.8866916496038436,-3.1542990201964973,-5.605826203379035
1774473190184491500,3.774491455078125,-0.6431546959191561,-2.760934200876951,-4.430771785414219
1774473190194519800,3.784519775390625,0.056932432055473325,-1.8320315952703357,-2.83730841550529
1774473190204547600,3.794547607421875,1.1109037250936031,-2.3645427272126076,-2.1727570035532118
1774473190214575900,3.804575927734375,2.133462811779976,-3.2105285646796227,-1.9671461681589484
1774473190224603600,3.814603759765625,2.8842992992609737,-3.5550434283733368,-1.8293802039787173
1774473190234631700,3.824631591796875,2.8162217883348464,-3.1286528300255534,-1.8337068350061774
1774473190244659700,3.83465966796875,3.0438170765221115,-3.1151728784665464,-1.7620238469339906
1774473190254687700,3.844687744140625,3.449380575418472,-3.0189138136729596,-1.8408163747504351
1774473190264715800,3.8547158203125,3.647064124944806,-2.4758935626760126,-1.9960107358545063
1774473190274743800,3.864743896484375,3.7525405154168605,-2.31443546500206,-1.9289331957511602
1774473190284771600,3.874771484375,4.091059938088059,-1.5828481601312756,-0.2079340907100588
1774473190294800000,3.8847998046875,1.3641519254535437,1.8722133835330605,2.410967355387658
1774473190304827600,3.89482763671875,-7.7703540155082935,16.75694727680683,20.05385181016922
1774473190314856000,3.90485595703125,-11.435915920174121,14.970933628606796,15.412144779467582
1774473190324883700,3.9148837890625,-4.7044162925928825,0.7451821149811149,2.8134952859804034
1774473190334911500,3.924911376953125,2.1562129882484675,-4.212556319990754,-1.3374682089284062
1774473190344940500,3.9349404296875,0.6228583423435687,-7.2979545301795,-3.7246792795449495
1774473190354972200,3.94497216796875,-3.594689210063219,-6.949847194951772,-4.3285342307329175
1774473190365000200,3.955000244140625,-5.286196190094947,-2.9981998192071915,-2.830750664424896
1774473190375028200,3.9650283203125,-5.551998751601577,0.7918646634399891,0.028849936382006853
1774473190385056300,3.97505615234375,-4.250394759997725,0.950746480885148,-1.624802511024475
1774473190395084000,3.985083984375,-4.98316601395607,-2.1455916409909723,-3.2575963130638
1774473190405112300,3.9951123046875,-1.2842156344294546,-2.4899440075993535,-3.900755392897129
1774473190415140000,4.00514013671875,-0.11807459076046943,-1.2269570391595364,-4.09632618805319
1774473190425168400,4.01516845703125,0.23430618400275705,-0.6676864951074123,-4.31208110858202
1774473190435196200,4.025196044921875,0.6810398976773023,-1.1118261006355286,-3.603838731202483
1774473190445224200,4.03522412109375,1.7090210094124079,-2.0125217256724834,-2.9368276511386036
1774473190455252200,4.045252197265625,2.5837317138433455,-2.5456314080297946,-3.2358705112069845
1774473190465280300,4.0552802734375,2.247533427596092,-2.4341771121919153,-3.3919188587918874
1774473190475308300,4.065308349609375,2.848625343811512,-2.8942835176587103,-3.387844156698882
1774473190485336300,4.07533642578125,3.5238743831276893,-4.134464780050516,-3.1625995232909916
1774473190495364000,4.085364013671875,4.327903531613946,-4.222125527846813,-2.1458155128747225
1774473190505393200,4.09539306640625,4.779952887353301,-4.230651948651671,-1.4498226684764026
1774473190515421200,4.105421142578125,4.829552492302656,-3.865480081376433,-0.6720484897091984
1774473190525449200,4.11544921875,4.103737633353472,-4.16157315172851,1.8930159330651164
1774473190535477200,4.125477294921875,2.293337731915712,-5.551000972735881,3.223360281462967
1774473190545505300,4.13550537109375,1.0899211428195237,-5.786963107252121,2.620570913679898
1774473190555533000,4.145532958984375,0.8748714479506016,-4.634973046271503,2.063830472627282
1774473190565561300,4.155561279296875,-0.12289806539416312,-3.817119370572269,1.8972025710999965
1774473190575589000,4.165589111328125,-2.077279152265191,-3.2719019017919897,1.2035510291308165
1774473190585617400,4.175617431640625,-3.5073400124341245,-2.607145614917576,0.07859948946237563
1774473190595645200,4.185645263671875,-4.2910611169070005,-2.115157924282551,-0.6751239516317844
1774473190605673200,4.195673095703125,-4.64451741194725,-1.9503405793085693,-0.7931190474152564
1774473190615701200,4.205701171875,-4.421342278289795,-1.6962933375254272,-0.5646574977874755
1774473190625729000,4.21572900390625,-4.057306721568107,-1.6178228812702,0.4352952048152685
1774473190635757300,4.22575732421875,-4.143623069018125,-3.422209367637336,2.7782740427345036
1774473190645785000,4.23578515625,-4.154973315072059,-3.0786572114959356,2.884650012394786
1774473190655813000,4.245813232421875,-4.4794045911580325,-4.016274453955888,3.798219147530198
1774473190665841200,4.255841064453125,-4.367271080884337,-5.207043742924928,5.01017092525959
1774473190675869200,4.265869140625,-4.126957180899382,-5.996203239059448,6.469158604705333
1774473190685898200,4.275898193359375,-4.256424687811732,-6.284485343399644,7.639075659781694
1774473190695926300,4.28592626953125,-4.84672223829031,-6.622343671813606,7.98168439759314
1774473190705954300,4.295954345703125,-5.38242485975027,-6.930391968375444,7.5878709577232595
1774473190715982000,4.305982177734375,-5.861512444540858,-6.883996127903461,7.100016129109263
1774473190726010000,4.316010009765625,-5.902564585897326,-6.536368685147166,6.685775987282395
1774473190736038100,4.3260380859375,-3.172733379292488,-6.625849049586058,5.632292185500264
1774473190746066200,4.336066162109375,-6.947718366229534,-4.558274714255333,4.983493346214294
1774473190756094200,4.34609423828125,-4.230928719766438,-4.245631783379614,3.9138556974887844
1774473190766122000,4.3561220703125,-3.831357739283144,-3.649803779041767,2.228470999729633
1774473190776150300,4.366150390625,-3.472532902947068,-3.1970202638089655,0.4367348822295665
1774473190786178000,4.376177978515625,-3.953730904020369,-2.7139854026973245,-0.947508814138174
1774473190796206300,4.386206298828125,-3.971967110195756,-1.7172089920431375,-1.6526462112396954
1774473190806234000,4.396234130859375,-3.4347283652096983,-1.1259329519212244,-3.076200173732638
1774473190816262100,4.40626220703125,-3.58349736944139,-0.8105582579940557,-5.7203357951343055
1774473190826290200,4.416290283203125,-5.156362187957764,0.21123452049493788,-8.297092409268021
1774473190836318200,4.426318115234375,-6.446378033098578,1.6098124471634625,-10.505468130952119
1774473190846347000,4.436346923828125,-8.073177855420113,2.90784267193377,-11.664295636737346
1774473190856375300,4.446375244140625,-8.021116244271397,4.116854889079928,-11.593370919686555
1774473190866403000,4.456403076171875,-6.814623900991678,4.394918966266513,-10.746391687268018
1774473190876431000,4.46643115234375,-6.9776201680183405,3.547282146722078,-10.137616815334558
1774473190886459100,4.476459228515625,-7.55301241030991,3.158669198104739,-9.776274150958656
1774473190896487200,4.486487060546875,-7.4234373513698575,3.2846067773252723,-9.180461636450886
1774473190906515200,4.49651513671875,-6.798676974797249,2.619137958267331,-8.482678109243512
1774473190916543200,4.506543212890625,-6.990644484764337,2.0143442649245262,-8.037973271048068
1774473190926571000,4.516571044921875,-6.670437548375129,2.154381681168079,-7.770879500687122
1774473190936599300,4.526599365234375,-5.0180684005111456,2.3122049294710156,-7.235473231825232
1774473190946627000,4.536626953125,-3.0853415115654466,2.3379876055032014,-6.743534348767995
1774473190956655400,4.5466552734375,-1.4589964472740888,2.4740152015835046,-6.253644799456
1774473190966683100,4.55668310546875,-0.3042915743768215,2.6756314143836497,-5.814415177801251
1774473190976711200,4.566711181640625,0.4508505013436079,2.5765479398190974,-5.410202508991956
1774473190986739200,4.5767392578125,1.1504396166682243,2.468755673620105,-4.769179564404487
1774473190996767200,4.586767333984375,2.3151783923238516,2.344603808772564,-4.146371490943432
1774473191006795300,4.596795166015625,3.209140325191617,2.321162142908573,-3.5098166316807267
1774473191016824300,4.60682421875,3.4143659606605765,2.259898403650522,-2.9785049386560916
1774473191026852000,4.61685205078125,3.4868139417558908,2.016581814718246,-2.757386737528443
1774473191036880100,4.626880126953125,3.636185003533959,1.5859236220538615,-2.4745927092105147
1774473191046908200,4.636908203125,7.338382986679672,0.4564011212080717,-2.0290750933274624
1774473191056936200,4.646936279296875,9.875196882003545,-1.0023843136638402,-1.0084373300924896
1774473191066964200,4.656964111328125,6.3785074429214,-0.7416185772806405,1.1202122361868618
1774473191076992300,4.6669921875,3.338776758930087,-1.9065262797623872,1.5221139977052807
1774473191087020000,4.67702001953125,2.0324211888849733,-3.2241350652277467,1.6679051551699637
1774473191097048300,4.68704833984375,3.1033371869832274,-5.19088931145966,1.772867166379094
1774473191107076000,4.697076171875,2.624695884655416,-4.068011655455828,2.476585928854346
1774473191117104400,4.7071044921875,2.170050374943018,-2.1200515415430066,2.4811317555904386
1774473191127132200,4.717132080078125,1.3209902445971966,-1.1849936281770468,1.8991703640416264
1774473191137160200,4.72716015625,0.8506780869364738,-0.5872334867328405,1.3028802951499818
1774473191147188200,4.737188232421875,0.17017127322256564,0.27798165960013865,1.4868611902773379
1774473191157216300,4.74721630859375,-1.5765636730343102,0.5210258613318205,1.054112747335434
1774473191167244300,4.757244384765625,-2.1386381685912608,-0.09519114330112934,0.5575184396877885
1774473191177273300,4.7672734375,-1.8507210981711744,-0.06776011554002762,0.35440906572043895
1774473191187301000,4.777301025390625,-1.6907365801811218,0.467435725441575,-0.040863925307989116
1774473191197329400,4.787329345703125,-1.5319132149249315,0.9977449634253979,-0.36981940082013603
1774473191207357200,4.797357177734375,-1.1375944558814168,1.3894383424013852,0.673388506141305
1774473191217385200,4.80738525390625,-0.9645166475623845,0.3964519716799259,-0.29397008684873577
1774473191227413200,4.817413330078125,-1.42501351365149,0.5389776976078748,-0.43657004705667496
1774473191237441300,4.827441162109375,-0.47283320057094097,0.7636854476600885,0.437813909637928
1774473191247469300,4.83746923828125,-0.6380877679184079,0.7849217124342918,-0.25253683722019193
1774473191257497300,4.847497314453125,-0.5844701594993472,0.7734475477397441,-0.5578513249039649
1774473191267525000,4.857525146484375,0.7675161118641495,0.4735065697878599,-0.9184323572576045
1774473191277553400,4.867553466796875,1.4764184144571422,0.6856997061818838,-1.1126099444895983
1774473191287581200,4.877581298828125,1.705068472394347,0.3202577897936106,-0.9679010293036698
1774473191297609200,4.887609130859375,1.9143740706533192,0.5493348409712314,-0.6953869874596595
1774473191307637200,4.89763720703125,1.3169859773918986,1.0292179600536822,-0.04143909484744072
1774473191317665000,4.9076650390625,0.8772899072691798,1.0152204143613577,0.6984247477203607
1774473191327693300,4.917693359375,0.31705139496773477,0.9817442612171172,0.9220768512398004
1774473191337722400,4.927722412109375,-0.2800289475187659,1.3094009290903805,0.7741793691456318
1774473191347750100,4.937750244140625,-1.4388579146087168,0.7800432927429676,0.12912731517255305
1774473191357774800,4.94777490234375,-2.1312810838267207,-0.9234656752496957,-0.9069891722232103
1774473191367803100,4.95780322265625,-2.0848457881271836,-2.596280814293027,-1.4174895478874445
1774473191377831000,4.967830810546875,-0.7944859518542885,-2.806077995461225,-1.6922370478719473
1774473191387859200,4.977859130859375,1.0665998884648085,-0.7773164981275796,-1.1695891382962464
1774473191397887000,4.987886962890625,1.47323335468024,1.574454718056321,-0.9039847297102213
1774473191407915000,4.9979150390625,1.549424613957107,2.8277807087033984,-0.724726479190588
1774473191417943000,5.007943115234375,1.3120815464764832,2.2772060968041417,-1.4425538465172052
1774473191427971000,5.01797119140625,1.4945011836364865,1.6762100421786308,-1.9721552284926176
1774473191437999000,5.0279990234375,1.3299386902064083,1.3447989902079105,-2.014904236894846
1774473191448027100,5.038027099609375,0.18501345304548739,2.2344518277049064,-1.8612661653220652
1774473191458055000,5.048054931640625,-0.12688012076765298,3.5128175670623776,-1.8226485576361418
1774473191468083200,5.058083251953125,0.19526099855452775,2.466292498376965,-1.4393366380363701
1774473191478111000,5.068111083984375,-1.2647937256008386,-0.4286535748437047,-0.8759136504799127
1774473191488139300,5.07813916015625,-0.5724129342198372,-1.2913652139231562,-0.6356862597346306
1774473191498168000,5.08816796875,0.13515899655222893,-1.2826675282046198,-0.9412573525279759
1774473191508196000,5.098196044921875,0.028310148683190345,-1.4684844065874814,-0.5795838487625121
1774473191518224100,5.10822412109375,0.27968495638668533,-1.7829934235960243,-0.3151116590768099
1774473191528252200,5.118252197265625,0.5263625461846589,-1.690426199057698,0.03075111209452152
1774473191538280000,5.128280029296875,0.40548634200692174,-0.47135026853680606,0.45206689139604567
1774473191548308200,5.13830810546875,1.0101982022851705,1.2476654806673526,0.6938637234151362
1774473191558336000,5.1483359375,1.5108382781922816,2.4597742025241254,0.7045347550332546
1774473191568364000,5.158364013671875,1.0468658449470996,1.7224182511240242,0.8768997389078139
1774473191578392000,5.16839208984375,0.10130056609213352,0.12283259894251823,0.6356897668659687
1774473191588420000,5.178420166015625,-1.1488742670476435,-0.11406272477060556,0.10777706862986088
1774473191598448000,5.1884482421875,-1.5932655092492698,0.6585647387579083,-0.134741063401103
1774473191608476000,5.198475830078125,-0.9401958607763051,1.4385302900895476,-0.1594417894154787
1774473191618504000,5.20850390625,-0.8297633092015981,1.9487343131557107,-0.05222118562459945
1774473191628532000,5.218531982421875,-0.6213470609977841,0.6478422692134976,-0.15462357547879219
1774473191638560000,5.22856005859375,-0.8951631253510713,-0.017985154023766516,-0.7102823587745428
1774473191648589000,5.238589111328125,-1.4007207839161158,-0.2076344501763582,-1.2501952914059162
1774473191658617000,5.2486171875,-0.9358926106244325,-0.5038029238522053,-1.5199305161863566
1774473191668645000,5.25864501953125,-0.3399380572974682,-0.6260773043900728,-1.6210738458901643
1774473191678673200,5.268673095703125,0.18206775498241184,-1.1443547437965869,-1.676340390560031
1774473191688701200,5.278701171875,0.5086380889236927,-1.621878148010373,-1.7706565045922993
1774473191698729000,5.28872900390625,-0.48137657251060006,-0.6559709228724241,-2.0500766725629567
1774473191708757000,5.298757080078125,-0.8254980529725551,1.32053607108891,-1.8998358422130346
1774473191718785000,5.308784912109375,0.26650164968669415,2.121772373986244,-0.9801666366368531
1774473191728813000,5.31881298828125,0.3663789049774408,1.6100959402799606,-0.2757891179919243
1774473191738841000,5.328841064453125,-0.12749533005654812,0.8089210121810436,-0.5114700974792242
1774473191748868900,5.338868896484375,-0.857772136850655,0.26696576006710526,-0.9958306542366743
1774473191758897200,5.348897216796875,-1.8312562269836663,0.5659019448906183,-0.5578256059408188
1774473191768925000,5.358925048828125,-0.6466045441120862,2.0008084915250537,1.1349509556353092
1774473191778953000,5.368952880859375,0.8067758168458938,1.9957728354454038,1.8801234260052442
1774473191788981000,5.37898095703125,0.9316057270854711,2.5877321816563605,3.2549738556057215
1774473191799010000,5.389010009765625,1.297083883830905,2.7764392285227775,2.731756621709466
1774473191809037800,5.399037841796875,1.0508365021437407,2.8766052376270292,2.8599621458619833
1774473191819066000,5.409066162109375,0.47885436055660247,2.1198598183631896,2.7457956684559583
1774473191829094000,5.419093994140625,-0.5441384413719177,0.906627937695384,1.9068150335758924
1774473191839122200,5.4291220703125,-0.5930284367471933,0.747656688401103,1.8584668899923562
1774473191849150000,5.43914990234375,-0.29885201367139813,0.813306679919362,2.299731232345104
1774473191859178000,5.449177978515625,0.013735095363855362,0.002354454171657562,2.318171144399047
1774473191869206000,5.4592060546875,-0.0019356442376971244,-0.280722482740879,2.5469202787965535
1774473191879234000,5.469234130859375,-0.10847498776614665,-0.1280488722860813,2.7771628666222092
1774473191889262000,5.479261962890625,0.2036000800937414,0.24425533108711242,3.3704496620446442
1774473191899290000,5.4892900390625,-0.14514964469075203,-0.22647592876851558,3.298608414670825
1774473191909318000,5.49931787109375,-0.7688622657760977,-0.41299014176577326,3.2688135803878304
1774473191919346200,5.50934619140625,-0.8524152859926223,-0.7321852707639336,2.8624942946881053
1774473191929374000,5.5193740234375,-1.3729191692769527,-0.984590590558946,2.2450948022723196
1774473191939403000,5.529403076171875,-1.8898212286770342,-0.3955860025003552,1.6008628325104712
1774473191949431000,5.53943115234375,-1.1642813872769475,-0.5629691063091159,0.5914613335609435
1774473191959459000,5.549458984375,-0.7038423888549208,-1.3016589366614817,-0.552539774492383
1774473191969486800,5.55948681640625,0.5655386645361781,-0.7136448209449648,-1.4084762203484773
1774473191979515100,5.56951513671875,0.8723203021630644,-0.24962796403616666,-2.21760356875658
1774473191989543000,5.57954296875,0.669978989958763,-0.053802317336201666,-2.4157804547578094
1774473191999571200,5.5895712890625,0.7816162411481141,0.5915209547936916,-2.436590603074431
1774473192009599000,5.599598876953125,0.536125815308094,1.3706290125131606,-2.335037523525953
1774473192019627000,5.609626953125,0.7148417756445705,1.6516075158417225,-1.9552438411802053
1774473192029655000,5.619655029296875,0.590671644487977,1.7516607122212646,-1.4725082552760838
1774473192039683000,5.62968310546875,0.23476181881576774,1.7119871657416224,-1.2315589799970388
1774473192049711000,5.639711181640625,0.0652783817268908,1.5835853883646427,-0.8964256926327944
1774473192059739100,5.6497392578125,-0.17382102790176868,1.1308829755440353,-0.22869009768664836
1774473192069767000,5.659766845703125,-0.9767524442791938,0.8855385340459644,0.30639293057024475
1774473192079795200,5.669795166015625,-1.7806905534811317,0.5429650136783719,0.4288508509814739
1774473192089823000,5.679822998046875,-1.679003472289443,0.16124737753272056,-0.10827508127987384
1774473192099852000,5.68985205078125,-1.902286596366018,-0.9330367828018963,-0.40151743837594983
1774473192109880000,5.699880126953125,-1.9699772999316454,-2.0694605874687433,-0.18322013988792896
1774473192119908000,5.709908203125,-1.499835822662711,-2.5250509768158196,-0.05448796151280403
1774473192129936000,5.719935791015625,-1.1784721174538135,-2.578626207397878,0.9448720358937979
1774473192139964200,5.729964111328125,0.15147227184101938,-2.1021014588326215,1.5209376474022864
1774473192149992000,5.739991943359375,2.0250480297684668,-2.7085645466923713,1.1124643985390663
1774473192160020200,5.750020263671875,2.879171873244643,-2.0605324539951977,0.8244096732139586
1774473192170048000,5.760048095703125,3.129505647462606,-0.7858798899419606,0.4779372457116842
1774473192180076000,5.770075927734375,2.6449264795184133,-0.15562314444277434,0.9160761495202779
1774473192190104000,5.78010400390625,2.19968636540249,0.35834815873503684,0.8032260154098272
1774473192200132000,5.790132080078125,1.0309843852043152,0.6324412864640355,0.29262101032733917
1774473192210160000,5.80016015625,-0.6920141500256956,0.5916966036215424,-0.10787059213221073
1774473192220188200,5.810188232421875,-2.087674874073267,0.5263734694374725,-0.7096709488779306
1774473192230217000,5.820217041015625,-1.7030927884072065,0.5934933508452027,-1.783592558532953
1774473192240245000,5.830244873046875,-0.6797182936847209,1.222419980251789,-1.4063649272829293
1774473192250273000,5.84027294921875,1.5792919289544223,1.2408815196156502,-1.2470312744170426
1774473192260301000,5.850301025390625,2.786407957090437,0.8682170315627008,-1.9208663552820682
1774473192270329000,5.8603291015625,1.549027431333065,1.0167048077002168,-1.665457762017846
1774473192280357000,5.870357177734375,0.049020343756675716,-0.16500545142460613,-1.1896475914627314
1774473192290385000,5.880385009765625,-0.9462316338092088,-1.4302587208285926,-1.3519663976192473
1774473192300413200,5.8904130859375,-1.1156062036961316,-1.625458198454231,-1.2502303627192974
1774473192310441000,5.90044091796875,-0.9704013216868043,-1.3799839930966495,-0.8645084593683481
1774473192320469200,5.91046923828125,-0.6511983016431331,-1.0710697273552416,-0.7347650581240653
1774473192330497000,5.9204970703125,-0.2177694752216339,-1.4286483630225062,-1.1077543211519718
1774473192340525000,5.930525146484375,0.2898416087418794,-1.4722484352961183,-1.82449798489511
1774473192350553000,5.940552978515625,0.371324544686079,-0.8202187973953783,-1.3927233554214238
1774473192360580900,5.950580810546875,1.4778776733547447,0.2705791647912934,-1.1126555371969937
1774473192370610000,5.96060986328125,0.17215455599427223,0.9832521815620362,-0.14216273783445357
1774473192380638200,5.97063818359375,-1.2787258048415184,-0.004320968471653759,0.5188286435484886
1774473192390666000,5.980666015625,-2.6121003147155046,-1.3497249023027718,0.5356114360451698
1774473192400694000,5.990694091796875,-2.39085381103307,-2.123037279355526,1.0799416005969047
1774473192410722000,6.00072216796875,-2.0643591726765034,-1.9934784408979116,0.9717910224795341
1774473192420750000,6.01075,-1.9953566558599471,-1.4665014160767196,1.0625549969881773
1774473192430778000,6.020778076171875,-1.0896624918833375,-0.2733248102376237,1.5542244154542684
1774473192440806100,6.03080615234375,-0.48582332278639073,0.9441901180442422,2.5086796877294777
1774473192450834000,6.040833984375,-0.2629553553819656,1.2895588951535522,2.9851088669657706
1774473192460862000,6.050862060546875,-0.44526247207820413,1.8669943337105213,3.1898306445658204
1774473192470890000,6.060889892578125,-1.1365525456130503,2.4303690982110795,2.8027076422452923
1774473192480918000,6.07091796875,-1.5677081664055585,2.2467414004355666,1.9001123210668562
1774473192490946000,6.080946044921875,-1.059338080768287,1.2811321353308855,1.4145347897350786
1774473192500975000,6.09097509765625,-1.0434227187559009,0.02396775383101776,0.3108955026865005
1774473192511003100,6.101003173828125,-0.4561579601019621,-0.8966530716478824,-0.9935545259982347
1774473192521031200,6.11103125,0.9959884751468896,-0.8882443589385598,-1.103613568085432
1774473192531059000,6.121058837890625,2.2827947105914355,-0.318117855155468,-0.505476410022378
1774473192541087200,6.131087158203125,3.3663059863686557,0.3908782632008195,0.02916998038291931
1774473192551115000,6.141114990234375,3.6146526784226296,0.8709040786895901,0.21321429613530635
1774473192561143000,6.15114306640625,2.7990631482630968,1.6192070291049778,0.21865677945017814
1774473192571171000,6.161171142578125,1.0199816374137998,1.7791253499910233,-0.45257659448385235
1774473192581198800,6.17119873046875,-1.400781574192643,1.4969139438666403,-1.2384154217630623
1774473192591227100,6.18122705078125,-3.512718198341131,2.2017603951975704,-1.3113093930602073
1774473192601255000,6.1912548828125,-4.825765374979376,2.705226926702261,-1.4382131869643926
1774473192611283000,6.201282958984375,-4.507028511142731,1.693464543840289,-1.78503457403481
1774473192621311000,6.21131103515625,-2.962504528708756,1.0167420709706843,-2.6944869215011593
1774473192631339000,6.221339111328125,-1.441563666436076,1.1391781448762863,-2.915871664610505
1774473192641368000,6.2313681640625,-0.49082799920588727,1.037483245704323,-2.7256945451915264
1774473192651396000,6.24139599609375,0.08216215038001537,1.093506161699444,-2.5335534322232007
1774473192661423900,6.251423828125,0.45710897721648214,0.8007103793270886,-2.132942002776265
1774473192671452200,6.2614521484375,0.6033323886185884,0.4722812657766044,-1.5372867246568203
1774473192681480000,6.27147998046875,0.38663872593492266,-0.24985760807357726,-1.9587872128754853
1774473192691508000,6.281508056640625,0.6156529410094023,-1.6758675123512743,-2.685224587637186
1774473192701536000,6.291535888671875,0.8280944992065429,-1.7669861455164848,-2.339129761275649
1774473192711564000,6.30156396484375,0.6993465387403964,-0.9638679743953049,-2.7725246854275465
1774473192721592000,6.311592041015625,0.5478112846657633,-0.8991517565958201,-2.0910878973871467
1774473192731620000,6.3216201171875,0.20278817918896674,-0.5771430314816535,-0.18204817349910735
1774473192741648000,6.33164794921875,-0.3730760645285249,-0.49789574563503264,1.1008733294665813
1774473192751676200,6.34167626953125,-1.1245037959009407,-0.5765019570991397,1.9431927533805369
1774473192761704000,6.351703857421875,-1.57799078322798,0.0006537877336144447,3.017529373577237
1774473192771733000,6.36173291015625,-1.5975310577392576,0.9036071285694837,4.277641663363576
1774473192781761000,6.371760986328125,-1.8086475048124788,1.2589207419142125,4.94616402477324
1774473192791789000,6.3817890625,-1.7933099426880479,0.6410366808518767,4.247006286603212
1774473192801816800,6.39181689453125,-0.8752017028182745,0.38777328292280433,4.29499670279026
1774473192811845000,6.40184521484375,-0.15968378147780896,0.23764263494908808,4.061305435815453
1774473192821873000,6.411872802734375,0.4209902006089687,0.17320786443948744,4.6307256179600955
1774473192831901200,6.421901123046875,0.7077227374196052,0.33467297637611626,5.233845240610838
1774473192841929000,6.431928955078125,0.19686434209793804,-0.7606152464345097,5.42547022075057
1774473192851957000,6.44195703125,0.1943202105730772,-2.214841702827811,4.649968663090467
1774473192861985000,6.451985107421875,0.29891777238398787,-2.6179484562218187,0.7699146974384784
1774473192872013000,6.462012939453125,1.265007368351519,-1.7795429908812046,-0.6684428664326667
1774473192882041000,6.472041015625,2.05721310031414,0.30569208882451054,0.8183703930497169
1774473192892069000,6.482069091796875,2.011466663661599,0.9253905058324337,3.992979503086209
1774473192902097000,6.492096923828125,1.3053057687312364,-0.590184737753868,-0.03132920424342155
1774473192912126000,6.5021259765625,0.6493830689147114,-2.2657962295174596,-4.402070591586828
1774473192922154000,6.512154052734375,-0.19583821392059325,-2.0895406679451463,-5.82381721239686
1774473192932182000,6.52218212890625,-0.2934498623669147,0.6535732140809297,-3.3044366824328897
1774473192942210000,6.5322099609375,0.2873497919261455,3.754745331984758,-1.2481453731387853
1774473192952238000,6.542238037109375,0.4309098293378949,4.868192311820388,-3.150211166360974
1774473192962265900,6.552265869140625,0.384985698030889,5.5007092938691375,-3.0884388930588957
1774473192972294100,6.562294189453125,0.23291735999286173,5.028495686501264,-2.2078958292126654
1774473192982322000,6.572322021484375,-0.6706564508289098,5.421840339815616,-0.8341489769399165
1774473192992350200,6.58235009765625,-0.9321335503518581,5.41955895088017,-0.6533914277732372
1774473193002378000,6.5923779296875,-1.513556889501214,4.046086239373683,-0.4238888446599245
1774473193012406000,6.602406005859375,-2.572557408878207,2.8357255302280184,-0.4494511559396982
1774473193022434000,6.61243408203125,-2.923562803635001,1.3435989667683839,-1.6433283477962015
1774473193032462000,6.622462158203125,-3.1161627662867306,0.5101642755776643,-2.837603014537692
1774473193042490000,6.632489990234375,-2.8261878865540027,0.24993980646431443,-2.5432705241173506
1774473193052518100,6.64251806640625,-2.39463069922328,0.13706103078126908,-1.4906120672434569
1774473193062547000,6.652546875,-2.0101503203660247,0.4963169520109892,-0.3640595221191644
1774473193072575000,6.662574951171875,-1.4531564890742301,0.41844577682316303,0.011125789648294448
1774473193082603000,6.67260302734375,-0.7887877402126788,0.2224444812953472,-0.1300713180243969
1774473193092631000,6.682631103515625,-0.7060001514106988,-0.23963643911480903,-1.4984966830134392
1774473193102659000,6.6926591796875,-0.3742956694513559,0.24809622442424295,-2.151483621639013
1774473193112687000,6.70268701171875,-1.259915890431404,0.716061526697874,1.276292440214753
1774473193122715000,6.71271484375,-1.79288645657897,-0.6913532018989325,1.7830735030949114
1774473193132743200,6.7227431640625,-0.7234262102469802,-1.2766758865743875,0.744314392235875
1774473193142771000,6.73277099609375,0.33778584769964215,-0.894020385056734,0.43947044467329976
1774473193152799200,6.74279931640625,1.7061287951022386,-0.3756564364105463,0.09435293891131877
1774473193162827000,6.752826904296875,2.4291467168092726,0.02212590709030628,0.22213877634704113
1774473193172855000,6.76285498046875,2.486298929095268,-0.1658241839289665,0.07778817307949065
1774473193182883000,6.772883056640625,2.641760708963871,-0.950531961351633,-0.307024798732996
1774473193192911000,6.7829111328125,2.4762626882493493,-1.4464227969050407,-1.0077502246111631
1774473193202940000,6.79293994140625,2.156467255270481,-1.9248492874383925,-2.023688431853056
1774473193212968200,6.80296826171875,2.090277457787096,-1.8687889620423317,-3.1304373753547665
1774473193222996000,6.812995849609375,2.542762574595213,0.1962760208159685,-2.3554922825336453
1774473193233024000,6.82302392578125,2.5620138030320403,2.6724913627922535,-1.2444628852337598
1774473193243052000,6.833052001953125,2.4203628141120075,3.6919215038031337,-1.1594114431530236
1774473193253080000,6.843080078125,2.2626889111518858,3.657245327219367,-1.7395552638858556
1774473193263108000,6.853108154296875,1.3835288260966538,3.100352618214488,-2.6477520583331584
1774473193273136000,6.86313623046875,0.12136486447751521,3.307375073972344,-1.6009779833227396
1774473193283164000,6.873163818359375,-1.067752857892215,3.6779865019530056,0.06876023249328136
1774473193293192200,6.883192138671875,-1.4931898087769746,3.8670039299428463,1.083648638421297
1774473193303220000,6.893219970703125,-0.7927566438436507,4.122397910159826,0.9487246196687221
1774473193313248000,6.903248046875,0.1823226065263152,3.435615084916353,1.8476076423257588
1774473193323276000,6.913276123046875,0.4413590348988771,1.8988743037045002,0.9447919563949108
1774473193333303800,6.9233037109375,0.7524678880751132,0.6401075833082198,1.1471768154799937
1774473193343333000,6.9333330078125,0.6747115714386105,0.09483750755786895,2.609121006643772
1774473193353361200,6.943361083984375,0.3733335464209318,-0.6604682342916727,3.0090836167931556
1774473193363389000,6.953388916015625,-0.11805939319133758,-1.9165747955679893,3.4220874948233364
1774473193373417200,6.963417236328125,-1.1071288827300072,-3.5857676524609325,4.156630434629321
1774473193383445000,6.973445068359375,-2.1276853974223138,-5.235048186659813,4.918339029258489
1774473193393473000,6.98347314453125,-2.5856641432106495,-6.561952623736858,5.256591325426101
1774473193403501000,6.9935009765625,-2.6448826403766867,-7.320849668076634,4.375657216435671
1774473193413528800,7.00352880859375,-2.375463641938567,-7.291904728621244,2.8593834691911932
1774473193423557000,7.01355712890625,-1.6681088610485195,-6.5505860110700125,2.211496484053135
1774473193433585000,7.0235849609375,-1.7219027028173208,-5.532829940751195,2.25104348154366
1774473193443613000,7.033613037109375,-1.3781763591527938,-4.439009744666516,1.8056354635149239
1774473193453641000,7.043640869140625,-0.7683633763432502,-2.9790757242813704,1.0181950462579727
1774473193463669000,7.0536689453125,-0.7534872942507267,-1.2069076460823416,2.0987778673678634
1774473193473697000,7.063697021484375,-0.7627335537627339,0.7445955472648144,1.4385773441016674
1774473193483726000,7.07372607421875,-3.714759943076968,2.967843259388208,-4.261633362370729
1774473193493754000,7.083754150390625,-4.282258509509266,-0.5725163945943117,-2.4742092628508803
1774473193503782100,7.0937822265625,-1.545284153151512,1.8395947240009902,0.6740981157153845
1774473193513810000,7.103809814453125,0.49013475624471897,1.3385311619848013,-2.3044097455501555
1774473193523838000,7.113837890625,0.8398246844887733,1.0710790797054768,-3.1118039865553375
1774473193533866000,7.123865966796875,1.8314602251231669,1.5089210463941096,-2.942470333200693
1774473193543894000,7.13389404296875,1.6563687388941644,0.765872144049406,-2.5097499473094937
1774473193553922000,7.143922119140625,0.9877689283341169,-0.15849106456190346,-2.670536137071252
1774473193563950000,7.1539501953125,1.1201415090382099,-1.0305442402213811,-2.54358850402534
1774473193573977900,7.163977783203125,1.766130843861401,-0.9347805577293038,-2.5710031651735306
1774473193584006100,7.174006103515625,2.210509518842399,-0.31198855862021446,-2.37872176695168
1774473193594034000,7.184033935546875,1.5502075810283422,-0.27825521584451196,-1.7774813821762798
1774473193604062200,7.194062255859375,0.016086042404174803,0.9104986416488885,-1.072477256065607
1774473193614090000,7.204090087890625,-0.9715005151003598,3.7626597583711145,0.0005891980648040771
1774473193624118000,7.214117919921875,-1.8543372428417204,6.338000660488009,2.452451020029187
1774473193634146800,7.224146728515625,-3.8760739561051127,7.003864031821489,3.17716814686954
1774473193644175000,7.234175048828125,-5.104311098203063,5.818199957036971,2.3553099117040635
1774473193654203000,7.244202880859375,-4.157562162521481,4.316311878019571,1.5359733039706944
1774473193664231200,7.254231201171875,-3.2033430370897054,4.301961281105876,1.65541626047492
1774473193674259000,7.264259033203125,-1.7644471285581587,5.265075076133012,1.9326877259790896
1774473193684287000,7.274286865234375,0.0835287625581026,5.231105001991987,2.052268045127392
1774473193694315000,7.28431494140625,1.2018401335597038,4.0223201638609165,1.285751757955551
1774473193704343000,7.294343017578125,2.212581356680393,1.2700976772278547,0.8515683137744665
1774473193714371000,7.30437109375,2.1263462577730414,-2.749314197970927,-1.2294710678070784
1774473193724399000,7.314399169921875,2.2685119182169435,-5.7352896186381574,-2.9460756642162798
1774473193734427000,7.324427001953125,2.352133912016451,-6.519196601071953,-2.0463561907351018
1774473193744455200,7.334455078125,2.239118942733109,-5.366545738095045,-0.7253864044040441
1774473193754483000,7.34448291015625,2.035945271357894,-4.029721087767183,0.6925730990827084
1774473193764511200,7.35451123046875,1.657815138310194,-2.305466268865764,1.5508686752855776
1774473193774540000,7.3645400390625,2.221395362254977,-1.1025392168521881,1.523260537391901
1774473193784568000,7.374568115234375,2.1286592108905316,-0.6500766041368246,0.7042851641863584
1774473193794595800,7.384595947265625,1.854483665575087,-0.3859124574869871,0.3719342010170221
1774473193804624100,7.3946240234375,1.2560697363972664,0.13767302519977093,-0.08876549416780471
1774473193814652000,7.40465185546875,0.7533069692477583,0.7438517431601882,-1.0948650289624928
1774473193824680200,7.41468017578125,-0.7026385660231113,0.1968491445288062,-1.2449503764897585
1774473193834708000,7.4247080078125,-1.5102441116914151,0.264028829832375,0.3415565984100103
1774473193844736000,7.434736083984375,-1.0197577655300498,1.1628963626593352,0.5053846400856972
1774473193854764000,7.444763916015625,-1.310977969148755,0.9412392323493957,-0.6555068124920129
1774473193864792000,7.4547919921875,-1.3744818885490298,0.7855708239927888,-0.6748848821789026
1774473193874820000,7.464820068359375,-1.437177414175868,0.2709785028398037,-0.43812078363001344
1774473193884848000,7.47484814453125,-1.6251888799935579,-0.0660480509251356,-0.36637189071476456
1774473193894876000,7.4848759765625,-1.1860066046118736,0.2573404381096363,0.014893033227324486
1774473193904904200,7.494904296875,-0.667795216178894,0.7702706712692976,0.3455792780548334
1774473193914932000,7.504931884765625,-0.5508569359719753,1.0684402556344865,0.17956804712116717
1774473193924961000,7.5149609375,-0.929019217723608,0.9212187731057405,-0.09794482592344284
1774473193934989000,7.524989013671875,-1.3567086237102746,0.08795271648019552,0.39109073690772056
1774473193945017000,7.53501708984375,-1.369626557472348,-0.22535803065448998,0.07582242596447468
1774473193955044900,7.545044921875,-1.1346300531178712,-0.030602351273596284,-0.21128829650878905
1774473193965073200,7.5550732421875,-0.881931595595181,-0.15180734901428222,-0.2733493236243725
1774473193975101000,7.565100830078125,-0.24975831241756677,-0.3836658476039767,-0.2508721188783645
1774473193985129200,7.575129150390625,0.524808887001872,-0.70033759560436,-0.2140928325355053
1774473193995157000,7.585156982421875,1.1656339709296821,-0.7200798224285244,-0.4506090938031673
1774473194005185000,7.59518505859375,1.2202560802161693,-0.3395347371935844,-0.21724866621792316
1774473194015213000,7.605213134765625,0.649148967897892,-0.03161123605519533,-0.31376141351163384
1774473194025241000,7.615240966796875,0.05829144544899463,-0.002466682374477386,-0.4437257640302181
1774473194035269000,7.62526904296875,-0.7567027491658925,-0.07741992428898811,-0.46054128975272174
1774473194045297200,7.635297119140625,-1.4563158298879861,0.20425620591491458,-0.3259837662249803
1774473194055325000,7.645324951171875,-1.684982546699047,0.16133096416294573,0.2955459578633308
1774473194065353200,7.655353271484375,-1.6247700700595975,-0.3752297354310751,0.3945879313737154
1774473194075382000,7.665382080078125,-1.1137176134705542,-0.34497488242089747,0.5730073929816484
1774473194085410000,7.67541015625,-0.9041904814153909,-0.5893585160627961,0.9539490763187408
1774473194095438000,7.68543798828125,-0.38129122742712496,-1.2566899141222239,1.2083669049799441
1774473194105466000,7.695466064453125,0.1525181276321411,-1.9875345839321612,0.9882464827179909
1774473194115494000,7.705493896484375,0.7149068037047982,-1.4540788646161555,0.8134481342166662
1774473194125522200,7.715522216796875,0.9111082979798316,-0.5367801875635981,1.7301421233743428
1774473194135550000,7.725550048828125,0.7850222501993179,0.20993279024660585,2.199146121045947
1774473194145578200,7.735578125,0.4426315390527248,0.767800481763482,2.336121227109432
1774473194155606000,7.74560595703125,-0.09866641819626093,0.952415583141148,2.029447141510248
1774473194165634000,7.755634033203125,-0.470164273622632,0.7377960963830351,2.03598969502151
1774473194175662000,7.765662109375,-1.0787684651643037,0.6225725111395121,2.249661671796441
1774473194185689900,7.77568994140625,-1.2218690683707594,-0.006459843663871288,1.2890057913154362
1774473194195718100,7.78571826171875,-1.25789052208364,0.3275383021906018,1.1381506284594536
1774473194205746000,7.795745849609375,-1.3172417057186365,0.777718649187684,0.9631500353842973
1774473194215774000,7.80577392578125,-1.3216110068440436,1.1359604249387978,0.6558452506661415
1774473194225803300,7.81580322265625,-0.7682733599722384,0.8180649803623556,0.24782792887687682
1774473194235831000,7.8258310546875,0.6850117239177227,0.15969547191560268,-0.11336100624203681
1774473194245859000,7.835859130859375,0.7331511931866407,-0.3698310912579298,-0.27406302485167977
1774473194255887000,7.84588720703125,0.3542284484565258,-1.1656012377038598,-1.6942729376137255
1774473194265915100,7.8559150390625,0.26392157006561756,-2.1067184511087835,-3.9038498517811298
1774473194275943200,7.865943115234375,-1.0783449790552257,-2.3740400388762355,-5.003035082030296
1774473194285971000,7.875970947265625,-3.5421772247985004,-2.1160323690295217,-5.574695736578106
1774473194295999000,7.8859990234375,-5.939504615759849,-1.703061808747053,-4.086911586236954
1774473194306027000,7.896027099609375,-5.558494543361664,0.7933226071633398,0.7966010443121194
1774473194316055000,7.906054931640625,-5.690156345447898,2.600316061158478,3.841703484469652
1774473194326083000,7.9160830078125,-4.7058641533136365,4.295760088378191,4.745709841489791
1774473194336111000,7.926111083984375,0.059605450657010076,5.0594344301223755,6.043529638379812
1774473194346139000,7.936138916015625,3.7367999254494904,2.3643825682148334,4.185048135340214
1774473194356166100,7.946166259765625,5.98624064797163,-0.9999299062490463,0.2719587460488081
1774473194366195200,7.9561953125,7.773799187526106,-2.570340025089681,-0.930137992620468
1774473194376223000,7.966222900390625,6.180068691113591,-1.284785543271899,-0.16331775406599044
1774473194386251300,7.976251220703125,4.208820640593767,0.2060363673299551,0.014438859719038008
1774473194396279000,7.986279052734375,2.928680292779207,1.4593588508456945,-1.1974743395656346
1774473194406307300,7.996307373046875,-2.7608196345865723,0.2490719375886023,-2.4402742600232363
1774473194416335000,8.006335205078125,-5.447361150041222,-1.0560060137361287,-1.6588579253613949
1774473194426363100,8.016363037109375,0.4336592741765082,0.3387096845462918,-0.43739597648680206
1774473194436391200,8.02639111328125,-1.5714856391176582,1.0887545832581818,-0.5808586910039186
1774473194446419200,8.036419189453126,-2.094259513160586,2.8810376671165225,-0.6504962908536195
1774473194456447200,8.046447265625,-1.6878168933421371,4.148131778614223,-0.960401613458991
1774473194466475300,8.056475341796874,-0.990430987150222,2.51111831305325,-1.1011422095358372
1774473194476503000,8.0665029296875,0.6166214937806129,-0.03984320395812392,-0.49945349647104736
1774473194486531300,8.07653125,1.1164539065666497,-1.043972461593151,-0.6317798999458552
1774473194496559000,8.08655908203125,-0.7605084250591695,0.6392901294454932,-0.6776385648012161
1774473194506587400,8.09658740234375,-0.9778373169064521,-0.13349836986362934,-1.5823603766143322
1774473194516616200,8.1066162109375,-0.5285835832349955,-1.3629896036759017,-1.5420400566637515
1774473194526644200,8.116644287109375,-1.803723492413759,-1.0645169447109102,-0.9468161556988954
1774473194536672000,8.126672119140625,-1.010132881963998,-0.017160539767891166,-1.2189233703076838
1774473194546700300,8.1367001953125,-1.609018228045851,1.6996888251826165,-1.28998720356822
1774473194556728000,8.14672802734375,-1.7987287528663873,1.5685171447008848,-0.4081009084194898
1774473194566756400,8.15675634765625,-0.6971465444780885,0.35283429068438704,-0.4388280551165342
1774473194576784100,8.1667841796875,1.2460212205916643,0.020307934415526686,0.8209814523309469
1774473194586812200,8.176812255859375,2.066180542884767,0.2759453679995611,0.9714812258780002
1774473194596840200,8.186840087890625,1.7248429940529166,-0.0029280482419533653,0.7887415629833936
1774473194606868200,8.1968681640625,1.4819628968417644,0.24609975337740034,1.1671101809620856
1774473194616896300,8.206896240234375,0.7610942621231078,0.21466566398739814,1.319322019124031
1774473194626924300,8.21692431640625,-0.04018514926359057,-0.8003460029941052,0.8924123653382062
1774473194636952000,8.2269521484375,-0.8628419874608516,-1.8162021579757333,0.6296668533146381
1774473194646980000,8.23697998046875,-1.4795955831885337,-2.4789374604165553,0.1272252809435129
1774473194657009200,8.247009033203126,-1.0975647894404827,-2.53139070123136,-0.4401303698867559
1774473194667037200,8.257037109375,-0.5614239226937293,-1.6686133034393191,0.4473994841068983
1774473194677065200,8.267065185546874,0.44837563566267485,-0.672794193509966,1.61671798876822
1774473194687093200,8.27709326171875,0.8116922304600477,-1.5245440013311802,1.0949006847977638
1774473194697121000,8.28712109375,0.13256269644871355,-1.6786979134716093,0.96625969183743
1774473194707149300,8.2971494140625,-1.2320008785456418,-0.8285976264230906,0.9887707988530396
1774473194717177000,8.307177001953125,-1.8192185831874608,-0.1878609514310956,0.6900006182461976
1774473194727205400,8.317205322265625,-1.3535346698492765,-0.2784503000251949,0.9224673118621111
1774473194737233200,8.327233154296875,-1.506755100531876,-0.9797339443080126,1.0511404535263775
1774473194747261000,8.337260986328126,-1.2512496227644383,-1.9058689848974346,1.1846318091273307
1774473194757289200,8.347289306640626,-0.6404993591047823,-2.0133561306700107,1.8361480906784533
1774473194767317000,8.35731689453125,-0.35490474028289315,-1.3320203187860549,2.986195493158698
1774473194777345300,8.36734521484375,-0.574984099882096,-1.3029039682865142,4.195072101226449
1774473194787374300,8.377374267578125,-0.7642354827582836,-1.9333898828990757,4.605363797688484
1774473194797402000,8.387402099609375,-0.6749491795867681,-2.405572364476323,3.957266384670138
1774473194807430100,8.39743017578125,-0.19844795802757142,-2.2220124712400136,3.4422868177652357
1774473194817458200,8.407458251953125,1.4379361235886812,-0.538469017433375,3.2027327962368726
1774473194827486200,8.417486328125,3.500751866215467,0.5975185877732933,1.9662544800162314
1774473194837514200,8.42751416015625,4.050422222751378,0.3921281171314418,-1.0011755223959684
1774473194847542000,8.4375419921875,2.510154436457157,0.07242460021972656,-3.576762508228421
1774473194857570000,8.447570068359376,-0.9526087676256895,0.4715129117526114,-5.108859263026714
1774473194867598000,8.45759814453125,-3.62172977720201,0.7900688660643994,-4.293409725859761
1774473194877626000,8.467626220703124,-3.1490649189352986,0.4679498124435544,-1.5626426997095346
1774473194887654100,8.477654052734374,-3.309855784872174,-0.7393259362988174,-1.415962776711583
1774473194897682200,8.48768212890625,-2.0145938557714222,-0.48573418319821354,-3.5897090835630894
1774473194907710000,8.4977099609375,-0.13707973548173905,0.3134691525667906,-2.415005378732085
1774473194917738200,8.50773828125,1.3162275602400302,0.2970208527214825,-1.7803443703919648
1774473194927767300,8.517767333984375,3.0614269674926993,0.3324780966803431,-0.9123299487292766
1774473194937795000,8.527795166015625,1.8049615097761154,2.7992309060454366,0.5771159973442554
1774473194947823000,8.537822998046876,-1.7283207531660794,0.26814298715293405,3.4472985084474086
1774473194957851100,8.54785107421875,-4.060394750711321,-0.7031104213185608,-2.228428329631686
1774473194967879200,8.557879150390624,-1.9119003740161655,1.8227046717375517,-2.3840695577204225
1774473194977907200,8.5679072265625,-0.05993103848272003,1.2787386643230914,-1.727950750809908
1774473194987935000,8.57793505859375,0.5511608873546123,0.2568174371488392,-1.421856510925293
1774473194997963300,8.58796337890625,0.9635200377404689,-0.06084127606227994,-0.5478016400545835
1774473195007991000,8.597990966796875,1.35815297729969,0.226762344494462,1.5463438913375138
1774473195018019000,8.60801904296875,1.3172867139041422,0.3181606713838875,1.9151327800661324
1774473195028047000,8.618047119140625,1.1432932520449162,-1.4639350727200506,0.5646802941411734
1774473195038075100,8.6280751953125,0.17723872739076613,-1.872374419313669,1.003669677299261
1774473195048103200,8.638103271484376,-0.9963093776643276,-0.08706409707739948,-0.02414893735051155
1774473195058132200,8.64813232421875,-1.273853230369091,0.9866945771008729,-0.7417097626954317
1774473195068160000,8.658159912109374,-1.4484429045557974,0.9741931151852011,-0.36386370728611944
1774473195078188300,8.668188232421874,-1.9423615632534026,0.19046675001531838,-0.3330646643966436
1774473195088216000,8.678216064453125,-1.6772212650477885,-0.6135948394358157,-0.0730021078467369
1774473195098244000,8.688244140625,-1.1822060432851313,-1.3492274741746484,0.6284235752552747
1774473195108272000,8.698272216796875,-0.5929729437002912,-1.5901073374792933,1.1540490393370388
1774473195118300200,8.708300048828125,0.43149756609797474,-0.5806042778514325,1.2622890493035315
1774473195128328200,8.718328125,2.744844651341438,0.6757191410459578,1.2936866426080464
1774473195138356200,8.728356201171875,1.0635597170513122,1.0114547782175243,0.3817863174676895
1774473195148384000,8.738384033203126,-0.39376075983457265,1.2319345353111624,-0.0760913060337305
1774473195158412300,8.748412353515626,-0.2765887439370155,1.1671357537947595,-0.30896541140675543
1774473195168440000,8.758440185546876,-0.8260826479274779,1.173646596993506,-0.6878109992474317
1774473195178468400,8.76846826171875,-2.0412566756390036,0.5076162715952843,-0.1879360624939203
1774473195188497200,8.7784970703125,-1.4014542127571998,0.05357742253914475,0.7409551449358462
1774473195198525200,8.788525146484375,0.9396807508610189,0.698219653602317,2.117324746927619
1774473195208553000,8.798552978515625,2.5300983233332635,1.4769938762575388,2.4965853453099727
1774473195218581200,8.808581298828125,0.9585868191219866,1.5903247796222566,0.5169242712318897
1774473195228609000,8.818609130859375,-0.5954056872725486,0.9455331301510334,-1.476219384753704
1774473195238637300,8.82863720703125,-1.3407166893303393,0.4928804382236674,-3.10001242647469
1774473195248665000,8.8386650390625,-2.8572388583779333,0.04546058718217537,-4.641684234347939
1774473195258693000,8.848693115234376,-2.4212146086357533,0.17874217248996718,-4.317049544644355
1774473195268721200,8.85872119140625,-0.41657479531951247,-0.0967330937798135,-1.9275667297035455
1774473195278749200,8.868749267578124,1.584291783068329,-1.0535418886449188,-0.9001800767302512
1774473195288777200,8.878777099609374,1.7862765369199216,-1.4612541630730032,0.4052437654227018
1774473195298805200,8.88880517578125,2.00564657920599,-1.3834933163918555,0.5621580821871757
1774473195308833000,8.8988330078125,0.5051390678267925,-1.484004777932912,0.29379706836938857
1774473195318862000,8.908862060546875,-3.0352783807575703,-0.33949696246646344,1.4603694891929626
1774473195328890000,8.91889013671875,-2.355996140402555,0.6934769160546362,3.73122417114377
1774473195338918100,8.928918212890625,-0.6887199307858943,-0.781579781595245,2.7362872508764267
1774473195348946200,8.9389462890625,0.5054453572969884,-1.143361129649356,1.0881213999211787
1774473195358978300,8.948978271484375,0.5680114843904972,0.11473565559610724,1.1841869879692792
1774473195369006000,8.959006103515625,1.4948948591291904,-0.29397995065562427,0.3369622563570738
1774473195379034000,8.9690341796875,1.6863941670626401,-0.2114101693227887,0.39436289044618605
1774473195389062100,8.979062255859375,0.21348843690156935,0.43707697366550563,-0.05106149419546127
1774473195399090200,8.989090087890625,-2.60658768877387,1.2900161374017596,-1.309989542633295
1774473195409118200,8.9991181640625,-1.9315145905464886,0.15228680309429765,-2.0153139867395162
1774473195419146000,9.00914599609375,0.16842064842926338,-0.07963847712129354,-1.1456827775299547
1774473195429174300,9.01917431640625,3.6996798628449437,-1.0484376243084668,-0.4558165993183851
1774473195439202000,9.0292021484375,0.8169161025881767,-0.01228979192636907,4.166154049777984
1774473195449230000,9.03922998046875,-4.391756702843308,-0.46587826686650513,3.2948803340584036
1774473195459259400,9.04925927734375,-2.8921020819664,-0.13669994238391517,0.057504094463586806
1774473195469287200,9.059287109375,0.08568915546238422,1.21089262406528,0.4209031068474054
1774473195479315000,9.06931494140625,2.5239421387910843,1.2290334070421756,-0.4716407759159803
1774473195489343200,9.07934326171875,1.4338760345429182,1.0444318957984446,-1.3575848220229148
1774473195499371000,9.08937109375,-1.5995125869452953,0.5494799485303461,-1.6978005272179841
1774473195509399300,9.0993994140625,-2.998899491909146,0.24723800015971062,-1.2953104444175958
1774473195519427000,9.109427001953126,-2.803714188939333,0.48024245391413567,-0.9488239883899688
1774473195529455000,9.119455078125,-3.0452760431587693,0.28958631880655883,-0.9034621671408414
1774473195539483100,9.129483154296874,-2.4207693490862847,-1.2350986984305083,-0.8716004634559154
1774473195549511200,9.13951123046875,1.0467898571014405,-0.04607596086785197,0.7670294973909855
1774473195559539200,9.149539306640625,2.2468331703722475,0.0032253917872905728,1.1686100641310215
1774473195569567200,9.159567138671875,1.4229799619972705,-0.1273480305403471,1.0473153422802686
1774473195579595000,9.169594970703125,1.3150433188915251,0.25301088447272774,1.3469517843276262
1774473195589624000,9.1796240234375,0.2471615739226341,-0.0747026281543076,1.077098486125469
1774473195599652000,9.189652099609376,-0.9624106151938437,0.07811492081582545,0.8008060947865248
1774473195609680100,9.19968017578125,-1.8500164570331572,0.1405425892867148,0.5434112961411476
1774473195619708200,9.209708251953124,-0.440279422968626,0.4719828673519194,0.9925251829504966
1774473195629736200,9.219736083984374,0.6069055709302426,1.0601697092868387,1.0575304468244313
1774473195639764000,9.229763916015624,0.8436533028662204,1.9228478844881056,2.0672557709008452
1774473195649792300,9.239792236328125,0.8286931226868182,0.03980586762242019,-2.7844477629333735
1774473195659820000,9.249820068359375,-1.9227157825410366,-0.5902569262072443,-1.7112065367579459
1774473195669848300,9.259848388671875,-0.949651671385765,-0.06654628277085721,-0.1757932047575712
1774473195679876000,9.2698759765625,-0.25854104607105255,-0.709417412508279,-0.17698621393442152
1774473195689904000,9.279904052734375,-0.2942833905816078,-0.4220250235494226,-0.08015957838594913
1774473195699932200,9.28993212890625,0.05090140826292336,0.14727284738980234,-0.5736772550672292
1774473195709960200,9.299960205078126,1.1891793894290923,-0.592837736480683,-0.7993833685070276
1774473195719989000,9.309989013671874,1.1178863505225627,-0.2049913883216679,0.23896949963867664
1774473195730017300,9.320017333984374,1.420102945256233,0.19769355946369468,-0.6699526864737272
1774473195740045000,9.330045166015625,0.06765146753378212,0.8946155744709074,-1.873663290080428
1774473195750073000,9.340072998046875,-1.686539713013172,0.7284255529042333,-3.000315203925967
1774473195760101000,9.35010107421875,-2.6835096004128456,0.44764279134348034,-2.6406109544068572
1774473195770129200,9.360129150390625,-2.022351045769453,-0.21779943196848034,-1.5072072282135485
1774473195780157200,9.3701572265625,-2.006889126612991,-0.22491145593076944,0.07203647768497466
1774473195790185200,9.380185302734375,-1.4247988479875027,-0.19026479770243165,0.8627695067465305
1774473195800213000,9.390212890625,-0.4734694526478648,0.05518061995208263,1.462104934683442
1774473195810241300,9.4002412109375,0.8499754916250705,-0.6428079283080995,0.9251414995074272
1774473195820269000,9.41026904296875,1.3420927999891339,-1.375991270198673,0.6252817700982094
1774473195830297300,9.42029736328125,1.8709201288521289,-1.3391978091999888,1.0176602087289095
1774473195840325000,9.4303251953125,0.26965163815021514,-0.32846023934110996,1.029846905606985
1774473195850353200,9.440353271484375,-0.6477694962382317,0.30720439308360215,0.8006061883002519
1774473195860382200,9.45038232421875,-0.7640985585056245,0.2652437585800886,0.4585089071422815
1774473195870410200,9.46041015625,-0.9012520898759364,0.6063656188346446,0.34279344672858714
1774473195880438000,9.47043798828125,-0.7262612875424325,0.7056066220484674,0.032089082700014114
1774473195890466300,9.48046630859375,-0.7727005287647247,1.4105880979359149,0.1747170999586582
1774473195900494000,9.490494140625,0.5913291585486382,2.199001598008722,0.6048533145755529
1774473195910522000,9.500522216796876,0.7585457466840744,2.17951115398854,1.0703560261279343
1774473195920550100,9.510550048828126,0.44027708488106726,2.2735741700425742,1.1951228080034255
1774473195930578200,9.520578125,0.24849903307147322,1.2226083424307406,0.9725637604176998
1774473195940606200,9.530606201171874,-0.9541351004101335,1.2681404056802392,0.713124304202199
1774473195950634200,9.54063427734375,-0.65873863402009,0.5665121857434511,-0.25804361794292924
1774473195960662000,9.550662109375,-1.1075438202064485,-0.46457967842333014,-1.0311492203772068
1774473195970690300,9.560690185546875,-1.6530267349898815,-0.9805155231397599,-1.0538228244781493
1774473195980718000,9.570718017578125,-0.7677578116655349,-0.1715151621121913,0.23402736706137656
1774473195990747100,9.5807470703125,0.043538697475194926,0.37436340092532333,1.5550339782714844
1774473196000775200,9.590775146484376,-0.3484101175665855,-0.016902108027413487,1.3043062362998723
1774473196010803200,9.60080322265625,-1.2296281580649315,-0.9587359452690929,0.5049035785704851
1774473196020831200,9.610831298828124,-0.8526946874558925,-1.7328268324136733,0.06053016428649425
1774473196030859300,9.620859375,-0.609298457416147,-2.3036120193012057,-0.6362701971024275
1774473196040887000,9.630886962890624,-0.5309269314907491,-1.9300225984230637,-0.8244085041701793
1774473196050915300,9.640915283203125,0.1690847931601107,-1.8156775495797395,-0.4513923531353473
1774473196060943000,9.650943115234375,-0.2634251648508012,-1.3468120835959911,-0.33964638087451454
1774473196070971100,9.66097119140625,0.574073999299854,-0.8155923797037452,-0.9026602031081914
1774473196080999200,9.670999267578125,0.32941198710799213,-0.23938155103828757,-0.3180874600172043
1774473196091027200,9.681027099609375,-0.599111702183634,-0.45893502359986305,-0.2855903810381889
1774473196101055200,9.69105517578125,0.054749681188911194,-0.15055102881025523,-0.2695540229946375
1774473196111083300,9.701083251953126,0.7804536271095276,0.14465437198709696,0.21032032825946806
1774473196121111000,9.711111083984376,0.7830803223513066,-0.11134093512389809,0.5308423219472169
1774473196131140400,9.721140380859374,0.6652819181837141,-0.22722050005812197,-0.2267886479794979
1774473196141168000,9.731168212890625,0.25751433337181806,-0.023721103859879075,-0.5685574278354645
1774473196151196200,9.741196044921875,-0.3564414483308792,0.536228727693297,-0.7733651301532983
1774473196161224200,9.75122412109375,-0.8312906648993492,0.44757330630384384,-1.1797907988369465
1774473196171252200,9.761252197265625,-1.5627952599227428,0.2907624499138444,-1.1001198807507753
1774473196181280300,9.7712802734375,-0.7605635162472725,0.7181917436596006,0.20100480290353298
1774473196191308300,9.781308349609375,0.2471811554059386,0.798654323580116,0.9309726898789406
1774473196201336000,9.791336181640625,-0.3507119647681713,0.45566893447600304,0.44220425355136395
1774473196211364400,9.8013642578125,-1.1730536726016552,0.39648623927570875,0.36612463795542716
1774473196221392100,9.81139208984375,-0.7080420325018465,-0.4948662417460233,-0.62127078089118
1774473196231420200,9.821420166015624,-0.25183541095256806,-0.18604725307263434,-0.7015548624396324
1774473196241448200,9.8314482421875,-1.0153891950570046,-0.041013782107457514,-0.1648269895851612
1774473196251476000,9.84147607421875,-0.1796060410439968,-0.4497985811378807,-0.04185936608612537
1774473196261504300,9.851504150390625,-0.3735704239167273,-0.40095198651291425,-0.21013737290799617
1774473196271532000,9.861531982421875,0.4576163422167301,0.05277019780948758,-0.26429215694367886
1774473196281561000,9.87156103515625,0.23034487915635107,0.09021108986623584,-0.4801677812427282
1774473196291589400,9.88158935546875,-0.8501848965920508,0.46030441225692625,-0.13696575371325015
1774473196301617200,9.8916171875,0.5240601144611835,-0.39175131970830257,-1.1513473791629076
1774473196311645200,9.901645263671876,0.36530849926695225,-0.36735417975038287,0.0015454758763313293
1774473196321673200,9.911673095703126,-1.0605565166473387,0.6904640710394829,0.6385597693443298
1774473196331701200,9.921701171875,0.11438143533095717,0.5165152520395815,-0.02565174312889576
1774473196341729300,9.931729248046874,-0.4231647681690752,0.7077233950067311,0.4908458271235227
1774473196351757000,9.941757080078125,-0.19943872263059018,0.49327751124985514,0.6969190193325281
1774473196361784800,9.951784912109375,-0.4801088906623423,0.2636046861361712,0.6637701984465122
1774473196371813000,9.961813232421875,-0.6209107884723692,-0.019347820679098366,0.4677110352516174
1774473196381841000,9.9718408203125,-0.507124031098932,-0.026941052287071943,0.15762743346989153
1774473196391869200,9.981869140625,-0.281091900575161,-0.4577616689715534,-0.14151450305879115
1774473196401897000,9.99189697265625,-0.6208546743709593,-0.15349062592610715,-0.46535716560184953
1774473196411925000,10.001925048828125,-0.040861806416139006,-0.2816909624468535,-1.2986106550067662
1774473196421954000,10.0119541015625,-0.258444161567837,1.1121941302303224,-0.8209808678090572
1774473196431982000,10.021982177734374,-0.42242344828248024,0.3914687033746391,-1.81086459634006
1774473196442009900,10.032009765625,0.7390579330123961,0.8135764367714524,0.15023732321858405
1774473196452038100,10.0420380859375,1.4977029022872448,0.5217703960888087,0.7728647794157266
1774473196462066000,10.05206591796875,1.7186825717270373,0.13465038944296537,1.0224994654536246
1774473196472094000,10.062093994140625,0.825710818940401,0.13772855477929113,0.9145324272096157
1774473196482122000,10.0721220703125,0.024843276290223,0.05816168158948421,0.28779402856230735
1774473196492150000,10.08214990234375,-0.9439607662677765,-0.35235461740866303,0.12761632608771323
1774473196502178000,10.092177978515625,-0.9664040687441825,-1.7182852429725228,-0.8278338024437427
1774473196512206000,10.1022060546875,-1.451687001043558,-3.272238294139504,-3.0717759275496004
1774473196522233900,10.11223388671875,-7.316439450418948,-3.422134256574511,-6.072418463733792
1774473196532262100,10.12226220703125,-2.5206664781212806,-0.7950210085790604,-2.0016303293019533
1774473196542290000,10.1322900390625,4.666933826416731,1.5315902665808796,4.005125283432006
1774473196552319000,10.142319091796875,3.313413769614696,1.635802043944597,2.5237796417057514
1774473196562347000,10.152346923828125,2.61296716067791,1.2216248843513429,-0.14462065238058566
1774473196572375000,10.162375,2.0770038424551487,0.3766455935783684,-0.20441373456418513
1774473196582403000,10.172403076171875,1.732396624302864,0.6881580591194332,-0.5289841268599033
1774473196592431000,10.18243115234375,0.022188450932502744,1.3450048880435526,-0.023933833295106885
1774473196602459000,10.192458984375,-1.620930638027191,2.185766414991021,0.5374696311324835
1774473196612487200,10.202487060546876,-2.3548855488121507,2.0242565871298313,0.8619307178348302
1774473196622515000,10.212514892578126,-2.3756325687646864,1.2355126860588788,1.5145073220938443
1774473196632543000,10.22254296875,-2.2547803299844262,0.41951610946841533,2.1243658976107835
1774473196642571000,10.232571044921874,-2.0094237596571443,-0.27583010758943854,2.8613953935354948
1774473196652599000,10.24259912109375,-4.443453572332859,2.4429260897062717,5.572359987106919
1774473196662627000,10.252626953125,-10.619700074809789,9.283723858004809,8.967207592827082
1774473196672655000,10.262655029296875,2.6491058110296724,0.6268874517291784,1.3526725000619888
1774473196682683000,10.272682861328125,4.728371753197908,-0.7056159743987024,0.15109014065563678
1774473196692711200,10.282711181640625,3.7228888889968395,-0.21347082817964255,-1.4908271712988614
1774473196702740000,10.292739990234375,2.9734955860614773,-1.6092252949252723,-2.14119428281486
1774473196712768000,10.30276806640625,-1.6573147875726222,-3.404152317421138,-1.0493033012270927
1774473196722796000,10.312796142578126,0.5311772529900074,-3.416360641609132,-1.1510808371812105
1774473196732824000,10.322823974609374,1.1405611236672848,-2.170961498438567,-0.7523357861280441
1774473196742852000,10.33285205078125,-0.17021847336515783,-0.6845926947880536,-0.1420055014461279
1774473196752880000,10.342880126953125,0.6289128200769424,0.4666997393172234,-0.04443710761964321
1774473196762908000,10.352907958984375,0.2448047816634178,1.1144468775931744,-0.019345920982956885
1774473196772936200,10.362936279296875,0.06621471272893249,0.3600486425099894,-0.939653424462676
1774473196782964000,10.3729638671875,-0.5177274043083191,0.02838102196231484,-0.6596119097232819
1774473196792992000,10.382991943359375,-0.45836927947588263,-0.5233197444226593,-0.05062544086575508
1774473196803020000,10.39302001953125,-0.44543256794810293,-0.6510761365681886,-0.16219196490645407
1774473196813048000,10.403048095703125,-0.5316976236023009,-0.46866709386743605,-1.0324030198305845
1774473196823076000,10.413076171875,-1.1231459515511988,-0.8557881234265864,-1.9053613276362418
1774473196833104100,10.423104248046876,-1.3827204323232174,-1.2257768163990228,-1.987678376317024
1774473196843133000,10.4331328125,-1.2240532805420457,-0.948239393435046,-1.2939753964215517
1774473196853161200,10.4431611328125,-0.7102692070320248,-0.820599905667454,-0.4729214633762836
1774473196863189000,10.45318896484375,-0.6001099194407463,0.14458903339961543,0.5591396111488341
1774473196873217000,10.463217041015625,-0.961869347923994,0.806265383105725,0.8183458431303501
1774473196883245000,10.4732451171875,-0.9955202731132506,1.54195427807644,0.5729542014896869
1774473196893273000,10.483273193359375,-1.3138006253540515,1.3619057539619503,0.7828916679114103
1774473196903301000,10.493301025390625,-0.8766716292403638,0.6988672307908534,0.23645430194735526
1774473196913329200,10.5033291015625,-0.42053544257879255,0.5020479334110394,0.22055530654788016
1774473196923357000,10.51335693359375,-0.32772301110774277,0.3181470812499523,0.4161094428300857
1774473196933385200,10.52338525390625,-0.6318973888456821,0.14138744261302053,0.7078180144876242
1774473196943413000,10.5334130859375,-0.8863806839585304,-0.489648872423917,0.8983090221613645
1774473196953441000,10.54344091796875,-0.2404194061860442,0.25908094336772336,-1.4415426236480473
1774473196963469000,10.553468994140625,0.5337231380805373,0.8084083134185522,0.12792904529869556
1774473196973497000,10.5634970703125,0.4773419101670384,-0.42109778916928914,0.08902794449627399
1774473196983526000,10.57352587890625,0.6620742081835865,-0.9100203566126525,0.3370785762131214
1774473196993554200,10.58355419921875,-1.0741977962478995,-1.0268340605918318,1.23168699029088
1774473197003582000,10.59358203125,-0.6617226182669401,-1.7226973603263496,-1.8800351631999015
1774473197013610200,10.6036103515625,-1.055936455631256,-0.4888171343075111,-1.4783406146913767
1774473197023638000,10.613637939453126,-0.5756915174990892,-0.9220755360655486,-1.1240700806587933
1774473197033666000,10.623666015625,0.6306488500893116,-0.291380216486007,-0.8383709785491228
1774473197043694000,10.633694091796874,0.7302943424507975,-0.4604627811564132,-0.6252747558355332
1774473197053722000,10.64372216796875,0.7692308068275451,-0.9969765363361686,-0.45783086175024507
1774473197063750100,10.653750244140625,1.1759858535960317,-1.3440445185787975,-0.9755068281322717
1774473197073778200,10.663778076171875,1.3276152156949041,-0.7834019555211067,-0.8803338050097227
1774473197083806000,10.673805908203125,1.03594551474303,-0.0648969811938703,-0.048097968214750285
1774473197093834000,10.683833984375,0.2411085574939847,0.1141648699708283,-0.07524900999069213
1774473197103862000,10.693862060546875,-0.6817889624789357,0.12024893912486731,-0.3880383635997772
1774473197113891000,10.70389111328125,-1.0080775568693876,0.3157848821632564,-0.12691840695142745
1774473197123919000,10.713919189453126,-0.9792284790039062,-0.05009213770665228,0.2499503278583288
1774473197133947100,10.723947021484374,-0.9541700255930423,-0.2974347672846168,0.11749474504590034
1774473197143975000,10.733974853515624,-0.8260556868553162,-0.45484278585016724,0.07884381961226462
1774473197154003200,10.744003173828125,-0.6155629246383905,-0.28658691779486833,0.16479717896878718
1774473197164031000,10.754031005859375,-0.6334218219339848,-0.09764628136828542,0.4938783266872167
1774473197174059300,10.764059326171875,-0.9081184685140847,-0.17749620928317308,0.8218325162023306
1774473197184087000,10.774087158203125,-1.271790452620387,-0.0009996054966002702,0.8991121552377939
1774473197194114800,10.78411474609375,-1.8307485697224735,-0.33087504539787765,0.6935340530693531
1774473197204143000,10.79414306640625,-2.3533289670199156,-1.2947710768438876,0.5142617740243673
1774473197214171000,10.8041708984375,-1.8898641910359262,-0.7635322298597544,0.843924521023035
1774473197224199200,10.81419921875,-0.4612564522847533,-0.7278118779852986,0.4310217652797699
1774473197234228200,10.824228271484374,0.7311427759736776,-0.8016198953874408,-0.24075638305544853
1774473197244256000,10.834256103515624,1.3133452828019856,-0.32073574603628363,-0.019230770170688628
1774473197254284000,10.844283935546875,1.5123083507448434,0.4028005369890481,0.0005395137041807175
1774473197264312000,10.85431201171875,1.1929466330081224,1.970023331030458,0.9609890579581261
1774473197274340000,10.864340087890625,0.46028468464314937,1.1351426057498901,0.18831366363465785
1774473197284368100,10.8743681640625,-0.23430267687141895,0.7448216111056506,-0.794182877254486
1774473197294396000,10.88439599609375,-1.4806237571924925,0.1487199774581939,-1.4057020794600248
1774473197304424000,10.894423828125,-2.9303204612016676,-0.27821006152853367,-1.0671166058152914
1774473197314452000,10.904451904296875,-1.648431808415055,-0.24624944578008726,-0.14116437444686888
1774473197324480000,10.91447998046875,-0.9363198961257934,-0.6894834625042975,-0.6967752269476651
1774473197334508000,10.924508056640626,5.305080923306941,-0.7110689791075885,-0.3229085965633392
1774473197344536000,10.9345361328125,3.013869682025909,-0.4309773416161537,-0.6002192250341176
1774473197354565000,10.944565185546875,0.7519105464532971,-0.023413791476376355,-0.38595863471627234
1774473197364589800,10.95458984375,1.8171286251708865,-0.4444277017544955,-1.0163912117063998
1774473197374618000,10.9646181640625,-0.03661328212618828,-0.5597064877839759,-1.4058698372423648
1774473197384646000,10.97464599609375,-0.7667419126212597,0.28021077035907654,-1.620128673994541
1774473197394674200,10.984674072265625,-0.6045747898951173,0.3871289206046611,-0.9300029680639504
1774473197404702000,10.994701904296875,-0.01695201158374548,-0.3865450563021004,-0.2967325372993946
1774473197414730000,11.00472998046875,-0.3976280297219753,-1.9692891715370118,-0.5098036255717278
1774473197424758000,11.014758056640625,-2.7690578860998154,-4.217339754875004,-1.345896722316742
1774473197434785800,11.024785888671875,-0.036056817287206645,-3.5219115586221217,-0.935956908032298
1774473197444814000,11.03481396484375,1.3515972720459102,-1.4319599717885254,0.8241343634039163
1774473197454841900,11.044841796875,-0.557856877861917,-0.32515809252317995,1.452733295226097
1774473197464870000,11.054869873046876,-0.9091584790863096,1.0585872624009847,1.7185387793421745
1774473197474898000,11.06489794921875,-0.4065630313277244,1.8617267685711383,1.7219062099486588
1774473197484927000,11.074927001953125,0.01963058314323425,2.2180602264828977,1.5488158344089984
1774473197494955000,11.084955078125,-1.0564964276015758,2.765061802200973,1.5810603999316692
1774473197504983000,11.094983154296875,-1.2449217349171637,3.0262729442641136,1.7799626775979995
1774473197515011000,11.105010986328125,0.13661796318888664,2.5154955052241683,0.886000744730234
1774473197525038800,11.115038818359375,-1.904801355665922,1.7597453806079923,0.16623393377363682
1774473197535067000,11.12506689453125,-0.8430886547207832,1.0299607412450016,-0.574199817636609
1774473197545095000,11.135094970703125,0.7389569568559528,-0.06963453110978007,-1.1430506754606962
1774473197555123000,11.145123046875,0.6810185626283287,0.15229700482790356,-0.40917701321840283
1774473197565151000,11.15515087890625,1.0536828314855695,0.09339104420975781,0.34982758314907547
1774473197575178800,11.1651787109375,0.7227391047656536,-0.16044844570737332,0.7580512411653995
1774473197585207000,11.17520703125,0.5782219127595424,-0.0586343314693775,0.6179647250831127
1774473197595234800,11.18523486328125,0.026851766568422315,0.19736374298743903,-0.1069827033817768
1774473197605264000,11.195263916015625,-0.15287497824579477,0.33728746972344814,-0.5182663334906101
1774473197615292200,11.205292236328125,-0.1282499478161335,0.28341891875062136,-0.40747137834429736
1774473197625320000,11.21531982421875,-0.22074235355257987,-0.27821532222554085,-0.34444939724206924
1774473197635348000,11.225347900390625,-1.0734583760574459,0.0330699104309082,-0.017976970717310903
1774473197645376000,11.2353759765625,-1.5122127814158797,0.3520528579831123,0.6989777054280042
1774473197655403800,11.24540380859375,-1.8087915894582867,0.07759586537778378,0.041783378240466115
1774473197665432000,11.25543212890625,-0.640810470880568,-0.5515424340181052,-0.6066729312181472
1774473197675459800,11.2654599609375,0.9656234397605061,0.08516943330406211,-0.5531488463014363
1774473197685487900,11.27548779296875,1.140031619900465,0.662737348267436,-1.9554671285420655
1774473197695516000,11.285515869140625,-0.5863724859893321,0.9515527557667344,-1.0696446629881857
1774473197705544000,11.2955439453125,0.7733873419851064,0.18716896884525194,0.47496378285884855
1774473197715572000,11.305572021484375,0.7977949302718043,-0.30808599822372196,0.4611199664235115
1774473197725601000,11.31560107421875,-0.20111995371580121,-0.5206440224073827,-0.5788607951849699
1774473197735628800,11.32562890625,0.34749154141694305,-0.3623066140372306,-0.0054833998471498484
1774473197745657000,11.335656982421876,-0.10168839636594057,0.5327499091342092,1.3438666777938604
1774473197755684900,11.345684814453126,-1.2973574400752783,-0.12112767645446583,1.6730583001494406
1774473197765713000,11.355712890625,-2.637240893451869,-0.48707281139083203,0.8517050918966531
1774473197775741000,11.365740966796874,-0.028053543573617935,-0.1339216915759258,1.209364683845639
1774473197785769000,11.37576904296875,1.9453207053199408,-0.08609143438665195,1.4128373381674288
1774473197795797000,11.385796875,2.7439927106872197,0.17729504242157562,1.7506944975376129
1774473197805825000,11.395824951171875,1.5826622821703553,-0.5607189892947674,1.6542542309582233
1774473197815852800,11.405852783203125,-0.3651405953541398,-0.7668033604849129,0.6472434265375137
1774473197825881000,11.415881103515625,-0.5646086902096867,-0.48792526350170373,-0.6288584595412016
1774473197835908900,11.425908935546875,-0.11500672762244939,0.18996939495243131,-1.5824083074092865
1774473197845937000,11.43593701171875,0.009274608823657035,0.40768027185462413,-2.5858745710909363
1774473197855966000,11.445966064453126,0.25280221015810966,0.3575740325573832,-2.420510990411043
1774473197865994000,11.455993896484374,-0.6005988720014691,0.31507899891622365,-1.635123414030671
1774473197876021800,11.466021728515624,-2.588472186368704,0.17882846253393217,-1.6176719284921883
1774473197886050000,11.476050048828125,-1.6793433717682957,0.10880493210656568,-1.1087211203575134
1774473197896077800,11.486077880859375,0.02555588153898716,0.2740248299994506,0.10757190144658088
1774473197906106000,11.496106201171875,-0.20818886918872592,-0.0604923347604461,0.9817384159982204
1774473197916134000,11.5061337890625,0.3154059658482671,-0.27194457139298317,0.9584697686135768
1774473197926162000,11.516161865234375,0.9501990761354565,-0.2071279254263267,0.6394120022594928
1774473197936190000,11.52618994140625,0.649182577906549,-0.41698929440453647,0.03742226042151451
1774473197946218000,11.536218017578125,0.30942469948157664,-0.41991782213710244,-0.4560328724175691
1774473197956246000,11.54624609375,0.0710354839488864,-0.25605880080126225,-0.0640004707455635
1774473197966274000,11.556274169921876,-0.364231956076622,-0.07034719572404864,0.310870368245244
1774473197976302800,11.566302734375,-0.7918100106433034,0.4104343198031187,0.6801824040651321
1774473197986331000,11.576330810546875,0.3431868299603462,-0.7616305609568953,-0.4273918843448162
1774473197996359000,11.58635888671875,-1.2553826309159397,-1.0657105384096504,-0.5145160410463809
1774473198006387000,11.596386962890625,-1.5017024933174252,0.03204248534562066,-0.13617898724973201
1774473198016415000,11.6064150390625,-1.1583008515626192,1.0922454210486263,-0.46922143981456754
1774473198026443000,11.616443115234375,0.1231139001019299,1.1924199057202785,-1.054752214282751
1774473198036470800,11.626470703125,-1.647660970173031,0.6133635148979724,-1.541160935741663
1774473198046499000,11.6364990234375,-1.5908683849796652,0.8516893098056316,-0.5896025539517402
1774473198056526800,11.64652685546875,-0.5458209876313805,0.320518924947828,-0.8494926765441894
1774473198066555100,11.65655517578125,-4.050880780173838,-1.4314280568689106,-1.5250450827211142
1774473198076583000,11.6665830078125,-1.8359964072480797,-1.8727490978449581,0.40271103207468983
1774473198086611000,11.67661083984375,0.6562985473915934,1.0765669365320354,3.9652275728076694
1774473198096639700,11.6866396484375,2.8513340182483193,-1.2438175730675458,1.1787848366647957
1774473198106668000,11.69666796875,-0.08160305519253015,-2.03164012150988,3.128055448654294
1774473198116695800,11.70669580078125,-0.7819079175710678,-2.1317703286483884,3.16802973164618
1774473198126724000,11.71672412109375,-1.6752914660289882,-1.3989480751551686,0.1325070207387209
1774473198136751900,11.726751953125,-1.374367614519596,0.34459402987714854,-1.4185808502554893
1774473198146780000,11.73677978515625,-0.5968555938199163,2.1084888217821716,-1.0824591363757847
1774473198156808000,11.746807861328126,-0.1542275618985295,2.598129364769161,-1.4451806878894566
1774473198166836000,11.7568359375,0.27209903130233287,2.3481910196095703,-1.5107932700067757
1774473198176864000,11.766864013671874,0.8682774565130472,2.058796570113301,-1.0869488490104675
1774473198186892000,11.77689208984375,1.2271227511152625,1.3893581167720257,-0.7755138326197862
1774473198196919800,11.786919921875,1.2928493150010705,1.462213363493979,-0.2285188327729702
1774473198206948000,11.796947998046875,-0.1513487915918231,-0.08593029814134351,0.1504530117958784
1774473198216977000,11.806976806640625,-0.12596826661974192,-1.602536026419699,0.10505962636470793
1774473198227005000,11.8170048828125,-0.6836828134015203,-2.0569224468044935,0.42358430875539776
1774473198237033000,11.827032958984375,-1.277327628481388,-3.6653704737469552,0.018840894070267677
1774473198247061000,11.83706103515625,-1.1681047449573874,-5.554038148474693,0.09433072707951068
1774473198257089000,11.847089111328126,-1.0596163131877778,-3.6757559664219617,-0.25412673676013947
1774473198267117000,11.857116943359374,0.4614928913891315,-0.482852599879913,-0.5708066680669784
1774473198277144800,11.867144775390624,1.076871399371326,1.5359801721028983,-0.7310124275922775
1774473198287173000,11.877173095703125,0.0950362450003624,1.7408716071814299,-0.5767635306447744
1774473198297201000,11.887200927734375,0.1929915923178196,1.8163466810129583,-0.13351999717354773
1774473198307229000,11.89722900390625,0.3080833678752184,1.2032853639319538,-0.31204408819973467
1774473198317257000,11.907257080078125,0.05836304938048124,1.2571966946005821,0.08476561087667941
1774473198327286000,11.9172861328125,-0.31923020031154153,2.0744766620650887,0.17392156566679476
1774473198337313800,11.927313720703125,-0.8799874757900834,0.7339778532691299,0.18937340182065962
1774473198347342000,11.937342041015626,-0.38406303022801874,0.033770898307114834,0.2246189027249813
1774473198357369900,11.947369873046876,-0.5659706262126565,0.6101402054699138,-0.03735153327286243
1774473198367398100,11.957398193359374,-0.6570946662053465,1.4171055170059204,0.15688275258243084
1774473198377426000,11.967426025390624,-0.47368631026893854,0.7963568602927029,0.10320844554007053
1774473198387454000,11.977453857421875,-0.3894713190123439,0.724742407412082,0.23858429971337317
1774473198397482000,11.98748193359375,0.007374328160285949,1.2760671070262788,0.4013210390210151
1774473198407510000,11.997510009765625,0.12554478051066398,1.0527201239332555,0.566558947494626
1774473198417538000,12.0075380859375,-0.3798962659373879,0.7109839311726391,0.3941945481419563
1774473198427566000,12.017566162109375,-0.6718129273876547,0.7995918966911733,-0.023449849170446395
1774473198437595000,12.027594970703126,-0.6283680456757545,0.7703284658711403,-0.3916898718446493
1774473198447623000,12.037622802734376,-0.37497780649662016,0.5237022409342229,-0.38564766907095904
1774473198457651000,12.04765087890625,0.06377338399142027,0.3336336233910173,-0.32728900360465046
1774473198467679000,12.057678955078124,0.23376111734062432,-0.33036472125556315,-0.24759821177423
1774473198477707000,12.06770703125,0.054308513292670245,-0.03836571528408676,-0.06729249802827834
1774473198487735000,12.077735107421875,0.05505377870202064,1.8062268535368144,-0.2634440156817436
1774473198497762800,12.0877626953125,-0.5952715394988656,-2.123995602993667,0.18112579795718192
1774473198507791000,12.097791015625,-0.6746165866315365,-0.6463339104771614,-0.4254571168899536
1774473198517819000,12.10781884765625,-0.49537557950764893,-0.6104558838229626,-0.6361340035021305
1774473198527847200,12.11784716796875,-0.3656748483613133,-0.975928341479972,-0.38840135169327256
1774473198537875000,12.127875,-0.177009594810009,-0.5414177111711352,-0.5264776969969273
1774473198547904000,12.137904052734376,-0.022488602922856805,-0.11434888476822525,-0.35029169352948664
1774473198557931800,12.147931884765624,-0.14203092814832924,-0.6700549047391862,-0.778031952920556
1774473198567960000,12.1579599609375,-0.16283464672416448,-1.184871755363047,-0.7542658774077892
1774473198577987800,12.16798779296875,-0.27792028480172154,-1.1902530830752103,-0.3585580020934343
1774473198588016000,12.17801611328125,-0.4805953590050339,-2.0921916208453477,-0.010204583150148392
1774473198598044000,12.1880439453125,-0.42678748871088024,-1.764189354404807,0.4445850112080574
1774473198608072000,12.198072021484375,-0.7313689859449863,-0.30533969519026577,-0.46137364892363547
1774473198618100000,12.208099853515625,-0.24295886153578758,-3.021979046462476,-0.7291402039796113
1774473198628128000,12.2181279296875,-0.2951990441218018,-0.6686319592639803,-0.6589888093888759
1774473198638156000,12.228156005859375,0.5407902999877929,0.6518006514504552,-0.6009896248847246
1774473198648185000,12.23818505859375,0.5231289710909128,-0.3004523615401238,-0.24457974073588848
1774473198658212900,12.248212890625,-0.10703034191578625,-0.25292576347254214,0.43248248548209667
1774473198668241200,12.2582412109375,-0.5514359049037099,1.7731033132225273,0.6437269428491592
1774473198678269000,12.26826904296875,-0.6252364696517586,-2.645341490060091,-0.060517889326810834
1774473198688297000,12.278296875,-0.9596353052616119,-1.703065608139336,-0.2505354342699051
1774473198698325000,12.288324951171875,-0.1339288702353835,0.6969315865531563,-0.5142950917720794
1774473198708353000,12.29835302734375,-0.02480944708585739,1.9339771812677382,-0.25748130788505075
1774473198718381000,12.308381103515625,-0.22492197732478378,2.4672417619258162,0.5960328792601823
1774473198728409000,12.3184091796875,-0.19437778597921132,3.3433842527255413,1.1929589079678058
1774473198738436900,12.328436767578125,0.09326426689177751,3.3254274480134245,1.7393337300896643
1774473198748465200,12.338465087890626,0.3234370043516159,1.8405505634211003,1.797233545872569
1774473198758494000,12.348493896484374,0.18105828567892313,0.4745907848279923,1.6005249788582323
1774473198768522000,12.35852197265625,0.07568681688606739,0.6379988475259393,1.0453782367378472
1774473198778550000,12.368550048828125,-0.2707061156392097,0.5051919670578092,0.6475351029604673
1774473198788578000,12.378578125,-0.2862389080747962,0.0014743834014981985,0.484250666642189
1774473198798605800,12.388605712890625,-0.31310645673424004,-0.361473597279191,0.03774725459218025
1774473198808634000,12.398634033203125,-0.5081304316624998,-0.1288811583917588,-0.7940741561830044
1774473198818662000,12.408661865234375,-0.27117870158702134,-0.13062332588396966,-1.355788586255908
1774473198828690200,12.418690185546875,0.2193485611066222,-0.29233364475332196,-1.5118904175937176
1774473198838718000,12.428718017578126,1.0131377628684044,-0.8625987532895057,-0.3862205005228519
1774473198848746000,12.43874609375,-0.3038441228702664,-1.6471194106422364,-0.012746668848395346
1774473198858774000,12.44877392578125,-0.662742901225388,-1.0452588481418787,0.09576397475302219
1774473198868803000,12.458802978515624,-0.6886161781504749,-0.6097881406292319,-0.6756739867299795
1774473198878830800,12.468830810546875,-0.33368747247010466,-0.23302155101969838,-0.3978185838580131
1774473198888859100,12.478859130859375,-0.9300488530322909,0.37621100155338644,-0.012872341054677962
1774473198898887000,12.488886962890625,0.010861585754156113,0.29509777570441365,-0.4061374993920326
1774473198908915000,12.4989150390625,0.5235338986299932,0.20189152261018753,-0.15121172120869159
1774473198918943000,12.50894287109375,1.1200015160456298,0.0019235154084861277,0.16268588590323924
1774473198928971000,12.518970947265625,1.44565458901152,0.1893286858960986,0.6372393343955278
1774473198938999000,12.5289990234375,-1.4330544890269636,-0.1613468923844397,0.07559563147127628
1774473198949027000,12.539027099609376,-2.1724162272915244,-0.49039632979035375,-0.3843938696175813
1774473198959054800,12.549054931640624,-1.0335782010897994,0.3400410792805254,-0.47917993924915786
1774473198969083100,12.559083251953124,-0.3489256658732891,1.0560253029584885,0.03723988959193229
1774473198979112000,12.56911181640625,0.15265490575432777,0.662501347554475,0.1187555587619543
1774473198989140000,12.579139892578125,-0.07114347436800599,-0.0623005349598825,-0.27990882827043534
1774473198999168000,12.58916796875,-1.1223872421383858,-0.19312851657047866,-0.1108732810795307
