time,seconds_elapsed,accel_x,accel_y,accel_z,gyro_x,gyro_y,gyro_z
1773256914103116000,0.082115966796875,-0.0360129781454801,-0.1472138837441802,-0.060974035596475,-0.0012876060791313,0.0348908826708793,-0.0589810311794281
1773256914113142000,0.09214208984375,-0.1639016914337873,-0.2377041558779776,-0.037510139634367,-0.0100934095680713,0.0625511854887008,-0.1484895348548889
1773256914123168000,0.10216796875,-0.1969569888174533,-0.238819569773972,-0.012894205826614,-0.0079234661534428,0.0711001977324485,-0.1729290932416916
1773256914133194000,0.112194091796875,-0.0664881959080696,-0.1436031459011137,-0.0187650706213898,-0.0040960125625133,0.0616946332156658,-0.1408754289150238
1773256914143220000,0.122219970703125,0.0828039554148912,0.0091929218895733,-0.0282213926875032,-0.0035434062592685,0.0309897176921367,-0.0684709921479225
1773256914153246000,0.132245849609375,0.1709545325547456,0.1278746847629547,0.0002200542251579,-0.0026218497660011,-0.0051247105002403,0.0194139070808887
1773256914163272200,0.142272216796875,0.1959025113284587,0.1426559281788766,0.0302901252529583,0.0037380452267825,-0.0355912744998931,0.0890712812542915
1773256914173298200,0.152298095703125,0.1608481490820646,0.0931919323079288,0.0222674527191556,0.0061991321854293,-0.0492182038724422,0.1140894368290901
1773256914183324200,0.16232421875,0.0639642303884029,0.0414355877161026,0.0226321030467748,0.0030837664380669,-0.0423757433891296,0.0952819287776947
1773256914193350100,0.17235009765625,-0.0127016606628894,-0.007843260846287,0.0240727303091436,0.0014697487931698,-0.0211327001452446,0.0442865118384361
1773256914203376000,0.182376220703125,-0.0354378086060285,-0.0615372955024242,-0.0126787181787192,-0.0003145691007375,0.0081863058730959,-0.0158881414681673
1773256914213402000,0.192402099609375,-0.0167371997892856,-0.0943636064358055,-0.0436383767236955,-0.0033791717141866,0.0300922356545925,-0.0630059093236923
1773256914223428000,0.202427978515625,0.0093792382419109,-0.1041162080347538,-0.0358334385938011,-0.0031549334526062,0.0334185250103473,-0.0787846073508262
1773256914233454000,0.2124541015625,0.0260234990507364,-0.056920887748152,-0.02774652345106,-0.0023172255605459,0.0276736393570899,-0.0631178542971611
1773256914243480000,0.22247998046875,0.0497486580312252,0.041208062570542,0.0165166706400923,-0.0011765939416363,0.0145738162100315,-0.0259366668760776
1773256914253506000,0.232506103515625,0.0824918207257986,0.0573547491207718,0.0266143593496642,0.0009307667496614,-0.0090402755886316,0.019747756421566
1773256914263532000,0.242531982421875,0.0872457372546195,0.0444743708901107,0.0052375901262275,0.0038759564049541,-0.0224524866789579,0.0461759008467197
1773256914273558000,0.25255810546875,0.0871884541094303,0.0279233413226902,-0.0129811717240139,0.0054637319408357,-0.023835090920329,0.0560628622770309
1773256914283584000,0.262583984375,0.0466466003626585,-0.0142228788807988,-0.0150089329582639,0.0028210771270096,-0.0161028690636158,0.0389480590820312
1773256914293610000,0.27260986328125,-0.0034703064590692,-0.0375663450673222,-0.0095687146657146,0.0017609130591154,-0.0044484254904091,0.0068448288366198
1773256914303636000,0.282635986328125,-0.0104331312090158,-0.0528116988636553,-0.0076496379703283,-0.0006393940420821,0.0112527729943394,-0.0217252969741821
1773256914313662000,0.292661865234375,-0.005020458510518,-0.0424681456342339,-0.0137119154176674,-0.001066644443199,0.0182127319276332,-0.0417047999799251
1773256914323688000,0.30268798828125,0.0375175374895334,-0.0156797996908426,-0.0031156660688109,-0.002154279500246,0.018336035311222,-0.0404200889170169
1773256914333714000,0.3127138671875,0.062509355404973,0.0190519064724445,-0.0040460970530286,-0.0011800143402069,0.0089615480974316,-0.0235103890299797
1773256914343740000,0.322739990234375,0.074512512409687,0.0298842661321163,0.0031688027618452,-0.0003262048121541,0.0017806002870202,0.0038021905347704
1773256914353766000,0.332765869140625,0.0604179360836744,0.0263771347939968,0.0050539771876297,0.0007829000824131,-0.0078275613486766,0.025597471743822
1773256914363792000,0.3427919921875,0.0401782811313867,0.0102587975554168,0.0033300212055444,0.0012787806335836,-0.0170772522687912,0.029979970306158
1773256914373817900,0.35281787109375,0.0200128604590892,0.0014085516236722,-0.0103702585732564,0.0012793967034667,-0.0100314430892467,0.0230032987892627
1773256914383844000,0.362843994140625,0.0263619372248649,-0.0055621641717851,-0.0105405919051729,0.0032567938324064,-0.0024459599517285,0.0071460409089922
1773256914393870000,0.3728701171875,0.0305564663052558,-0.0148370652563869,-0.0064217584094963,-0.0015842599095776,0.0043777767568826,-0.0098059335723519
1773256914403896000,0.38289599609375,0.0301443783730268,-0.0133262223020195,-0.0148762282229959,-0.0015597586752846,0.0106095736846327,-0.0233803316950798
1773256914413922000,0.392922119140625,0.0304436535805463,0.0005785305403172,-0.0076938059056177,-0.0010016438318416,0.0110360607504844,-0.0255380365997552
1773256914423948000,0.402947998046875,0.0405740024507045,0.0193222478464245,-0.0041850123333744,-0.0013111032312735,0.0075073717162013,-0.0135468877851963
1773256914433974000,0.41297412109375,0.0495581038951873,0.0165441614352166,-0.0022715251285582,0.0020709261298179,-0.0011872136965394,0.001088741235435
1773256914444000000,0.423,0.0520294624447822,0.0164933080308139,-0.0011971556290052,0.0033646896481513,-0.0070914411917328,0.0135909505188465
1773256914454026000,0.43302587890625,0.0562719223201274,0.0065652037344872,-0.0076168682118877,0.0023554158397018,-0.0059280330315232,0.0158394258469343
1773256914464052000,0.443052001953125,0.0502267969369888,0.0043656478635966,-0.0037045536063611,0.0015695168403908,-0.0093240970745682,0.0148074496537446
1773256914474081800,0.453081787109375,0.0320429054707288,-0.007998889799416,-0.0040854426827281,0.0002158725401386,0.0007976992055773,0.0020813820883631
1773256914484107800,0.463107666015625,0.0274164147138595,-0.0070092942401766,-0.0040670850421302,-0.0016906844684854,0.0037311709020286,-0.0071246335282921
1773256914494133800,0.4731337890625,0.027782909938693,-0.0114909696988761,0.0081972984483465,-0.0001031949650496,0.007675674278289,-0.011167649179697
1773256914504159700,0.48315966796875,0.0417149891793727,0.0001227495968341,0.0042371443794108,-0.0016249252948909,0.0079981833696365,-0.0121253216639161
1773256914514185700,0.493185791015625,0.0578267505466938,0.0106517423957586,0.0047652051078155,0.0016860195901244,0.0042472868226468,-0.008367545902729
1773256914524212000,0.5032119140625,0.0548532876938581,0.004763999531418,0.0048005686821416,0.0003637601621448,0.0006477585993707,0.0012203669175505
1773256914534238000,0.513238037109375,0.0505091210097074,0.0144296534992754,-0.0036864516940899,-0.0007383577758446,-0.001660147216171,0.0082755843177437
1773256914544264000,0.523263916015625,0.0420797308385372,0.0057912967525422,0.0013972082457505,0.0004797721048817,-0.0023222086019814,0.0101584391668438
1773256914554290000,0.5332900390625,0.0404062446683645,-0.0030165713422,-0.0015756152862682,0.0002953587099909,-0.0023357053287327,0.0066296542063355
1773256914564316000,0.54331591796875,0.0383557418793439,-0.0045199616424739,-0.0016895057232119,-0.0010391512187197,0.0007668775506317,0.0018607322126626
1773256914574342000,0.553341796875,0.0382061042755842,-0.0021340894192457,-0.0028160255351103,-0.0011879410594701,0.0026056286878883,-0.005134635604918
1773256914584367900,0.563367919921875,0.0300315656483173,0.0079025898180902,-0.006977547395043,-0.0011578472331166,0.0043284278362989,-0.0109856007620692
1773256914594393900,0.573393798828125,0.0393044209063053,0.010913900463283,-0.0030933811717666,-0.0004393265116959,0.006285052280873,-0.0057753920555114
1773256914604419600,0.583419677734375,0.0438034858912229,0.0092689097352325,0.0024858985316008,0.0017817498883232,0.0039409380406141,-0.0052033453248441
1773256914614445600,0.593445556640625,0.0527110149681568,0.0183823366478085,0.0057564081022515,0.0002124300226569,0.0029349001124501,0.0011067064478993
1773256914624471600,0.603471435546875,0.0416261418521404,0.0214478616982698,0.0034080183451995,0.0007583780679851,-0.0027778465300798,0.0064279688522219
1773256914634497800,0.613497802734375,0.0378144746094942,0.0132880822487175,-0.0023672223216854,0.0009289652807638,-0.0026223417371511,0.0067866258323192
1773256914644523800,0.623523681640625,0.0389525387287139,0.0076066756114363,-0.00563283652151,0.0002045854926109,-0.0005298960022628,0.0023857522755861
1773256914654549800,0.6335498046875,0.0295382291734218,0.0089719726152718,-0.0070942508435808,-0.0021803574636578,0.0016573625616729,-0.0016470588743686
1773256914664575700,0.64357568359375,0.0413069929003715,0.0025005846440792,0.0006211823719553,-0.0007193473866209,0.0033655143342912,-0.006004789378494
1773256914674601000,0.65360107421875,0.0363695364981889,0.0027335166171193,-0.0041978170160204,-0.0003237451892346,0.0010234448127448,-0.0070638298057019
1773256914684627000,0.663626953125,0.0397638551115989,0.0085243749782443,-0.007018427394703,-2.68027652055e-05,0.0009976122528314,-0.0033854716457426
1773256914694652700,0.673652587890625,0.0449941569805145,0.0138083067305386,0.0009903992768377,0.0003189368871971,0.0031412807293236,-0.0014883195981383
1773256914704678700,0.6836787109375,0.0401455479055643,0.0143356916055083,0.0065979917592369,0.0017812786391004,-0.0014627920463681,0.0031964471563696
1773256914714704600,0.69370458984375,0.0438847344338893,0.0097340430289506,0.0043756030020304,0.0002321191132068,-0.0018727630376815,0.002106443978846
1773256914724730600,0.703730712890625,0.0414151294499635,0.0033113165050745,-0.0003766878252848,0.0028558652848005,-0.0007614255882799,0.0003266530111432
1773256914734756600,0.713756591796875,0.0334644627064466,0.0066043667010962,-0.0023501433227211,0.000193974468857,0.0007567526772618,0.0015975972637534
1773256914744782600,0.723782470703125,0.0350683907717466,0.004418108703196,-0.0045641113114543,-0.000306699774228,0.0037269762251526,-0.0036988970823585
1773256914754808600,0.73380859375,0.0355313321083784,0.0026918694324791,-0.0132729212122038,0.0018470390932634,0.0038355523720383,-0.0049281013198196
1773256914764834800,0.743834716796875,0.0480512064635753,0.0085981708668172,0.0003987169940024,-0.0019429054809734,0.0008898298256099,-0.0043749627657234
1773256914774860800,0.75386083984375,0.0301683437705039,0.0109967564411461,0.0047572775296866,0.000349155627191,0.0004799435846507,-0.0027281315997242
1773256914784886800,0.76388671875,0.0297819748014211,0.0025320026956498,0.0019093042200431,-6.84281112626e-05,0.0021617296151816,-0.0025222692638635
1773256914794912800,0.773912841796875,0.044157706156373,0.0081325991816818,-0.0013958200062625,0.0009586294181644,-0.0009553031995892,0.0010526310652494
1773256914804938800,0.783938720703125,0.0331739553272724,0.0111662677891552,-0.0037136136956512,0.0013208193704485,0.0016460721381008,0.0021562445908784
1773256914814964700,0.79396484375,0.0382265625417232,0.007760112607479,-0.007480765943136,0.0018616042798385,-0.0005402825772762,0.0028885565698146
1773256914824990700,0.80399072265625,0.0344534737437963,-0.0043399289004504,-0.0070493522559292,0.0032352628186345,0.0010336455889046,-0.0016561276279389
1773256914835016700,0.8140166015625,0.0431143345832824,0.0074734046205878,-0.0039222149450331,-0.0008945823647081,0.0013310150243341,-0.0024558315053582
1773256914845042700,0.824042724609375,0.0425561161786317,-0.0005557341866195,-0.0027686244631186,-0.0005672797560691,0.0028687240555882,-0.0025839293375611
1773256914855068700,0.834068603515625,0.0381347926050424,0.0062111295998096,-0.004114504380431,0.0005793130258098,0.0004252842627465,-0.0031985598616302
1773256914865094700,0.8440947265625,0.0480371779382228,0.0058893502995371,-0.0011805150214582,0.0020578999537974,0.0041704876348376,-0.000421947799623
1773256914875121000,0.854120849609375,0.0424842199862003,0.009986118093878,-0.0016615034714341,-0.0004604881396517,0.000606479588896,0.0027655325829982
1773256914885147000,0.86414697265625,0.0405330859184265,0.0074906480163335,-0.0075448258889839,-0.000950509798713,0.0017119576223194,0.000635802745819
1773256914895172900,0.8741728515625,0.0412888727217912,0.0079136957339942,-0.0046006073969416,-0.0007593551417812,0.0011138771660625,0.000697168521583
1773256914905198800,0.88419873046875,0.0376420406520366,0.0031356676772236,-0.0072270286440849,1.48258404806e-05,0.0023314743302762,-0.0011870181187987
1773256914915224800,0.894224853515625,0.0346428588360548,0.0034818507663905,-0.0034136626346968,-0.003442408517003,-0.0017710197716951,-0.0007590902969241
1773256914925250800,0.904250732421875,0.0469072971254587,0.001858341217786,-0.0054219885161146,-0.0007946939440444,0.0039073722437024,-0.0016144975088536
1773256914935276800,0.91427685546875,0.0375344886243343,0.0020005261674523,-0.0020576449158601,-0.0006033771205693,0.0013731177896261,-0.0038539217785
1773256914945302800,0.924302734375,0.0327870018362998,-0.0054405836187303,-0.0061819583042524,0.000444576726295,0.0026266677305102,-0.0016022189520299
1773256914955328800,0.934328857421875,0.0482370844244956,0.0003371229998767,-0.008317034104187,-0.0012365242000669,-0.0008024987764656,-8.35722312331e-05
1773256914965354800,0.944354736328125,0.0386532635211944,0.0045851358331739,-0.0041489546393044,0.0005070473998785,-0.0001891730353236,0.0014786375686526
1773256914975380700,0.954380615234375,0.0420709630101919,0.0105661099389195,-0.0021199512960389,-0.0037355010863393,0.0012183734215795,0.0029919575899839
1773256914985407000,0.964406982421875,0.0361684609681367,0.0098823654584586,-0.0092638499676249,-0.0013413194101303,-8.17817635834e-05,0.0027860952541232
1773256914995433000,0.974432861328125,0.0500625462859869,0.0016221943743526,-0.0023744375137612,2.80208187177e-05,0.0001765345223248,-0.0004701782017946
1773256915005459000,0.984458984375,0.0391021763324737,-0.0039950609855353,-0.0006037197805009,9.72630223259e-05,-0.0004937830381095,0.0004366282373666
1773256915015485000,0.99448486328125,0.0334229616522789,0.0062969081871211,-0.0085257084188051,-0.0009620124474167,0.0024895151145756,-0.0018514906987547
1773256915025511000,1.004510986328125,0.0386532635211944,0.009154343444854,-0.0055205717860721,-0.0009372450876981,0.0002458016388118,-0.001237366348505
1773256915035536600,1.01453662109375,0.0426870490819215,0.007101940959692,-0.0062205002163536,-0.0005399780347943,0.0015403348952531,-0.0018766070716083
1773256915045562600,1.024562744140625,0.0431587582468986,0.0098215751819312,-0.0030745851397514,0.0001367310760542,0.0029163900762796,-0.0001604659482836
1773256915055588600,1.034588623046875,0.0344826998382806,0.0105509123697876,-0.0007083126661367,-0.0003899310249835,-0.0015717251226305,0.0019383411854505
1773256915065614600,1.044614501953125,0.0358335299253463,0.0071232760086655,0.0004137684326618,0.0001983613474294,-0.0009104618802666,-0.0007176296785473
1773256915075640600,1.054640625,0.033847909066081,0.0044676469333469,-0.0009755853001959,-0.0011793568264693,0.0003156214952468,-0.0007843021303415
1773256915085666600,1.06466650390625,0.0398228918224573,0.0066194181397557,-0.008312175265979,0.0004033597651869,0.0005140267312526,-0.0024415873922407
1773256915095692800,1.07469287109375,0.0343237098842859,0.0073206982769072,-0.0064751690971665,0.0003539613680914,0.0014338716864585,-0.0029545375145971
1773256915105718800,1.08471875,0.0422948348939418,0.0074088149517774,0.0068836403002031,-0.0009427317418158,0.0010831337422132,-7.53942877054e-05
1773256915115744800,1.094744873046875,0.0322866510987281,-0.0021105624131858,-0.0032639702320098,0.0002574420068413,0.0015374054200947,-0.0018257405608892
1773256915125770800,1.104770751953125,0.0359206236869096,0.0011051847629249,-0.0050385238901711,-0.0008778634946793,-0.0001158849336206,-0.002090192399919
1773256915135796700,1.114796630859375,0.0386275445580482,-0.0025743805326521,-0.0075393094636499,-0.0020047319121658,-9.60980542004e-05,0.000818133354187
1773256915145822700,1.12482275390625,0.0449023870438337,0.0010552081413567,-0.0031469927888363,-0.0024385608267039,0.0017931484617292,0.0007941657677292
1773256915155848700,1.1348486328125,0.0480740028172731,-0.000752425802499,-0.0034710188451223,0.0013762189773842,-0.0005574324168264,-0.0010534105822443
1773256915165874700,1.144874755859375,0.0404442385911941,0.0034571547165513,-0.01362027334515,0.0011586387408897,0.0025060018524527,0.0012017544358968
1773256915175900700,1.154900634765625,0.0361024099946022,0.0065982292212545,-0.0026323943302035,0.0008460640674456,4.293397068977356e-07,-0.0028628897853195
1773256915185926700,1.1649267578125,0.0346305838763713,0.0083760525487363,-0.0041799342994578,-0.0020370741840451,-0.0006022439338266,0.0001251772046089
1773256915195953000,1.174952880859375,0.0365548299372196,0.005344137506932,-0.0100404420970007,0.0009763880516402,0.0016946168616414,-0.0001917229965329
1773256915205979000,1.184978759765625,0.0351993236750364,0.0008884732723236,-0.0032299948971718,-0.0011176555417478,0.0004874058067798,-0.0018809661269187
1773256915216004900,1.1950048828125,0.0411859968692064,0.0054100423499941,-0.0006045417644083,-0.0003518292214721,-0.0020469538867473,0.0001969030126929
1773256915226030800,1.20503076171875,0.0518026679515838,0.005160451503098,-0.0057976351617835,0.0009581798221915,-0.0010344199836254,-0.0014811549335718
1773256915236056800,1.215056884765625,0.0413309582978487,0.0024395021066069,-0.0084178641301579,0.0004749485524371,0.001558422576636,-0.0013394998386502
1773256915246082800,1.225082763671875,0.0368429992288351,0.0090371468059718,-0.0078365023119375,0.0010901388013735,0.0004316391423344,0.0017345864325761
1773256915256108800,1.23510888671875,0.0365630132436752,-0.0004962590843439,-0.0014238039917312,0.0007699591806158,0.0003970847465097,-0.0027073519304394
1773256915266134800,1.245134765625,0.0340320334613323,-0.0038543373405933,-0.0079797832401469,0.0007308107451535,-0.0007515363395214,0.0001137349754571
1773256915276160800,1.255160888671875,0.0327039997279644,0.0033897885687649,-0.0007158018528483,0.0009788607712835,0.0016244072467088,0.0006820755079388
1773256915286186800,1.265186767578125,0.0394341847658157,0.003387742742151,-0.0131171826612204,0.0017083005513995,0.0003921622410416,-0.0004020975902676
1773256915296212700,1.275212646484375,0.044657472372055,0.0052488604389131,-0.0098921562001109,0.0007596902432851,0.0006722942925989,-0.0004027830436825
1773256915306239000,1.285239013671875,0.044081133788824,0.0042113340847194,-0.0061231955880299,-0.0003716206410899,0.0024374378845095,-0.0004171645268797
1773256915316265000,1.295264892578125,0.0449725296705961,0.0036401100680232,-0.0031816074444912,-0.0017953823553398,0.0013889605179429,-0.0003496380522847
1773256915326291000,1.305291015625,0.0380967986822128,0.0050897243544459,0.0015676877081394,0.0005641784518957,0.0010059978812932,-0.0020681754685938
1773256915336317000,1.31531689453125,0.0399029713213443,0.0026468612469732,-0.0055508025275543,0.0028553828597068,-0.0030597010627388,-0.0011026514694094
1773256915346343000,1.325343017578125,0.0431581737250089,-0.0013153203822672,-0.0068633464308455,-0.0007204435532912,0.002693525981158,0.001125082373619
1773256915356369000,1.335368896484375,0.0349497328281402,0.0045338440373539,-0.0037019049915485,-0.000860352651216,-0.0011510266922414,-0.002640760038048
1773256915366395000,1.345394775390625,0.0417161582231521,0.0021434417694807,-0.0032187611171044,-0.0006931059760972,0.0002516601234674,0.0002929782494902
1773256915376420900,1.3554208984375,0.0397819752901792,0.0049301498785614,-0.0117228239596821,-0.0009214910678565,-0.0014078877866268,-0.0024325242266058
1773256915386446600,1.365446533203125,0.0417699342370033,-0.0005117489144206,-0.0051308418161235,0.0009166226373054,-0.0008148024789988,-0.0024197408929467
1773256915396472600,1.37547265625,0.0446054499238729,0.0044660394981503,-0.0064763746735639,-0.0014850087463855,0.0005092117935419,-0.00127290841192
1773256915406498600,1.38549853515625,0.0475870960831642,0.0088579908467829,-0.0075692662104964,-0.0018373448401689,-0.0005017239600419,-0.0015520080924034
1773256915416524800,1.39552490234375,0.0357850146085023,0.0090434304162859,-0.0047943946696817,0.0008963409927673,0.0022379006259143,0.0011175209656357
1773256915426550800,1.40555078125,0.036048633980751,-0.0013837094433605,-0.0078918857609853,0.0003426697803661,0.0006634397432208,0.0006922138854861
1773256915436576800,1.41557666015625,0.0273825124442577,-0.0030924130573868,-0.0030760647107847,-0.0001324631739407,-0.0001580417156219,-0.0039967475458979
1773256915446602800,1.425602783203125,0.0375847575068473,0.0018270692966878,-0.0017205036496743,-0.0025636628270149,0.002163169439882,-0.0015748688019812
1773256915456628700,1.435628662109375,0.0475999555647373,0.0012622750207781,-0.0091921912372112,-0.0001011525746434,0.0013025701045989,0.0011182269081473
1773256915466654700,1.44565478515625,0.0432516972273588,0.0029500819772481,-0.0110224023390561,-0.0008268640376627,-0.0001642988063395,-0.0013883407227694
1773256915476676400,1.45567626953125,0.0375683908939361,-0.0054394145749509,-0.0057547458681277,-0.0003298573428764,0.0004596030339598,-0.0007362756878137
1773256915486702300,1.465702392578125,0.0437093778669834,-0.000662993953377,-0.004135656766314,0.0004925268003717,-0.0017140693962574,-0.0019631939940154
1773256915496728300,1.475728271484375,0.0458148257136344,0.0048164603710174,-0.0026353717385791,-0.0018087063217535,0.0002587703056633,0.0002240501344203
1773256915506754300,1.48575439453125,0.0443044211506843,0.0054746320188045,-0.006034165597707,-0.001917629619129,0.0025837100110948,0.0007937001064419
1773256915516780300,1.4957802734375,0.0353185661405324,0.0002602583713829,-0.0064461621983908,-0.0001139225205406,0.0013266326859593,-0.000173170119524
1773256915526806300,1.50580615234375,0.0357704015612602,0.007119622746855,-0.0138198145052418,0.0002402778482064,-0.0011495747603476,0.0008494835346937
1773256915536832300,1.515832275390625,0.0336848274588584,0.0033586627781391,-0.0121376153056509,0.0005073508946225,0.0012915777042508,-0.001146434340626
1773256915546858200,1.525858154296875,0.0388110844314098,0.0052501756131649,-0.0035834662436507,0.0010668809991329,0.0009895754046738,0.0001364108175039
1773256915556884200,1.53588427734375,0.0395312153995037,0.0077976681388914,-0.0029641287689097,0.0003557844320312,0.001663158647716,0.0007632048800587
1773256915566909400,1.545909423828125,0.03968728274405,0.0020902502775192,-0.003327445655968,0.0032541025429964,0.0002450253814458,-0.0001643737778067
1773256915576936400,1.5559365234375,0.0411684612125158,0.0070933192618191,0.000902830591239,0.0021081713493913,0.0016694064252078,-0.0005738902837038
1773256915586962400,1.56596240234375,0.0464051928222179,0.0097870883904397,-0.0060099810045212,0.0009435709798708,0.0006137294694781,-0.0003477875143289
1773256915596987400,1.5759873046875,0.038778935727477,0.0080922671712934,-0.0010475728241726,-0.0002354821190237,0.0031641072127968,-0.0004446348175406
1773256915607014400,1.586014404296875,0.0494242483824491,-0.0026804712556302,-0.0059093519079498,-0.002007283270359,0.001600032672286,-0.0006795255467295
1773256915617039400,1.596039306640625,0.0383756156235933,0.0094593177407979,-0.0054393415097147,-0.0018564795609563,-0.0013120826333761,-0.0028711068443953
1773256915627065300,1.6060654296875,0.0327063378155231,-0.0079888067968189,-0.0058686728376895,-0.0005472695920616,0.0009888880886137,-0.0003472287207841
1773256915637092400,1.61609228515625,0.0333154096245765,0.0031920740395784,-0.0014371566636487,-0.0013305847533047,-0.0001271981745958,1.78618356585e-05
1773256915647117300,1.626117431640625,0.0386859967470169,0.0022261516168713,-0.0092718140783719,-0.0001161833060905,0.0010555116459727,-0.0002966579049825
1773256915657143300,1.636143310546875,0.0416810869097709,0.0019175240591168,-0.0074622439057566,0.0003234859323129,-0.0019901674240827,-0.0005936082452535
1773256915667170300,1.64617041015625,0.0394300931125879,-0.005216273343563,-0.0025834771545603,-0.001293052919209,0.0003946931101381,0.0019505098462104
1773256915677195300,1.6561953125,0.0468991138190031,0.0050254269465804,-0.0063433959436602,0.0021689746063202,0.0005165496841073,0.0005218023434281
1773256915687221200,1.66622119140625,0.0427057537823915,0.0095281451933085,-0.0006937909504398,-0.0028550785500556,-0.0003966484218835,0.0008938461542129
1773256915697247500,1.67624755859375,0.0409141941905021,-0.0026402853757143,-0.0026391345982439,0.0005612914683297,0.0034334915690124,0.0002284785732626
1773256915707273500,1.6862734375,0.0411959337413311,0.0005900748476386,0.0076495101061649,-0.0016920091584324,-0.0005021281540393,0.0001842696219682
1773256915717299500,1.696299560546875,0.0380634809345006,0.0026337095044553,-0.0010194609745405,0.0003290098393335,-0.0006715785712003,-0.0032995268702507
1773256915727325400,1.706325439453125,0.0320920053094625,0.0006464812099933,-0.0096354962916113,-0.000397766707465,0.0006022113375365,0.0024592923000454
1773256915737351400,1.716351318359375,0.0394026205837726,0.0046520635895431,-0.0090613313991576,0.0002169657964259,-0.0010570650920271,-0.000879181548953
1773256915747377400,1.72637744140625,0.0335772754311561,-0.0012299801863729,-0.001802190583758,0.0011799647472798,0.0011280584149062,-0.0008078087121248
1773256915757403400,1.7364033203125,0.0395738854974508,-8.62169787287e-05,0.0055806496765464,7.04299891367e-05,0.001734769437462,0.0004184441640973
1773256915767429400,1.746429443359375,0.0345019890606403,0.0026576749019324,-0.0060412711919285,-0.0016323953168466,-0.0004136026836931,-0.0003799721598625
1773256915777455400,1.756455322265625,0.0387070395350456,0.0073940557740628,-0.0104855920486152,-0.0017758454196155,-0.0010471725836396,0.0007711695507168
1773256915787481300,1.7664814453125,0.0370399831056594,0.014392097967863,-0.0026994316844269,0.0006279237568378,-0.0002029505558311,-0.000551888719201
1773256915797507300,1.77650732421875,0.0407645565867424,0.004728635957092,0.005809234268032,0.0006231211591511,0.0017461027018725,-5.46472147107e-05
1773256915807533600,1.786533447265625,0.0425619613975286,0.0026414544194936,0.0015909955184906,-0.0001079166540876,-0.0013647358864545,-0.0018501500599086
1773256915817560300,1.796560302734375,0.0461567710191011,-0.0009679682493209,-0.0106868685080669,-0.0006610160926356,0.0010473979637026,0.0011076238006353
1773256915827585500,1.80658544921875,0.0521317537754774,0.0022374036632478,-0.009008432168141,-0.0015614308649674,0.0008524544537067,0.0003598080947995
1773256915837611500,1.816611572265625,0.0434264692723751,0.0013154665127396,0.0040746838266961,0.0007885872037149,0.000567122362554,0.0019486183300614
1773256915847637500,1.826637451171875,0.0290495688736438,0.0034748365037143,-0.005941975535918,-5.35043654963e-05,0.0003538029268383,-0.0024048509076237
1773256915857663500,1.83666357421875,0.0437274980455636,-0.0006277765095233,-0.0064716436995193,0.0016951652942225,0.0012762248516082,0.0026891361922025
1773256915867689500,1.846689453125,0.0376093074262142,-0.0035436639562249,-0.007563932448253,0.0005891545442864,-0.0033704587258398,-0.0055408300831913
1773256915877715500,1.856715576171875,0.0391524452149868,0.0030954817973077,-0.0024286336527206,-0.001863973448053,0.0005361950024962,-0.0004082228988409
1773256915887742200,1.8667421875,0.0442366166114807,0.0054857379347085,-0.0004678549737669,0.0010125068947672,0.0013220938853919,-0.0005006343126296
1773256915897767400,1.876767333984375,0.039159459477663,-0.0007128244444727,-0.004095799679961,0.0002740934723988,0.0016707768663764,0.000285062007606
1773256915907794400,1.88679443359375,0.034660979014635,-0.0040903380535542,-0.0094143643542192,7.06280115991e-05,-0.0007934458553791,0.0001127552241086
1773256915917819400,1.8968193359375,0.0479816483587026,0.0020027181245386,-0.0034331345201469,-0.0006562754279002,0.0024673286825418,-0.002466897945851
1773256915927846400,1.906846435546875,0.044560441738367,0.0063727499023079,-0.0138054023873992,-0.0004621309926733,-0.0009162174537777,0.0017622020095586
1773256915937872400,1.916872314453125,0.0348071094870567,-0.0053051206707954,-0.0082873696182854,0.0022372645325958,-0.0001798975281417,-0.0002468517050147
1773256915947897300,1.9268974609375,0.0440928242266178,0.0017291618801653,-0.0334392369336448,0.0014830573927611,-0.0026430557481944,-0.0020700511522591
1773256915957924400,1.93692431640625,0.0617202508538961,0.0081419515319168,0.0160333441025577,0.0005754505982622,0.0059684691950678,0.0033700754866003
1773256915967950300,1.946950439453125,0.0247059867113828,0.0052218263015151,0.0081347728724591,0.0013823884073644,-0.0023576375097036,0.001629433594644
1773256915977976300,1.956976318359375,0.00794482152462,-0.0045569326519966,-0.0399559253512881,-0.0011728676036,-0.0048712231218814,0.0009403340518474
1773256915988002300,1.967002197265625,0.0759942754000425,0.0008944646216928,-0.0173737806597724,0.000268168747425,0.0033635376021265,-0.0002461047843098
1773256915998028500,1.977028564453125,0.0708615886867046,0.0034935412041842,0.0244284849442541,-0.0016336843837052,0.0016291579231619,0.0008886633440852
1773256916008054500,1.987054443359375,0.0149047236651182,-0.0035898411855101,0.014190711910557,0.0015565162757411,0.001475759781897,-0.0014080465771257
1773256916018080500,1.99708056640625,0.0111772275745868,-0.0093812840685248,0.0024835969766601,-0.0011578053236007,0.0032013971358537,-0.0005416758358478
1773256916028106500,2.0071064453125,0.0415688587069511,-0.0087546766027808,-0.0067388798009604,0.0018755351193249,-0.0001786868087947,-0.0009771026670932
1773256916038132500,2.017132568359375,0.0553811109602451,0.0124504623807966,-0.0327609540795907,0.0028045028448104,-0.0014446303248405,0.0003697285428643
1773256916048158500,2.027158447265625,0.0897965907812118,0.0202381936475634,-0.011956724047102,-0.0015476350672543,0.001854226924479,0.0009420420974493
1773256916058184400,2.037184326171875,0.0568628739506006,0.005340338114649,-0.0088569314008578,1.2958189472e-06,-0.0012573329731822,0.0003781337291002
1773256916068210400,2.04721044921875,-0.0028653263032436,-0.0163857560031116,-0.0061618105653673,0.001501188147813,-0.0015353667549788,0.0008721500635147
1773256916078236400,2.057236328125,0.0070095865011215,-0.0082863284386694,-0.0063940666849724,0.0011001387611031,-0.0005845129489898,0.0029865950345993
1773256916088262400,2.067262451171875,0.0390068992644548,0.0101255265645682,-0.0109033608029596,0.0040410673245787,0.0008671763353049,0.0004185084253549
1773256916098288400,2.077288330078125,0.0666986237883567,0.0241577051788568,-0.0174133089525625,-0.0005764614325016,-0.0003591794520616,0.0011898437514901
1773256916108314600,2.087314697265625,0.0586164396196603,0.0133890584051609,-0.007705003153067,0.0018784403800964,-0.0001312126405537,0.001899043098092
1773256916118340600,2.097340576171875,0.0346171398729085,-0.0113024613894522,-0.0038798371080309,0.0040245745331048,0.0036603810731321,0.0051544811576604
1773256916128366600,2.10736669921875,0.0035574002206325,-0.0105472591079771,0.0050874593321233,0.0032168379984796,0.0004185149446129,0.0042271679267287
1773256916138392600,2.117392578125,0.0115840548098087,-0.0002183189257979,0.0171454152639955,0.0031533641740679,0.00151325808838,0.0015731723979115
1773256916148418300,2.127418212890625,0.0375672218501567,0.0058893502995371,-0.0202214434421621,0.0084328148514032,0.0024240594357252,0.002270920202136
1773256916158444300,2.1374443359375,0.0518809938848018,0.0230780932486057,-0.0438536269095726,0.0058704447001218,0.0014149378985166,0.0045174295082688
1773256916168470300,2.14747021484375,0.071088383179903,0.0086187752634286,-0.0132489923473447,-0.0005339249037206,0.0027206859085708,0.0061768451705574
1773256916178496300,2.157496337890625,0.0678431176483631,-0.0156305537216365,0.0140489105533808,-0.0006332200719043,-0.0050691403448581,0.0069005358964204
1773256916188522200,2.167522216796875,0.0139139590620994,-0.0259917887382209,-0.0045325105967931,-0.0034732148051261,-0.0075530707836151,0.0009968392550945
1773256916198548200,2.17754833984375,0.0205605574697256,-0.0150464702233672,-0.0183729112323373,-0.0004380719037726,0.0011873338371515,-0.0056492602452635
1773256916208574200,2.18757421875,0.0393956063210964,0.0099536771290004,-0.0099226426699198,0.0002271857811138,0.0032693929970264,-0.0091579752042889
1773256916218600400,2.197600341796875,0.0441711501598358,0.0152650814101099,0.0022677257362753,-0.0007160850800573,0.0036866145674139,-0.0056052459403872
1773256916228626400,2.20762646484375,0.0484317302137613,-0.0081571491010487,-0.0217980816417373,0.0009816801175475,-0.0029555754736065,-0.0012320689857006
1773256916238652400,2.21765234375,0.06264554900527,-0.0070355977252125,-0.0212591159268282,0.0030240989290177,-0.0004379032179713,0.0027939407154917
1773256916248678400,2.227678466796875,0.0526706829577684,0.0180700558282434,-0.017457148094289,0.0029567210003733,0.0003868779167532,0.0061002550646662
1773256916258704400,2.237704345703125,0.0360994873851537,0.0227374631173908,-0.0150419949776493,0.0031762681901454,-0.0032867882400751,0.0075544016435742
1773256916268730400,2.24773046875,0.0331084888756275,-0.0031892975606024,-0.0015001754298806,0.0022209924645721,-0.0037762774154543,0.0084971608594059
1773256916278756400,2.25775634765625,0.0458487279832363,-0.0162106916971504,-0.0150745820729993,0.0046337135136127,-0.0004107388667762,0.0061101084575057
1773256916288782300,2.2677822265625,0.0354372240841388,-0.0077858315706253,-0.019840536099486,0.0087328506633639,-0.0007822499610483,0.0053345961496233
1773256916298808300,2.277808349609375,0.0269745161652565,0.0044826983720064,-0.0083116820756345,0.0056597478687763,0.0002264478243887,0.0040549952536821
1773256916308834300,2.287834228515625,0.0370399831056594,0.0118494277477264,0.0285993956870399,0.0019241319969296,-0.0009306957945227,0.0054731285199522
1773256916318860300,2.2978603515625,0.0240671042859554,-0.001324964993447,-0.0029142252125777,0.0052071749232709,-0.0008329693228006,0.0063077406957745
1773256916328886500,2.307886474609375,0.0302530994445085,-0.0151062375865876,0.005354896362964,-0.0017990691121667,-0.0075172372162342,0.0075602252036333
1773256916338912500,2.31791259765625,0.0340612595558166,-0.0085449793748557,-0.0202984542011283,0.0027464339509606,-0.0059568732976913,0.0061237514019012
1773256916348938500,2.3279384765625,0.0494125579446554,-0.000552811577171,-0.0296867159997113,0.0046061193570494,0.004900568164885,0.0028121108189225
1773256916358964500,2.337964599609375,0.0508241783082485,0.0163237966828048,-0.0083917250419035,-0.0005606386112049,-0.0003105187788605,-8.8671222329e-06
1773256916368990500,2.347990478515625,0.0288175136834383,-0.0076594287119805,0.0001894764238037,0.0003474993864074,-0.0025544981472194,6.80983066558e-05
1773256916379016400,2.358016357421875,0.0475040939748287,-0.0226126676939427,-0.0012051380060613,0.005691091530025,0.0003457637503743,0.0038318345323204
1773256916389042400,2.36804248046875,0.0511538486540317,-0.0038439620770514,-0.0558245438788086,0.0249566659331321,-0.000620431266725,0.0064635705202817
1773256916399068400,2.378068359375,0.0507137036710977,0.0552963552862405,-0.0291713320897892,0.0108904223889112,0.0052521782927215,0.0101886801421642
1773256916409094400,2.388094482421875,0.0599251841306686,0.0318856690824031,0.0388978676657192,0.011515200138092,0.0001737964339554,0.011490698903799
1773256916419120400,2.398120361328125,0.0420545963972806,-0.0290077755585312,-0.0102563498700037,0.0178471114486455,-0.0010029580444097,0.013982281088829
1773256916429146400,2.408146484375,0.0404676194667816,-0.0100324414536356,0.004308930973988,0.0092498939484357,0.0052599976770579,0.0107742361724376
1773256916439172600,2.418172607421875,0.0168301387697458,0.0042376375697553,0.0074961461753584,0.0099299419671297,-0.0074505386874079,0.0056746816262602
1773256916449198600,2.428198486328125,0.0200987851768732,-0.0151448160313069,-0.0438176240144297,0.0140474550426006,-0.0028115781024098,-0.0030000326223671
1773256916459224600,2.438224609375,0.0811497584670782,0.0032137013494968,-0.026047975904867,0.0121893268078565,0.0109993889927864,-0.000809958204627
1773256916469250600,2.44825048828125,0.0434305609256029,0.01691547896564,0.0349643824080005,0.0021649226546287,0.0063761407509446,7.50105828046e-05
1773256916479276500,2.458276611328125,-0.0003881225347518,-0.0164200966641306,0.0454175517580471,-0.0047330120578408,-0.0047533181495964,-0.003821677993983
1773256916489302300,2.46830224609375,0.0298608852565288,-0.0556768790364265,0.0084298833615146,0.0064522642642259,-0.0025572753511369,-0.0016264342702925
1773256916499328300,2.478328369140625,0.0295522576987743,-0.0080323536776006,-0.0682648501917719,0.0125274676829576,0.0054953247308731,-0.0003941897302865
1773256916509354200,2.488354248046875,0.0480839396893978,0.0717883481428027,-0.0394819511639885,0.0085657490417361,0.004228192847222,-6.26258552074e-05
1773256916519380200,2.498380126953125,0.072252166262269,0.0425248442575335,-0.021830906199105,0.0171051751822233,0.0021802219562232,0.0049576992169022
1773256916529406200,2.50840625,0.0727069242924451,-0.0054256783105432,-0.0245856482673436,0.0200290586799383,-0.0013732337392866,0.0132715553045272
1773256916539432200,2.51843212890625,0.0358083954840898,-0.0140884388461709,0.0020574805190786,0.0136313065886497,-0.0032568089663982,0.0137508166953921
1773256916549458400,2.52845849609375,0.0050362406015396,-0.0014738719448447,0.013161058335565,0.007532668299973,-0.0053180959075689,0.014061608351767
1773256916559484400,2.538484375,0.0172948336720466,-0.010244330638647,-0.0088252576209604,0.0111367236822843,-0.0045407190918922,0.0060630701482295
1773256916569510400,2.548510498046875,0.0495136802315712,-0.0111570615693926,-0.0069600300046615,0.0084266914054751,0.0014505945146083,0.0047581205144524
1773256916579536400,2.558536376953125,0.0397983419030904,-0.0093994042471051,-0.009368881244678,0.0013106430415064,0.0003463383764028,-0.0013513849116861
1773256916589562400,2.568562255859375,0.0443850851714611,-0.017805121281743,-0.0327106303981505,0.0062284367159008,-0.0016715391539037,-0.004478202201426
1773256916599588400,2.57858837890625,0.0600689765155315,-0.0045519642159342,-0.024278043622896,0.0137947835028171,0.0064164027571678,-0.0078531187027692
1773256916609614300,2.5886142578125,0.0311041633158922,0.0221206463932991,0.007927833857201,0.0137641569599509,0.0061530158855021,-0.0028106900863349
1773256916619640300,2.598640380859375,0.0034071780949831,0.021730039640516,0.001091375433281,0.0141944205388426,0.0027473175432533,0.0038809338584542
1773256916629666300,2.608666259765625,0.0555254878669977,-0.0017591186270117,-0.0073343066771514,0.0207812190055847,0.0012319791130721,0.0080248126760125
1773256916639692300,2.6186923828125,0.0683165803790092,0.010562456677109,-0.0114558618528768,0.0212785322219133,0.0015951311215758,0.0138886226341128
1773256916649718300,2.62871826171875,0.0478366869300603,0.0219768540084362,-0.0175411913822405,0.0156962797045707,-0.003087771590799,0.0167627036571502
1773256916659744500,2.63874462890625,0.0359001654207706,0.0037500001832842,-0.0015532938566058,0.0073697231709957,-0.0044587724842131,0.0147719793021678
1773256916669770500,2.6487705078125,0.0404553445070981,-0.0266803555242717,0.0098537969511002,0.0083545595407485,0.0017314795404672,0.0087609589099884
1773256916679796500,2.65879638671875,0.0174602533668279,-0.0338895562507212,0.0337281551439315,-0.0009509144583716,-0.0023117987439036,0.0027817618101835
1773256916689822500,2.668822509765625,-0.0020744681864976,-0.0270304841361939,0.0233536587869748,-0.0015570499235764,-8.43312591314e-05,-0.0078977802768349
1773256916699848400,2.678848388671875,0.0234323135137557,-0.0189671507984399,-0.015002411885932,0.0039320741780102,0.0070304493419826,-0.0151926837861537
1773256916709874400,2.68887451171875,0.0567284339159727,0.0262280817121267,-0.0051244486079551,-0.0025311515200883,0.007859225384891,-0.0143181011080741
1773256916719900400,2.698900390625,0.0432984589785337,0.019779197833687,-0.0224433572753332,-0.0004685953026637,-0.0017222724854946,-0.0043389247730374
1773256916729926400,2.708926513671875,0.0786474202573299,-0.0089149817310273,-0.0266133547026664,0.0058931638486683,-0.0017931126058101,0.0034292498603463
1773256916739952400,2.718952392578125,0.064143094086647,-0.0007233458384871,0.0352742886073887,0.0004597424995154,0.004502298310399,0.0095392717048525
1773256916749978400,2.728978271484375,-0.0144546418100595,0.0065912149585783,-0.0112205187270417,0.0016096953768283,-0.0079687517136335,0.0082777319476008
1773256916760004400,2.73900439453125,0.0151812025189399,-0.0027418460540473,-0.024286701853387,0.0037340989802032,-0.0017188466154038,0.0090774791315197
1773256916770030600,2.749030517578125,0.0856985078126192,-0.0050211891628801,0.0027508696107193,0.0044318474829196,0.0061068525537848,0.0037231938913464
1773256916780056600,2.759056640625,0.0322176775157451,-0.0090640348128974,-0.0003908076821826,0.0012732767499983,-0.0025900569744408,0.0005168328061699
1773256916790082600,2.76908251953125,0.0283645092189311,-0.0090776249468326,-0.0350218482162803,-0.000478284433484,0.0003780364058911,-0.0040952293202281
1773256916800108500,2.779108642578125,0.0571527968078851,-0.0082649933896958,9.77064871229e-05,0.0010135159827768,0.0099447462707757,-0.0029978030361235
1773256916810134500,2.789134521484375,0.0313186828494071,0.0036513621143996,0.0109944914188236,-0.0026890768203884,0.0035880475770682,-0.0047363145276904
1773256916820160500,2.799160400390625,0.0228413618832826,0.0023296119913458,-0.0034851569683291,-0.0031408513896167,-0.0019239098764955,-0.003017000388354
1773256916830186200,2.809186279296875,0.0625438421964645,-0.0203745333783328,-0.0130771429117768,0.0065362770110368,0.0027797655202448,-0.003105950076133
1773256916840212200,2.819212158203125,0.0564005171358585,0.0228524677991867,-0.0293177913557738,0.0014489835593849,0.0047238068655133,-0.0008485252037644
1773256916850238200,2.82923828125,0.0210924723893403,0.0195087103292346,-0.0011726605085656,0.0001525566913187,-0.0017775013111531,0.0003040917217731
1773256916860264200,2.83926416015625,0.0505354244947433,-0.0232185246326029,-0.0189240971080027,0.0111422752961516,0.002049084752798,0.0037265717983245
1773256916870290400,2.84929052734375,0.0520750551521778,0.0156174019791185,-0.0278525228424929,0.0037125889211893,0.0004586451686918,0.0064379358664155
1773256916880316400,2.85931640625,0.0206570035815238,0.0357763929106295,-0.033549857701268,-0.007974836975336,-0.0130553822964429,0.0097749726846814
1773256916890343400,2.869343505859375,0.0903255830913782,-0.050390463066101,0.0481430129328742,-0.0062962472438812,-0.0055375467054545,0.0008166311308741
1773256916900369400,2.879369384765625,0.0567249267846345,-0.077539459015429,0.0295728255627676,0.0056951479054987,0.0006807651370763,-0.0100978752598166
1773256916910395400,2.8893955078125,-0.0684761548548936,0.0057024494253098,-0.0488116329094395,-0.0012487781932577,-0.0224860720336437,-0.0222078002989292
1773256916920421400,2.89942138671875,0.072242813912034,0.0490823030769825,-0.0073046239249408,-0.0073803374543786,0.0108085479587316,-0.0158334225416183
1773256916930447400,2.909447265625,0.0964069488316774,0.0113191202633082,-0.0054227009021677,-0.003032726701349,0.0072159436531364,-0.0134349782019853
1773256916940473300,2.919473388671875,0.0083282678842544,-0.0064744567111134,-0.0193181927258148,0.003361870534718,-0.013179650530219,-0.0047379857860505
1773256916950499300,2.929499267578125,0.0587725069642066,0.0146885966964066,0.0053115321452729,-0.0021061317529529,-0.0050093382596969,0.004996933043003
1773256916960525600,2.939525634765625,0.0436848279476165,0.007209054595977,0.0299887859525159,-0.0061189616098999,-0.0116354953497648,0.0100804893299937
1773256916970551600,2.949551513671875,-0.0066875149399042,-0.0385782985888421,-0.0110484500957652,-0.0014214118709787,-0.0225573852658271,0.0017794156447052
1773256916980577500,2.95957763671875,0.0438321274638175,-0.0259825825184583,-0.0259216095788404,0.0032865852117538,-0.0047496864572167,-0.0076866489835083
1773256916990603500,2.969603515625,0.0625718992471695,0.0274431565903127,-0.0213582654523663,-0.0014557057293131,0.0111323408782482,-0.0142678525298833
1773256917000629500,2.97962939453125,0.0129904144763946,0.0231859375372529,-0.0014585099789313,-0.0118573168292641,-0.0024979962036013,-0.0177180003374815
1773256917010655500,2.989655517578125,0.0170171857744455,-0.0396551340401172,0.0067167227680794,-0.0081403423100709,-0.0065566534176468,-0.0147709464654326
1773256917020681500,2.999681396484375,0.0670925915420055,-0.043506841032207,-0.0382619809149764,0.003423779271543,0.006016747560352,-0.0092457830905914
1773256917030707500,3.00970751953125,0.0587847819238901,0.058881812557578,-0.0331438524499535,-0.0008532574865967,0.0168853737413883,0.0009647766128182
1773256917040733400,3.0197333984375,0.0149859722077846,0.0583538431607186,0.0190386085994541,-0.0062167206779122,0.0020480384118855,0.0069050882011651
1773256917050759400,3.029759521484375,0.0296340907633304,-0.0293707636520266,-0.023554405523464,0.0045722774229943,-0.0170580111443996,0.0133629869669675
1773256917060785400,3.039785400390625,0.1018172834426164,-0.0379608973428607,-0.0227546334479004,0.001808961154893,-0.0021240888163447,0.0165315829217433
1773256917070811400,3.049811279296875,0.0399304438501596,0.0161336809381842,-0.0309173355069011,0.0002973509253934,-0.0036069368943572,0.0094888526946306
1773256917080837400,3.05983740234375,-0.0087193130284547,0.0264797183856368,-0.0172352855045348,0.0027303332462906,-0.0064398501999676,-0.0046378327533602
1773256917090863400,3.06986328125,0.0592354483008384,-0.0188557993784546,0.0320428141391836,-0.0007102043600752,0.003949939738959,-0.0144358687102794
1773256917100889300,3.079889404296875,0.0253068752139806,-0.0359290992543101,-0.0184346513569355,-0.0021244250237941,0.0036783039104193,-0.0090227164328098
1773256917110915300,3.089915283203125,-0.0041968671679496,-0.0134350895039737,-0.0440861935564316,-0.0007342548342421,0.0001890300773084,-0.0045672478154301
1773256917120941300,3.09994140625,0.0241103589057922,0.0501440870895981,-0.0255927794832736,-0.0060967970639467,-0.0408379174768924,-0.0191566161811351
1773256917130967300,3.10996728515625,-0.0007587094128131,0.1300315705358982,-0.0315234116412699,-0.0328320041298866,-0.0562315210700035,-0.0765565261244773
1773256917140993300,3.1199931640625,0.3785176710605621,-0.1423931855894625,-0.0780164106111042,-0.027884280309081,0.0583371855318546,-0.0945894867181778
1773256917151019300,3.130019287109375,-0.0744791946619749,-0.1249900692373514,-0.1077232378170825,-0.0202521923929452,0.0316970534622669,-0.1279642134904861
1773256917161045200,3.140045166015625,-0.2065676977276802,-0.0619660423085093,0.058112746147532,-0.020601661875844,0.0239422190934419,-0.120977371931076
1773256917171071200,3.1500712890625,-0.0625257220178842,-0.0076724343240261,0.0983446571622975,-0.0249101240187883,0.0058044935576617,-0.0971748381853103
1773256917181097500,3.160097412109375,0.0632528672486543,-0.0016771394319832,0.0255002240953035,-0.0265753585845232,-0.0097187347710132,-0.0669438168406486
1773256917191123500,3.17012353515625,0.1818126111775636,-0.0002718026787042,-0.0219272061804309,-0.0321269817650318,-0.007047317456454,-0.0412371233105659
1773256917201149400,3.1801494140625,0.1584831735163927,0.0075460314653813,-0.0417315019227564,-0.0374262630939483,-0.0039208326488733,-0.0323729291558265
1773256917211175400,3.190175537109375,0.0350216290205717,0.0195735922589898,-0.0256631961046718,-0.0413586869835853,-0.0151694929227232,-0.0374534390866756
1773256917221201400,3.200201416015625,-0.0261824890047311,-0.013585603890568,-0.0020855923687107,-0.0475262813270092,-0.0155456271022558,-0.059571985155344
1773256917231227400,3.210227294921875,-0.0097393037259578,-0.0646305853426456,0.0120569147522561,-0.0442061200737953,-0.0085748042911291,-0.0872606039047241
1773256917241253400,3.22025341796875,0.008864274457097,-0.0890779211178422,0.0251646902643144,-0.033452358096838,0.007368367165327,-0.1046360731124877
1773256917251279400,3.230279296875,-0.0125315647929906,-0.0613018793113529,0.0150170979984104,-0.0221264660358428,0.0105481818318367,-0.1058451533317565
1773256917261305300,3.240305419921875,-0.007514028891921,0.0291907309100031,-0.0299127250416204,-0.0027030478231608,0.0183720216155052,-0.0759420990943908
1773256917271331300,3.250331298828125,0.1432195534110069,0.1129161850839853,0.0048286987980827,0.0344733484089374,0.0624920800328254,0.0077778231352567
1773256917281357300,3.260357421875,0.075814242658019,0.2859042692929506,0.0214500353890471,0.0588979758322238,-0.034878171980381,0.1251893639564514
1773256917291383600,3.270383544921875,0.1756061577528715,0.3463230821594595,0.1102993536490947,0.0291685797274112,-0.0992742031812667,0.2417543232440948
1773256917301409500,3.280409423828125,0.2747708808600902,0.1134384553924202,-0.019930990861915,0.0103028463199734,-0.1224345192313194,0.2899825870990753
1773256917311435500,3.290435546875,0.1911076782673597,-0.1216749533399939,-0.175895021164231,0.0301686972379684,-0.0843473225831985,0.2599985897541046
1773256917321461500,3.30046142578125,-0.0376578227430582,-0.1899681528434157,-0.0738377001543529,0.0190142523497343,-0.0301999896764755,0.1621169149875641
1773256917331487500,3.310487548828125,-0.3039712563812732,-0.1395017019316554,0.0306787592443637,0.0076327011920511,0.0009733764454722,0.0230341255664825
1773256917341513500,3.320513427734375,-0.2209749932646751,-0.1313226332597434,0.0001885813746601,-0.0037732084747403,0.0645233765244484,-0.0866355597972869
1773256917351539500,3.33053955078125,0.0014981296032667,-0.1311857090070843,-0.083923661893513,-0.0025004839990288,0.1142278090119361,-0.1291835606098175
1773256917361565400,3.3405654296875,0.0647246933668851,-0.0507801930360496,-0.0703981176271103,0.0013010557740926,0.064264602959156,-0.1205598041415214
1773256917371591400,3.35059130859375,0.1187643265902996,0.0547246928781271,0.0697633451212197,-0.0075329160317778,0.0059134103357791,-0.0734980180859565
1773256917381618400,3.360618408203125,0.2528261755555868,0.1018880105912685,0.0595307414529845,-0.0016337891574949,0.0029204771853983,0.0055782776325941
1773256917391644400,3.37064453125,0.1263262862771749,0.1170434941470622,-0.0615426475309766,0.007912578061223,-0.0120954904705286,0.0666341781616211
1773256917401670400,3.38067041015625,-0.0486053332149982,0.0729440940491855,-0.0027286577789112,0.0049528032541275,-0.0418106503784656,0.089714191854
1773256917411696400,3.3906962890625,-0.0661141018986701,-0.0483658253706991,0.0675032364358194,-0.017957305535674,-0.1326268464326858,0.0464199781417846
1773256917421722400,3.400722412109375,0.1255097091972827,-0.1802808715656399,-0.0403350060630589,-0.0210249405354261,-0.0795851349830627,-0.0248546339571476
1773256917431748400,3.410748291015625,0.2467553312093019,-0.1688125520899892,-0.157951295129396,-0.0165827888995409,0.0243247505277395,-0.1093751117587089
1773256917441774300,3.4207744140625,-0.1682294915050268,-0.038668022698909,-0.0888844626386649,-0.0160834025591611,0.0462784767150878,-0.1794845014810562
1773256917451800300,3.43080029296875,-0.2657984698534011,0.0104233404673635,0.0773579649686813,-0.020988680422306,0.022075667977333,-0.2001191973686218
1773256917461826300,3.440826416015625,-0.0422211851358413,-0.0330645036034286,0.0990032124025747,-0.0130819603800773,0.0071475254371762,-0.1646934300661087
1773256917471852300,3.450852294921875,0.1513099208861589,0.0297045256510376,-0.0361185208791866,-0.009120775386691,-0.009141432121396,-0.101192221045494
1773256917481878300,3.460878173828125,0.2597399004667997,0.1262172729447483,-0.0712373266639187,-0.0017026420682668,-0.0117914415895938,-0.0295503176748752
1773256917491904500,3.470904541015625,0.2685731952637434,0.1343544021710753,0.0154516534907743,-0.0012701447121798,0.0129863433539867,0.045036569237709
1773256917501930500,3.480930419921875,0.0472270305991172,0.2160442588642239,0.0003940956178121,-0.0153433103114366,0.0242249891161918,0.0967641770839691
1773256917511956500,3.49095654296875,-0.0194599027514457,0.0678669369153678,-0.0189105252403765,0.0014670941745862,0.0128136090934276,0.1439061313867569
1773256917521982500,3.500982421875,-0.0939613092452287,-0.0889174698591232,0.0584739441427402,-0.0116050317883491,-0.0218764599412679,0.1512945294380188
1773256917532008400,3.511008544921875,0.1052390745848417,-0.1895528500407934,0.0387119531721808,0.0041520930826663,0.0196068007498979,0.1490260511636734
1773256917542034400,3.521034423828125,0.0502004934519529,-0.1017950716108083,-0.0464592062980867,0.0402634106576442,0.0387123264372348,0.1241233721375465
1773256917552060400,3.531060302734375,-0.1632002651661634,0.1090541028283536,0.0115604912711307,0.0261936634778976,-0.0279519241303205,0.077441357076168
1773256917562086400,3.54108642578125,-0.0217331083804368,0.0827142313048243,0.0318615027555264,0.0235555786639451,-0.047596275806427,0.0286608710885047
1773256917572112400,3.5511123046875,0.3013315555274486,-0.1317312140606343,-0.0796557387833483,0.0054703168570995,0.0665888860821724,0.0056985663250088
1773256917582138400,3.561138427734375,0.162611651623249,-0.1082888175442814,-0.2621241835211403,-0.0248494446277618,0.114320158958435,-0.0067312465980648
1773256917592164600,3.57116455078125,-0.2536152801066637,-0.0478814028546214,-0.0742455868354998,-0.0004706013714894,0.0103980237618088,-0.0360244214534759
1773256917602190600,3.581190673828125,-0.0583002132773399,0.0363918944604694,0.276649570746161,0.0139644276350736,-0.0281781740486621,-0.0440473034977912
1773256917612216600,3.591216552734375,0.1937812813907861,0.1074621574617922,0.1192765686950646,0.0017698132432997,-0.0133438352495431,-0.0252288728952407
1773256917622242600,3.60124267578125,0.1026391212195158,0.0601695142805576,-0.2832615727644413,-0.0047734500840306,-0.0207914169877767,-0.0038315206766128
1773256917632268500,3.6112685546875,0.1267728610008955,-0.0042573651835322,-0.1658101188709959,-0.0015158716123551,-0.0191618297249078,0.0019374191761016
1773256917642294500,3.62129443359375,0.0923620573550462,-0.0089776717036962,0.1228344073071144,-0.011083667166531,-0.0315412133932113,-0.0202373098582029
1773256917652320500,3.631320556640625,-0.0877367356419563,-0.0528783343590796,0.0609452113607898,-0.0140919750556349,-0.0566116832196712,-0.060694720596075
1773256917662346200,3.64134619140625,-0.0827548555761575,-0.0979905647613108,-0.0750740735488943,-0.0131402425467967,-0.04660165309906,-0.0983046740293502
1773256917672372200,3.651372314453125,0.0486696306228637,-0.0737212159015238,-0.0610552658728323,-0.0118243740871548,-0.0172554813325405,-0.1330099254846573
1773256917682398200,3.661398193359375,0.0591027618318796,-0.0134207687176764,-0.0193969022515229,-0.0130201121792197,-0.0080904252827167,-0.14744733273983
1773256917692424200,3.671424072265625,0.0271019419372081,0.0443307246357202,-0.0132374663063324,-0.0051169162616133,-0.0143445935100317,-0.139118030667305
1773256917702450400,3.681450439453125,0.0673842679649591,0.068260027886182,-0.0223929057297296,-0.0019611525349318,-0.0107176266610622,-0.1022068709135055
1773256917712476400,3.691476318359375,0.0679927552521228,0.0276008313700556,0.0080631141420453,-0.0024122917093336,-0.0312553942203521,-0.0505905523896217
1773256917722502400,3.70150244140625,0.0636193624734878,0.0056856444209814,0.024429489591252,-0.004297686740756,-0.0538181625306606,-0.0061425175517797
1773256917732528400,3.7115283203125,0.1017319432467222,0.0145355980917811,-0.0049898259102366,-0.0045355074107646,-0.0757287889719009,0.0108985174447298
1773256917742555400,3.721555419921875,0.1027390744626522,0.0438644222982227,-0.049701476154942,-0.0052124625071883,-0.0835649967193603,-0.0049006980843842
1773256917752581400,3.731581298828125,0.2804378205806017,0.1418409585341811,-0.0440764210810884,-0.0105198761448264,0.0874331146478653,-0.0892547219991684
1773256917762607400,3.741607421875,1.025357777494192,0.1138113803580403,-0.086213818657305,-0.0119837541133165,0.3660814762115478,-0.3183777034282684
1773256917772633300,3.75163330078125,-0.3174421478509903,-0.179164580886811,-0.4122209474915638,-0.0017138061812147,0.2277209460735321,-0.5160167813301086
1773256917782659300,3.761659423828125,-0.6992711354166269,-0.2916572798617184,-0.2201959534498862,0.0226274859160184,0.207532063126564,-0.6125033497810364
1773256917792685600,3.771685546875,-0.1671463724434375,-0.302033858577907,0.0784548202946782,0.0509416796267032,0.2629241943359375,-0.6358491778373718
1773256917802711600,3.781711669921875,-0.0903442877918481,-0.2046928437665104,0.1379151999251917,0.0529033876955509,0.2632983922958374,-0.6344919204711914
1773256917812737500,3.791737548828125,-0.1101771155089139,-0.1157968550868332,0.1020340679984539,0.0355968363583087,0.2083219736814499,-0.6034325361251831
1773256917822763500,3.801763427734375,0.0217266786396503,-0.0767693514257669,0.0854307237219065,0.0208255108445882,0.1769371330738067,-0.5362775325775146
1773256917832789500,3.81178955078125,0.106197105962038,-0.0101326869577169,0.0849669421350583,0.0019189299782738,0.1431847661733627,-0.4338885843753814
1773256917842815500,3.8218154296875,0.1299427232086658,0.0827152542181312,-0.01794131488204,0.0043365065939724,0.1068202927708625,-0.322854071855545
1773256917852841500,3.831841552734375,0.1947153473705053,0.1500251417726278,-0.0703972956432029,-0.0018574736313894,0.0728543400764465,-0.2159540057182312
1773256917862867500,3.841867431640625,0.2498737554907798,0.0769548640605062,-0.0985619349084794,-0.0076081394217908,0.0346527621150016,-0.1356114745140075
1773256917872893400,3.8518935546875,0.2600502815902233,-0.0382701824877411,-0.0503711007785052,-0.0114185903221368,0.0195997785776853,-0.0851959586143493
1773256917882919400,3.86191943359375,0.1845779842376708,-0.0407458518862724,0.0448243533715605,-0.0282601751387119,0.0271952114999294,-0.0717651844024658
1773256917892945400,3.8719453125,-0.0084217913866043,0.0162694361470639,0.0681071023467928,-0.0460365116596221,0.0272988080978393,-0.0804239138960838
1773256917902971400,3.881971435546875,-0.1145972700387239,0.0350127881269902,-0.0392660251246765,-0.0421108044683933,0.0436119101941585,-0.1061302572488784
1773256917912997400,3.891997314453125,-0.0478267500579357,-0.0068194707565009,-0.0647067558513954,-0.0382233895361423,0.0598326921463012,-0.1166952848434448
1773256917923023400,3.9020234375,-0.0557078586965799,-0.070050053108111,0.0215204520104452,-0.0282824449241161,0.0522692687809467,-0.1170176416635513
1773256917933049300,3.91204931640625,-0.0006096563309431,-0.1070532113347202,0.043033451366797,-0.0199084002524614,0.0486455038189888,-0.1108958274126052
1773256917943075300,3.922075439453125,0.0670236179590225,-0.0599899199299514,0.0094398458553478,-0.0233278777450323,0.0545790791511535,-0.1108211427927017
1773256917953101300,3.932101318359375,0.0631944150596857,-0.0800808140613138,0.0098198946814984,-0.0151522383093833,0.0513278916478157,-0.1049526035785675
1773256917963127300,3.942127197265625,0.0526525627791881,-0.0728672294206917,-0.0198968328639864,-0.0048040151596069,0.0603450685739517,-0.1162284538149833
1773256917973153300,3.9521533203125,-0.0009188684105873,0.0044344753161072,-0.0638657749826088,0.0099027594551444,0.0376458838582038,-0.144787922501564
1773256917983179300,3.96217919921875,-0.0167260938733816,0.0118305038515478,-0.0720544882657006,0.0144461737945675,0.0223972480744123,-0.1911991834640503
1773256917993205200,3.972205322265625,0.1264689096182584,-0.0774522921886295,-0.0684471114234998,0.011014424264431,0.0315987356007099,-0.2501668930053711
1773256918003231200,3.982231201171875,0.03668459379673,-0.1875610186364501,-0.0995591292522847,0.0223942957818508,0.0092200497165322,-0.3186945915222168
1773256918013257500,3.992257568359375,-0.1152168632417917,-0.2357573326591402,-0.0517810406416654,0.0273427162319421,-0.0274676587432622,-0.3674658834934234
1773256918023283500,4.002283447265625,-0.1114157173931598,-0.2724843773581087,-0.0496492527773603,0.0300361551344394,-0.0095215234905481,-0.3799752295017242
1773256918033309400,4.012309326171875,-0.0697989278912544,-0.1842974137306213,-0.0070619377428665,0.0351153351366519,0.0286391768604517,-0.3606270849704742
1773256918043335400,4.02233544921875,-0.0298299055963754,-0.0282299230538308,0.0612276815639808,0.0421817041933536,0.0146312424913048,-0.3244970142841339
1773256918053361400,4.032361328125,-0.0503740964531898,0.1066870814360678,0.1229050065916031,0.0495741069316864,-0.0221283696591854,-0.2655479311943054
1773256918063387400,4.042387451171875,-0.0240413853228092,0.1618991194397211,0.0565299156691879,0.0522948130965232,-0.0165061205625534,-0.1643077433109283
1773256918073413400,4.052413330078125,0.1763829873442649,0.0993052275564521,-0.0522861040869727,0.0581492409110069,-0.0084833465516567,-0.0499350912868976
1773256918083439400,4.062439453125,0.3021680063515901,0.0002420651275664,-0.0685712857924401,0.0510278046131134,-0.0387968607246875,0.0468477420508861
1773256918093465300,4.07246533203125,0.2383598433077335,-0.0107560795530676,-0.024045148182474,0.0283552501350641,-0.0756352990865707,0.1019155234098434
1773256918103491300,4.0824912109375,0.1589560517251491,-0.0074610565956681,0.0434739616759121,0.0083769112825393,-0.0989197492599487,0.1145636066794395
1773256918113517300,4.092517333984375,0.1129196922153234,-0.0498759376727044,0.0582801203373819,-0.0134740592911839,-0.1175794526934623,0.0891405344009399
1773256918123543600,4.10254345703125,-0.0345984351724386,-0.0396579105190932,0.073294661052525,-0.0262573547661304,-0.1409394145011901,0.0439442470669746
1773256918133569500,4.112569580078125,-0.1454389830261468,-0.0767935360189527,0.0606095496656373,-0.0199043843895196,-0.1488441973924636,-0.0039487103931605
1773256918143595500,4.122595458984375,-0.109973701891303,-0.0921487799305468,0.0193349977301433,-0.0200666729360818,-0.1274523884057998,-0.0294073075056076
1773256918153621500,4.13262158203125,-0.0095312139332294,-0.0563170035708695,-0.0175885924542322,-0.0056544449180364,-0.088342547416687,-0.0446632243692874
1773256918163647500,4.1426474609375,0.1257972939670086,-0.0102424309425055,-0.0278027471503242,0.0094767967239022,-0.0510702021420002,-0.0403692498803138
1773256918173673500,4.152673583984375,0.1879921765953302,-0.0209742528371512,-0.0254025541407987,0.005523866508156,-0.0177010595798492,-0.0220451056957244
1773256918183699500,4.162699462890625,0.1087175643503665,-0.0769665544982999,-6.87543872743e-05,0.0087950276210904,-0.0264986623078584,-0.0106294211000204
1773256918193725400,4.172725341796875,-0.0498684850186109,-0.0714656189944595,-0.0120255149669945,0.0093167405575513,-0.0170838572084903,-0.009501839056611
1773256918203751400,4.18275146484375,-0.0156225165456533,-0.0381805314429104,-0.0267221853720024,-0.0053366059437394,-0.0316248796880245,0.0042357463389635
1773256918213777400,4.19277734375,0.0261760592639446,-0.0652091158829629,-0.0129722942978143,-0.0223496779799461,-0.0605428107082843,0.0239103827625513
1773256918223803400,4.202803466796875,-0.0624374592125415,-0.1071131248284131,0.0189097580553963,-0.0199395176023244,-0.066893383860588,0.0424062982201576
1773256918233829400,4.212829345703125,-0.0087725045204162,-0.1128282876048237,0.0832622571090236,0.003787649795413,-0.0441907383501529,0.0614620149135589
1773256918243855400,4.22285546875,0.093843235823512,-0.1214912673361599,0.0018638211105018,-0.0013807471841573,-0.0451517552137374,0.0878059640526771
1773256918253881300,4.23288134765625,0.0248152923047542,-0.0550471297655254,-0.004515139336884,-0.0032707925420254,-0.0539194121956825,0.1019372269511222
1773256918263908400,4.242908447265625,-0.0305903685748577,0.0936195831354707,-0.0475051168881356,0.0006616108585149,-0.0423518419265747,0.1173289790749549
1773256918273934300,4.252934326171875,0.1376788704186677,0.0562334169406443,-0.0467917079217731,0.0048726014792919,-0.0476736389100551,0.1351505815982818
1773256918283960300,4.262960205078125,0.1529664559215307,-0.0714478641420602,0.0097609675684943,-0.0125711448490619,-0.0677197054028511,0.1345153301954269
1773256918293986300,4.272986328125,0.0406008904576301,-0.0888243116829544,-0.0060667161604389,-0.0289514493197202,-0.0546063035726547,0.1037163957953453
1773256918304012300,4.28301220703125,0.0475590390324592,-0.0556536442913115,-0.108024577117525,-0.0389646105468273,-0.0095259677618741,0.0651262626051902
1773256918314038500,4.29303857421875,0.110080084875226,-0.0188858291905373,-0.012336919003725,-0.0344817116856575,-0.0206630397588014,0.0138225927948951
1773256918324064500,4.303064453125,-0.0525303977042436,0.1013466702561825,0.142701484353654,-0.0168740954250097,-0.0125026665627956,-0.0071270680055022
1773256918334090500,4.313090576171875,-0.0633966596335172,0.0770322401456534,0.016242073216103,0.0007112890016287,-0.0172098036855459,0.0082119405269622
1773256918344116500,4.323116455078125,0.0523725767940282,-0.0042127223242074,-0.0812654938012361,0.0196788553148508,-0.0217109285295009,0.0488821826875209
1773256918354142500,4.333142578125,0.0697106650859117,-0.0531722027391195,-0.1081696846766397,0.0032183891162276,-0.040544006973505,0.0958515554666519
1773256918364168400,4.34316845703125,0.1579185253709554,-0.063569166656211,0.0647657194970175,-0.0127632403746247,-0.079659603536129,0.1121383383870124
1773256918374194400,4.3531943359375,0.0775701464146375,-0.0107580523144453,0.0842483820695429,-0.011584791354835,-0.118768386542797,0.1077257469296455
1773256918384220400,4.363220458984375,0.0034901802033185,0.0401814229365438,-0.0281546110616065,0.0035301423631608,-0.1459756791591644,0.1044840887188911
1773256918394246400,4.373246337890625,0.0007703998506069,0.042039471893385,0.0049925841229036,0.0229768119752407,-0.1561779826879501,0.1127582639455795
1773256918404272400,4.3832724609375,0.0229489139109849,-0.0068692281823605,0.0882237519739195,0.0449790470302104,-0.1466546207666397,0.1179810315370559
1773256918414298400,4.39329833984375,0.0391302333831787,-0.0387335622157901,0.068699113423191,0.0448285788297653,-0.1249285489320755,0.123262882232666
1773256918424324600,4.40332470703125,0.0672720397621393,-0.1054000373002141,0.0637787908188998,0.0343570932745933,-0.1234125941991806,0.1108980029821395
1773256918434350600,4.4133505859375,-0.0076344404011964,-0.0912179288212209,0.019881069039274,0.017957080155611,-0.1360788494348526,0.0837449431419372
1773256918444376600,4.42337646484375,-0.0284597862869501,0.0336786169137805,-0.0391499792632646,0.0069456058554351,-0.1683093607425689,0.0805619582533836
1773256918454402600,4.433402587890625,-0.0019224924951791,0.1099954022664576,-0.0432456693453714,0.0014869244769215,-0.2284912019968032,0.1050643697381019
1773256918464428500,4.443428466796875,-0.0132213006228208,0.1134489767864346,0.0075463237263262,-0.000360285048373,-0.2848909199237823,0.144313633441925
1773256918474454500,4.45345458984375,0.1123620583325624,0.1480417128704488,0.081739906379953,-0.0129873966798186,-0.2647441029548645,0.1877007782459259
1773256918484484000,4.463484130859375,0.3122100924164057,0.1965178667478263,0.0436854033363517,-0.0100058037787675,-0.2217428237199783,0.2380025684833526
1773256918494510000,4.473510009765625,0.3466360936313867,0.1522685367852449,0.0481880485178437,-0.0023201871663331,-0.1951610147953033,0.252463549375534
1773256918504536300,4.483536376953125,0.1882324150919914,0.1082475356858223,0.0927376857344061,-0.0055825803428888,-0.180886372923851,0.2364341616630554
1773256918514562300,4.493562255859375,-0.0107668932080268,0.0709988782655447,-0.0094771319587016,-0.0071463882923126,-0.170599102973938,0.1963842213153839
1773256918524588300,4.50358837890625,-0.1806394757449626,0.1065196159146726,-0.0408585458799731,0.0176591146737337,-0.1145510077476501,0.1811059564352035
1773256918534615300,4.513615234375,-0.1861030018478632,-0.0074151716273277,0.0760960415743524,0.0243609584867954,-0.0844325199723243,0.1623485088348388
1773256918544641300,4.523641357421875,-0.1744260080575942,-0.1092066630415618,0.1701075238039717,0.0002838924992829,-0.071921594440937,0.1370741575956344
1773256918554667300,4.533667236328125,-0.0946440308123826,-0.0934960298210382,0.047399729418056,-0.0129621382802724,-0.0572337284684181,0.1304085403680801
1773256918564693200,4.543693359375,0.045800797188282,-0.1584675375558435,-0.104043179331161,-0.0020514540374279,-0.0669407099485397,0.1220320537686348
1773256918574719200,4.55371923828125,0.055181788995862,-0.2078353795759379,-0.093150239457516,0.0025941643398255,-0.0533625781536102,0.1019046902656555
1773256918584745200,4.5637451171875,0.0901701002687215,-0.1047676576808094,-0.0370556144996313,-0.0050860028713941,-0.0425582192838192,0.0671542584896087
1773256918594771500,4.573771484375,0.0736029963493347,-0.0597604950882494,-0.0531635262423194,-0.0072913663461804,-0.0420713946223259,0.0192352030426263
1773256918604797400,4.58379736328125,0.0275216286540031,-0.0835740630045533,-0.0879654663639143,-0.0043674409389495,-0.0436828024685382,-0.0171809792518615
1773256918614823400,4.593823486328125,0.0218844995498657,-0.0923622034855186,-0.0576810493325348,0.0068202326074242,-0.0126391313970088,-0.0360180512070655
1773256918624849400,4.603849365234375,0.0768979462414979,-0.074107731001079,-0.0389347108110785,0.0105720525607466,0.0143422298133373,-0.0482029169797897
1773256918634875400,4.61387548828125,0.1275426763296127,-0.0512698762491345,-0.0244263934518676,0.002407333580777,0.0171494670212268,-0.0584211982786655
1773256918644901400,4.6239013671875,0.062050505721569,-0.0606033756531775,-0.0788767446343321,-0.0079512977972626,0.0190757326781749,-0.0658546090126037
1773256918654927400,4.63392724609375,0.0267278479278087,-0.0937396293185651,-0.0364149556756485,-0.0119265979155898,0.0314583666622638,-0.0734315663576126
1773256918664953300,4.643953369140625,0.0241764098793268,-0.1318617085725069,0.0171368951724667,-0.0219758115708827,0.0447827726602554,-0.0926107019186019
1773256918674979300,4.653979248046875,-0.0009258826732635,-0.0930529622286558,0.0184193761559901,-0.0132893789559602,0.0584335997700691,-0.1048644334077835
1773256918685005300,4.66400537109375,-0.00857902777493,-0.1113635488145053,-0.0114693857714417,-0.0068099694326519,0.0681352615356445,-0.0892838314175605
1773256918695031000,4.674031005859375,0.0013812252253293,-0.1443571060735732,-0.044098121456243,-0.0166125316172838,0.0344806239008903,-0.0751906558871269
1773256918705057300,4.684057373046875,0.0064928691506385,-0.0503670091252774,-0.0259329050077009,-0.0172337461262941,-0.0006670802831649,-0.0526714324951171
1773256918715083300,4.694083251953125,0.0638520021855831,0.0731036685250699,-0.0040143159585655,-0.0141569953411817,-0.0069433515891432,-0.030455607920885
1773256918725109200,4.704109130859375,0.1735340276539325,0.1284991733368486,-0.0029752027187729,-0.0183517821133136,-0.0298954602330923,-0.021198034286499
1773256918735135200,4.71413525390625,0.1725380023539066,0.094759546950832,-0.0750676072754897,-0.0173946414142847,-0.0501448065042495,-0.0311004668474197
1773256918745161200,4.7241611328125,0.1285766955524682,-0.0358063496574759,-0.1072051687597297,-0.0021331310272216,-0.0503836944699287,-0.0480336397886276
1773256918755187200,4.734187255859375,0.0383498966604471,-0.1653383731734007,-0.0122850860684993,0.0015209924895316,-0.0578352138400077,-0.0797942355275154
1773256918765213200,4.744213134765625,-0.0554226120144128,-0.1357650726865977,0.085148089121934,-0.0058893146924674,-0.0488820262253284,-0.1268141120672226
1773256918775240200,4.754240234375,-0.0069949734538793,-0.025240824240446,0.0002712141610594,0.0150005212053656,-0.0645323544740676,-0.138193279504776
1773256918785266200,4.76426611328125,0.07182137362957,-0.1472317847270518,-0.0030872748017325,0.023506760597229,-0.092444933950901,-0.139431893825531
1773256918795292400,4.77429248046875,-0.044168812072277,-0.1708782524481415,0.1059544380462728,0.018217721953988,-0.0931056663393974,-0.146508976817131
1773256918805318400,4.784318359375,0.1211345628529787,-0.0108087595883756,0.015093716031732,0.0227197129279375,-0.0962288677692413,-0.1386653780937194
1773256918815344400,4.794344482421875,0.1253062955796718,-0.0265102596543729,-0.0597941598958335,0.0221620481461286,-0.1023581326007843,-0.1358259320259094
1773256918825370400,4.804370361328125,0.0702466716587543,0.005923252569139,-0.0228215657708467,0.0054513472132384,-0.1052308678627014,-0.1446715891361236
1773256918835396400,4.814396240234375,0.0958972457438707,0.0994087609961628,0.0149290178561583,-0.0013098861090838,-0.0953268408775329,-0.1460987776517868
1773256918845422300,4.82442236328125,0.096238022005558,0.0918807766441255,-0.0718824150678468,0.0110131949186325,-0.0798139199614524,-0.1197888553142547
1773256918855448300,4.8344482421875,0.0215168352812528,-0.0639046091556549,-0.0399418420270085,0.0146947493776679,-0.0620146729052066,-0.1047385334968566
1773256918865474300,4.844474365234375,-0.0296247384130954,-0.1471970787398517,-0.0021771522428374,0.0210779774934053,-0.0523414090275764,-0.1068160384893417
1773256918875500300,4.854500244140625,-0.0578080458462238,-0.1571335855383425,-0.0023630987024167,0.0314166322350502,-0.0112728029489517,-0.1230850219726562
1773256918885526300,4.8645263671875,0.0287017783492803,-0.2577627551749348,0.0463979639304103,0.0249410979449749,-0.0197881143540143,-0.1464601308107376
1773256918895552300,4.87455224609375,0.0806003078907728,-0.1900030049610883,0.0027411428011488,0.0147545067593455,-0.0676328688859939,-0.1516807228326797
1773256918905578500,4.88457861328125,-0.0657628042429685,-0.0332628026545047,0.0507103974691592,0.0165100004523992,-0.1198211833834648,-0.1518696695566177
1773256918915604500,4.8946044921875,0.0903974792838096,0.0841259247336536,0.1444633977259509,0.0271432045847177,-0.2120674848556518,-0.1195828393101692
1773256918925630200,4.904630126953125,-0.0231599263131618,0.0239767956539988,0.2074561710000038,0.0155090615153312,-0.259708970785141,-0.1196569800376892
1773256918935656200,4.91465625,0.2572241182535886,0.0750877550143748,0.2131835174045525,0.0052710715681314,-0.3546218872070312,-0.0583105236291885
1773256918945682200,4.92468212890625,0.0454097520440816,0.1370470022559166,0.404211061374098,-0.062467023730278,-0.2887299060821533,-0.056638017296791
1773256918955708200,4.934708251953125,0.3301981690496206,0.3550854306120425,0.3840049433652311,-0.1376954615116119,-0.2302732765674591,-0.0892268568277359
1773256918965734100,4.944734130859375,0.5094336232155561,0.3776698220595717,-0.0404525680281221,-0.1572345495223999,-0.1782366931438446,-0.1373631358146667
1773256918975760100,4.954760009765625,0.1068675525695085,0.0195556182108819,-0.3111030810225755,-0.142991691827774,-0.1495299339294433,-0.2292869240045547
1773256918985786000,4.9647861328125,-0.121389414396882,-0.2191903018049895,-0.2877464813598431,-0.1065714359283447,-0.1421801149845123,-0.303452730178833
1773256918995812000,4.97481201171875,-0.2871627449214458,-0.2654795400973409,-0.1886527411296032,-0.0447613261640071,-0.1138118505477905,-0.3214013576507568
1773256919005839400,4.98483935546875,-0.2793827585697174,-0.3420387559037655,-0.1297425061951391,0.018336683511734,-0.0419214218854904,-0.2921177744865417
1773256919015865300,4.994865234375,-0.2427016719043254,-0.4361756409116089,-0.1594205456980504,0.077830895781517,0.0137975011020898,-0.2310885190963745
1773256919025891300,5.004891357421875,-0.2469406246483325,-0.61000857844688,-0.1989090179343707,0.0925245210528373,-0.0084520392119884,-0.1567097008228302
1773256919035917300,5.014917236328125,-0.289928117981553,-0.5097282222479581,-0.0657512782019563,0.099323570728302,-0.1882449686527252,-0.0566054619848728
1773256919045943300,5.024943359375,-0.4396352798461914,-0.1543017961785197,0.2166772230055183,0.1067918986082077,-0.4102222025394439,0.0752162933349609
1773256919055969300,5.03496923828125,-0.2633177589535713,0.0175110337059944,0.4803862462989985,0.0797970294952392,-0.5155949592590332,0.1347451359033584
1773256919065995300,5.044995361328125,0.2595060917109251,0.0619215455796569,0.6805845551252365,-0.026608932763338,-0.6730049252510071,0.1810485124588012
1773256919076021200,5.055021240234375,0.4289554803997278,0.3110122609339654,0.7419634451955557,-0.1759749799966812,-0.6525867581367493,0.230041354894638
1773256919086047200,5.065047119140625,0.2088297974407672,0.7874503541290759,0.7381818808302283,-0.3572744727134704,-0.5414049625396729,0.2271334081888198
1773256919096073500,5.075073486328125,0.6556967821061611,1.046880823320523,0.4514077333675697,-0.4736237227916717,-0.4545670449733734,0.2607435584068298
1773256919106099500,5.085099365234375,0.1692278548926115,0.890759848890826,0.3923390564683824,-0.5861889123916626,-0.2568860650062561,0.1812968552112579
1773256919116125400,5.09512548828125,0.3460726145297289,0.9034913201700896,0.4697321658156811,-0.6619201302528381,-0.1687908321619033,0.0583480410277843
1773256919126151400,5.1051513671875,0.282093186572194,0.8501516519095749,0.2161624053511768,-0.6457955241203308,-0.1007535010576248,-0.1016432791948318
1773256919136177400,5.115177490234375,0.0244376911640167,0.2811000838816165,-0.1639746105395257,-0.5025107860565186,0.04684554412961,-0.2350846976041793
1773256919146203400,5.125203369140625,0.0825029266417026,-0.3866931595358997,-0.6800778477121144,-0.2651987075805664,0.305945336818695,-0.3409353494644165
1773256919156229400,5.1352294921875,0.4490899214118719,-1.2276578809052705,-1.4771838458716868,0.0021749418228864,0.3504976332187652,-0.3229470252990722
1773256919166255400,5.14525537109375,0.2638788999676704,-1.833339755259454,-1.8667931120499968,0.2068901509046554,0.3754057288169861,-0.2258930951356887
1773256919176281000,5.155281005859375,-0.2221709250509738,-1.8062185240998865,-1.2742952750481664,0.2240994870662689,0.6957522630691528,-0.2372544109821319
1773256919186307000,5.16530712890625,0.4924246207475662,-0.8027585440285503,-0.7646596995197236,0.1915671676397323,0.9961280226707458,-0.2901840806007385
1773256919196333000,5.1753330078125,0.6994599359869956,-0.058308908040449,-0.7564227631807326,0.1455368250608444,1.034247636795044,-0.3372621238231659
1773256919206359300,5.185359375,-0.0274736978590488,0.0740340812429785,-0.6627692047104239,0.1883700340986251,0.6592504382133484,-0.2916575372219085
1773256919216385300,5.19538525390625,-1.193960193964839,-0.0496446131348609,0.1388160212224349,0.2178059518337249,0.3068204820156097,-0.1650966554880142
1773256919226412300,5.205412353515625,-1.648005107435584,-0.3169976920191198,1.210070567092672,0.1973183751106262,0.0305263437330722,-0.0349314138293266
1773256919236438300,5.215438232421875,-0.6265349850296974,-0.0321354791250079,1.1553398097999392,0.1230468079447746,-0.1955693662166595,0.1072259917855262
1773256919246464300,5.22546435546875,0.1771241611003875,0.19294183489196,0.5232367423143237,0.0957517996430397,-0.2729942202568054,0.2872916758060455
1773256919256490200,5.235490234375,0.6921276934027671,0.2805995139483362,-0.0473119872025214,0.0916316285729408,-0.2574735879898071,0.4799433946609497
1773256919266516200,5.24551611328125,0.8283253853529691,0.5219496251132338,-0.1497633307649754,0.0455241575837135,-0.2567567825317383,0.6322187781333923
1773256919276542200,5.255542236328125,0.5788228012621403,0.5382064209744334,0.0344661140296608,-0.0305700786411762,-0.2553932666778564,0.695304274559021
1773256919286568200,5.265568115234375,0.3412082233637571,0.5351527324922383,0.0841623842865228,-0.0675092041492462,-0.2020192891359329,0.6940484642982483
1773256919296594400,5.275594482421875,0.1665600969880819,0.3880301802933216,0.1047748546065762,-0.0706551969051361,-0.1666748821735382,0.6615395545959473
1773256919306620400,5.285620361328125,-0.1249210956543683,0.2660951877776533,0.0510403052769601,-0.0762897357344627,-0.1103609949350357,0.616723358631134
1773256919316646400,5.295646484375,-0.2869552396506071,0.1995188021294772,0.0513780493313446,-0.07245584577322,0.1278808563947677,0.5144914984703064
1773256919326672400,5.30567236328125,0.2783423096060752,0.0881227392848581,-0.0666989525819197,0.0003219551872462,0.2285824716091156,0.3739869594573974
1773256919336698400,5.315698486328125,0.2995657148987055,-0.3540123214878141,-0.2595392267955467,0.0575570166110992,0.184502363204956,0.2372269630432129
1773256919346724400,5.325724365234375,-0.2470756492048501,-0.6227310627020896,-0.2521497010661289,0.0491837710142135,0.1252984255552292,0.1257454454898834
1773256919356750300,5.335750244140625,-0.3813385737001896,-0.3247726368695497,-0.0632286278565414,-0.009827084839344,0.1371180713176727,0.072503000497818
1773256919366776300,5.3457763671875,-0.125565238776803,0.0678693480681627,0.1062517770250327,-0.0349961072206497,0.1843234598636627,0.0780874714255333
1773256919376802300,5.35580224609375,0.1697393115460872,0.1568853829309344,-0.0675304167036898,-0.0191934425383806,0.2347440272569656,0.1293312162160873
1773256919386828300,5.365828369140625,0.2710083134561777,-0.0131269003376364,-0.2210447340326383,-0.0085976878181099,0.2695823311805725,0.2171125411987304
1773256919396854300,5.375854248046875,0.2104962693482637,-0.1508266674138605,-0.0705131771078333,-0.00987334176898,0.2761837542057037,0.3098930716514587
1773256919406880300,5.38588037109375,-0.061317515271902,-0.0705772187873721,0.0668355845736339,-0.0148226227611303,0.1762893050909042,0.3649747967720032
1773256919416906200,5.39590625,-0.2828764459043741,0.0573857287809252,0.0461723887133412,-0.0225814748555421,-0.0091532561928033,0.3421424329280853
1773256919426932200,5.40593212890625,-0.3263935160696506,0.0814358819320797,0.0250844281023368,-0.0222347527742385,-0.1561472564935684,0.245542362332344
1773256919436959200,5.415959228515625,-0.0085772742092609,-0.0098695059768855,0.0613719671391881,-0.0037899650633335,-0.20084148645401,0.0961129367351532
1773256919446985200,5.425985107421875,0.3331757235556841,-0.0878334740146994,0.0811073988963849,0.0036987620405852,-0.1285606175661087,-0.074204996228218
1773256919457011200,5.43601123046875,0.4938526077240705,-0.0468503062412142,0.0016390907102264,-0.0073237959295511,0.0310229118913412,-0.1878527253866195
1773256919467037200,5.446037109375,0.3448363507330417,-0.0845361860349774,-0.1541413814524188,-0.0101505564525723,0.1088238507509231,-0.2259417325258255
1773256919477063200,5.456063232421875,-0.1606558413803577,-0.1655583725996315,-0.2568901735914871,-0.0031419158913195,0.0812580063939094,-0.1799670457839965
1773256919487085800,5.4660859375,-0.45685178758502,-0.1522420871697366,-0.0207972340361215,0.0008044995483942,0.0226331278681755,-0.0846835076808929
1773256919497111800,5.47611181640625,-0.2648141349911689,-0.0082484806463122,0.2259082301494665,0.0013666928280144,-0.0255453214049339,0.0274385064840316
1773256919507137800,5.4861376953125,0.1357277363508939,0.1374314715288579,0.149722304634843,-0.0011006848653778,-0.0407251492142677,0.1211845502257347
1773256919517163800,5.496163818359375,0.4407552237868308,0.1814544453896582,-0.0953446898950263,0.005289037246257,-0.0305111296474933,0.1447175592184066
1773256919527189800,5.506189697265625,0.4429594558328389,0.0853780436865985,-0.175433047941979,0.0016695149242877,-0.0216778572648763,0.109478011727333
1773256919537215700,5.5162158203125,0.1296545539170503,-0.03286605842188,-0.0265203061243519,-0.0066712396219372,-0.0233524534851312,0.0335257202386856
1773256919547241700,5.52624169921875,-0.2278349421620368,-0.1325819856710731,0.0291695785241201,0.0006993253482505,-0.0055508189834654,-0.0356008857488632
1773256919557267700,5.536267822265625,-0.2910562452286481,-0.1832929128631949,-0.0354607145575806,0.003482861444354,0.0444439053535461,-0.0754859820008277
1773256919567294000,5.5462939453125,-0.0355184726268053,-0.149954853015393,-0.0107677334582433,-0.011211478151381,0.0479731298983097,-0.0757597535848617
1773256919577320000,5.55631982421875,0.082347443819046,0.0134536480739712,0.0146097958391532,-2.19404464587e-05,0.0029574544169008,-0.0395231768488884
1773256919587346000,5.566345947265625,0.114815296703577,0.051958004643768,-0.1124559106284752,0.0097562037408351,-0.0082757659256458,0.0172143932431936
1773256919597372000,5.576371826171875,0.2429559389263391,-0.00030292846933,-0.0715988534526899,-0.0047827917151153,-0.0114305466413497,0.0579301342368125
1773256919607398000,5.58639794921875,0.198856100437045,0.0350450098961591,0.0845922453374601,0.0017988217296078,-0.0234715603291988,0.0593095086514949
1773256919617424000,5.596423828125,-0.0456061513990163,0.0248313666567206,0.0184659598106518,0.0062779923900961,-0.0178243275731802,0.0339144021272659
1773256919627450600,5.60645068359375,-0.1278612407594919,-0.0634159488558769,-0.0810496408271603,0.0001193707576021,0.0161157064139843,0.0044197114184498
1773256919637476600,5.6164765625,0.0442512296587228,-0.0955786813139915,-0.0018706892427057,-0.0002651895629242,0.0156134329736232,-0.0221794079989194
1773256919647502600,5.626502685546875,0.0708621732085943,-0.0811623256877064,-0.0364764492050744,-0.0010172664187848,0.0033286854159086,-0.0343505404889583
1773256919657528800,5.63652880859375,0.0430026909023523,-0.0241467453934252,-0.0619862631126306,0.0003393478691577,0.0088606039062142,-0.0225061308592557
1773256919667554800,5.646554931640625,0.0919721812546253,-0.0023388182111084,-0.0197999483607709,-0.0005325300153344,0.0075025805272161,0.0007553538307547
1773256919677580800,5.656580810546875,0.0789443573772907,-0.0010094693034887,-0.0021457615907303,0.0005923892604187,-0.0073791639879345,0.0217115022242069
1773256919687606800,5.666606689453125,0.0078150576651096,-0.0116099199034273,-0.0087144907228648,-0.0015936563722789,-0.0119725000113248,0.0292337704449892
1773256919697632800,5.6766328125,0.0132692314177751,-0.0070154317200183,0.0046846872175112,0.0060578719712793,-0.0047923508100211,0.0212663933634758
1773256919707658800,5.68665869140625,0.0574953266352415,-0.0292630654938518,-0.0257093550676479,0.0031315288506448,0.0017847665585577,0.0080457478761672
1773256919717684700,5.696684814453125,0.0728998165160417,-0.0408186248615384,-0.054559693308454,0.0019922284409403,0.0066192029044032,-0.0076890066266059
1773256919727710700,5.706710693359375,0.0591582914113998,-0.0497924971729516,-0.0302083469873294,0.0004097985802218,0.0019148970022797,-0.0155814737081527
1773256919737736700,5.71673681640625,0.0192588272213935,-0.0401380952514708,-0.0160626067296601,-0.0015854417579248,0.0051266690716147,-0.0132903568446636
1773256919747762700,5.7267626953125,0.0107259766757488,-0.0387597926355898,-0.0108533111161552,0.0004896116442978,0.0046619544737041,-0.0032925740815699
1773256919757788700,5.73678857421875,0.0448199694573879,-0.0262891642495989,-0.0208030792550183,-7.04511767253e-05,0.0011308691464364,0.0076634036377072
1773256919767815000,5.74681494140625,0.0704120913535356,-0.010426263076812,-0.0182161132354289,-0.001276944996789,-0.0037829224020242,0.0128613710403442
1773256919777841000,5.7568408203125,0.0676648384720087,-0.0085571082040667,-0.0116880083746276,-0.0017168992199003,-0.0039083566516637,0.0141436830163002
1773256919787867000,5.766866943359375,0.049402036550641,-0.0373711147561669,-0.0153083177636377,0.0014841175870969,0.001001579221338,0.007321760058403
1773256919797892900,5.776892822265625,0.0309708923250436,-0.0495892296858131,-0.0217070058248005,-0.0004317604470998,0.0017288886010646,-0.003002249635756
1773256919807918800,5.7869189453125,0.0057592941790819,-0.0457449753478169,-0.0228765062619,0.0020124888978898,0.006631355267018,-0.0065709347836673
1773256919817945600,5.796945556640625,0.0367009604096412,-0.0350084772780537,-0.0157973433895967,-0.0001420084154233,0.0029567256569862,-0.0062223272398114
1773256919827971600,5.8069716796875,0.0497726234287023,-0.0371696008346974,-0.022500476023741,0.0013839624589309,0.0022239219397306,-0.0010172557085752
1773256919837997600,5.81699755859375,0.0587111321657896,-0.0251972773596644,-0.0369924359031952,-0.0002453593770042,0.0026841161306947,0.0065967217087745
1773256919848023800,5.82702392578125,0.0614613076567649,-0.0140546827070415,-0.009847495074477,-0.0040222341194748,-0.0010595875792205,0.0051661487668752
1773256919858049800,5.8370498046875,0.0404243648469448,-0.0165777714438736,-0.0108068416259251,0.0008633349207229,-0.0002433289773762,0.0061648339033126
1773256919868075800,5.84707568359375,0.0075730656027793,-0.0293193257257342,-0.0260101463788188,0.0015218728221952,0.0017157476395368,0.0044983625411987
1773256919878101800,5.857101806640625,0.0413660296112298,-0.0428922162652015,-0.0162198248516768,0.0015588907990604,0.0025551761500537,-0.0010426100343465
1773256919888127700,5.867127685546875,0.0476689291477203,-0.0341721725843846,-0.0365760553883388,0.0002615833654999,0.0035719780717045,-0.0038759377785027
1773256919898153700,5.87715380859375,0.0559030890077352,-0.0274482711568474,-0.0247599088557064,0.0019937031902372,-0.0001644371077418,0.0002442384138703
1773256919908179700,5.8871796875,0.0522813913792371,-0.0329170579567551,-0.0153029840013943,-0.0005354805616661,-5.16171567142e-05,0.0016792258247733
1773256919918205700,5.897205810546875,0.036654783180356,-0.0391853245712816,-0.0258092169792391,0.0068779606372118,0.0033830616157501,0.0061642555519938
1773256919928231700,5.907231689453125,0.0391997914880514,-0.0279328398033976,-0.0252208956972695,0.0023166425526142,-0.0002915114164352,0.0156347975134849
1773256919938257700,5.917257568359375,0.0558323618590831,-0.0068296998895704,-0.0220741586367599,-0.0004690238274633,-0.0029022078961133,0.0202588438987731
1773256919948283600,5.92728369140625,0.0630804332911968,-0.0188622291192412,0.0138104256223887,0.0021223542280495,-0.0046554240398108,0.0112194679677486
1773256919958310000,5.937309814453125,0.0526467175602912,-0.0413043625518679,0.0015961100850254,-0.0020510856993496,0.0025385729968547,-0.0014087092131376
1773256919968336000,5.9473359375,0.0253220727831125,-0.0463197064958512,-0.0308928951853886,-0.0028861905448138,0.006894770078361,-0.0121773844584822
1773256919978361900,5.95736181640625,0.0241553670912981,-0.0394720325581729,-0.0411010037331841,-0.0024686069227755,0.005758399143815,-0.013536661863327
1773256919988388900,5.967388916015625,0.0462853658348321,-0.0483149719662964,-0.0297512326032854,-0.0008948429021984,0.0009164009243249,-0.0100574418902397
1773256919998414800,5.977414794921875,0.062597033688426,-0.03259089474231,-0.0159666720745153,0.0147451031953096,-0.0143112875521183,0.0041342778131365
1773256920008440800,5.98744091796875,0.0613204378813505,-0.0131717623926699,-0.1047117445087991,0.012343218550086,-0.0055618365295231,0.0267909318208694
1773256920018466800,5.997466796875,0.126730775424838,0.0080593878149986,-0.0896642148395068,-0.0071862740442156,0.0066833775490522,0.032975323498249
1773256920028492800,6.007492919921875,0.1256242754876613,0.0196641931518912,0.1282883801303803,0.0040968628600239,-0.0163643546402454,0.0164436288177967
1773256920038518800,6.017518798828125,-0.0919388635069131,-0.0413964247494935,0.05753642583061,0.0056886347010731,0.0029217253904789,0.001725934445858
1773256920048544800,6.027544677734375,-0.0777063400149345,-0.0852927034907043,-0.0740336245852522,0.0004073603777214,0.0032096824143081,-0.001047327183187
1773256920058570800,6.03757080078125,0.0557978750675916,-0.0470361842021346,-0.0770169329786673,-0.0001167496666312,-0.0255378112196922,-0.0015250979922711
1773256920068596700,6.0475966796875,0.1131570081025361,-0.0293541047781705,-0.1611183443255722,-0.0146528352051973,0.0338546298444271,0.0149687975645065
1773256920078622700,6.057622802734375,0.2340443181961774,0.0281396144218742,0.0528529624558053,-0.0874546021223068,0.0191156305372715,0.0127730201929807
1773256920088648700,6.067648681640625,0.0510644168049097,0.0871507524475455,0.5519827251315117,-0.1055687069892883,-0.0515987426042556,-0.0167933851480484
1773256920098674700,6.0776748046875,-0.5157464596241712,-0.1531729382790625,0.139869274868723,-0.0701974034309387,-0.0413628853857517,-0.0256736949086189
1773256920108700700,6.08770068359375,-0.1275824238181114,-0.2847111139856279,-0.3074949369953945,-0.027570990845561,0.0393916741013526,-0.0393246486783027
1773256920118726700,6.0977265625,0.4072176958441734,-0.1111155654028058,-0.3490085583837702,0.0092051336541771,0.0635662525892257,-0.0541549921035766
1773256920128752600,6.107752685546875,0.3879261353969573,0.1512827406182885,-0.1729582553262822,0.060030210763216,0.022731838747859,-0.043505884706974
1773256920138778600,6.117778564453125,0.0548071104645729,0.1133823412910103,-0.1456582883326336,0.1477411538362503,0.0188886299729347,0.0150154801085591
1773256920148804600,6.1278046875,0.0184773214548826,-0.0081100950889289,-0.273874936667364,0.0394271947443485,0.062806025147438,0.104216992855072
1773256920158830800,6.137830810546875,0.1392477271705866,0.1767201103441417,0.1731679890868254,-0.0410942770540714,-0.0378468222916126,0.1531808078289032
1773256920168857900,6.14785791015625,-0.100913612601161,0.0913610636189579,0.4695598779886961,0.0033721555955708,-0.1022929325699806,0.1209834367036819
1773256920178883800,6.1578837890625,-0.181813780221343,-0.2780360201358795,-0.0356921121606603,0.0151092391461133,-0.0517003312706947,0.036542858928442
1773256920188909800,6.167909912109375,0.1026578259199857,-0.2686651113308966,-0.0005288461796939,-0.0209845416247844,0.030334684997797,-0.0615409463644027
1773256920198935800,6.177935791015625,0.0480167196720838,0.038143998824805,-0.1436359156595543,-0.0017317519523203,0.0855902209877967,-0.1061156019568443
1773256920208961800,6.1879619140625,0.0342868850052356,0.0681945614345371,-0.2452365789431147,0.0129228448495268,0.0566320903599262,-0.0906729698181152
1773256920218987800,6.19798779296875,0.0831944160372018,-0.1198017068140208,-0.0542147705946117,-0.007584560662508,-0.0223516728729009,-0.0304261408746242
1773256920229013800,6.208013671875,0.0041033436655998,-0.1037009052321314,0.1691706082800403,0.000918380334042,-0.0435477718710899,0.0277801714837551
1773256920239039700,6.218039794921875,0.0363175140500068,0.0165562902644276,0.0698550785252824,0.0046470719389617,-0.0017334800213575,0.0655350089073181
1773256920249066000,6.22806591796875,0.1301367844760418,0.1275154960617423,-0.0846454185631126,0.0015460054855793,0.0101703237742185,0.0641975775361061
1773256920259092000,6.238092041015625,0.0839525409281253,0.0764195150747895,-0.069554798670765,0.0022235135547816,-0.0186911504715681,0.0332561731338501
1773256920269118000,6.248117919921875,0.0032154549151659,-0.1116474803224205,-0.0315275032944977,0.0015160135226324,-0.0142465615645051,-0.0035030539147555
1773256920279144000,6.25814404296875,0.0321259075790643,-0.1731109799362719,-0.0103889084747992,-0.0027061617001891,0.0147755024954676,-0.040174514055252
1773256920289169700,6.268169677734375,0.0396907898753881,-0.0674859747737646,-0.045283038658183,-0.004754583351314,0.0304658953100442,-0.0491899102926254
1773256920299195600,6.278195556640625,-0.0044505496680736,0.0018850830942392,-0.0704203111926093,-0.0006583749782294,0.013505021110177,-0.0306678898632526
1773256920309221600,6.2882216796875,0.0009627075523138,-0.0295632174842059,0.0041693215738981,0.0025149041321128,-0.0092981122434139,0.0049450602382421
1773256920319247600,6.29824755859375,0.0585737695217132,-0.0481026443898677,0.0297960215930826,0.00526674836874,-0.0150137897580862,0.0333039984107017
1773256920329275000,6.30827490234375,0.1081786351680755,0.0132454121507704,-0.0369741330615244,-0.0005269172834232,-0.0075279856100678,0.0377459861338138
1773256920339300900,6.31830078125,0.0932201354891061,0.0440283806882798,-0.0463235606870613,0.0010368910152465,0.000464426819235,0.0227894075214862
1773256920349326800,6.328326904296875,0.0438362191170454,-0.0217974057883024,-0.0132396399971097,0.001965841744095,-0.0033452771604061,-0.002300027757883
1773256920359352800,6.338352783203125,-0.021971593311429,-0.0995576679475605,-0.0202412075885571,-0.0009284815751016,0.0021568140946328,-0.021892637014389
1773256920369378800,6.34837890625,-0.0266939456582069,-0.0918577610947191,-0.0440012917519547,-0.0031316727399826,0.0140991248190402,-0.0280562527477741
1773256920379404800,6.35840478515625,0.0522042344897985,-0.0303549523837864,-0.0377216086942702,0.0008534812368452,0.006367702037096,-0.0159926656633615
1773256920389430800,6.3684306640625,0.084020345467329,0.0041873686872422,-0.0280028728323057,-0.0004754982655867,-0.0032357219606637,0.0039902823045849
1773256920399456800,6.378456787109375,0.054204468396306,-0.0162628602758049,-0.0278097979456186,0.001858496107161,-0.0083415349945425,0.0196203738451004
1773256920409482800,6.388482666015625,0.0577881721019744,-0.0176207046255469,-0.0070209664116613,0.0005285540828481,-0.0064676655456423,0.0217601135373115
1773256920419508700,6.3985087890625,0.0344786081850528,-0.0217633573882281,-0.021985804499872,1.40313059091e-05,-0.0010891454294323,0.0127122895792126
1773256920429534700,6.40853466796875,0.0161392338961362,-0.0274557238109409,-0.0335178733941167,0.0008969312766566,0.001112968660891,0.0012485748156905
1773256920439561000,6.41856103515625,0.0250607914984226,-0.0524807133436203,-0.0259156364957801,0.0009374113287776,0.003024585545063,-0.0133122578263282
1773256920449587000,6.4285869140625,0.0471112952649593,-0.0637318829372525,-0.0235857139771804,0.0006870742654427,0.0056033246219158,-0.0142600778490304
1773256920459613000,6.438613037109375,0.042494156858325,-0.0313714359499514,-0.0223682827451266,0.0014114540535956,0.0049551110714674,-0.0090940771624445
1773256920469639000,6.448638916015625,0.0430097051650285,-0.0020119243443012,-0.0263448216932825,0.0016673222417011,0.0025829416699707,0.0017091212794184
1773256920479665000,6.458664794921875,0.0614472791314125,-0.0225930862106382,-0.0251778968057595,-5.28135569766e-05,-0.0043623163364827,0.0127729577943682
1773256920489692400,6.4686923828125,0.0570464138239622,-0.0421159711956977,-0.0107342878463678,0.0016150220762938,-0.0060333437286317,0.0144986175000667
1773256920499718700,6.47871875,0.0500210452318191,-0.0351527080543339,-0.0232424534974619,0.0009468349162489,0.0017244447953999,0.0062071327120065
1773256920509744600,6.48874462890625,0.0556938301712274,-0.0251477391295135,-0.0348558622659184,0.0011613002279773,0.0027580349706113,-0.0024594976566731
1773256920519770600,6.4987705078125,0.04186930295825,-0.0405683033622801,-0.0345809908472932,-0.0005369975697249,0.0042632538825273,-0.008250274695456
1773256920529796600,6.508796630859375,0.0335877968251705,-0.0544024751864373,-0.0289883950046263,-3.26142180711e-05,0.0027466574683785,-0.0085218315944075
1773256920539822600,6.518822509765625,0.0382844302088022,-0.0363918944604694,-0.0174348814635537,0.0011753956787288,0.0004486157558858,-0.0019784453324973
1773256920549848600,6.5288486328125,0.0474041407316923,-0.0149340958900749,-0.0188008543208241,-0.0001032494474202,0.0019588028080761,0.0044632945209741
1773256920559874600,6.53887451171875,0.0535737692773342,-0.0130965051993727,-0.0303984444656409,0.0010176750365644,-0.0021041152067482,0.0101286377757787
1773256920569900500,6.548900634765625,0.0661345601648092,-0.020838643758744,-0.0319198818792589,0.0011778743937611,-0.0011732568964362,0.0092382468283176
1773256920579926500,6.558926513671875,0.0597486585199832,-0.0346696007125079,-0.0147756173927336,0.0009501741733402,-0.0006443532183766,-2.15638428926e-05
1773256920589952500,6.568952392578125,0.0313274506777524,-0.038931057549268,-0.024794085119944,0.0003338971873745,0.0014996146783232,-0.0043939151801168
1773256920599978800,6.578978759765625,0.0304658654123544,-0.0320033041127026,-0.0315550306222401,-2.69610900431e-05,0.003823222592473,-0.0040098875761032
1773256920610004700,6.589004638671875,0.0403659126579761,-0.0400914796307683,-0.0253506047578528,0.0019619909580796,0.0025381171144545,-0.0058467043563723
1773256920620030700,6.59903076171875,0.0424561629354953,-0.0349716523990035,-0.0193627442535944,0.0006818093825131,5.25889918208e-05,0.0001491364091634
1773256920630056700,6.609056640625,0.0513841502785682,-0.0190557058647274,-0.0217374740283004,0.0012078448198735,0.0011873319745063,0.0034362412989139
1773256920640083500,6.61908349609375,0.0516086066842079,-0.0272517256714403,-0.0287091031392104,0.0012975933495908,-0.0020462777465581,0.0035939002409577
1773256920650109400,6.629109375,0.0521077883780002,-0.0342313554257154,-0.0206826494794338,0.0006902292370796,-0.0013372092507779,0.0048684561625123
1773256920660135400,6.639135498046875,0.041848844692111,-0.0305205182090401,-0.023503807847388,0.000488361576572,-0.0006304057314991,0.0020111510530114
1773256920670161400,6.649161376953125,0.0367453840732574,-0.0354749257460236,-0.0218667446974664,0.0003550394903868,0.0029064326081424,-0.0009957561269402
1773256920680187400,6.6591875,0.0443798244744539,-0.0299675605013966,-0.0291580159504897,-0.0027177156880497,0.0010384912602603,-0.0057044913992285
1773256920690213600,6.669213623046875,0.0494891303122043,-0.0337118615962564,-0.0141728657266125,0.0002626894274726,0.0020228866487741,-0.0056116329506039
1773256920700239600,6.679239501953125,0.0575526097804307,-0.0376509546108543,-0.0243676946677267,0.0015431372448801,-0.0024195327423512,0.0027701342478394
1773256920710265600,6.689265625,0.0459884287148714,-0.0360461497627198,-0.0221181621752679,-0.0004994053160771,0.0004919962957501,0.0003611072897911
1773256920720291600,6.69929150390625,0.0513327123522758,-0.0188647133372724,-0.0288074672134593,0.0010622723493725,0.0008350112475454,0.0017890939489006
1773256920730317600,6.709317626953125,0.0448082790195941,-0.024541443799436,-0.0246954835836775,-0.0006487877108156,-0.0014558187685906,0.0037974091246724
1773256920740343600,6.719343505859375,0.0479033224254846,-0.0258766379259526,-0.0237771448960527,-0.001084214542061,-0.0004800362512469,0.0002082670107483
1773256920750369500,6.72936962890625,0.0486047486931085,-0.0286881882153451,-0.0272021326423622,-0.0009720954112708,0.0006925538182258,-0.0018942984752357
1773256920760395500,6.7393955078125,0.0435182392090559,-0.0227080908924341,-0.0239263989073224,-0.000380340963602,0.0043570632115006,-0.0003035925328731
1773256920770421500,6.74942138671875,0.0431996747791767,-0.0233078103512525,-0.0240376224631443,0.000607281923294,-0.0011994396336376,-0.0018065855838358
1773256920780447500,6.759447509765625,0.0434668012827634,-0.0308856982596218,-0.0265473402617499,0.0021061089355498,-0.0002537514083087,-6.88731670379e-05
1773256920790474800,6.769474853515625,0.0477864180475473,-0.0249240133762359,-0.0236092775158584,0.000705286161974,0.0017630606889724,0.0018840227276086
1773256920800500700,6.779500732421875,0.0495540122419595,-0.0201044842652976,-0.0189912988590076,0.0003481563180685,-0.0003727944567799,-0.0014886041171848
1773256920810526700,6.789526611328125,0.0382832611650228,-0.0187368491739034,-0.0225950224393978,-0.0013779822038486,0.0013290275819599,0.0029686084017157
1773256920820552700,6.799552734375,0.0484235469073057,-0.0271671161279082,-0.020498671214655,-2.9921066015e-06,0.0017159851267933,-0.0001928303390741
1773256920830578700,6.80957861328125,0.0493020833075046,-0.0298641001269221,-0.0222052376705221,-0.002395826857537,0.0031328920740634,-0.0006387121975421
1773256920840604400,6.8196044921875,0.0456967522919177,-0.0261820506133139,-0.0232250091723166,0.0019107708940282,0.0032527341973036,0.0001807427033782
1773256920850630400,6.82963037109375,0.0444902991116046,-0.025661533870548,-0.0293822714267298,-0.0003243295941501,-0.0011920961551368,-0.0028331750072538
1773256920860656400,6.839656494140625,0.0438777201712131,-0.0270749077998101,-0.0137056866062805,-1.0875519365e-05,0.0003125900402665,0.0013786144554615
1773256920870682400,6.849682373046875,0.041164369559288,-0.0238061152622103,-0.0197211657698266,0.0018022031290456,0.0006830357015132,4.3305568397e-05
1773256920880708400,6.859708251953125,0.0348380891472101,-0.0188886787347495,-0.0263803131317719,0.0005928616737946,0.0002356246113777,0.0038303202018141
1773256920890734600,6.869734619140625,0.0448147087603807,-0.0255856921553611,-0.0217834868608042,0.0015754872001707,-0.0015241159126162,0.0005984716117382
1773256920900760600,6.879760498046875,0.0450759900450706,-0.0325529008194804,-0.0238249478268437,-0.0005851353053003,-0.000619972590357,-0.0004345681518316
1773256920910786600,6.88978662109375,0.0432458520084619,-0.0237878489531576,-0.0209109783425927,0.0012850614730268,3.17865051329e-05,-0.000953447073698
1773256920920812500,6.8998125,0.039961423510313,-0.0224891874447464,-0.0255651425576768,-0.0004198941169306,0.0025199777446687,-0.0021137865260243
1773256920930839600,6.909839599609375,0.0362140536755323,-0.0311494637623429,-0.0213647134594619,-0.0009654139867052,-0.0012433426454663,-0.0017785029485821
1773256920940865500,6.919865478515625,0.0418663803488016,-0.0285258372604846,-0.0194767990873195,0.0013749720528721,0.0014664237387478,0.0007379176095128
1773256920950891500,6.9298916015625,0.0396077877670526,-0.0206558345377445,-0.0169999423786997,0.0003813809016719,-0.0003531617112457,-0.0007294220849871
1773256920960917500,6.93991748046875,0.0374731138259172,-0.0256293851666152,-0.0193057533693499,0.0003880388103425,0.0001962487585842,0.0014535710215568
1773256920970943500,6.949943603515625,0.0392442151516675,-0.0268104116447269,-0.0119112226712517,-0.0004491071449592,0.0010091518051922,-0.0027817240916192
1773256920980969700,6.9599697265625,0.0479021533817052,-0.0289265270158648,-0.0208703540712595,-0.0007210158510133,-0.0017339047044515,0.0002047447487711
1773256920990995700,6.96999560546875,0.0417231724858283,-0.0271345290325582,-0.0230334686555899,0.0009734906489029,-0.0006337002851068,-2.12974846363e-05
1773256921001021700,6.980021728515625,0.0301952317774295,-0.0250308347515761,-0.0205483190426602,-0.0009208157425746,0.0005522053688764,0.0003848345950245
1773256921011047700,6.990047607421875,0.0419873763799667,-0.024969459953159,-0.0223668945056386,1.45800877362e-05,0.00307456869632,0.0003005843609571
1773256921021073700,7.00007373046875,0.0515308652728795,-0.0167963826306164,-0.0166004216670989,0.0020577572286128,0.0038540759123861,0.0018502781167626
1773256921031099600,7.010099609375,0.041770518758893,-0.0250777426332235,-0.0165095467795617,0.0016567156417295,0.0015387712046504,0.0002756789326667
1773256921041125600,7.020125732421875,0.0402367333203554,-0.0192865920111536,-0.027839736426156,-0.0001680823042988,0.0010207863524556,0.0006280150264501
1773256921051151600,7.030151611328125,0.0444306778788566,-0.0213933550320565,-0.0264552232651971,-0.0006395459640771,0.0007818164303898,-0.0017271894030272
1773256921061177600,7.040177490234375,0.0339390944808721,-0.0200818340420722,-0.0195210218215361,0.0016696809325367,0.003670547157526,-0.0016209292225539
1773256921071204600,7.05020458984375,0.0414028544902801,-0.0235346048444509,-0.0130208278809674,0.0020990602206438,0.0027071905788034,-0.0010831514373421
1773256921081230600,7.060230712890625,0.0509767385214567,-0.025033903491497,-0.0149656966047361,0.0021621771156787,0.0009151496924459,-0.0004498520866036
1773256921091256600,7.070256591796875,0.0460153167217969,-0.019623568880558,-0.0136808444259688,-0.0013977702474221,0.0017678937874734,0.0016391314566135
1773256921101282600,7.080282470703125,0.0413461558669805,-0.0225623988114297,-0.0108935883276164,0.000611318508163,-0.0022931601852178,0.002101456746459
1773256921111308500,7.09030859375,0.044901802521944,-0.0242553203344345,-0.015094930741284,-0.000101109384559,0.0003174822777509,0.0018781460821628
1773256921121334500,7.10033447265625,0.0388905794084072,-0.0216955528490245,-0.0157234744357876,0.0009662855882197,0.0010642325505614,0.0011183461174368
1773256921131360500,7.110360595703125,0.0408002124220132,-0.0263978853210806,-0.0174241774064488,0.0002282107016071,0.0016070310957729,0.0021081063896417
1773256921141386500,7.120386474609375,0.0521598108261823,-0.0228451612755656,-0.0180232027455233,0.0005778836784884,0.0026733609847724,-0.0006701033562421
1773256921151412500,7.13041259765625,0.048717561417818,-0.0190989604845643,-0.0252174798974767,-0.0004775917623192,0.0006420738063752,-0.0001845993101596
1773256921161438500,7.1404384765625,0.0530541293174028,-0.0216132813930511,-0.0218379387280903,0.0013083240482956,0.000481485389173,-0.002573188394308
1773256921171464700,7.150464599609375,0.0517173277556896,-0.0269127029754221,-0.0176925277527421,0.0013203653506934,-0.0004744222387671,0.0017452733591198
1773256921181490700,7.16049072265625,0.0505038603127002,-0.0250042390055954,-0.0164869330889545,0.0030141358729451,0.0021538510918617,-0.0007266728207468
1773256921191516700,7.1705166015625,0.0449210917443037,-0.0272198692284524,-0.0172469759423285,0.0020669195801019,-0.0003876127302646,0.0015933541581034
1773256921201542700,7.180542724609375,0.0451817885071039,-0.0268278011709451,-0.0300597688294947,-0.0003954390995204,-0.00203318009153,-0.0004620729014277
1773256921211568600,7.190568603515625,0.0387228216260671,-0.0238311035729944,-0.0228930920705199,-0.0012550903484225,0.0005533271469175,-0.0003635762259364
1773256921221595600,7.200595703125,0.0331657720208168,-0.0269938053876161,-0.0290684927698224,-0.0012883797753602,-0.0013055591844022,0.0013797292485833
1773256921231621400,7.210621337890625,0.0380547131061553,-0.0187412330880761,-0.0245594726464711,-0.0003514012787491,-2.62651592493e-05,0.0023533003404736
1773256921241647400,7.2206474609375,0.0387742595523595,-0.019882804338634,-0.0114231286270543,0.0002637888537719,0.0012933313846588,-0.0014635426923632
1773256921251673300,7.23067333984375,0.0439852721989154,-0.0246457809567451,-0.0297536072234623,-0.0010508357081562,-0.0012753712944686,0.0006868354976177
1773256921261699600,7.240699462890625,0.0503892940223217,-0.0216103587836027,-0.0167257650798186,0.0018677226034924,-0.0003350088372826,-0.0017867083661258
1773256921271725600,7.2507255859375,0.0533563271343708,-0.0298282981611788,-0.0119534543777816,0.0003495557466521,-0.0017842105589807,-5.46779483556e-05
1773256921281751600,7.26075146484375,0.0341898543715476,-0.0264577988147735,-0.0161958777205087,0.0004084116080775,-0.0017791506834328,-9.11634415388e-05
1773256921291777500,7.270777587890625,0.0425374114781618,-0.0112871176898479,-0.0216127151374705,-0.001898786984384,0.0006322632543742,0.0010783839970827
1773256921301803500,7.280803466796875,0.047309448185563,-0.0214987151026725,-0.0290779912505298,0.0009433384984731,0.0036264553200453,-0.0005799662321805
1773256921311829500,7.29082958984375,0.0338338805407285,-0.0236966635383665,-0.0156698080197907,-0.0016912925057113,0.0004637911915779,-0.0007158415392041
1773256921321855500,7.30085546875,0.0398123704284429,-0.0170841135308146,-0.0203324295359663,-0.0002667676890268,-0.0008874968625605,-0.0026578190736472
1773256921331881500,7.310881591796875,0.036223990547657,-0.0136665601722896,-0.0205748782560229,0.0017000993248075,0.0019588312134146,6.65476545691e-05
1773256921341907500,7.320907470703125,0.0386082553356885,-0.0219816763140261,-0.020122640976496,0.0009634689777158,-0.0001389407552778,-0.0001305257901549
1773256921351934700,7.330934814453125,0.0415939931482076,-0.0235740600720047,-0.0261212238041684,0.001007636077702,0.0034121884964406,-0.002028836403042
1773256921361960700,7.340960693359375,0.0384457582503557,-0.0287650528438389,-0.0179335517006926,-0.0001212778734043,6.40624202787e-05,-5.06406649947e-05
1773256921371986700,7.350986572265625,0.0508487282276153,-0.0199595228366553,-0.0196299438224174,-0.0008407098939642,0.001197166275233,-0.0002234494313597
1773256921382012700,7.3610126953125,0.0554629440248012,-0.0183064949326217,-0.0168296273130923,0.0009641144424676,-0.0003288253210484,0.0008988073095679
1773256921392038700,7.37103857421875,0.031195933252573,-0.0196447577990591,-0.0114343258745037,-0.0021387308370321,-0.0011739321053028,-0.0002728784456849
1773256921402064600,7.381064697265625,0.0476408720970153,-0.0191140119232237,-0.0202243477853015,0.0009366876329295,-0.0008181338198482,-0.0014132442884147
1773256921412090600,7.391090576171875,0.0443453376829624,-0.0180598266951739,-0.023545729026664,-0.0003492592368274,0.0016259402036666,-0.0017535286024212
1773256921422116600,7.40111669921875,0.0446247391462326,-0.014913345362991,-0.0240952526682056,0.0008819201029837,0.0019338014535605,0.002381294965744
1773256921432142600,7.411142578125,0.0451911408573389,-0.0188892632566392,-0.0147396327638998,0.0005214397679083,0.0001369500532746,0.0004309630021452
1773256921442168600,7.42116845703125,0.0393120196908712,-0.0178476452492177,-0.0191549467218108,-0.0021467811893671,0.0001598531380295,-0.0005232477560639
1773256921452194600,7.431194580078125,0.0418541053891181,-0.0145202543921768,-0.0236596194636076,-0.0002303164219483,0.0025309899356216,-0.0012031109072268
1773256921462220500,7.441220458984375,0.0409480964601039,-0.0200027774564921,-0.019741076046694,0.0005513213109225,0.0002161702141165,-0.000939724035561
1773256921472246500,7.45124658203125,0.0466278956621885,-0.0184717684969305,-0.0239831523295491,0.0015357311349362,0.0004949178546667,-0.000479519367218
1773256921482272500,7.4612724609375,0.0347942500054836,-0.0195996034830808,-0.0228467139118351,-0.0027471645735204,0.0007244823500514,-0.0015189512632787
1773256921492298200,7.47129833984375,0.0359878437042236,-0.0180868608325719,-0.0238147004274651,0.0005509339389391,0.0021889503113925,-0.0004656324163079
1773256921502324200,7.48132421875,0.047494157102704,-0.0179727329336106,-0.0293759695501066,0.0009775722865015,0.0026123928837478,0.0001426329836249
1773256921512350200,7.49135009765625,0.0425432566970586,-0.0207218855112791,-0.0186491526241414,0.0002310455311089,0.0009629223495721,0.0010259663686156
1773256921522376000,7.5013759765625,0.0396732542186975,-0.0187409408271312,-0.0162091938598081,-0.0008097179234027,-0.0004136655479669,0.0011567277833819
1773256921532402000,7.51140185546875,0.0235001180529594,-0.0162584763616323,-0.0265406182600185,0.001083294628188,0.0008303015492856,0.0004481887444853
1773256921542428200,7.52142822265625,0.0367921458244323,-0.0159546711094677,-0.020235983424168,0.0005432055913843,-0.0026102364063262,0.0002370001748204
1773256921552454100,7.5314541015625,0.0459019194751977,-0.021704759068787,-0.0118580311792902,0.0001551924506202,-0.0006329705938696,0.001118822954595
1773256921562480000,7.541480224609375,0.0394622418165206,-0.0234957341387867,-0.0168435827732086,-0.0014251272659748,-0.0015429724007844,-0.0012439335696399
1773256921572506000,7.551506103515625,0.0536789832174777,-0.0167938984125852,-0.0110030583177693,0.000311545561999,-0.0004598470404744,-0.0003490960225462
1773256921582532000,7.561531982421875,0.0421422746807336,-0.0195597098641097,-0.0169436273478902,0.0014838690403848,-0.001302471384406,7.03521072864e-05
1773256921592558000,7.57155810546875,0.0513923335850238,-0.0225265968456864,-0.0204145365951582,0.0014256230788305,-0.000275160651654,0.0010163560509681
1773256921602584000,7.581583984375,0.0427075073480606,-0.0250333189696073,-0.0161781594007275,-0.0006676214979961,-0.0016424274072051,-0.0001176176592707
1773256921612610000,7.591610107421875,0.0393979444086551,-0.0217908299170434,-0.0158671937554143,0.0005538465920835,-0.0010899361222982,0.0008418029174208
1773256921622637000,7.601636962890625,0.0429582672387361,-0.0245982885532081,-0.0210487428454682,0.0015884846216067,-0.0009144339710474,-0.0004841843619942
1773256921632663300,7.611663330078125,0.0366676426619291,-0.0224589384369552,-0.0182196386330761,-0.0013676270609721,-0.000549342483282,0.0020880652591586
1773256921642689300,7.621689208984375,0.0496457821786403,-0.0242768015138804,-0.0228368135723285,0.0006763490382581,-0.0003149840049445,0.0007375767454504
1773256921652715300,7.63171533203125,0.0409480964601039,-0.0159087861411273,-0.0179217516650445,-0.0002865286078304,-0.0003834408707916,7.23069533705e-05
1773256921662741200,7.6417412109375,0.0433247624635696,-0.0166810856878757,-0.0136228306284174,-0.001028751488775,0.0007753004319965,0.0008803093805909
1773256921672767200,7.651767333984375,0.0394043741494417,-0.0241191267341375,-0.0197900297549553,-0.0001345835626125,-0.000224252231419,0.0016424292698502
1773256921682793200,7.661793212890625,0.0435714307010173,-0.0217160111151635,-0.0199251273767091,0.0019437473965808,0.0008282288908958,-0.0010255249217152
1773256921692819200,7.671819091796875,0.0486509259223938,-0.0149286890625953,-0.017509481069725,-0.0004150031600147,6.97812065482e-05,0.0007775528356432
1773256921702845200,7.68184521484375,0.0435509724348783,-0.0224795428335666,-0.0213619369804859,-0.0008743983926251,-0.0013643312267959,0.0013229679316282
1773256921712871200,7.69187109375,0.0372428122013807,-0.0289146904475986,-0.0182676242269575,0.002667685970664,0.0001475657336413,0.0005956375971436
1773256921722897200,7.701897216796875,0.0399064784526824,-0.0263197055183351,-0.015488277440425,-0.0015843169530853,0.0003419765271246,0.0004225317388772
1773256921732923100,7.711923095703125,0.0394692560791969,-0.0192138190358877,-0.0098612130725756,-0.0017139104893431,0.0007852227427065,-0.0011822180822491
1773256921742949000,7.72194921875,0.0430471145659685,-0.0186922793798148,-0.010007252213452,-0.0006758101517334,-0.0019794050604104,-0.0018442799337208
1773256921752976100,7.73197607421875,0.0339157136052846,-0.016460428674519,-0.0266377036926336,-0.0010785587364807,-0.0002697156742215,-0.0004158644005656
1773256921763002000,7.742002197265625,0.0493014987856149,-0.0177751645348966,-0.0161348499819636,0.0004908419796265,1.36448070406e-05,0.0005263620987534
1773256921773028000,7.752028076171875,0.0409089334934949,-0.0193308695442974,-0.0075897244766354,-0.0008421633392572,0.0001960969530045,-0.0002287225797772
1773256921783054000,7.76205419921875,0.0421019426703453,-0.0155764854468405,-0.0107610845217481,-0.0009785171132534,0.0020288848318159,-0.0001070164144039
1773256921793080000,7.772080078125,0.0438753820836544,-0.0235116623602807,-0.0211733738721348,0.0012974541168659,-0.0001429240219295,0.0008400650694966
1773256921803106000,7.78210595703125,0.049713586717844,-0.0167880531936883,-0.0185325405071489,0.0016809492371976,-0.0015701120719313,-0.0019807550124824
1773256921813132000,7.792132080078125,0.0468704722464084,-0.0156010353662073,-0.016810813014768,0.0031946883536875,0.0007784427143633,0.0005191955715417
1773256921823158300,7.802158203125,0.0368190338313579,-0.0178111126311123,-0.0194046836991794,0.0005363209056667,0.0024173518177121,0.0006877733394503
1773256921833184300,7.812184326171875,0.0411409886837005,-0.0293562967352569,-0.0162575995787978,-0.0009055773261934,0.0014063892886042,-0.0013719382695853
1773256921843210200,7.822210205078125,0.0463701215088367,-0.0146576170362532,-0.015524335134495,-0.0006541749462485,-0.0007515703327953,0.0005822889506816
1773256921853236200,7.832236328125,0.0430623121351003,-0.0203683958984911,-0.0180162980807013,0.0007119249785318,0.0033189572859555,-0.0007760236039757
1773256921863262200,7.84226220703125,0.0444049589157104,-0.0200274735063314,-0.017361505700089,0.0013436267618089,0.0001316862180829,-0.0003387331962585
1773256921873288200,7.8522880859375,0.0448380896359682,-0.0211154148735105,-0.0198963579399511,0.0011970108607783,0.0017545972950756,-0.0024585546925663
1773256921883315200,7.862315185546875,0.0434773226767778,-0.0136797119148075,-0.0163209288722835,0.0007381482282653,0.0003955862484872,-0.0015264484100043
1773256921893341200,7.872341064453125,0.0473690694183111,-0.0195239078983664,-0.0178112952942028,-0.0022149092983454,0.0017584725283086,0.0013104509562253
1773256921903367200,7.8823671875,0.0421183092832565,-0.0222790518254041,-0.0175052432860247,0.0008000553352758,0.0002037193626165,0.0005778148770332
1773256921913393200,7.89239306640625,0.0509153637230396,-0.0287986628524959,-0.0273315129093825,0.0015004512388259,0.0005430527962744,0.0008272696286439
1773256921923419100,7.902419189453125,0.0420499202221631,-0.0204648420102894,-0.0218941076284274,-0.0005914617795497,0.000631736125797,0.001858445815742
1773256921933445000,7.912445068359375,0.044734044739604,-0.0085837039500474,-0.011100691739656,-0.0003135949373245,0.0020250855013728,-0.0005164882168173
