time,seconds_elapsed,accel_x,accel_y,accel_z,gyro_x,gyro_y,gyro_z
1773257368978508800,0.0755087890625,-0.1188151799947023,0.2888210335224866,-0.1105272441208362,0.1121634766459465,0.0875857323408126,0.3321564495563507
1773257368988534800,0.08553466796875,0.0005237316131591,0.2729448344767093,-0.1200580927278846,0.0895941331982612,0.1238844692707061,0.3175597488880157
1773257368998561800,0.095561767578125,-0.0344593189626932,0.1892173344761133,-0.0928009602289646,0.0777521207928657,0.1160254776477813,0.2869911789894104
1773257369008587800,0.105587890625,-0.0678559771299362,0.1025242626681923,-0.08204385776259,0.0717139691114425,0.0760628432035446,0.2476200461387634
1773257369018614800,0.11561474609375,-0.1427209562391042,0.0607759557411074,-0.0826494955055415,0.0681730359792709,0.0297813639044761,0.2059112191200256
1773257369028640800,0.125640869140625,-0.149698394036293,0.0455661116495728,-0.1064592640295624,0.0745987817645073,0.022589823231101,0.1813813000917434
1773257369038667800,0.135667724609375,0.0128261638253927,0.0727697603955864,-0.214397733766213,0.069071926176548,0.0384580008685588,0.1757082343101501
1773257369048693800,0.14569384765625,0.0823188022464513,0.1145902557760477,-0.2343406707942485,0.0569452196359634,0.046484500169754,0.1668877899646759
1773257369058720800,0.155720703125,0.0426584075093269,0.1323658587023616,-0.1849305970676243,0.0415457598865032,0.0529839470982551,0.1650121212005615
1773257369068746800,0.165746826171875,0.0529793105155229,0.115372930586338,-0.1706272368291392,0.0298962146043777,0.0550369210541248,0.1646177768707275
1773257369078773800,0.175773681640625,0.110980833107233,0.094486794424057,-0.1794451879264786,0.020500848069787,0.0426172688603401,0.1744602918624878
1773257369088799700,0.1857998046875,0.1191577098220586,0.118890291057527,-0.1725926551505923,0.0165087021887302,0.0288812927901744,0.1742356717586517
1773257369098826800,0.19582666015625,0.1144610764384269,0.1336056296303868,-0.1655998736537992,0.0060627181082963,0.0204912722110748,0.1671378165483474
1773257369108852700,0.205852783203125,0.1168494328796863,0.1240133331596851,-0.1412604917651042,-0.0070323506370186,0.0144874788820743,0.1585949510335922
1773257369118879700,0.215879638671875,0.0507885224729776,0.1219277590572834,-0.1224961700623854,-0.0217375252395868,0.0256450586020946,0.1558955758810043
1773257369128905700,0.22590576171875,0.0635118104457855,0.1637070456445217,-0.1341044459979981,-0.0348144881427288,0.060112927109003,0.1596508920192718
1773257369138932700,0.2359326171875,0.1624538307130336,0.2271224099785089,-0.1772617794727906,-0.0352347344160079,0.0855061635375022,0.1650384664535522
1773257369148958700,0.245958740234375,0.1812619915574789,0.2501169165968895,-0.2170407225556671,-0.0331799872219562,0.0790019482374191,0.1628221422433853
1773257369158985700,0.25598583984375,0.1195329728752374,0.2252522321924567,-0.1912156686864793,-0.0263074319809675,0.0507418140769004,0.1535122692584991
1773257369169011700,0.26601171875,0.1179991874366998,0.1945855835109949,-0.1707517765242606,-0.0215408373624086,0.0158199705183506,0.1475876420736313
1773257369179038700,0.276038818359375,0.1238975978255271,0.1812163988500833,-0.1329791682951152,-0.0234316829591989,-0.0154766980558633,0.1266503930091858
1773257369189064700,0.286064697265625,0.0252624515503644,0.1918555740252137,-0.0656799482651054,-0.0350201949477195,-0.0204177573323249,0.1034910678863525
1773257369199091700,0.296091796875,0.0100695585936307,0.212289874766767,-0.0876601267417892,-0.0460233129560947,0.0125218173488974,0.0883145108819007
1773257369209118700,0.30611865234375,0.052102527680993,0.258678116454184,-0.1170408637985587,-0.0543946176767349,0.0544725209474563,0.0800131037831306
1773257369219144700,0.316144775390625,0.0514092847198247,0.2896013702452182,-0.1283561481369659,-0.0585334375500679,0.0690988674759864,0.0671167448163032
1773257369229171700,0.326171630859375,-0.0049871407628059,0.2824178884819149,-0.1241706060806289,-0.0536482147872448,0.0522107742726802,0.0561882331967353
1773257369239197700,0.33619775390625,-0.0651964025318622,0.2596922619327902,-0.107082948885858,-0.0512532331049442,0.0335566624999046,0.0464213564991951
1773257369249224700,0.346224609375,-0.0492582441657781,0.2448983051657676,-0.0688357088822871,-0.0500029139220714,0.0336355306208133,0.0361184701323509
1773257369259251000,0.3562509765625,-0.0435971496641635,0.2457110828533768,-0.0574988337665796,-0.0516929551959037,0.0442615412175655,0.0280754603445529
1773257369269277700,0.366277587890625,-0.0761439130038023,0.2704232070446014,-0.0869382056754082,-0.0606037341058254,0.0673226341605186,0.0174810253083705
1773257369279303700,0.3763037109375,-0.1092027175188064,0.2831485408440232,-0.1185795811405405,-0.0696257278323173,0.1153357028961181,0.0100587932392954
1773257369289330700,0.38633056640625,-0.115628366652131,0.2787006215244531,-0.1543565220404416,-0.0852492824196815,0.175051599740982,0.0046433173120021
1773257369299356700,0.396356689453125,-0.1090273609519004,0.2816092024475335,-0.1777791909430175,-0.1188652962446212,0.254250556230545,0.0010816054418683
1773257369309384000,0.406384033203125,-0.15302373906672,0.2987576133862137,-0.2314699741961434,-0.1546495109796524,0.3446607291698456,0.0003138706088066
1773257369319410000,0.416409912109375,-0.182832017353177,0.3163987762778997,-0.3335634442316368,-0.2100517749786377,0.4430237710475921,0.002555719576776
1773257369329436700,0.426436767578125,-0.1928162357509136,0.3255862913399934,-0.3668667615596205,-0.289909303188324,0.5479203462600708,0.0153044452890753
1773257369339462700,0.436462646484375,-0.2428431262016296,0.3881912160739302,-0.2393353738090023,-0.3803806006908417,0.671419084072113,0.0196890756487846
1773257369349489700,0.44648974609375,-0.2811497682422399,0.5229913161858916,-0.1472417763981036,-0.4392715990543365,0.8158255219459534,0.023061491549015
1773257369359515600,0.456515625,-0.2939595654547214,0.6283586933255195,-0.2269593283712863,-0.4499159753322601,0.96439927816391,0.0237903967499732
1773257369369543000,0.46654296875,-0.270138544884324,0.6427385163336992,-0.3452353965206071,-0.436830073595047,1.0870980024337769,0.0281551256775856
1773257369379569000,0.47656884765625,-0.2271533896386623,0.6976254140362144,-0.3957978551527485,-0.4132032990455627,1.1652895212173462,0.0313075073063373
1773257369389595600,0.486595703125,-0.2413607786893844,0.6425929703831672,-0.3407282578270882,-0.3838440477848053,1.196841597557068,0.045075200498104
1773257369399621600,0.49662158203125,-0.205253107997775,0.4644511566728353,-0.2806289592385292,-0.3763166069984436,1.1936428546905518,0.0682907775044441
1773257369409648600,0.506648681640625,0.0308756152570247,0.4610968778088689,-0.117771552693285,-0.3825272023677826,1.1533493995666504,0.087280049920082
1773257369419675000,0.5166748046875,0.1787286736875772,0.4851128364294767,-0.0059117082618176,-0.3790227472782135,1.0691399574279783,0.1002238094806671
1773257369429702000,0.526701904296875,0.2999064911603927,0.4097086358770728,0.0029519816733896,-0.3703318536281585,0.926640510559082,0.1063823401927948
1773257369439727900,0.536727783203125,0.4057131365001201,0.3032201457530259,0.0469401764817535,-0.3668287396430969,0.7184228301048279,0.1181710883975029
1773257369449754600,0.546754638671875,0.5170329923033714,0.2212649161219596,0.1895136140089482,-0.3807176351547241,0.4516725242137909,0.1138448864221572
1773257369459780600,0.556780517578125,0.3570949438035488,0.2083987125471234,0.3922714711248874,-0.4012641906738281,0.1731341034173965,0.0920953825116157
1773257369469807900,0.566807861328125,0.0807557907134294,0.3059069006189703,0.4351426446020603,-0.3991039395332336,-0.0452284812927246,0.0712251663208007
1773257369479835000,0.5768349609375,-0.1023977136790752,0.3920166195809841,0.2648676918093114,-0.381771832704544,-0.1593529284000396,0.0651464983820915
1773257369489860900,0.58686083984375,-0.4113526036918163,0.4766150571972131,0.0503667168643325,-0.3911416530609131,-0.2375407665967941,0.0873257741332054
1773257369499887600,0.5968876953125,-0.9776298116356134,0.7250187401354312,-0.1038422864641994,-0.4772483110427856,-0.4944441616535187,0.1381838917732238
1773257369509913600,0.60691357421875,-1.8655051180660724,1.2022560208842157,-0.3748981653891504,-0.5298633575439453,-0.8816591501235962,0.2180840820074081
1773257369519940900,0.61694091796875,-2.148534708705544,0.9566276478782296,-0.5355464079849421,-0.6430333256721497,-1.2467668056488037,0.3169792294502258
1773257369529966800,0.626966796875,-1.788272240781784,0.7896554629579186,0.2832378996279091,-0.7703174948692322,-1.6150327920913696,0.4376289248466491
1773257369539993900,0.636993896484375,-1.1994622985124588,0.5291437013357877,0.4310819345017895,-0.7768233418464661,-2.247081756591797,0.5672125220298767
1773257369550019800,0.647019775390625,-1.2198206114083527,0.5990718085646629,-0.7414077110089361,-0.8693450093269348,-2.82912278175354,0.5649147033691406
1773257369560046600,0.657046630859375,-1.9055536353379487,1.0156517915159464,0.0360078818452544,-1.04701030254364,-3.2430715560913086,0.4458801746368408
1773257369570072600,0.667072509765625,-2.163907049882412,1.1007701613530516,0.7060152759145945,-1.1859484910964966,-3.398639440536499,0.29713174700737
1773257369580099800,0.677099853515625,-1.5999053856551646,0.9901198753744364,0.3196155098346993,-1.2918999195098877,-3.143956184387207,0.1268399059772491
1773257369590125800,0.687125732421875,-0.4227911125510931,0.6457941045120358,0.2367126240899786,-1.3225947618484497,-2.5445847511291504,0.0087718209251761
1773257369600152800,0.69715283203125,1.0688163954705,0.1360331490382552,0.0347409854482859,-1.316677212715149,-1.73742413520813,-0.0654472783207893
1773257369610178800,0.7071787109375,2.218055404177308,-0.1031292428240179,0.1016392965272069,-1.3455430269241333,-0.9420344233512878,-0.1285102218389511
1773257369620205800,0.717205810546875,2.923154807356,-0.0344411987841129,0.4729223401591181,-1.4684566259384155,-0.2934524118900299,-0.2244798988103866
1773257369630231800,0.727231689453125,3.206920311054587,0.2969599163144826,1.008025022964552,-1.6853241920471191,0.0433224737644195,-0.3114614188671112
1773257369640258800,0.7372587890625,2.787787721011042,0.6757789084091782,1.361460640542954,-1.8917652368545528,0.1642441153526306,-0.3361899554729461
1773257369650284800,0.747284912109375,1.783928074097633,0.6337856868103147,1.064496048053354,-1.9140151739120483,0.1733677983283996,-0.232634961605072
1773257369660311800,0.757311767578125,1.082956564503908,0.4124328001439571,-0.1100458903446793,-1.7902793884277344,0.1238639056682586,-0.0379882454872131
1773257369670337800,0.767337890625,0.3577805879801511,0.4572992390915751,-0.7295536070860922,-1.6386195421218872,0.1457067131996154,0.199540764093399
1773257369680364800,0.77736474609375,0.0443541055113077,0.3135714438974857,-0.2117828020274639,-1.5000877380371094,0.2962815761566162,0.4594075083732605
1773257369690390800,0.787390869140625,0.3945405851006507,-0.0833048906743526,0.5777824253637344,-1.280880570411682,0.3848569393157959,0.7384817004203796
1773257369700417800,0.797417724609375,0.3084866879791021,-1.2746908502370118,1.2817645880155264,-0.7832671403884888,-0.1254167258739471,0.9297779202461244
1773257369710443800,0.80744384765625,-1.2381079632490872,-2.8526959542512893,1.78018538043797,-0.2444230020046234,-0.6931300759315491,0.9768925309181212
1773257369720470800,0.817470703125,-0.6405091498464346,-1.2960676925256849,0.854787787277624,0.0508840158581733,-0.9559294581413268,0.8015425205230713
1773257369730496800,0.827496826171875,0.162102533057332,0.8179036523208022,0.2633160419205203,0.2118642628192901,-0.8470286130905151,0.5344657897949219
1773257369740523800,0.837523681640625,0.6838420956164598,0.7775526449710131,0.0480109475184232,0.4265401065349579,0.4101059436798095,0.1085802093148231
1773257369750549800,0.8475498046875,0.7756944498836994,-0.2882745055556297,-0.7287981125436723,0.5774514675140381,0.9148688912391664,-0.203565239906311
1773257369760576800,0.85757666015625,0.2293798335164785,-0.6831988292768597,-1.416462104535848,0.4163733124732971,0.8905541896820068,-0.51627516746521
1773257369770603800,0.867603759765625,-0.9379530502855776,-0.1435188286185264,-0.4799927169367671,0.2185328602790832,0.607368528842926,-0.749114453792572
1773257369780629800,0.877629638671875,-0.8527502170354128,-0.1768862606912851,-0.971964333219826,0.0856105014681816,0.5440310835838318,-0.842359721660614
1773257369790656800,0.88765673828125,0.2242448087155819,-0.1420221603199839,-1.14087070107311,0.0739002674818039,0.5100513100624084,-0.7886433005332947
1773257369800682800,0.897682861328125,0.3559539570748806,-0.0540109916508197,-1.14127621313408,0.1428314000368118,0.385972261428833,-0.6473977565765381
1773257369810709800,0.907709716796875,0.1574187591552734,0.1336614514708519,-1.381778767558932,0.2743963897228241,0.2327439039945602,-0.4385537505149841
1773257369820735700,0.91773583984375,0.0338338805407285,0.2419698504984378,-1.3564888434797524,0.4183927178382873,0.1312425881624221,-0.1596483290195465
1773257369830762800,0.9277626953125,0.3032914574235678,0.1280380586311221,-1.1847983978658914,0.4729198515415191,0.1014842018485069,0.1419080644845962
1773257369840788700,0.937788818359375,0.433942036640644,0.325950740738213,-1.05989432641156,0.4732500910758972,0.0751609876751899,0.4461806118488312
1773257369850815700,0.947815673828125,0.3684983813494443,0.344091669845581,-1.1547495888218282,0.4334993660449981,0.0157897472381591,0.6926019191741943
1773257369860841700,0.957841796875,0.1084884317696094,0.3544692714750767,-1.200572451711446,0.3251470625400543,-0.0027826065197587,0.8543910384178162
1773257369870868700,0.96786865234375,-0.0287736745417118,0.3142792999058961,-0.9865288651451468,0.2269743233919143,-0.014325832016766,0.9262396097183228
1773257369880894700,0.977894775390625,-0.0468798245966434,0.2432502456977963,-1.1810315196130423,0.2020135819911956,-0.0417715683579444,0.9281209111213684
1773257369890921700,0.987921630859375,-0.1170259584903717,0.1517746157884597,-1.635448846592754,0.2549284398555755,-0.0338214673101902,0.8606271147727966
1773257369900947700,0.99794775390625,-0.132422849586606,0.1164925822660327,-2.162099708199501,0.3318114876747131,0.0328971110284328,0.7679892778396606
1773257369910974700,1.007974609375,0.2089180602461099,0.0499140777260065,-2.2845428694330154,0.4199382960796356,0.1493376791477203,0.6814094185829163
1773257369921000700,1.018000732421875,0.5294669419407845,-0.1540077816680073,-2.2152274872750044,0.6732155680656433,0.3228077292442322,0.5860093832015991
1773257369931028200,1.0280283203125,0.6097048462599516,-0.3457742161050439,-3.429642440247536,0.9539017677307128,0.6023959517478943,0.5309861898422241
1773257369941054200,1.03805419921875,0.7387105808794499,-0.2781651994735002,-3.0342353014454244,1.1095733642578125,0.5102282166481018,0.6515099406242371
1773257369951081000,1.0480810546875,1.088639286315441,0.4068953320220113,-1.8732994252040984,0.851150631904602,0.3770205676555633,0.6938965320587158
1773257369961107000,1.05810693359375,0.6789198367834091,0.3482528811782598,-0.2233050071148201,0.4857697486877441,-0.176021859049797,0.7646353840827942
1773257369971134000,1.068134033203125,0.0738040718793869,0.2931754293397068,0.4459389100350439,0.4594386518001556,-0.7562673687934875,0.7842279672622681
1773257369981160000,1.078159912109375,0.032154549151659,0.1002057565927505,-1.1879615380719304,0.685998260974884,-1.0389269590377808,0.7380753755569458
1773257369991187200,1.088187255859375,0.6250514684736729,0.1137549739956855,-2.0506937815479933,0.836867094039917,-1.0557299852371216,0.6440654993057251
1773257370001213200,1.098213134765625,1.1539672062724828,0.4002770829260349,-0.9303558731548488,0.6890987157821655,-0.9954730272293092,0.4805202782154083
1773257370011240000,1.108239990234375,1.075097667697072,0.8372060264229774,1.1276466970365493,0.3796864449977875,-0.953809380531311,0.2748699188232422
1773257370021267000,1.118266845703125,0.8459282620608806,0.9516945753902196,1.954487762115896,0.1724616140127182,-0.92571222782135,0.0511729307472705
1773257370031293000,1.12829296875,0.580322684431076,0.6613532004326581,1.1552441674057394,0.1304797828197479,-0.7979415655136108,-0.1835068315267563
1773257370041320200,1.1383203125,0.4572212054193019,0.3798044960007071,0.0422224272448569,0.1296462118625641,-0.5572432279586792,-0.4048573076725006
1773257370051346200,1.14834619140625,0.4944119951725005,0.3754366561800241,-0.3003564999502152,0.0958923548460006,-0.2420491576194763,-0.6144631505012512
1773257370061373000,1.158373046875,0.4952034378111362,0.3785714470744132,0.0102943803254514,0.0155559703707695,0.1559400260448455,-0.7764291763305664
1773257370071399000,1.16839892578125,0.3377326562076806,0.2795274277374148,0.5143741483576596,-0.0965987592935562,0.2232135683298111,-0.8884257674217224
1773257370081426000,1.178426025390625,-0.1827875936895608,0.0855854028269648,0.0833061327833682,-0.1633511632680893,0.09599170088768,-0.8856374621391296
1773257370091452200,1.1884521484375,-0.4557540554761886,0.2022390208736062,0.3415954691156744,-0.1930694431066513,-0.2296606302261352,-0.788451611995697
1773257370101479200,1.198479248046875,-0.7406149531960486,0.0564925793334841,0.4785781739637255,-0.1800274103879928,-0.529982328414917,-0.5898008346557617
1773257370111505200,1.208505126953125,-0.6849918501734733,-0.1065378822237253,0.7406736976459622,-0.162243515253067,-0.754436731338501,-0.3253031373023987
1773257370121532000,1.218531982421875,-0.712178547784686,-0.2680816123545169,0.7615721818331629,-0.1575081497430801,-0.862253725528717,-0.0567044094204902
1773257370131558000,1.228557861328125,-0.60109133169353,-0.2607888249978423,0.6913955797359347,-0.172521561384201,-0.8254229426383972,0.1574375629425048
1773257370141585200,1.238585205078125,-0.6067173548817634,-0.1077151093095541,0.6248838568218053,-0.1843968629837036,-0.6785298585891724,0.2896366417407989
1773257370151611100,1.248611083984375,-0.7246364628195762,-0.1024193409889936,0.5935593287535011,-0.2027568817138672,-0.5501546859741211,0.331005334854126
1773257370161638100,1.25863818359375,-0.952312999549508,-0.2173480349391698,0.7311933371171355,-0.227086454629898,-0.4436975121498108,0.2933604717254638
1773257370171664000,1.268663818359375,-1.0427946499854326,-0.3370663012534379,0.9594697394363582,-0.2404699474573135,-0.3478377759456634,0.2063166052103042
1773257370181691000,1.27869091796875,-0.9445335977196692,-0.4564595733970403,1.1095989261053505,-0.2434891760349273,-0.2778666615486145,0.0921229198575019
1773257370191716900,1.288716796875,-0.9243886353135108,-0.5291109681099653,1.304216658320278,-0.2369021475315094,-0.1944790780544281,-0.0413354486227035
1773257370201744100,1.298744140625,-0.9429168101727962,-0.4810401801630854,1.463449335029721,-0.2438604533672332,-0.1645310223102569,-0.1219764947891235
1773257370211770000,1.30877001953125,-1.087164537587762,-0.2363163547813892,1.58857501334548,-0.2889509797096252,-0.1608175188302993,-0.1403768062591552
1773257370221796900,1.318796875,-1.151762389704585,-0.1555897901624441,1.830234044329077,-0.3528407514095306,-0.1547345966100692,-0.0971217453479766
1773257370231822800,1.32882275390625,-1.0840209788650277,-0.3019403350755572,1.9397611714966596,-0.3812977075576782,-0.126073732972145,-0.0103324707597494
1773257370241849900,1.338849853515625,-1.0884645142704248,-0.4911553314641118,1.8471936546973884,-0.3652447164058685,-0.1043881550431251,0.0967170149087905
1773257370251876000,1.3488759765625,-1.1510814217031002,-0.5938312775626778,1.569394365926832,-0.114961102604866,-0.4825787544250488,0.2551659941673279
1773257370261903000,1.358903076171875,-1.378843883150816,-0.1036176108628511,0.3770271402418613,0.1517278403043747,-0.8737595081329346,0.3398593068122864
1773257370271929000,1.36892919921875,-1.519761589360237,-0.2367921555995941,0.3230874602615833,0.0893875062465667,-0.8612802624702454,0.3518960773944855
1773257370281955800,1.378955810546875,-1.7460060474604366,-1.8586118514209984,2.228838371737301,-0.0059651103802025,-0.5252508521080017,0.4150513410568237
1773257370291981800,1.38898193359375,-0.7034983977228403,-1.4133116776809096,2.077560453424603,-0.0445458032190799,-0.2560450434684753,0.4068355560302734
1773257370302009000,1.399009033203125,-0.8537070793688297,-0.6290753171622753,0.8322790914148092,-0.0587471090257167,-0.1609084159135818,0.2702260613441467
1773257370312036000,1.4090361328125,-1.6281062287449837,-0.7280763741403817,0.6949623323068023,-0.0974152535200119,-0.0608241856098175,0.102173127233982
1773257370322062000,1.41906201171875,-1.357683021700382,-0.9566542436242104,1.1491609750345348,-0.1418141275644302,0.0094667542725801,-0.0407693833112716
1773257370332088800,1.4290888671875,-1.1345300998747347,-1.029844859780371,1.117855882319063,-0.194409891963005,0.0084028784185647,-0.1611149758100509
1773257370342114800,1.43911474609375,-1.2586603374123573,-0.9248971693575382,1.071088578186184,-0.2310744225978851,0.0664864182472229,-0.2342333942651748
1773257370352142000,1.44914208984375,-0.996946506524086,-0.8315405480071901,0.9475013614840804,-0.2416284680366516,0.0217203386127948,-0.2161613255739212
1773257370362168000,1.45916796875,-0.8239601758807897,-0.7756050180345774,0.7623536145344376,-0.2179201990365982,-0.0030965935438871,-0.1987924575805664
1773257370372195000,1.469195068359375,-0.8727461263597011,-0.537211272457242,0.625664631935954,-0.1443190276622772,0.1725497394800186,-0.2120466083288192
1773257370382221000,1.479220947265625,-0.9258148687243462,-0.2608499075353145,0.2068454917557537,-0.0777064487338066,0.2159592658281326,-0.1848732978105545
1773257370392247800,1.489247802734375,-0.8762474124789238,8.70937615633e-05,0.0524760371685028,0.0033481908030807,0.3207361698150635,-0.1502027064561844
1773257370402273800,1.499273681640625,-0.7973264359772205,-0.0172118315637111,0.0532687949813902,0.1208202242851257,0.3426840603351593,-0.1201870068907737
1773257370412301000,1.509301025390625,-0.9726625446170568,-0.0606292407467961,-0.0963010042391717,0.185374453663826,0.3089901506900787,-0.0800841078162193
1773257370422327000,1.5193271484375,-1.0425602567076682,0.1467360370993614,-0.2748474532276392,0.1545235961675644,0.2655827403068542,-0.0012239092029631
1773257370432354000,1.52935400390625,-1.028396122276783,0.2709261881306767,-0.3042953737691045,0.0652653947472572,0.2489928156137466,0.1169466599822044
1773257370442380000,1.539380126953125,-0.816829593348503,0.2758639367938041,-0.347115839972347,-0.0219834949821233,0.2799656391143799,0.2600478827953338
1773257370452407000,1.549406982421875,-0.5595020147204399,0.2835410472929477,-0.4470712750658392,-0.0773403421044349,0.3276575207710266,0.3752767741680145
1773257370462433000,1.55943310546875,-0.4325859458565712,0.3457151793941855,-0.5771000691227615,-0.0926753580570221,0.370173305273056,0.4442049562931061
1773257370472460000,1.5694599609375,-0.3446335216373205,0.450952792674303,-0.6412732660867273,-0.0876486375927925,0.4073543548583984,0.4710654318332672
1773257370482486000,1.579486083984375,-0.1869359455406665,0.5416428251639008,-0.6277899535268545,-0.0679764002561569,0.4184640049934387,0.4743134081363678
1773257370492513000,1.589512939453125,-0.051093642899394,0.6337462315827608,-0.5401240911640226,-0.0449548959732055,0.4079211354255676,0.4694255888462066
1773257370502539000,1.5995390625,0.1009896004468202,0.7812655280143022,-0.4999718212567269,-0.1040762737393379,0.4074952900409698,0.4633863270282745
1773257370512566000,1.60956591796875,0.2745902635961771,1.3531921400219202,-0.4885323625493794,-0.1815449297428131,0.4194734692573547,0.4747031033039093
1773257370522592000,1.619592041015625,0.3791600606173276,1.4971978753745554,-0.5556771957352757,-0.1471656560897827,0.4372535347938537,0.5353052020072937
1773257370532619000,1.629618896484375,0.4859773443043231,0.758072868475318,-0.5906594425935298,-0.1038427501916885,0.4794137179851532,0.5985487699508667
1773257370542646000,1.63964599609375,0.6138286481916904,0.673821052339673,-0.4175230359550565,-0.0702554956078529,0.50996333360672,0.6408216953277588
1773257370552672000,1.649672119140625,0.629840456315875,0.8584609958976507,-0.231937701305747,-0.044388860464096,0.514557957649231,0.6580110788345337
1773257370562699000,1.659698974609375,0.6664028850376605,0.9075503132373094,-0.1377742205519229,-0.0009337967494502,0.4743514358997345,0.6452364921569824
1773257370572725000,1.66972509765625,0.6224503460645675,0.7801315555483103,0.0265147166337817,0.0461207255721092,0.4242154955863952,0.6200007200241089
1773257370582752000,1.679751953125,0.6891004545360803,0.7449012522131204,0.1757395748741924,0.0699541568756103,0.3609393239021301,0.5881783366203308
1773257370592778000,1.689778076171875,0.7206406711816787,0.8704273280233145,0.2263968721829354,0.0772284567356109,0.2995662093162536,0.5709043741226196
1773257370602805000,1.699804931640625,0.7780717004090547,0.8722089507430791,0.274657483613491,0.0755181759595871,0.2512924373149872,0.5733259916305542
1773257370612831200,1.709831298828125,0.8786030356943607,0.8662462429463863,0.3084851536091417,0.0883659124374389,0.213361456990242,0.5802692770957947
1773257370622858000,1.71985791015625,0.9025614189088343,0.9195826963365076,0.2528366969496011,0.1029573753476142,0.204788476228714,0.5799933671951294
1773257370632884000,1.729884033203125,0.9803840787798166,0.9076771544873714,0.2191023312605917,0.1163530722260475,0.2006404548883438,0.5581788420677185
1773257370642911000,1.739910888671875,1.0278063396900892,0.8076555222898721,0.2676363528050482,0.1100325882434845,0.186087355017662,0.5064234733581543
1773257370652937000,1.74993701171875,0.981045173037052,0.731166156849265,0.3018656624041497,0.0874226689338684,0.1863925158977508,0.4322867393493652
1773257370662964200,1.759964111328125,0.9965911172151564,0.6684931353151797,0.2837500138685107,0.0572722181677818,0.2020047605037689,0.3413440287113189
1773257370672990200,1.769990234375,0.9543775308638812,0.5751309610068798,0.2543188983313739,0.0306621398776769,0.2219902276992797,0.2377883940935135
1773257370683017000,1.780016845703125,0.9428267938017844,0.4048071275711059,0.2088661839284002,0.0070007536560297,0.2237662971019745,0.1260022073984146
1773257370693043000,1.79004296875,0.8617015852540731,0.3322287980943918,0.1858200201880186,-0.0128427287563681,0.1966256201267242,0.0021116454154253
1773257370703070000,1.800070068359375,0.6595400135308503,0.3224830646276473,0.1689754145015031,-0.0214993339031934,0.1515185832977295,-0.124727264046669
1773257370713096000,1.810095947265625,0.4746475565165281,0.2401198387175798,0.1252615065898746,-0.0315255261957645,0.0913085639476776,-0.2321464568376541
1773257370723123200,1.820123291015625,0.255503870332241,0.1608557478666305,0.1101835452497005,-0.0324712134897708,0.0224996767938137,-0.3161252439022064
1773257370733149000,1.83014892578125,0.0241179576903581,0.1222825638443231,0.0229131119452416,-0.0372370108962059,-0.025344468653202,-0.3627703487873077
1773257370743176000,1.840176025390625,-0.1819920593976974,0.1435924783766269,-0.1139475739583373,-0.0427982248365879,-0.0661283880472183,-0.3774150609970093
1773257370753202000,1.850201904296875,-0.4377899442404508,0.1884019264400005,-0.222338025246188,-0.0327707827091217,-0.087807297706604,-0.3661144375801086
1773257370763229000,1.86022900390625,-0.6940677215546369,0.3221510561943054,-0.3661411506988108,-0.0148093588650226,-0.0858301669359207,-0.3340036571025848
1773257370773255200,1.870255126953125,-0.8844201975405216,0.406461324518919,-0.4511975612156093,-0.0069424901157617,-0.0724878758192062,-0.2675895392894745
1773257370783282000,1.880281982421875,-1.019552306085825,0.4149064967811107,-0.4902915542416274,-0.01838955655694,-0.0348398387432098,-0.1696810871362686
1773257370793308000,1.890307861328125,-1.0344506000101563,0.5036065244972705,-0.5320206450115889,-0.0459485985338687,0.0370263457298278,-0.0599899888038635
1773257370803335000,1.9003349609375,-0.9911749373853206,0.6166781924039125,-0.546750669696927,-0.0677260607481002,0.1148369908332824,0.0530851669609546
1773257370813362200,1.910362060546875,-0.9162082514673472,0.6360106693834066,-0.4720717877443879,-0.0727483630180358,0.170649766921997,0.1584573239088058
1773257370823388200,1.92038818359375,-0.8028829010605811,0.6404208870410919,-0.3530445724342018,-0.0677349641919136,0.1778211295604705,0.2414912283420562
1773257370833415000,1.930414794921875,-0.7102320898920297,0.6329658948600292,-0.1878956574182957,-0.0580319315195083,0.1455920189619064,0.3005785942077636
1773257370843441000,1.94044091796875,-0.5541781893491745,0.5944990938216448,-0.0121276601672172,-0.0425139591097831,0.0854224115610122,0.3345813155174255
1773257370853468000,1.950468017578125,-0.4007563908755779,0.5863198790192604,0.1632441043078899,-0.0351222790777683,0.0025357082486152,0.3357221782207489
1773257370863494000,1.960493896484375,-0.3164022834092378,0.5945207211315632,0.3114662883117794,-0.0275027081370353,-0.0737348273396492,0.3180105686187744
1773257370873521200,1.970521240234375,-0.2177168682515621,0.603418897858262,0.372847735665366,-0.0232441872358322,-0.1091282218694686,0.2911179959774017
1773257370883547100,1.980547119140625,-0.0562462033569812,0.6090262163460254,0.3288025499727576,-0.0201091151684522,-0.0989530757069587,0.2558526992797851
1773257370893574000,1.990573974609375,0.0352928471773862,0.6332277606666088,0.258197054938972,-0.0128122894093394,-0.0689041391015052,0.2109660357236862
1773257370903599900,2.000599853515625,0.1170084228336811,0.5825789389252662,0.1814553221724927,-0.0069083273410797,-0.0507807955145835,0.1633476465940475
1773257370913627000,2.010626953125,0.1751028844058513,0.5051151754945516,0.1789931698426604,-0.0035374141298234,-0.0601631365716457,0.1218735128641128
1773257370923653000,2.020653076171875,0.2079623669564723,0.4123468754261732,0.2080534793060272,0.0003273651236668,-0.1012122929096221,0.0915773957967758
1773257370933679600,2.0306796875,0.2667325358331203,0.3299135068893432,0.2297046815566718,0.0007854659343138,-0.1767855137586593,0.0601549781858921
1773257370943705600,2.04070556640625,0.2414911270707845,0.2808732893884181,0.2595271344989538,-0.0067896288819611,-0.2686680555343628,0.0316498316824436
1773257370953732600,2.050732666015625,0.2027835030138492,0.2808715358227491,0.2143647813446819,-0.0106692090630531,-0.3221414983272552,0.0152947017922997
1773257370963758600,2.060758544921875,0.2544149060517549,0.2340565931558609,0.0876380245078355,-0.022056620568037,-0.3499116003513336,0.0039917137473821
1773257370973785600,2.07078564453125,0.2497901688605547,0.1882476126611232,0.0573061607386916,-0.0493127442896366,-0.3757353723049164,-0.0138999745249748
1773257370983811600,2.0808115234375,0.1241045185744762,0.2425286534249782,0.0630958500560373,-0.0761528834700584,-0.3922078013420105,-0.0317045375704765
1773257370993838600,2.090838623046875,-0.0152846628934144,0.2662666718870401,-0.0197731334190815,-0.1084754690527916,-0.3876944780349731,-0.0315690673887729
1773257371003864600,2.100864501953125,-0.0551502248138189,0.2665928351014852,-0.043188349667564,-0.1409673690795898,-0.3623984456062317,-0.0282726064324378
1773257371013891600,2.1108916015625,-0.0950707317918539,0.2917377977520227,-0.0259366975501179,-0.1700791418552398,-0.3356781899929046,-0.029751282185316
1773257371023917600,2.12091748046875,-0.1492448050498962,0.3445955277144908,0.0145673084042966,-0.190481349825859,-0.3136945962905884,-0.051921296864748
1773257371033944600,2.130944580078125,-0.1399438927412033,0.3661912734508514,0.0648837563861161,-0.208830714225769,-0.2890718579292297,-0.0694486647844314
1773257371043971600,2.1409716796875,-0.0753454561024904,0.3527355795502662,0.153373429287225,-0.2293764650821685,-0.2415664047002792,-0.0935113877058029
1773257371053997800,2.150997802734375,0.0148293203413486,0.43432256039083,0.2275647469185292,-0.2406524568796157,-0.1641791760921478,-0.1049277931451797
1773257371064024600,2.161024658203125,0.0785854609370231,0.4419651840984821,0.147967624720931,-0.2593869864940643,-0.0696612000465393,-0.1017586439847946
1773257371074050600,2.171050537109375,0.0873936212927103,0.4387123197823762,0.1988105077296495,-0.2748223841190338,0.0496303029358387,-0.0804830342531204
1773257371084077600,2.18107763671875,0.071136898496747,0.444261186081171,0.2573565855268389,-0.2465747892856598,0.214312195777893,-0.044949535280466
1773257371094103600,2.191103515625,0.0051022915750741,0.3764911336690187,0.1909543874017894,-0.2096657454967498,0.3863407969474792,0.034510463476181
1773257371104130800,2.201130859375,0.0528489621341228,0.4374485834568739,0.2018586432538926,-0.1818000227212906,0.4778291583061218,0.1143096834421157
1773257371114156800,2.21115673828125,0.1045779803276062,0.4645154540807008,0.4599783951729536,-0.150494709610939,0.4152845740318298,0.1725902259349823
1773257371124183600,2.22118359375,0.1670464192003011,0.3212047152549028,0.846898422267288,-0.1184339821338653,0.1521549373865127,0.2368568181991577
1773257371134209500,2.23120947265625,0.4024965125411748,0.1822919191271066,1.2196372907306998,-0.0742421746253967,-0.2560422718524933,0.3251373469829559
1773257371144236500,2.241236572265625,0.7577525504797696,-0.0097995094805955,1.838837768153846,0.0041564949788153,-0.6267140507698059,0.3617094755172729
1773257371154262500,2.251262451171875,0.8495973059624433,0.3625082010239362,1.8103157302856443,0.1170780211687088,-0.795589804649353,0.3660272359848022
1773257371164289800,2.261289794921875,0.922051132276654,0.431517439842224,1.3004323174759744,0.2088646739721298,-0.7633146643638611,0.3364549577236175
1773257371174315800,2.271315673828125,0.9248311183840036,0.4767833995014429,0.8764708459712565,0.2155366837978363,-0.5600923299789429,0.2801064550876617
1773257371184342500,2.281342529296875,0.6247334885656833,0.6468763467907905,0.60224539709948,0.1702048927545547,-0.2706101834774017,0.1618091017007827
1773257371194368500,2.291368408203125,0.1247936698824167,0.4361526984274387,0.4263529697511345,0.1248533502221107,0.0325212329626083,0.0039995228871703
1773257371204395500,2.3013955078125,-0.0659440060287714,0.1261661272794008,0.3484322563331574,0.0768096596002578,0.2601511776447296,-0.1945311427116394
1773257371214421800,2.311421875,-0.1331447341203689,0.1851993310064077,0.3272563434440642,0.0160354878753423,0.2744047343730926,-0.4122902750968933
1773257371224448800,2.32144873046875,-0.1508218451082706,-0.0088654435008764,0.5579965785935521,-0.0339363329112529,0.139830932021141,-0.6244137287139893
1773257371234474800,2.331474853515625,0.0154524206757545,-0.1727969455510377,0.6454505517713726,-0.066589206457138,-0.0528081655502319,-0.7723807692527771
1773257371244501500,2.34150146484375,0.022754852643609,-0.200635385069251,0.5062137113209814,-0.0760516822338104,-0.1829786747694015,-0.8292802572250366
1773257371254528500,2.351528564453125,0.0922621041119098,-0.0985322704225778,0.2327116813529282,-0.0515065789222717,-0.229467436671257,-0.795845091342926
1773257371264554800,2.3615546875,-0.0065711950838565,0.0485129787564277,-0.1195825841706246,0.0247865952551364,-0.1945464611053466,-0.6621949076652527
1773257371274581800,2.371581787109375,-0.0277870015919208,0.0786836606144905,-0.5397706015512347,0.1075340583920478,-0.1915589123964309,-0.4529322981834411
1773257371284607700,2.381607666015625,-0.0563420649468898,0.0897387231141328,-0.6150283063050359,0.1424526274204254,-0.1995835602283477,-0.2223038971424102
1773257371294634500,2.391634521484375,-0.0858884774267673,0.2251075630247593,-0.5292478192973882,0.2101341187953949,-0.1607101112604141,-0.0209270771592855
1773257371304660500,2.401660400390625,-0.2035837134808301,0.020662264278531,-0.6013956484023482,0.2712603211402893,-0.1183219105005264,0.1170401200652122
1773257371314687700,2.411687744140625,-0.4362579123675822,0.2903121488630771,-0.7257077453128993,0.2933758497238159,-0.0665304660797119,0.187534213066101
1773257371324713700,2.421713623046875,-0.5343985531240701,0.3229296393513679,-0.6382387937616556,0.3127133250236511,-0.0186130087822675,0.2025187462568283
1773257371334740700,2.43174072265625,-0.6243956349134445,0.1295166067510843,-0.6117041303183883,0.300470620393753,-0.0450183562934398,0.1832093000411987
1773257371344766700,2.4417666015625,-0.6742448307096958,0.183113756904006,-0.6615829906005412,0.234941154718399,-0.1479761749505996,0.1790164113044738
1773257371354793500,2.45179345703125,-0.5269581739902496,0.0130249012678861,-0.5402463293042034,0.1750537902116775,-0.2298278212547302,0.1828954219818115
1773257371364819500,2.4618193359375,-0.3835603414028882,-0.1056681136518716,-0.6193940272338688,0.1514938622713089,-0.2465817779302597,0.1542581915855407
1773257371374846700,2.4718466796875,-0.3078986589580774,0.0650187078773975,-0.854983236784488,0.1377945244312286,-0.2056418806314468,0.1056684032082557
1773257371384872700,2.481872802734375,-0.2274327911019325,0.2314326743930578,-0.9262726954944432,0.1178168281912803,-0.1643399894237518,0.0473560877144336
1773257371394899700,2.491899658203125,-0.1184481002479791,0.1576151585102081,-0.970351345065236,0.096087671816349,-0.1006544679403305,-0.0148184932768344
1773257371404925700,2.50192578125,0.0688087478101253,0.1415823075979947,-0.914630919148028,0.0924561843276023,-0.0682025179266929,-0.0780882760882377
1773257371414952700,2.51195263671875,0.1277577803850174,0.0189554603606462,-0.9589689503073692,0.0630843415856361,-0.0630292072892189,-0.12058075517416
1773257371424978700,2.521978759765625,0.2442716977000236,0.083660279983282,-0.8352576688341796,0.0041477857157588,-0.0442496612668037,-0.1465801298618316
1773257371435005700,2.532005615234375,0.2207715796470642,0.3095715606063604,-0.7486823781870305,-0.0311772637069225,-0.0405362024903297,-0.1603529304265976
1773257371445031700,2.54203173828125,0.2663379835575818,0.2373217324316501,-0.7115186225712299,-0.0607657805085182,-0.057535957545042,-0.1604402810335159
1773257371455058700,2.55205859375,0.2912450457990169,0.3002367460280656,-0.735634826695919,-0.0632844790816307,-0.0729294121265411,-0.1438219547271728
1773257371465084700,2.562084716796875,0.3183212687730789,0.2867027261942625,-0.7706704842418431,-0.0515692345798015,-0.0888151675462722,-0.1338406950235366
1773257371475111700,2.572111572265625,0.3214963916778564,0.3027384997159242,-0.7429816823273897,-0.0183480493724346,-0.114371508359909,-0.1417207717895507
1773257371485138700,2.582138671875,0.2729594475239515,0.3340788098752498,-0.7639134111970662,0.0232526585459709,-0.1286313980817794,-0.1662863045930862
1773257371495164700,2.59216455078125,0.2680968099236488,0.3466372626751661,-0.7392296363174915,0.0426132269203662,-0.1432406306266784,-0.1871476024389267
1773257371505191700,2.602191650390625,0.2242816335946321,0.3649444882601499,-0.7062862748757004,0.0439919456839561,-0.1323600262403488,-0.2031571865081787
1773257371515217700,2.6122177734375,0.2543973703950643,0.3687789518564939,-0.751351159004867,0.0574576891958713,-0.0692425742745399,-0.2355814427137375
1773257371525244700,2.62224462890625,0.1919178256064653,0.4311012602567672,-0.8711046427629887,0.0794404819607734,0.0193634591996669,-0.2743027508258819
1773257371535270700,2.632270751953125,0.0811924285650253,0.3682207334518432,-0.9014011429578064,0.0712361186742782,0.0967542231082916,-0.3022849559783935
1773257371545297700,2.642297607421875,0.0091840079307556,0.3778589148908853,-0.8357837385348975,0.0382994711399078,0.1869688034057617,-0.3107548952102661
1773257371555323600,2.65232373046875,0.0131271925985813,0.2654617852449417,-0.8932330340713261,-0.003423169022426,0.2204688042402267,-0.2959658801555633
1773257371565350700,2.6623505859375,-0.0143365683883428,0.10332125826478,-0.8983271423399448,-0.0431974790990352,0.2056496441364288,-0.2515603303909302
1773257371575376600,2.672376708984375,0.0962812766253948,0.1761187834501266,-0.8934649431310594,-0.0657221898436546,0.1000994741916656,-0.1822134852409362
1773257371585403600,2.682403564453125,0.1932002666324377,0.0152010762631893,-0.7788060060329735,-0.0752152949571609,0.0210006609559059,-0.107179194688797
1773257371595429600,2.6924296875,0.3219014653474092,0.0949555809795856,-0.8068208250313996,-0.0564483739435672,0.0248647518455982,-0.0648832023143768
1773257371605456600,2.70245654296875,0.3091016050070524,0.0754658676117658,-1.0185172639496625,-0.0425251014530658,0.0940060019493103,-0.0615691691637039
1773257371615482600,2.712482666015625,0.2705827815204858,0.0831388864576816,-1.1369836305066945,-0.0419019237160682,0.2174617648124694,-0.0932459086179733
1773257371625509600,2.722509521484375,0.3107394353419542,0.0868377409756183,-1.2419964951202274,-0.0313422232866287,0.3598394095897674,-0.1634782552719116
1773257371635535600,2.73253564453125,0.3617231881260871,-0.005773907226324,-1.2745045338846743,-0.0300099607557058,0.4571812450885772,-0.2540469765663147
1773257371645562600,2.742562744140625,0.3542962529957294,-0.1162450372457504,-1.2123449417654424,-0.036405012011528,0.4797472953796386,-0.3323055803775787
1773257371655588600,2.752588623046875,0.4812672669172286,-0.1976946554422378,-1.281814710767567,-0.0454821661114692,0.4111897051334381,-0.3802941143512726
1773257371665615600,2.76261572265625,0.6533592790693045,-0.4855664254158735,-1.0586066977538169,-0.0456163883209228,0.3388734459877014,-0.4396479725837707
1773257371675642600,2.772642578125,0.6332616629362106,-0.4329512720376253,-1.026474360433966,0.0017389146378263,0.3711623549461365,-0.4916035830974579
1773257371685668600,2.782668701171875,0.602439823693037,-0.3898305077135562,-1.3416010709494353,0.0193200390785932,0.4062460660934448,-0.5077607035636902
1773257371695695600,2.792695556640625,0.5447276394367218,-0.4408212747603655,-1.3004635893970726,0.0024320939555764,0.4525189101696014,-0.4691353142261505
1773257371705721600,2.8027216796875,0.5472288086026906,-0.3319885595977306,-1.4432508888706563,-0.0052974647842347,0.5132203102111816,-0.3870468437671661
1773257371715748600,2.81274853515625,0.6005681846022606,-0.3518377539277076,-1.5179435801528394,0.0309428740292787,0.5694809556007385,-0.3029417395591736
1773257371725774600,2.822774658203125,0.6488286499023437,-0.2212707613408565,-1.4842017618097365,0.0847280770540237,0.5592402815818787,-0.2260610908269882
1773257371735801600,2.832801513671875,0.670033350494504,-0.1880520900890231,-1.3373504277676342,0.1156739294528961,0.4891703128814697,-0.1269382387399673
1773257371745827600,2.84282763671875,0.7894237000286579,-0.2395546060502529,-1.191428483530134,0.1463335752487182,0.3799775242805481,-0.0484689958393573
1773257371755854600,2.8528544921875,0.8022749982953071,-0.2455085460186004,-1.2089887632053344,0.1814111620187759,0.274168312549591,-0.0020295698195695
1773257371765880600,2.862880615234375,0.8882850562751292,-0.1895201168149709,-1.0935826610017567,0.225210040807724,0.1678392440080642,-0.0311341919004917
1773257371775907800,2.872907958984375,0.7499445070773363,-0.6494543805852532,-0.717754155959934,0.2225316762924194,0.1478093862533569,-0.1060912385582923
1773257371785933800,2.882933837890625,0.6316735169619322,-0.2581964704170822,-0.9495784600190816,0.1817741245031356,0.2466818988323211,-0.2054111659526825
1773257371795960600,2.892960693359375,0.694548783069849,-0.1397641522601246,-1.0360689949922264,0.1656975001096725,0.4221676290035248,-0.3325451612472534
1773257371805986600,2.902986572265625,0.4636205510675907,-0.0412795203715562,-1.3348247086822986,0.1710145026445388,0.6576682925224304,-0.4255829751491546
1773257371816013600,2.913013671875,0.26632278598845,0.005216273343563,-1.479069221226871,0.1535984426736831,0.7657079696655273,-0.4364444017410278
1773257371826039600,2.92303955078125,0.1447223591893911,-0.0680728347510099,-1.276032912495732,0.1087369695305824,0.6220757365226746,-0.3761744201183319
1773257371836066800,2.93306689453125,0.0752092625021934,-0.1713289188250899,-0.883340439479798,0.0773278623819351,0.4067285656929016,-0.298857569694519
1773257371846093600,2.943093505859375,-0.0732879390507936,-0.1934901894897222,-0.7785854951500892,0.0584170259535312,0.2523775994777679,-0.2745722234249115
1773257371856119600,2.95311962890625,-0.2295844161778688,-0.1968918146267533,-0.8243167342334985,0.0798736959695816,0.2045712321996688,-0.3338479399681091
1773257371866146600,2.963146484375,-0.3830979845881462,-0.1748515399932861,-0.9099774673189968,0.1634716540575027,0.2200146317481994,-0.4489095509052276
1773257371876172500,2.973172607421875,-0.6265484290331602,-0.1818053046539425,-1.1006937351159751,0.2705950438976288,0.2946056425571441,-0.5752183794975281
1773257371886199800,2.98319970703125,-0.6848445506572723,-0.2586997437641024,-1.1429087097067383,0.3918799161911011,0.3772973120212555,-0.698353111743927
1773257371896225800,2.993225830078125,-0.5709913769841194,-0.3509998417988419,-1.1920965920500457,0.4809319674968719,0.3694988787174225,-0.7564994096755981
1773257371906252500,3.00325244140625,-0.4345288966178894,-0.4255512249141931,-1.0837746759537608,0.491161435842514,0.2655895054340362,-0.7199587225914001
1773257371916278500,3.013278564453125,-0.2289893728941678,-0.125731242993474,-1.015007063871622,0.4936367571353912,0.1596321314573288,-0.6373623609542847
1773257371926305500,3.023305419921875,-0.0211959327638149,0.0075499769881367,-0.9195836461845784,0.5504171848297119,0.1052621006965637,-0.5702896118164062
1773257371936332300,3.033332275390625,0.0335725992560386,-0.0146884505659341,-0.8425980947248637,0.6611303687095642,0.0564961992204189,-0.541251540184021
1773257371946359000,3.043359130859375,-0.0869347716093063,-0.0019701310291886,-0.8116086438298225,0.7865042686462402,-0.0504323802888393,-0.5095982551574707
1773257371956385000,3.053385009765625,-0.1158767884552478,0.0142544430628418,-0.790916422804445,0.8839781880378723,-0.2176969796419143,-0.4655039310455322
1773257371966412000,3.063412109375,-0.0165413849562406,0.0635451281934976,-0.700436672064662,0.9305171966552734,-0.376025915145874,-0.4177286922931671
1773257371976438300,3.073438232421875,0.0848497820287942,0.1057464395850896,-0.7482705094505101,0.9280548691749572,-0.456938087940216,-0.3798861801624298
1773257371986465300,3.08346533203125,0.138224813863635,0.2042564981758594,-0.9439267909329384,0.8816123008728027,-0.4466628134250641,-0.3809892535209656
1773257371996491300,3.0934912109375,0.1794552343964576,0.1840431467086076,-1.036410648036748,0.8144232630729675,-0.4291211068630218,-0.4458277225494385
1773257372006518000,3.10351806640625,0.1506073255747556,0.0293725172176957,-0.972311904548481,0.7540752291679382,-0.3705483675003052,-0.5667471885681152
1773257372016545300,3.113545166015625,0.2644195827156305,-0.1687362719833851,-0.7378938576690852,0.6917098164558411,-0.308003157377243,-0.6886295080184937
1773257372026571300,3.1235712890625,0.3744733641058206,-0.3990332203447818,-0.4711229625869542,0.6190716028213501,-0.304010272026062,-0.7845177054405212
1773257372036598300,3.133598388671875,0.2948743422120809,-0.336023806463182,-0.436509768236801,0.5358355045318604,-0.3209415674209595,-0.8338073492050171
1773257372046624300,3.143624267578125,0.25599077706635,-0.1394067171245813,-0.3242445213422179,0.4562628865242004,-0.3213234543800354,-0.8191027045249939
1773257372056651000,3.153651123046875,0.2920142766058445,-0.1039855673924088,-0.2840500197283923,0.3689041137695312,-0.3138106167316437,-0.760623037815094
1773257372066677000,3.163677001953125,0.1638268726319074,-0.0955140916451811,-0.3682074355788529,0.2821236848831177,-0.3037726283073425,-0.649959921836853
1773257372076704300,3.173704345703125,0.1155681608974933,-0.2240641914516687,-0.285660085273534,0.2014789134263992,-0.2894391417503357,-0.5326461791992188
1773257372086730200,3.183730224609375,-0.0049374564021825,-0.2510816699758172,-0.3111372024878859,0.1251615136861801,-0.3172199130058288,-0.4348337948322296
1773257372096757200,3.19375732421875,-0.2496691728293895,-0.1426525671780109,-0.276244752804935,0.0644651055335998,-0.3622929453849792,-0.368273913860321
1773257372106783200,3.203783203125,-0.2414870354175567,-0.0200680977776646,-0.136762632356584,0.0328621752560138,-0.4531480073928833,-0.3336616158485412
1773257372116810000,3.21381005859375,-0.0937356837958097,0.0970338485583662,0.0766499628297984,0.006167865358293,-0.635809063911438,-0.3354876041412353
1773257372126836000,3.2238359375,0.0680780954480171,0.1371297121033072,0.303182736352086,-0.0189667828381061,-0.9134140014648438,-0.3638366758823395
1773257372136863200,3.23386328125,0.2996341039597988,0.1354442432343959,0.4270627985209226,-0.0531203486025333,-1.235517978668213,-0.4180916845798492
1773257372146889200,3.24388916015625,0.541107110852003,0.1598933325752616,0.5260732078492641,-0.1090757548809051,-1.508135199546814,-0.4993002712726593
1773257372156916200,3.253916259765625,0.7061252390950917,0.0977332289993763,0.5097733765639364,-0.1555701643228531,-1.5045157670974731,-0.565564751625061
1773257372166942200,3.263942138671875,0.988427099981904,0.0393055899500846,0.1501003989659249,-0.1925910413265228,-1.2405778169631958,-0.5179855227470398
1773257372176969200,3.27396923828125,1.9193004211395976,0.1482952492401003,-0.2347052663229406,-0.2430773377418518,-0.7590937614440918,-0.3563640713691711
1773257372186995200,3.2839951171875,3.0762738234907387,0.1314075350642204,-0.17572072404325,-0.3172091245651245,-0.359351634979248,-0.1834138333797454
1773257372197022200,3.294022216796875,3.0849837841689585,0.2415177228167652,-0.0092797233901917,-0.3901808857917785,-0.1811089664697647,-0.0513519532978534
1773257372207049200,3.30404931640625,2.800350849986076,0.4118760430440306,0.0902444806791842,-0.4691414833068847,-0.1622750908136367,0.01565264724195
1773257372217075200,3.3140751953125,2.554624861824512,0.5482186964228749,0.3320528570055961,-0.556908130645752,-0.2344902902841568,0.0366667211055755
1773257372227102200,3.324102294921875,2.4926082583725453,0.5923132742151618,0.7551917600810527,-0.6210969686508179,-0.3333252668380737,0.0378094837069511
1773257372237128200,3.334128173828125,2.4118793556660414,0.4636109064564108,1.0534950538285075,-0.6225544810295105,-0.3456458449363708,0.0276834350079298
1773257372247155200,3.3441552734375,2.5166157414257526,0.133681617476046,1.132762651810795,-0.5652403235435486,-0.276409238576889,0.0059381928294897
1773257372257181200,3.35418115234375,2.556552615016699,-0.0546051581516861,1.137055965090543,-0.4567891359329223,-0.233536958694458,-0.0632013082504272
1773257372267208200,3.364208251953125,2.091464329484105,-0.0203343474984169,0.997659769359976,-0.3294956386089325,-0.2577134072780609,-0.1890931874513626
1773257372277234200,3.374234130859375,1.6102993538975714,0.0536900891333818,0.8592362180538475,-0.2113916277885437,-0.2745652198791504,-0.3392693102359772
1773257372287261200,3.38426123046875,1.573406670308113,0.0469391535684466,0.8366758650690317,-0.1210108622908592,-0.2287234365940094,-0.4728739857673645
1773257372297287200,3.394287109375,1.8492501488357784,0.0634843379169702,0.9315309082835912,-0.0684246942400932,-0.1249286606907844,-0.5934019684791565
1773257372307314200,3.404314208984375,2.1525433598250148,0.1988610688731074,0.984906963031739,-0.0370657034218311,0.0247047804296016,-0.6686549186706543
1773257372317340200,3.414340087890625,2.524894909471273,0.2701420520156621,0.9342581412903964,-0.0201588161289691,0.1425723433494568,-0.7264716625213623
1773257372327367200,3.4243671875,2.696118906617164,0.4794704466283321,0.8107083339892327,-0.0164202693849802,0.2327174246311187,-0.7581214308738708
1773257372337393400,3.434393310546875,2.910670004314184,0.7073185405328869,0.7049813297569751,-0.0321694426238536,0.3188266456127167,-0.7412960529327393
1773257372347420200,3.444420166015625,3.2711019835859534,0.9137816088423132,0.6174440622098744,-0.0672033280134201,0.3538384139537811,-0.6959227323532104
1773257372357446100,3.454446044921875,3.520069730147719,1.2488818707197904,0.6464318178936839,-0.153055340051651,0.3186986446380615,-0.6086832284927368
1773257372367473200,3.46447314453125,3.7341216461509465,1.5980109502106905,0.8545996442943811,-0.2687220275402069,0.2063587754964828,-0.4723701179027557
1773257372377500400,3.47450048828125,4.017779597821831,1.9196037880003447,1.0639958434462546,-0.3858018517494201,0.0094399359077215,-0.2835572361946106
1773257372387526400,3.4845263671875,4.273696725130081,2.1584338791683315,1.0988656429059802,-0.4939736127853393,-0.2617095410823822,-0.066603347659111
1773257372397553200,3.49455322265625,4.321440473079681,2.354183538022637,1.169477056223899,-0.5819834470748901,-0.5440702438354492,0.1614677906036377
1773257372407579100,3.5045791015625,4.339833623382449,2.395023790194094,1.3684830865256488,-0.5946832895278931,-0.795059323310852,0.3732218444347381
1773257372417606100,3.514606201171875,4.409018803289532,2.106301833131909,1.5785672679416831,-0.5366920828819275,-0.9818093180656432,0.5427567362785339
1773257372427632000,3.524632080078125,4.345547324854135,1.73725341668427,1.8307852484710516,-0.4578518569469452,-1.0975195169448853,0.6418952941894531
1773257372437659100,3.5346591796875,4.097416029116511,1.7152724710226055,1.858133127993345,-0.4146890044212341,-1.1104450225830078,0.6554281115531921
1773257372447685000,3.54468505859375,3.875042274969816,1.9917755825027823,1.8120336401194328,-0.3974122703075409,-1.0446975231170654,0.5916086435317993
1773257372457712000,3.554712158203125,3.600891571834683,2.1913675959989427,1.7977435412213203,-0.3900481760501861,-0.9127910137176514,0.4631789326667785
1773257372467738000,3.564738037109375,3.3697195942044256,2.210400797770917,1.8699197196379305,-0.3789731562137604,-0.7331038117408752,0.3043546676635742
1773257372477765000,3.57476513671875,3.202768452072144,2.1571043841302395,1.873872548916936,-0.3527904152870178,-0.5870339274406433,0.1301126182079315
1773257372487791000,3.584791015625,2.920989153754711,2.1425024428039787,1.8428288836166264,-0.3093968629837036,-0.5159078240394592,-0.0411012060940265
1773257372497818000,3.594818115234375,2.4970073701143263,2.0402973290875552,1.7967738194063303,-0.2558540105819702,-0.5578685402870178,-0.2215394228696823
1773257372507844000,3.604843994140625,1.9344225869476797,1.8944088487282396,1.7019424493283033,-0.1996573209762573,-0.7016561031341553,-0.3745459914207458
1773257372517871000,3.61487109375,1.3818401423573494,1.6117258795693516,1.4718968453794716,-0.1618164181709289,-0.8445641398429871,-0.4960804879665375
1773257372527897000,3.62489697265625,0.8393933073341846,1.2181190681874752,1.2404779072508214,-0.1769295930862426,-0.9486130475997924,-0.6031654477119446
1773257372537924400,3.63492431640625,0.1613297951191663,0.999312943394482,1.306831955385208,-0.2490826547145843,-0.9446413516998292,-0.7015547156333923
1773257372547951000,3.644951171875,-0.4676134200960397,0.9405407286912202,1.439692904128134,-0.3251569271087646,-0.869560956954956,-0.796184778213501
1773257372557977000,3.65497705078125,-1.1638245834201573,0.8615814660057425,1.3244652272313833,-0.3655319213867187,-0.7280794978141785,-0.8739609718322754
1773257372568004000,3.665004150390625,-1.8174398830771443,0.5789639632984995,1.080472638733685,-0.3563719689846039,-0.5134904980659485,-0.9042831659317015
1773257372578030000,3.675030029296875,-2.225970999607444,0.1078708843931555,0.7019669503718614,-0.3223789930343628,-0.3208312392234802,-0.8924931883811951
1773257372588057300,3.685057373046875,-2.743446474981308,-0.2292600065290927,0.4746081012889742,-0.2822299897670746,-0.2206761538982391,-0.8525548577308655
1773257372598083300,3.695083251953125,-3.3800989493995903,-0.4171384936168789,0.5032166483968497,-0.2469161748886108,-0.2129953652620315,-0.7737666368484497
1773257372608110000,3.705110107421875,-3.777446993136406,-0.592804418732971,0.5355661355987191,-0.2106074392795562,-0.2529433071613312,-0.6424456834793091
1773257372618136000,3.715135986328125,-3.875740778627992,-0.621072920231521,0.4726037757292389,-0.1667166352272033,-0.2993806004524231,-0.4726600646972656
1773257372628163000,3.7251630859375,-3.774496326637268,-0.5581969234712422,0.3490840713053941,-0.1152614429593086,-0.2899532914161682,-0.2833711206912994
1773257372638189000,3.73518896484375,-3.467068792322278,-0.4418846662081778,0.1792845540046691,-0.0646798312664032,-0.2551382482051849,-0.0881386548280716
1773257372648216300,3.74521630859375,-3.1603993828982118,-0.2714531346142292,0.0233680161058902,-0.0209187660366296,-0.1939393430948257,0.0985342860221862
1773257372658242300,3.7552421875,-2.6647008550465103,-0.0632446839421987,-0.0522194320589303,0.0156517568975687,-0.1024509593844413,0.27611243724823
1773257372668269000,3.76526904296875,-2.0482062025159595,0.1885663232214748,-0.116491997744143,0.0573510006070137,0.0075160204432904,0.4312517046928406
1773257372678295000,3.775294921875,-1.436755389371514,0.3699012338846921,-0.235473766477406,0.1045225411653518,0.0931280851364135,0.5591739416122437
1773257372688322000,3.785322021484375,-0.911352043607831,0.4658934644356369,-0.3484983803719282,0.1339347660541534,0.1228393763303756,0.6517068147659302
1773257372698349300,3.795349365234375,-0.6031114393442869,0.5575014885529875,-0.4086275626420974,0.1348651647567749,0.1319117993116378,0.7219199538230896
1773257372708375300,3.805375244140625,-0.3205097187280655,0.6935816916033625,-0.3755342713356018,0.1141977086663246,0.0913630500435829,0.7507177591323853
1773257372718402000,3.815402099609375,-0.2137304289638996,0.8997966303706169,-0.3769868082314729,0.0967985466122627,0.0145828407257795,0.7274813652038574
1773257372728428000,3.825427978515625,-0.4361082747638225,1.0753303074091671,-0.4829012978598475,0.0828441157937049,0.0112134087830781,0.656907320022583
1773257372738455300,3.835455322265625,-0.4865723875880241,1.1776689843773842,-0.5753387585386633,0.0640841946005821,0.0790254324674606,0.5581974983215332
1773257372748481300,3.845481201171875,-0.5943132158607244,1.2863874255105852,-0.6995844391494989,0.0395346470177173,0.1861468255519867,0.4384127855300903
1773257372758508300,3.85550830078125,-0.8114987537145614,1.457076877388358,-0.8934364476889372,0.0395034067332744,0.2640768587589264,0.312049001455307
1773257372768534300,3.8655341796875,-1.0189426497548817,1.6317580292508005,-1.0275152477890253,0.066397339105606,0.2715560793876648,0.1863563358783722
1773257372778561000,3.87556103515625,-1.167089138174057,1.643472724702954,-1.0657666525110605,0.1147048696875572,0.255756139755249,0.0967847555875778
1773257372788587000,3.8855869140625,-1.0837211191356182,1.6139245586574076,-1.1306377686113118,0.1714376658201217,0.2254240661859512,0.0503749139606952
1773257372798614300,3.8956142578125,-0.9186766874074936,1.6026000315666198,-1.188405774708092,0.2226705700159073,0.1798168271780014,0.0378636196255683
1773257372808640300,3.90564013671875,-0.7774070990204811,1.5908254226207732,-1.1512708067953583,0.2543070614337921,0.1218185052275657,0.0440996773540973
1773257372818667300,3.915667236328125,-0.5754366659551858,1.5717355222254992,-0.9953665438562632,0.2831946015357971,0.0492836199700832,0.0463618636131286
1773257372828693200,3.925693359375,-0.3845668880969285,1.5580550796583297,-0.8326426640301943,0.3180865347385406,-0.0348693393170833,0.0238395072519779
1773257372838720000,3.935719970703125,-0.2796943087369203,1.5325477134361862,-0.7564081501334905,0.3601253032684326,-0.1103042662143707,-0.019587617367506
1773257372848747300,3.945747314453125,-0.1382037710756063,1.4350319265797733,-0.6262219735577702,0.4063657522201538,-0.260051429271698,-0.0940839573740959
1773257372858773200,3.955773193359375,-0.3609516192317009,1.267056994357705,-0.529277556848526,0.4397171139717102,-0.4252296686172485,-0.1938278377056121
1773257372868800300,3.96580029296875,-0.6420248151063919,1.1001087748348712,-0.558802342018485,0.4636560082435608,-0.5595182180404663,-0.2912644147872925
1773257372878826200,3.975826171875,-0.9136673348128797,0.9785627085715533,-0.7031424238920211,0.4845271110534668,-0.6643474698066711,-0.3908863365650177
1773257372888853000,3.98585302734375,-1.3164327274233103,0.781081403619051,-0.9195672065064312,0.5104936957359314,-0.735939085483551,-0.4937615692615509
1773257372898879200,3.995879150390625,-1.8016244743078944,0.5992290449529886,-1.087277642573416,0.5384886860847473,-0.7669161558151245,-0.6045134663581848
1773257372908906200,4.00590625,-2.2448551482975483,0.4673956856921314,-1.2113947283685207,0.5656396150588989,-0.7748270630836487,-0.7099283337593079
1773257372918932200,4.01593212890625,-2.774054379212856,0.2717547479093075,-1.3897247581273318,0.5981444716453552,-0.7595657110214233,-0.7887247204780579
1773257372928959200,4.025959228515625,-3.259488702681661,-0.0128512982666492,-1.685358978796005,0.6067893505096436,-0.6994819045066833,-0.8373159766197205
1773257372938985500,4.0359853515625,-3.6876562475740906,-0.2559584822319448,-1.8664590577900408,0.5775326490402222,-0.6116218566894531,-0.8613535761833191
1773257372949012500,4.046012451171875,-4.078463491365313,-0.38854602086097,-1.911006055524945,0.527864396572113,-0.4842250347137451,-0.8535081744194031
1773257372959038500,4.05603857421875,-4.324583447280526,-0.5562798378035426,-1.9345880066424608,0.4744080901145935,-0.3056223690509796,-0.8095396161079407
1773257372969065500,4.0660654296875,-4.344216953033208,-0.8031944512277841,-2.0025062353536485,0.4192183315753937,-0.1402483433485031,-0.7256060838699341
1773257372979091500,4.076091552734375,-4.309453098165989,-0.9855687879413366,-1.9646429531663656,0.358283519744873,-0.0298427883535623,-0.6403945088386536
1773257372989118500,4.086118408203125,-4.248624243193865,-1.0781972411476075,-1.7786951418802142,0.3061598837375641,0.0396244376897811,-0.5598013997077942
1773257372999145500,4.0961455078125,-4.037731668004393,-1.208066460728645,-1.599937826620042,0.278536707162857,0.0743100196123123,-0.4929390251636505
1773257373009171500,4.10617138671875,-3.75621482001543,-1.3101402031503615,-1.4179302773922682,0.2786661386489868,0.1056514307856559,-0.4394310712814331
1773257373019198500,4.116198486328125,-3.381861867418885,-1.345514445000887,-1.2938184522941707,0.2927498817443847,0.1188741326332092,-0.3837633430957794
1773257373029224400,4.126224365234375,-3.0030975281208754,-1.318806324686855,-1.151123215018213,0.298637330532074,0.1087546497583389,-0.326673686504364
1773257373039251200,4.136251220703125,-2.673170577228069,-1.2851654825001957,-0.9856605578780172,0.2848549783229828,0.1123074516654014,-0.25102698802948
1773257373049277400,4.14627734375,-2.281926111063361,-1.2770856364190577,-0.8814619322568178,0.2600130140781402,0.1182803884148597,-0.1856522262096405
1773257373059304400,4.156304443359375,-1.9834470223575829,-1.2364933676593004,-0.8055681946218013,0.2237532287836074,0.1242393851280212,-0.1482928246259689
1773257373069330400,4.166330322265625,-1.8133271870613097,-1.2139729082934558,-0.6904059841766953,0.1972632855176925,0.1265736371278762,-0.1446272581815719
1773257373079357400,4.176357421875,-1.6978426127940416,-1.2273872472703455,-0.5953197625547647,0.1776019781827926,0.1281726062297821,-0.1759758591651916
1773257373089383400,4.186383544921875,-1.6428385184526442,-1.2267397431470453,-0.5170017203822732,0.1715238392353058,0.1623598635196685,-0.2250914722681045
1773257373099410400,4.196410400390625,-1.5433458785653114,-1.2243363352671266,-0.4855614569798112,0.184286743402481,0.2228108644485473,-0.2684504985809326
1773257373109436400,4.2064365234375,-1.4518950908362864,-1.332137223163992,-0.5087099851161241,0.1985490322113037,0.2519112229347229,-0.2804349958896637
1773257373119463400,4.21646337890625,-1.424300981467962,-1.399623636329174,-0.4503887290507555,0.2118078768253326,0.2497507035732269,-0.2595961689949035
1773257373129489400,4.226489501953125,-1.3785685733407735,-1.4354323240742086,-0.4170511075943708,0.2349126636981964,0.2399630546569824,-0.2050067037343979
1773257373139516400,4.236516357421875,-1.2779425455093385,-1.5287787162914872,-0.4443906576797365,0.2665829360485077,0.2084676176309585,-0.1237003356218338
1773257373149543400,4.24654345703125,-1.2010025136917828,-1.6104824553795158,-0.4728782087564468,0.2947682440280914,0.1625509858131408,-0.0347510278224945
1773257373159569400,4.2565693359375,-1.1676871040672063,-1.6752251227945087,-0.4534741278454661,0.3170751333236694,0.1055970340967178,0.0647326409816742
1773257373169596400,4.266596435546875,-1.107134727948904,-1.7655659034550188,-0.5047948574990034,0.3205526769161224,0.0614519417285919,0.1575885415077209
1773257373179622400,4.276622314453125,-1.0257932463020083,-1.7991490241050718,-0.5354194206044077,0.3092341423034668,0.0081744417548179,0.2333429008722305
1773257373189649400,4.2866494140625,-1.0302502257108688,-1.74430698845759,-0.5763719009786844,0.2961114048957824,-0.0066822692751884,0.2939135730266571
1773257373199675400,4.29667529296875,-0.932747298336029,-1.6637714163661002,-0.6689078535959124,0.2801424264907837,-0.008203973993659,0.3437888026237488
1773257373209702400,4.306702392578125,-0.8475397889107465,-1.5638769176796077,-0.6767351862207055,0.2575108706951141,-0.0248679053038358,0.3775923252105713
1773257373219728400,4.316728271484375,-0.799071233817935,-1.431440624089539,-0.6211147135466337,0.2154542356729507,-0.0287836901843547,0.3949868083000183
1773257373229755400,4.32675537109375,-0.6996200949847697,-1.2840643893904984,-0.5509501672133803,0.160602182149887,-0.0046964618377387,0.3945066630840301
1773257373239781400,4.336781494140625,-0.6169400582104921,-1.0987060684300958,-0.4665215332061052,0.0987355783581733,0.0494443103671073,0.3679256439208984
1773257373249808400,4.346808349609375,-0.5513467653155326,-0.8742676368385552,-0.3604588672786951,0.0427886843681335,0.1340372264385223,0.341096431016922
1773257373259834600,4.356834716796875,-0.4143395105481147,-0.6568890606306493,-0.2307815170079469,-0.0024177199229598,0.2348839938640594,0.3103424310684204
1773257373269861400,4.366861328125,-0.2122194398790597,-0.4573652900651097,-0.0492550292953848,-0.0309726670384407,0.3148198425769806,0.2828716337680816
1773257373279888400,4.376888427734375,-0.0205611419916152,-0.2462863985233008,0.1870849986225366,-0.0356504283845424,0.3506459295749664,0.2475011050701141
1773257373289914400,4.386914306640625,0.1432271521955728,-0.0428575833432376,0.4148392767637968,-0.0176360085606575,0.3499079644680023,0.2321264445781707
1773257373299941600,4.396941650390625,0.3740565999984741,0.1238935061722993,0.6550728049889206,0.0146598117426037,0.3159496486186981,0.2220114469528198
1773257373309967600,4.406967529296875,0.6160895788609981,0.3269220699883997,0.8808826710641383,0.0650390982627868,0.2559678256511688,0.2307237088680267
1773257373319994400,4.416994384765625,0.7968430363744496,0.5079227802611888,1.0498793475493788,0.1234643906354904,0.186727836728096,0.2430824041366577
1773257373330020400,4.427020263671875,0.999035003235936,0.679926967999339,1.1920751108705996,0.1953151375055313,0.1236748397350311,0.2539840638637543
1773257373340047400,4.43704736328125,1.1281897909373044,0.878927883734554,1.3222808689296244,0.2585959434509277,0.0636877194046974,0.2787918746471405
1773257373350073300,4.4470732421875,1.1966378887414932,1.0621224507898093,1.3914891374513505,0.3048915266990661,0.0252045113593339,0.3322875797748565
1773257373360100600,4.4571005859375,1.2629717708706856,1.178733690999448,1.3726660712987184,0.3347254693508148,0.036695759743452,0.4182740151882171
1773257373370126600,4.467126708984375,1.4518909991830586,1.258495356108993,1.2637883479505776,0.3542576432228088,0.0517705827951431,0.509391725063324
1773257373380153300,4.4771533203125,1.547647375151515,1.3715649781890211,1.213925123628974,0.3690865635871887,0.0714736580848693,0.5787543058395386
1773257373390179300,4.487179443359375,1.6253151367217302,1.3988925455756485,1.2640572280198334,0.3807149827480316,0.0916210040450096,0.5916256308555603
1773257373400206300,4.497206298828125,1.6904782215058802,1.4006209768034517,1.3536997972831128,0.3947159647941589,0.1014963537454605,0.5454464554786682
1773257373410232600,4.507232666015625,1.5914549526959656,1.4170195922881363,1.3636720329821108,0.402746707201004,0.1269697546958923,0.4653311371803283
1773257373420259600,4.517259521484375,1.6419693344026802,1.4455414840258658,1.3581950628757475,0.409152626991272,0.1596321314573288,0.3642761409282684
1773257373430286300,4.527286376953125,1.6278203975409269,1.468136616063118,1.340217507636547,0.4273308217525482,0.1737785786390304,0.2487679272890091
1773257373440312300,4.537312255859375,1.484817117229104,1.4337591301649808,1.2524381018966435,0.4491800963878631,0.1946176439523697,0.1425423771142959
1773257373450339300,4.54733935546875,1.4561393042773008,1.4098356721334158,1.155570842076838,0.4766921401023865,0.2008648812770843,0.0715038850903511
1773257373460365600,4.557365478515625,1.3372884684473276,1.3958145994350313,0.949032662704587,0.4829458594322204,0.2012512534856796,0.0478003062307834
1773257373470392600,4.567392578125,1.1630629513978958,1.2944365841925145,0.690794398972392,0.4701398015022278,0.1980067193508148,0.0671628266572952
1773257373480418600,4.57741845703125,0.9676812490731476,1.054351232266426,0.451984181548655,0.4359218776226043,0.1472929865121841,0.0766087993979454
1773257373490445300,4.5874453125,0.5034516261965036,0.830267167070508,0.2914493361994624,0.3976546227931976,0.0302172247320413,0.053527183830738
1773257373500471300,4.59747119140625,-0.139064187297225,0.5978498655542731,0.1784910655394196,0.3559560477733612,-0.0632570385932922,0.0219938494265079
1773257373510498600,4.60749853515625,-0.4924240362256765,0.305933788625896,0.079762395761907,0.2953720688819885,-0.0525910779833793,0.0108322752639651
1773257373520524500,4.617524658203125,-0.6484574785023928,0.0943688671328127,-0.1348243577703833,0.2085084468126297,0.0549253299832344,0.0134116653352975
1773257373530551600,4.627551513671875,-0.815811356216669,-0.0148749130487442,-0.3577873099818826,0.0986274853348732,0.2291480004787445,0.0110521037131547
1773257373540577500,4.63757763671875,-0.8013666512787342,-0.0108674309730529,-0.4448737650215625,-0.0113966763019561,0.4141489267349243,0.0032370332628488
1773257373550604300,4.647604248046875,-0.7284200730115175,0.0402552918903529,-0.4260290715590119,-0.1056989431381225,0.5587535500526428,-0.0257096625864505
1773257373560631600,4.657631591796875,-0.6001368074476718,0.0498893816761672,-0.310185893112421,-0.1607322990894317,0.6512309312820435,-0.0663823708891868
1773257373570657500,4.667657470703125,-0.3695078506529331,0.0682328476183116,-0.1434957400038838,-0.1923328340053558,0.6892715096473694,-0.1142580211162567
1773257373580684500,4.6776845703125,-0.1135211652398109,0.1998544638246297,-0.0149257664531469,-0.1992210447788238,0.6465892195701599,-0.1647016853094101
1773257373590710500,4.68771044921875,0.0771095431655645,0.3588055471137166,0.0863543413728475,-0.2062504589557647,0.5270956158638,-0.213403970003128
1773257373600737300,4.6977373046875,0.1268494333684444,0.4623445397824048,0.1352761931911111,-0.2356373071670532,0.3847626149654388,-0.2460052669048309
1773257373610763300,4.70776318359375,0.1946066262990236,0.5831354037642479,0.1991308257251977,-0.2661558091640472,0.2687800824642181,-0.2656375467777252
1773257373620790500,4.71779052734375,0.282453252056241,0.6794732328824699,0.1792918605282902,-0.2747955918312073,0.1901353001594543,-0.2858426868915558
1773257373630816500,4.72781640625,0.2608814717173576,0.7454412043087184,0.0241729027479887,-0.2690727412700653,0.1632805168628692,-0.3068699538707733
1773257373640843300,4.73784326171875,0.2533008073300123,0.7895701227620243,-0.1219499708890914,-0.2747566103935241,0.1945842802524566,-0.3281601965427398
1773257373650869200,4.747869140625,0.2638508429169655,0.8908085834033787,-0.178870712506771,-0.2995713949203491,0.2704478800296783,-0.3381537199020386
1773257373660896500,4.757896484375,0.3147463328957557,0.9754749716892838,-0.2108896525800228,-0.3314466476440429,0.3819435238838196,-0.3342143595218658
1773257373670922500,4.767922607421875,0.364750426992774,0.9466787930548192,-0.2950219339892268,-0.354798823595047,0.5219437479972839,-0.3159437477588653
1773257373680949500,4.777949462890625,0.6366320161521435,0.9017232145190238,-0.3437792428955435,-0.3638321757316589,0.6488332748413086,-0.2989641427993774
1773257373690975500,4.7879755859375,0.9271107537537812,0.9391393374606968,-0.3105857060849666,-0.3440233170986175,0.7202608585357666,-0.3172536492347717
1773257373701002200,4.798002197265625,1.0418377876520155,0.8989002660527825,-0.2584890236228704,-0.3128286302089691,0.7245027422904968,-0.3685378134250641
1773257373711029500,4.808029541015625,1.063562712725997,0.7632480791561305,-0.1921592331469059,-0.3090693354606628,0.6703649759292603,-0.4299713373184204
1773257373721055500,4.818055419921875,1.0001870958805084,0.6959206559449433,-0.1716720331743359,-0.330153226852417,0.6170894503593445,-0.4772347509860992
1773257373731082500,4.82808251953125,0.9911696766883136,0.6057347735852002,-0.2555763510465622,-0.3476893603801727,0.5687490701675415,-0.509877622127533
1773257373741108500,4.8381083984375,0.913761442837119,0.4572130221128463,-0.2478463413164019,-0.3244610428810119,0.5275598764419556,-0.5270243883132935
1773257373751135200,4.84813525390625,0.7843722618579864,0.273407045160979,-0.236247673459351,-0.2586588561534881,0.4762998819351196,-0.4991256296634674
1773257373761161200,4.8581611328125,0.5807552306294441,0.1685142997957766,-0.3144154935061931,-0.1872906684875488,0.4483987092971802,-0.4267323017120361
1773257373771188500,4.8681884765625,0.5685720408827066,0.2291062772721052,-0.3240907920852303,-0.1145892962813377,0.4659649133682251,-0.3011791706085205
1773257373781214500,4.87821435546875,0.7460469151169061,0.251883926269412,-0.2431958851620554,-0.0460515134036541,0.4995765388011932,-0.1839105635881424
1773257373791241500,4.888241455078125,0.8197609706252813,0.173713037482649,-0.0902456497229635,0.0029442566446959,0.5162311792373657,-0.1189587265253067
1773257373801267500,4.898267333984375,0.8113923707306384,0.1742466329026967,0.2583468386732042,0.0202174428850412,0.4641553461551666,-0.1217706799507141
1773257373811294200,4.908294189453125,0.5911959606230258,0.1537443814914673,0.5088838803783059,0.0010088612325489,0.3966024219989776,-0.1652574390172958
1773257373821320400,4.918320556640625,0.4723521390557288,-0.0897202376093715,0.5415779432341457,-0.0569938011467456,0.3043439388275146,-0.2590368986129761
1773257373831347500,4.928347412109375,0.1376443836271762,-0.2126934140663594,0.6171544316135347,-0.1193746179342269,0.1919015496969223,-0.4102368056774139
1773257373841374500,4.93837451171875,-0.4809007716923952,-0.2333661266736686,0.6406488505780696,-0.1618289053440094,0.1141450256109237,-0.5528602600097656
1773257373851400400,4.948400390625,-0.8195669093579053,-0.3903567235447466,0.5169717636354267,-0.1629229336977005,0.1098613291978836,-0.6546319127082825
1773257373861427500,4.958427490234375,-0.9975193379759788,-0.5873878005117178,0.2661044670626521,-0.1377575695514679,0.1185050681233406,-0.7150595784187317
1773257373871453400,4.968453369140625,-1.5050743078380822,-0.8469408731695264,-0.1526331323139369,-0.1253283321857452,0.1092630997300148,-0.7198319435119629
1773257373881480400,4.97848046875,-1.9157225626528265,-1.1443931030455976,-0.343917336191982,-0.1417648047208786,0.092439204454422,-0.6523813605308533
1773257373891506400,4.98850634765625,-2.1292209364265204,-1.357064013019204,-0.3203954446986317,-0.1584148854017257,0.08792594820261,-0.5215224027633667
1773257373901533400,4.998533447265625,-2.178966671848297,-1.4215107662275432,-0.4012123179495334,-0.1598047465085983,0.1525007784366607,-0.346514880657196
1773257373911559400,5.008559326171875,-2.0510370420277115,-1.4280451364323496,-0.6669846304483711,-0.1762875765562057,0.2530364394187927,-0.1531344801187515
1773257373921586400,5.01858642578125,-1.908112087649107,-1.348740421310067,-0.8044977889113127,-0.2101761549711227,0.3270387351512909,0.0125959822908043
1773257373931612400,5.0286123046875,-1.7266215480327605,-1.184777866534516,-0.7226756841406226,-0.2286853939294815,0.3680380880832672,0.1545746922492981
1773257373941639400,5.038639404296875,-1.3673071746140717,-1.1151749726720153,-0.6543574963264167,-0.2242380380630493,0.3624096512794494,0.2614058256149292
1773257373951665400,5.04866552734375,-0.9843997441619634,-1.0236549190990627,-0.6158489019729196,-0.2122080028057098,0.352020651102066,0.324860155582428
1773257373961692700,5.058692626953125,-0.5023614928722381,-0.7469654182013123,-0.4724528229512274,-0.18011374771595,0.3629383146762848,0.3497041165828705
1773257373971719400,5.068719482421875,0.0663444035232067,-0.3838632698722183,-0.2080585208073258,-0.109017476439476,0.4095614850521087,0.3767865896224975
1773257373981745400,5.078745361328125,0.8456050214558839,-0.0808520906947553,-0.0447654627911746,-0.0116748679429292,0.4541484415531158,0.4467106461524963
1773257373991772400,5.0887724609375,1.6046744997531175,0.3576247398313135,0.0354148661218583,0.0974569469690322,0.5117297172546387,0.5626753568649292
1773257374001798700,5.098798583984375,2.40037538035512,0.8596182031087577,0.0842602917030453,0.2113038152456283,0.5296162366867065,0.688705325126648
1773257374011825700,5.10882568359375,2.9021769012570378,1.3632216588661077,0.072374185206741,0.3047181963920593,0.4928124248981476,0.7854076623916626
1773257374021851600,5.1188515625,3.2448347389072176,1.863130205628276,0.1789988689310848,0.3715664744377136,0.4754320979118347,0.8671054244041443
1773257374031878400,5.12887841796875,3.666749653145671,2.25925382213667,0.0252136439725756,0.3899233639240265,0.5596974492073059,0.9181273579597472
1773257374041904400,5.138904296875,3.993299821081757,2.6999603844761846,0.0065735331714153,0.372222363948822,0.7064952254295349,0.9279210567474364
1773257374051931600,5.148931640625,4.110943034687638,3.077636928537488,-0.0761211166501045,0.3908913731575012,0.8385416269302368,0.8763747811317444
1773257374061957600,5.15895751953125,3.847708862364292,3.1216239543020725,-0.37512262179479,0.5077581405639648,0.8211501240730286,0.7445669174194336
1773257374071984600,5.168984619140625,3.066054627293348,3.029796734476089,-0.7497367095455527,0.6696493029594421,0.6877561211585999,0.5501785278320312
1773257374082010600,5.1790107421875,2.021058667871356,3.4431279447644947,-0.6355062269926071,0.8432726860046387,0.5641055107116699,0.3889346122741699
1773257374092037400,5.189037353515625,0.9973784682005644,4.205819120690227,-0.110148035544902,1.0520706176757812,0.5617457032203674,0.3073409497737884
1773257374102064600,5.199064697265625,0.3466419388502836,4.768647649484873,0.4354300832413136,1.3265055418014526,0.7774367332458496,0.3015978336334228
1773257374112090600,5.209090576171875,0.5399801526486874,5.043502116975188,0.2300939731352031,1.671887755393982,1.0745254755020142,0.3223001658916473
1773257374122117600,5.21911767578125,0.904464622181654,4.999719089350104,-0.9898145357523112,2.149844169616699,1.414382815361023,0.3189045488834381
1773257374132143600,5.2291435546875,1.5178642313063144,3.9245015946656463,-2.6647856107205152,2.805506706237793,1.7825794219970703,0.2642418444156647
1773257374142170400,5.23917041015625,2.046472510591149,2.1008787851698694,-3.4127406975463037,3.51750111579895,1.8509093523025515,0.1797214895486831
1773257374152196400,5.2491962890625,0.554656328254938,1.2233211668752133,-3.303371683549881,4.03014612197876,1.3720782995224,0.088528461754322
1773257374162223600,5.2592236328125,-2.874731844970584,1.592079514335096,-1.1524725838005545,4.067974090576172,0.5650303959846497,-0.0179875586181879
1773257374172249600,5.26924951171875,-5.788837084430456,2.26951218130067,2.447145753227919,3.889626264572144,-0.2403185665607452,0.0978122800588607
1773257374182276600,5.279276611328125,-5.856728717395663,2.6654157253175974,3.294879749536514,3.933075428009033,-0.906749665737152,0.4829384982585907
1773257374192302600,5.289302490234375,-5.170370255044102,2.578152160145342,1.6925673027396202,4.197747230529785,-1.17277729511261,0.9853475689888
1773257374202329300,5.299329345703125,-4.520644948562979,2.317254175684601,0.6141593414507805,4.57852029800415,-1.283344864845276,1.5277414321899414
1773257374212355600,5.30935546875,-4.541152314540744,2.1830044029317794,-0.0097319972023367,5.076421737670898,-1.304205060005188,2.0769731998443604
1773257374222382600,5.319382568359375,-4.322627052515745,1.2953062066338956,-0.7509864173457026,5.598734855651856,-0.9053927063941956,2.536337614059448
1773257374232409600,5.32940966796875,-3.224043295291066,0.5021310451172292,-0.9749199681550264,5.9856696128845215,-0.2543686330318451,2.6677496433258057
1773257374242435300,5.339435302734375,-4.038990728154778,0.4691526123620569,-0.517837586684525,6.268341541290283,0.3542221188545227,2.484100818634033
1773257374252462600,5.349462646484375,-4.962224932736159,0.4984453423418104,-0.2806175610616803,6.5285515785217285,1.1003758907318115,2.1173996925354004
1773257374262488600,5.359488525390625,-3.973182331204414,0.4315718003779649,-0.1921554337546229,6.730398178100586,1.774700164794922,1.6113157272338867
1773257374272515600,5.369515625,-3.5334693099468946,0.2668883109167218,-0.3370937737822532,6.888394355773926,2.268862009048462,1.155320405960083
1773257374282541600,5.37954150390625,-2.495208211737871,-0.126760586041212,-0.6008855799883603,6.822666645050049,2.3266096115112305,0.916252076625824
1773257374292568300,5.389568359375,-1.9852362438619136,-0.3643222647085786,-0.3898790230304002,6.495720863342285,2.1756250858306885,0.92380690574646
1773257374302594300,5.39959423828125,-0.9391291083276272,-0.6981840708322823,0.2062242911174893,6.110479354858398,1.9153540134429927,1.0355890989303589
1773257374312621600,5.40962158203125,-0.4238479281276464,-0.6944045522935688,0.0868967776864767,5.853785037994385,1.584822654724121,1.1756806373596191
1773257374322647600,5.4196474609375,-0.0872358003824949,-0.8371952127680182,-0.4027569170430302,5.722569465637207,1.3711572885513306,1.2984119653701782
1773257374332674600,5.429674560546875,0.9544973578512668,-1.0198670711234212,-0.6772878516674041,5.649015426635742,1.0896798372268677,1.410179615020752
1773257374342700500,5.439700439453125,1.3287965344339607,-1.2113526427924632,-0.6853356951750814,5.537021160125732,0.6667742729187012,1.570760726928711
1773257374352727300,5.449727294921875,1.5027596011549234,-1.7787278751060365,-0.5396951982274651,5.301571369171143,0.1793166995048523,1.7437822818756104
1773257374362754600,5.459754638671875,1.419718914374709,-2.240046140580624,-0.269113731881231,5.048384666442871,-0.0998840555548667,1.8548029661178589
1773257374372780500,5.469780517578125,1.6291303110957145,-2.669190859942138,-0.5387764759473502,4.94827938079834,0.4631018042564392,1.6603578329086304
1773257374382807600,5.4798076171875,1.94549927675724,-2.2546562652133404,-2.1912061218269168,5.645130634307861,2.156623363494873,0.5589779615402222
1773257374392833500,5.48983349609375,1.172462063384056,-1.2342933733969923,-6.5146893527805805,6.628807544708252,3.42676854133606,-0.4154713451862335
1773257374402860300,5.4998603515625,2.0687749432921407,-4.809093641641736,-8.35056564078033,6.226401329040527,3.6486644744873047,-1.1510313749313354
1773257374412886500,5.509886474609375,0.8941396275222301,-2.8387615369230508,-2.0916928775429726,5.0852484703063965,3.4026901721954346,-0.9440893530845642
1773257374422913500,5.51991357421875,3.4287609812378883,-1.2586724662415685,0.5586396988026797,4.381600856781006,2.204906702041626,-0.2533266246318817
1773257374432939500,5.529939453125,2.939630725860596,-2.40555892047286,-2.0737930637151,3.989229917526245,0.5906484723091125,0.4300501048564911
1773257374442966500,5.539966552734375,2.064343098324537,-2.4180258955970406,-3.4135768561095,3.6009345054626465,-0.6456727981567383,0.9619348645210266
1773257374452992500,5.549992431640625,2.470899115389585,-1.911790337770432,-3.9355902671739456,3.0215907096862797,-1.207827925682068,1.0833933353424072
1773257374463019500,5.56001953125,2.245314582502842,-1.081502274042368,-3.659986734881997,2.2547972202301025,-1.5287723541259766,0.8417133688926697
1773257374473045500,5.57004541015625,1.2589397388756274,-0.7698515690743922,-2.99499371664226,1.414475679397583,-1.835878610610962,0.5536328554153442
1773257374483072500,5.580072509765625,0.8059820361196994,-0.1535866336464881,-2.5164438919901846,0.6468407511711121,-2.1247854232788086,0.3824689090251922
1773257374493098500,5.590098388671875,0.6346066478043795,0.6914258287437259,-2.0020646290659903,0.0943472608923912,-2.2494773864746094,0.3318877518177032
1773257374503125500,5.60012548828125,1.0748948386013508,1.373836722513288,-2.236075337253511,-0.1584770530462265,-2.220989942550659,0.2588593065738678
1773257374513152500,5.610152587890625,1.2220084768414496,1.6427144536815583,-2.251692593102157,-0.1244418546557426,-2.0325608253479004,0.0050544571131467
1773257374523178500,5.620178466796875,0.6193617323994636,1.9074694058313968,-1.595199692182243,0.1235090121626854,-1.7155797481536863,-0.4473644196987152
1773257374533205500,5.63020556640625,0.3263034996986389,2.3748351347766814,-1.3367223589971662,0.539063572883606,-1.504975438117981,-1.0105888843536377
1773257374543231500,5.6402314453125,-0.058930327874422,2.5414146671175954,-1.3680755286380648,1.0033750534057615,-1.6224114894866943,-1.4222546815872192
1773257374553258500,5.650258544921875,-0.3078355305939912,2.0594526959344743,-0.6328270709112286,1.2552392482757568,-1.877635836601257,-1.365561842918396
1773257374563284500,5.660284423828125,0.4908914198309183,1.564142436747998,1.2429057189196346,1.3116525411605835,-2.239032030105591,-0.9182057976722716
1773257374573311500,5.6703115234375,0.6968512147933245,1.2041520637638867,2.265492278134823,1.2192366123199463,-2.5006744861602783,-0.4779780805110931
1773257374583337500,5.68033740234375,-0.0598486117631196,0.9821770996764302,2.629162216414511,0.9370462894439696,-2.216334104537964,-0.3325572907924652
1773257374593364500,5.690364501953125,-0.7742997806549072,1.1309735764369369,3.1739971156179903,0.5285565257072449,-1.37121319770813,-0.5504145622253418
1773257374603390500,5.700390380859375,-1.5922984177827837,1.1317978984318673,3.534499529777467,0.118453525006771,-0.2468876391649246,-0.8713134527206421
1773257374613417700,5.710417724609375,-1.85551271636188,0.8479833679597825,3.681511753469705,-0.1974682062864303,0.8628196120262146,-1.07024085521698
1773257374623443700,5.720443603515625,-1.617555608636141,1.2678668494358658,3.1592557658210394,-0.4501861035823822,1.7955667972564695,-1.2016795873641968
1773257374633470500,5.730470458984375,-1.2516677020460367,1.621419590587914,3.253441239210963,-0.6184360980987549,2.390004396438598,-1.2590720653533936
1773257374643497500,5.74049755859375,-0.6460755518019199,1.6242235420927404,3.122005354835093,-0.586239755153656,2.4598307609558105,-1.3112330436706543
1773257374653523500,5.7505234375,-0.3646528118371963,1.444724030163139,1.769390722440183,-0.4821192324161529,2.081942081451416,-1.2600159645080566
1773257374663550700,5.76055078125,0.0846720873743295,1.2279177008852362,1.0354559776604175,-0.4573952555656433,1.496762752532959,-1.0541390180587769
1773257374673576700,5.77057666015625,0.6216881295204162,1.2202739811990408,0.6865560307502746,-0.5557457804679871,0.8883735537528992,-0.8369056582450867
1773257374683603500,5.780603515625,0.2915589340537786,1.3216241585865616,0.7585138902410864,-0.5881074070930481,0.3313818871974945,-0.7202948927879333
1773257374693629400,5.79062939453125,-0.7872907796531915,1.269829235550016,-0.3817749192908406,-0.5550612807273865,0.080686017870903,-0.7163286805152893
1773257374703656400,5.800656494140625,-1.48368665189445,1.3343760881319642,-1.1349918721675871,-0.4471662640571594,0.0629506930708885,-0.8354297280311584
1773257374713682400,5.810682373046875,-2.2138994535416363,1.7736584628872571,-2.141843394373357,-0.1872079223394394,-0.0955390781164169,-1.0135512351989746
1773257374723709700,5.820709716796875,-3.449841763189435,1.450977537599951,-3.3792090148225427,0.1263351589441299,-0.3121140599250793,-1.0310895442962646
1773257374733735700,5.830735595703125,-3.709810211715102,0.7643077442768961,-4.006487511695921,0.3355477750301361,-0.3043325841426849,-0.8292480707168579
1773257374743762400,5.840762451171875,-3.200885707065463,0.1583019899968989,-3.9388448850557207,0.3423454761505127,-0.0658651515841484,-0.5302978754043579
1773257374753788400,5.850788330078125,-2.9180601145654914,-0.4135410536468029,-3.036555561086536,0.0364609360694885,0.4299840033054352,-0.3116286396980285
1773257374763815400,5.8608154296875,-2.5369091723918915,-0.908025967925042,-1.2651686963930726,-0.589860200881958,1.16817045211792,-0.2992585003376007
1773257374773842700,5.8708427734375,-1.9021388584584,-0.9279225085280836,0.6430860145971179,-1.2316662073135376,1.8289213180541992,-0.4284672141075134
1773257374783868700,5.88086865234375,-1.4600082546651365,-0.7950261962108314,0.820535462129116,-1.6056054830551147,2.1854984760284424,-0.4662926793098449
1773257374793895400,5.8908955078125,-0.8995710049211978,-0.7875698888555168,0.1914402712225913,-1.751990556716919,2.2598812580108643,-0.3128099143505096
1773257374803921400,5.90092138671875,-0.0963940893501043,-0.3337978375094011,0.1876629446409642,-1.7671411037445068,2.1555142402648926,-0.1668719798326492
1773257374813948400,5.910948486328125,0.3234130389541387,0.3157335173022002,0.5662814457274973,-1.6272050142288208,1.9163469076156616,-0.1382238268852234
1773257374823974700,5.920974609375,0.3538222057431936,0.5497456502618268,0.4321615829646587,-1.404108643531799,1.7228609323501587,-0.1944876760244369
1773257374834001700,5.931001708984375,0.7625853774636984,0.7958968415655195,0.3664512395612895,-1.0684887170791626,1.5049220323562622,-0.3379747867584228
1773257374844027400,5.94102734375,1.0256810180991889,0.7367400845240801,0.2553958799131214,-0.6299262046813965,1.1040244102478027,-0.4885534644126892
1773257374854054400,5.951054443359375,1.0745990705251691,0.342682862493582,0.5100412337198853,-0.1998480856418609,0.5030928254127502,-0.5426622629165649
1773257374864080400,5.961080322265625,1.0498439839750529,0.3176107824161648,1.189367751608044,0.2278915345668792,-0.1258716732263565,-0.4597969949245453
1773257374874107600,5.971107666015625,1.0851713179439306,0.1328486737832427,1.3290626380242407,0.5764769911766052,-0.5777313113212585,-0.3330840766429901
1773257374884133600,5.981133544921875,1.0458166281551122,0.2504958329118788,1.2227125334575772,0.797576367855072,-0.8198740482330322,-0.2753849923610687
1773257374894160400,5.991160400390625,0.6028554187566042,0.3842456933185458,1.1373382891632615,0.9103921055793762,-0.8762145638465881,-0.2972308993339538
1773257374904187400,6.0011875,0.0833802939981222,0.3808869209425524,0.8977912818975746,0.9336679577827454,-0.7849672436714172,-0.3160062134265899
1773257374914213400,6.01121337890625,-0.234774386036396,0.2950208014780655,0.6086795948654413,0.8791878819465637,-0.6200896501541138,-0.304424911737442
1773257374924240600,6.02124072265625,-0.4569745371818542,0.2559519063606858,0.279043005221337,0.7719045281410217,-0.4009977877140045,-0.2765579521656036
1773257374934266600,6.0312666015625,-0.6283084244430065,-0.038882213438861,0.1797059942871332,0.6264762282371521,-0.1649234741926193,-0.2402305752038955
1773257374944292900,6.04129296875,-0.6891688435971737,-0.2512839510822668,-0.0746662416666746,0.452947586774826,0.0448761880397796,-0.1949137598276138
1773257374954318800,6.05131884765625,-0.7014537401527166,-0.4155912641748785,-0.1608325131215155,0.2660738527774811,0.2550009191036224,-0.1633047014474868
1773257374964345600,6.061345703125,-0.6646633478939533,-0.4728255287211388,-0.1825444325834512,0.1068740338087081,0.4528396427631378,-0.1660744249820709
1773257374974371600,6.07137158203125,-0.6134089614748954,-0.4129855751885101,-0.3384272143431007,-0.0161024928092956,0.6447648406028748,-0.1811354160308838
1773257374984398600,6.081398681640625,-0.3762082250744104,-0.1847596609475091,-0.5400028028719127,-0.0706041231751442,0.7732787132263184,-0.210822194814682
1773257374994424600,6.091424560546875,-0.2470160279721021,-0.0991968718111515,-0.7280844113163649,-0.0803233236074447,0.8589041233062744,-0.2200455218553543
1773257375004451800,6.101451904296875,0.1009860933154821,-0.0114112555261701,-0.8386620704501867,-0.0772686749696731,0.8873475790023804,-0.231981486082077
1773257375014478600,6.111478515625,0.403725177553296,0.1075911176037043,-0.7438605109885335,-0.0803933665156364,0.8002017140388489,-0.2404205054044723
1773257375024504600,6.121504638671875,0.5790735611528158,0.0143552000235766,-0.4918630413420498,-0.1042775437235832,0.5935682654380798,-0.224074050784111
1773257375034531600,6.131531494140625,0.6616787791252136,-0.033927623238787,-0.2358465453125536,-0.1244182363152504,0.347728967666626,-0.1917363554239273
1773257375044557600,6.1415576171875,0.688465079241991,0.0599202887598425,-0.2733922859832644,-0.118339903652668,0.139634296298027,-0.1732009500265121
1773257375054584800,6.151584716796875,0.5399889204770326,0.1871530954226851,-0.4728472290962934,-0.1082571744918823,0.0317757353186607,-0.1733623296022415
1773257375064610800,6.16161083984375,0.441737805083394,0.3496577795401215,-0.5765650854632258,-0.1037594452500343,0.035409577190876,-0.2187423706054687
1773257375074637600,6.171637451171875,0.3804758193910121,0.556012784365192,-0.7087872979111969,-0.0888505354523658,0.0667501911520958,-0.2961538136005401
1773257375084663600,6.18166357421875,0.2610848853349685,0.5218213225584477,-0.7171691956788301,-0.0777494236826896,0.0753888040781021,-0.3517818450927734
1773257375094690600,6.191690673828125,0.1589829397320747,0.3290499488625675,-0.510639638004452,-0.0878073796629905,0.0824467167258262,-0.3491477072238922
1773257375104716800,6.201716796875,0.1222521687060594,0.26043175518848,-0.3368887527294457,-0.1133441627025604,0.0982934683561325,-0.2904067039489746
1773257375114743800,6.211743896484375,0.0506605121791362,0.0199274471979588,-0.1375796478278934,-0.1793578118085861,0.1316974908113479,-0.1910276412963867
1773257375124770600,6.2217705078125,-0.0351718511462211,-0.0017957973755896,-0.0385255454882979,-0.2960076332092285,0.1903809607028961,-0.0874330922961235
1773257375134796500,6.231796630859375,-0.1069026238828897,0.0835001940507441,-0.0454587057523429,-0.4724553823471069,0.3102064430713653,0.0141262896358966
1773257375144823800,6.24182373046875,-0.0217307702928781,0.1352295775704085,-0.0642526919409632,-0.7504310011863708,0.5085129141807556,0.1215214878320694
1773257375154849800,6.251849853515625,0.158659699127078,0.3851629542939365,-0.0732981681838631,-1.1079200506210327,0.7018885016441345,0.2227804660797119
1773257375164876800,6.261876708984375,0.106900285795331,0.6731638305399567,-0.1691527438297867,-1.5177669525146484,0.8679225444793701,0.3464137613773346
1773257375174902800,6.27190283203125,0.0834603734970092,0.8689389891617,-0.3220755067400634,-1.970311999320984,1.0196001529693604,0.5226271152496338
1773257375184929500,6.281929443359375,0.0743622902840375,0.9922598830778152,-0.4196468231759965,-2.4339799880981445,1.1347160339355469,0.7347074151039124
1773257375194955500,6.29195556640625,-0.1119061312586069,0.9565597702737896,-0.3990578433293849,-2.890920877456665,1.2332199811935425,0.9213585257530212
1773257375204982800,6.301982666015625,-0.4103746985703707,0.9998105176530778,-0.3057398734889924,-3.2935609817504883,1.253313660621643,1.0342222452163696
1773257375215008800,6.3120087890625,-1.0550608418405056,1.168993218229711,-0.3513677252631634,-3.5541832447052,1.207727074623108,1.0809199810028076
1773257375225035800,6.322035888671875,-1.68480894369781,1.3117495380431412,-0.5578990365032106,-3.643532514572144,1.1407318115234375,1.055614709854126
1773257375235061800,6.332061767578125,-2.0612796191006897,1.4685397900365291,-0.9738040428023784,-3.574749231338501,1.038624882698059,0.9543839693069458
1773257375245088500,6.342088623046875,-2.3163918597668407,1.659579225373268,-1.0611387004494666,-3.4393844604492188,0.8699470162391663,0.8402178287506104
1773257375255115800,6.35211572265625,-2.492601244109869,2.068185452966392,-0.6273235050588846,-3.2838680744171143,0.7395908832550049,0.76255202293396
1773257375265141800,6.362141845703125,-2.176743735101819,2.406275398179144,0.0105445556942373,-3.134474277496338,0.6022761464118958,0.726320207118988
1773257375275168800,6.372168701171875,-1.896073274809122,2.7817469795420764,0.3643307768085971,-2.98633074760437,0.4264065623283386,0.7327530384063721
1773257375285194800,6.38219482421875,-1.8028145608752968,2.79626884136945,0.387460563711822,-2.897275447845459,0.3068546056747436,0.7958097457885742
1773257375295221500,6.392221435546875,-1.494583308961987,2.664678350953757,0.4677873153582215,-2.920780658721924,0.2385764718055725,0.8893101215362549
1773257375305247700,6.402247802734375,-1.2281915493905544,2.836742013794184,0.6927311391886324,-3.0656731128692627,0.2014356553554535,0.9525733590126038
1773257375315274800,6.412274658203125,-1.2429863829404115,2.973729687078297,0.8648410523235798,-3.255497932434082,0.2417716383934021,0.9527150392532348
1773257375325300700,6.42230078125,-1.245719607296586,2.9275854832798243,0.6687425069663673,-3.436950445175171,0.4860559105873108,0.8890230655670166
1773257375335327700,6.43232763671875,-0.919742270812392,2.89266205393672,0.1429041033868212,-3.594778060913086,0.868827760219574,0.7528788447380066
1773257375345353700,6.442353759765625,-0.6778589295536279,2.916463200762868,-0.3457463782500475,-3.7045931816101074,1.257235765457153,0.5703187584877014
1773257375355380700,6.452380615234375,-0.5718418563336134,2.7691990481361746,-0.739980162423849,-3.7763617038726807,1.5687150955200195,0.3699910044670105
1773257375365406700,6.46240673828125,-0.4242670303225517,2.6121160968065262,-1.0078339573718609,-3.8042280673980713,1.7597485780715942,0.1841103434562683
1773257375375433700,6.472433837890625,-0.1639455305755138,2.400944266284257,-1.2284231661893428,-3.8011934757232666,1.8250242471694944,0.0233816504478454
1773257375385460700,6.482460693359375,0.2022334679156541,2.170162018623948,-1.3895026398092507,-3.7712113857269287,1.741129755973816,-0.1053204759955406
1773257375395486700,6.49248681640625,0.4873007018625735,1.9573975120827556,-1.4398118543326854,-3.701659440994263,1.5189779996871948,-0.2127651870250702
1773257375405513700,6.502513671875,0.7013596321284771,1.6306396927453577,-1.3978065039046108,-3.59732437133789,1.1980317831039429,-0.2898081541061401
1773257375415539700,6.512539794921875,0.8973854775756597,1.271158584457636,-1.290282094861567,-3.45398473739624,0.8044583797454834,-0.3460676968097687
1773257375425566700,6.522566650390625,1.0075298598587512,0.9112682377818973,-1.130343607970327,-3.293238639831543,0.3886599838733673,-0.3733330368995666
1773257375435592700,6.5325927734375,1.2097235802859068,0.6338562678284942,-0.8894226820029317,-3.140376091003418,-0.0237968396395444,-0.3929557204246521
1773257375445619500,6.542619384765625,1.1787930199712515,0.585415879384242,-0.4625624203167855,-2.986058473587036,-0.4095162749290466,-0.4017023146152496
1773257375455645400,6.5526455078125,1.0284849696040153,0.4720432923022657,0.0237482475951313,-2.8284554481506348,-0.657106876373291,-0.3949730396270752
1773257375465672700,6.562672607421875,1.083590770754218,0.3823793514573946,0.4822495559528469,-2.687568664550781,-0.8414697647094727,-0.3706477284431457
1773257375475698700,6.57269873046875,0.8832476466298103,0.421574284107238,0.8471833766885102,-2.5286905765533447,-0.8514084219932556,-0.3419098258018493
1773257375485725700,6.5827255859375,0.9322685749083756,0.2897499118704348,0.9899502178959548,-2.3551619052886963,-0.7175698280334473,-0.3331264555454254
1773257375495752400,6.59275244140625,0.9728682963222264,0.2192752401420846,1.0472137816019356,-2.1723759174346924,-0.5226128697395325,-0.3601332902908325
1773257375505778700,6.60277880859375,0.8370692483007908,0.1011229719023685,1.1065787015013395,-1.9743722677230835,-0.3725139200687408,-0.4290330708026886
1773257375515805700,6.6128056640625,0.6160428171098232,-0.1067140425082296,1.1553557380214332,-1.7735552787780762,-0.3100827634334564,-0.5018513798713684
1773257375525831700,6.622831787109375,0.453173975855112,-0.3153363346781581,1.2800567611843348,-1.5796585083007812,-0.4019305109977722,-0.5553047060966492
1773257375535858700,6.632858642578125,0.1984825909495353,-0.5345563740342855,1.4069853972688315,-1.3950649499893188,-0.5515791177749634,-0.5360082387924194
1773257375545884700,6.642884765625,0.2686193724930286,-0.8983836948327719,1.5896841436311602,-1.2504899501800537,-0.6621313691139221,-0.4394269585609436
1773257375555911700,6.65291162109375,0.576644872701168,-1.0554442151349035,1.7680650267943738,-1.145511031150818,-0.7344817519187927,-0.3145841062068939
1773257375565937700,6.662937744140625,0.560682164415717,-1.0944186003692449,1.8178478793561457,-1.058963418006897,-0.758316695690155,-0.2045916020870208
1773257375575964700,6.672964599609375,0.3606073358386755,-1.2455689467795192,1.9204970835782589,-0.9871890544891356,-0.7041623592376709,-0.1383521258831024
1773257375585990700,6.68299072265625,0.132227034753561,-1.319467272813618,1.965126645030081,-0.9206694960594176,-0.6252532005310059,-0.1134642511606216
1773257375596017700,6.693017578125,-0.0826858819931745,-1.4146481869816778,1.8096229257158931,-0.8589129447937012,-0.4829782843589782,-0.1074433773756027
1773257375606044700,6.703044677734375,-0.036244448813796,-1.5265927505545318,1.6352650144584475,-0.8094371557235718,-0.3494555950164795,-0.1227460652589798
1773257375616070700,6.713070556640625,-0.0612327595978975,-1.578098627516627,1.476346226003766,-0.7741273641586304,-0.2658525705337524,-0.1467195749282837
1773257375626097700,6.72309765625,-0.0522258617997169,-1.696122364872694,1.2800836491912602,-0.7621369957923889,-0.2232773154973983,-0.1644565463066101
1773257375636123600,6.73312353515625,-0.005137947410345,-1.709502509319037,1.2280113705180584,-0.7817495465278625,-0.1991442888975143,-0.1781052649021148
1773257375646150700,6.743150634765625,-0.0268599498748779,-1.6361923584364353,1.3842191464483735,-0.815032958984375,-0.26890829205513,-0.1757012605667114
1773257375656176600,6.7531767578125,-0.3227379161715507,-1.6584357544265689,1.572839391814172,-0.8338550925254822,-0.3702152073383331,-0.134966105222702
1773257375666203600,6.76320361328125,-0.436388845270872,-1.721921845909208,1.625122098367661,-0.8460285663604736,-0.4309269487857818,-0.054026536643505
1773257375676229600,6.773229736328125,-0.4149608573168516,-1.581283541163057,1.579404157157242,-0.8344044089317322,-0.4286041557788849,0.0460547879338264
1773257375686256600,6.783256591796875,-0.4959568865269422,-1.438559223923087,1.43006787443161,-0.7969393730163574,-0.3813539743423462,0.1395678073167801
1773257375696282600,6.79328271484375,-0.6056067632913589,-1.3145390226311982,1.1722051660135389,-0.7542291879653931,-0.2387182861566543,0.2177092134952545
1773257375706310000,6.803309814453125,-0.4630190780431032,-1.1680879399530588,0.9657378599204124,-0.7248562574386597,-0.0408748053014278,0.2696187794208526
1773257375716335900,6.8133359375,-0.3836000888913869,-0.9629068742781876,0.867911107418686,-0.703691303730011,0.130535289645195,0.2939635515213012
1773257375726362600,6.823362548828125,-0.3465717962235212,-0.832006265822798,0.8729929407276212,-0.6977240443229675,0.2433039546012878,0.293662428855896
1773257375736389600,6.8333896484375,-0.3430114733934402,-0.6627357408322393,0.9396481637656688,-0.6979706883430481,0.292344182729721,0.2872080206871032
1773257375746415600,6.84341552734375,-0.2634901929110288,-0.4900122258435934,1.0160687017537653,-0.7020668983459473,0.2638156116008758,0.2774586975574493
1773257375756443000,6.85344287109375,-0.2371785245686769,-0.3207834576355293,0.999036683736369,-0.6953490376472473,0.186839073896408,0.2760544121265411
1773257375766468900,6.86346875,-0.1871200699359178,-0.1778715819342061,1.0270336017519237,-0.6798872947692871,0.0919225737452507,0.2865258753299713
1773257375776495600,6.87349560546875,-0.1105821891784668,-0.027168796628341,0.9774871152292935,-0.6471930146217346,0.0169793535023927,0.2931025624275207
1773257375786521600,6.883521484375,-0.0531686956077814,0.1668712087638676,0.8629987123925238,-0.6042335629463196,-0.0287729054689407,0.2908374667167663
1773257375796548600,6.893548583984375,-0.0266577053010463,0.3492820780955255,0.8016966869506984,-0.5431441068649292,-0.0782792046666145,0.2684964835643768
1773257375806574600,6.90357470703125,-0.060651744839549,0.4984359899915754,0.7473480608433485,-0.472941905260086,-0.1416666507720947,0.235422670841217
1773257375816601900,6.913601806640625,-0.0982668974846601,0.6189307936362922,0.6248557267058641,-0.4010139107704162,-0.1328310817480087,0.1991296410560608
1773257375826627800,6.9236279296875,0.1410258427590131,0.6838532745976,0.5007483220545574,-0.3455709815025329,-0.0978633016347885,0.1620960533618927
1773257375836654600,6.933654541015625,0.2723240722298622,0.7573663276411593,0.3391820512983948,-0.3017478585243225,-0.0308677572757005,0.1475698351860046
1773257375846681600,6.943681640625,0.4315431588053703,0.7830437897332012,0.1878654449431225,-0.2787231802940368,0.0829955115914344,0.1460140645503997
1773257375856707600,6.95370751953125,0.643151188787818,0.8030932558756321,0.1370460889404639,-0.2765207588672638,0.1964304596185684,0.1570347547531128
1773257375866734800,6.96373486328125,0.7471218508720397,0.8113630715709179,0.1268213397851213,-0.2905264496803283,0.2412269860506057,0.174435943365097
1773257375876760800,6.9737607421875,0.667569590729475,0.7571719741128384,0.1169388281961903,-0.3113297522068023,0.2044876217842102,0.1797606647014618
1773257375886787600,6.98378759765625,0.5293962147921324,0.6922131797291338,0.129334893508628,-0.3361193239688873,0.1197506859898567,0.1780651956796646
1773257375896813600,6.9938134765625,0.5353413869321346,0.678955857944861,0.1579323347005993,-0.3574989140033722,-0.0428334288299083,0.1721583008766174
1773257375906840600,7.003840576171875,0.3695774087578058,0.6638472822707147,0.1659679397812113,-0.3647810518741607,-0.2648833096027374,0.1689546257257461
1773257375916866800,7.01386669921875,0.2008060654610395,0.5944017343943938,0.1581340678177774,-0.382991224527359,-0.4349213540554046,0.1865354925394058
1773257375926893800,7.023893798828125,0.275341958746314,0.6566493335906416,0.1824637320300564,-0.4143435657024383,-0.5270864963531494,0.2084416449069976
1773257375936920800,7.0339208984375,0.2290045704632997,0.8127866015680134,0.2194574465748854,-0.4502179324626922,-0.5417078137397766,0.2167826741933822
1773257375946947800,7.04394775390625,0.1685486404567956,0.8598993581376969,0.2644189068621955,-0.4817891716957092,-0.5094379186630249,0.2015921026468277
1773257375956975000,7.05397509765625,0.0488940870285034,0.9502893117021768,0.3297849120736122,-0.5081195831298828,-0.4517802000045776,0.1743455678224563
1773257375967001000,7.0640009765625,-0.0404272874563932,1.0253375384237615,0.3486738465366885,-0.5283270478248596,-0.3742011785507202,0.1449753046035766
1773257375977027800,7.07402783203125,-0.0092471362948417,1.0499855844028294,0.3305275836670771,-0.548017144203186,-0.290458619594574,0.1126069724559784
1773257375987053800,7.0840537109375,-0.0394680870354175,1.0921895992081612,0.3068961673846468,-0.5703693628311157,-0.1345756202936172,0.0865013003349304
1773257375997080800,7.094080810546875,0.1900643066942691,1.0916751468800008,0.3234885884083807,-0.5991978049278259,0.0518283434212207,0.0614167191088199
1773257376007106800,7.10410693359375,0.3307259923160076,1.115064278839156,0.3234641480868682,-0.6185014843940735,0.2014864385128021,0.0289049092680215
1773257376017133800,7.1141337890625,0.2875005985736846,1.0931167239904402,0.3216379190403968,-0.6226283311843872,0.2910874187946319,-0.004478613846004
1773257376027159800,7.124159912109375,0.2785562446177005,0.9823810978159307,0.3260636265281588,-0.6066202521324158,0.3301657438278198,-0.0347844511270523
1773257376037186800,7.134186767578125,0.3207002728641033,0.9221731512211264,0.3527353603545576,-0.5830249190330505,0.299666166305542,-0.0644126534461975
1773257376047212800,7.144212890625,0.2134977892518043,0.8964053804971277,0.3525796948688104,-0.5345996618270874,0.2695620357990265,-0.1037253588438034
1773257376057239800,7.15423974609375,0.2427501872211694,0.7709685173403471,0.3182064102217555,-0.4837370216846466,0.2525934278964996,-0.1418144106864929
1773257376067266800,7.164266845703125,0.2863087584406137,0.750334675438702,0.2516407834296114,-0.422012060880661,0.2491159588098526,-0.186201125383377
1773257376077292800,7.174292724609375,0.2605149764925241,0.7489294848158955,0.1500039345878176,-0.3513040542602539,0.2406359165906906,-0.2340056747198104
1773257376087319800,7.18431982421875,0.1634633000165224,0.640367549418658,0.005255436310172,-0.2600778639316559,0.1918556988239288,-0.2751305997371673
1773257376097345800,7.194345703125,0.0078209028840065,0.4978588111581281,-0.1634896765667945,-0.1655614972114563,0.1275478154420852,-0.3086363673210144
1773257376107373000,7.204373046875,-0.0754167677730321,0.3247671569768339,-0.2734285994056612,-0.0939477607607841,0.1327778697013855,-0.3144676983356476
1773257376117399000,7.21439892578125,0.0476473018378019,0.2641132567128166,-0.2729208690792322,-0.056549783796072,0.1726400703191757,-0.2904931008815765
1773257376127425800,7.22442578125,0.1007300727277994,0.2915238992730155,-0.1991841633476316,-0.0553050972521305,0.2285811603069305,-0.2495450228452682
1773257376137451800,7.23445166015625,0.0728232441484928,0.2731511524374597,-0.1347896152505651,-0.0787433087825775,0.2484773695468902,-0.190590351819992
1773257376147478800,7.244478759765625,-0.0903191533505916,0.2295585876168683,-0.1095865292046219,-0.1175203546881675,0.2100648283958435,-0.1398059874773025
1773257376157504800,7.2545048828125,-0.3070703914403915,0.1621124699294567,-0.1693297078318894,-0.1665323674678802,0.1414937674999237,-0.1006332859396934
1773257376167532000,7.264531982421875,-0.4732002803176641,0.1094933892947621,-0.280526667907834,-0.2258671820163726,0.0667497143149375,-0.0776926353573799
1773257376177558800,7.274558837890625,-0.6667810707002878,0.0321942053086124,-0.3756376586448401,-0.2932925522327423,0.0435583740472793,-0.076855331659317
1773257376187584800,7.284584716796875,-0.7784586539000272,-0.1072021365524269,-0.4243851402768865,-0.3786172270774841,0.0329249426722526,-0.0941810235381126
1773257376197611800,7.29461181640625,-1.0487000746369362,-0.1521260595746338,-0.3969593001475557,-0.4825199246406555,0.0528107695281505,-0.1318314671516418
1773257376207637800,7.3046376953125,-1.237366204971075,-0.1741332904550246,-0.3270668852865696,-0.5901114344596863,0.0862378031015396,-0.1894314289093017
1773257376217665000,7.3146650390625,-1.4314011688619852,-0.2354890005791559,-0.3798295939093455,-0.6864108443260193,0.0974254757165908,-0.241880789399147
1773257376227691000,7.32469091796875,-1.6304413936942814,-0.261799682540819,-0.4430152411406859,-0.7726609706878662,0.1055933311581611,-0.2573411762714386
1773257376237717800,7.3347177734375,-1.6165876403868198,-0.2235677862368524,-0.4835041225912049,-0.8563055396080017,0.0667849481105804,-0.2486627399921417
1773257376247743700,7.34474365234375,-1.7567688490152358,-0.0745771751437336,-0.4376937173243612,-0.921809196472168,-0.0337506532669067,-0.2012303471565246
1773257376257770800,7.354770751953125,-1.932746762689948,0.002759418243356,-0.3466068310042843,-0.9842212200164796,-0.0881398618221283,-0.1182198747992515
1773257376267797000,7.364796875,-1.844028614795208,0.1320883204026147,-0.181634258935973,-1.0407037734985352,-0.0835054665803909,-0.0270233917981386
1773257376277824000,7.374823974609375,-1.854530135065317,0.3823824932625517,-0.0019569792866706,-1.089348316192627,-0.002407953608781,0.0501140058040618
1773257376287850800,7.384850830078125,-1.837802872148156,0.5457925287218764,0.0903871770855039,-1.1124625205993652,0.1371288001537323,0.0791129618883133
1773257376297876700,7.394876708984375,-1.874830580294132,0.6989635307721793,0.0992217870566993,-1.109410285949707,0.3488378822803497,0.0691181123256683
1773257376307904000,7.404904052734375,-1.830337358573079,0.74342401926741,0.0544953776342794,-1.0708754062652588,0.5543788075447083,0.0313416495919227
1773257376317930000,7.414929931640625,-1.8688234488338231,0.6998650096565484,-0.0069344389056786,-1.0041427612304688,0.7132943868637085,-0.0204664207994937
1773257376327957000,7.42495703125,-1.956881671515107,0.6105186103282496,-0.0497303917221724,-0.9217695593833924,0.7600452899932861,-0.0665465593338012
1773257376337983000,7.43498291015625,-2.1049118400782345,0.5042494620433077,-0.0348468569755554,-0.8244538903236389,0.7385695576667786,-0.1000810861587524
1773257376348009700,7.445009765625,-2.1060668553322555,0.3699407621774822,-0.0244744429778307,-0.7323689460754395,0.6888768672943115,-0.1156162172555923
1773257376358035700,7.45503564453125,-2.0038316387385127,0.2783794267460703,-0.0543554211743175,-0.6509299874305725,0.6236480474472046,-0.1084323450922966
1773257376368063000,7.46506298828125,-1.8861907632201909,0.197799723251909,-0.0700276220805942,-0.5891997814178467,0.586068868637085,-0.0757659003138542
1773257376378089000,7.4750888671875,-1.6353800191402434,0.1413339588601142,-0.0241142313633114,-0.5547904372215271,0.5251367688179016,-0.0119781298562884
1773257376388116000,7.485115966796875,-1.6031044739574194,0.1087250900696963,0.0525347085531801,-0.5413870215415955,0.4827775359153747,0.0709368884563446
1773257376398142000,7.495141845703125,-1.470499838063121,0.0185682511413469,0.1473961084432899,-0.5696106553077698,0.4848231077194214,0.1717716306447982
1773257376408168700,7.505168701171875,-1.272795830270648,0.0402210608271881,0.2635871504794806,-0.6182823181152344,0.4913264214992523,0.2572774291038513
1773257376418196000,7.515196044921875,-1.325872171419859,-0.0301942453967407,0.3490103484820574,-0.6637880206108093,0.5037567019462585,0.3317069113254547
1773257376428222000,7.525221923828125,-1.4271446804612875,-0.1873479604076594,0.3804998578537255,-0.69573974609375,0.481376051902771,0.3763123750686645
1773257376438249000,7.5352490234375,-1.6437141322433948,-0.248372118756175,0.3020757249582558,-0.7187848687171936,0.4213028848171234,0.4002786874771118
1773257376448275000,7.54527490234375,-1.861264411756396,-0.349998994193226,0.2132024595670402,-0.7369908690452576,0.4167401790618896,0.4168254733085632
1773257376458301700,7.5553017578125,-1.716409950619936,-0.4176339489836245,0.1775795036524534,-0.7634456157684326,0.4437281191349029,0.415686160326004
1773257376468328000,7.565327880859375,-1.6673434296339749,-0.3940597793137654,0.1802386398591101,-0.7824243903160095,0.4883765280246734,0.4067680537700653
1773257376478355000,7.57535498046875,-1.6348913588404654,-0.4084830030722543,0.1692941981270909,-0.7922692894935608,0.547099769115448,0.4049440324306488
1773257376488381000,7.585380859375,-1.4988982495516538,-0.3928684871699661,0.1145521157227456,-0.7926139831542969,0.575951337814331,0.4099520444869995
1773257376498408000,7.595407958984375,-1.441423965704441,-0.3823787669355049,0.0610828297331929,-0.7774677872657776,0.5951228737831116,0.4438745975494385
1773257376508434000,7.605433837890625,-1.288763799253106,-0.4165989799126982,0.0448367744617164,-0.7536903023719788,0.5772892832756042,0.5024366974830627
1773257376518461000,7.6154609375,-1.2260913622409104,-0.3677365301314741,0.0078580200240015,-0.7318713068962097,0.519019603729248,0.5687970519065857
1773257376528488000,7.625488037109375,-1.2307447410047054,-0.2824757013500668,-0.0547981965057551,-0.7238423824310303,0.4582509100437164,0.6389316320419312
1773257376538514000,7.635513916015625,-1.1283569641977549,-0.2346924616402946,-0.0660359220959246,-0.7314816117286682,0.4004070460796356,0.6880464553833008
1773257376548541000,7.645541015625,-1.0391355429559943,-0.2512630178920924,0.043693303515017,-0.7396337389945984,0.3375730812549591,0.7117838263511658
1773257376558567000,7.65556689453125,-1.037103744867444,-0.2717016294825822,0.1363457221187651,-0.7575096487998962,0.23275026679039,0.713326096534729
1773257376568594000,7.665593994140625,-1.0932675306379795,-0.2455430876090191,0.1806435673981904,-0.7706509232521057,0.1329334676265716,0.6932622194290161
1773257376578620000,7.675619873046875,-0.929882556554675,-0.2533573963554575,0.1541032048664987,-0.783708930015564,0.005394953303039,0.6704418659210205
1773257376588647000,7.68564697265625,-0.9506710775613784,-0.1970329401304945,0.138578303476423,-0.7674124240875244,-0.1108725219964981,0.6659277081489563
1773257376598673000,7.6956728515625,-0.9690829325646162,-0.3197104946417733,0.1710122540913522,-0.7261395454406738,-0.2622162401676178,0.6805136203765869
1773257376608700000,7.705699951171875,-1.174709550049901,-0.3975484251471236,0.1087660796672105,-0.680133581161499,-0.4053861796855926,0.7218316197395325
1773257376618726000,7.715725830078125,-1.1762655473202466,-0.4339432056844234,-0.0178926534347236,-0.6467607617378235,-0.4807666838169098,0.7803428769111633
1773257376628753000,7.7257529296875,-1.021413423782587,-0.4435043763644993,-0.0614141075141727,-0.6410735845565796,-0.4628104567527771,0.8466672897338867
1773257376638779000,7.73577880859375,-0.8335475039154291,-0.3432461589321494,0.0617296032041311,-0.6608312726020813,-0.3237537443637848,0.9056174159049988
1773257376648806000,7.745805908203125,-0.4544470645308494,-0.157335464785993,0.2448559273287653,-0.6916219592094421,-0.1754224747419357,0.9457255601882936
1773257376658833000,7.7558330078125,-0.4764432077616453,0.0292846928037703,0.2765400824896991,-0.7139623761177063,0.2205879688262939,0.8687213659286499
1773257376668859000,7.76585888671875,-1.013699488404393,0.2034570914264768,0.4906706166870891,-0.6423974633216858,0.4655057787895202,0.8358953595161438
1773257376678886000,7.775885986328125,-0.7357119835853576,0.1600097985617816,-0.1378909057341515,-0.487466424703598,0.815438449382782,0.7284181714057922
1773257376688912000,7.785911865234375,-0.7590384986370802,0.2371925530940294,-0.6294269070789218,-0.2997567653656006,1.0566967725753784,0.6419838070869446
1773257376698939000,7.79593896484375,-0.7013567095190286,0.3518273055989295,-0.8051863556973635,-0.0831573382019996,1.1869562864303589,0.5542680621147156
1773257376708964900,7.80596484375,-0.5716612390697002,0.2874599012371152,-0.8994353958427905,0.1017162501811981,1.2733360528945925,0.4813143610954284
1773257376718992000,7.815991943359375,-0.390742946383357,0.2805394543241709,-0.6618399610362946,0.2215177565813064,1.258600831031799,0.460204005241394
1773257376729017900,7.826017822265625,-0.3057002721309662,0.3337530119869857,-0.3915183146700263,0.2967599630355835,1.126156210899353,0.5033658742904663
1773257376739044900,7.836044921875,-0.2519038000136613,0.3337000396907329,-0.1629902756772935,0.3311770558357239,1.000324249267578,0.6048948764801025
1773257376749070800,7.84607080078125,0.1920394061595201,0.2732581382095813,0.0620861615568399,0.3228600323200226,0.9123839735984802,0.7441341876983643
1773257376759097900,7.856097900390625,0.6134720898389816,0.4015719450421631,0.1980839470207691,0.2804292142391205,0.8845872282981873,0.8927531838417053
1773257376769123800,7.866123779296875,1.0403519330084323,0.5562354141399264,0.1915004769772291,0.2340831160545349,0.8423542976379395,1.0078513622283936
1773257376779150800,7.87615087890625,1.1542366708636282,0.5967094633474945,0.0892298968091607,0.197724312543869,0.7167668342590332,1.079548478126526
1773257376789177900,7.886177734375,0.9838321734070776,0.5710362390391528,0.0114765027821063,0.1681648641824722,0.587850034236908,1.0983142852783203
1773257376799203800,7.896203857421875,1.0493097309678792,0.5803801137067377,0.0041200025394558,0.13053759932518,0.4770140051841736,1.0591557025909424
1773257376809230800,7.90623095703125,1.111472464892268,0.712382984315604,0.042936055406928,0.0966547578573226,0.3974179625511169,0.9526486396789552
1773257376819256800,7.9162568359375,1.131425704118609,0.8258367834076284,0.1307265670627355,0.077657364308834,0.2662378251552582,0.7966566681861877
1773257376829283800,7.926283935546875,0.8660843303829431,0.8720803559273481,0.2034700239732861,0.0602943524718284,0.0222817789763212,0.624079704284668
1773257376839309800,7.936309814453125,0.3943301572203636,0.9233367881730198,0.276578514803946,0.0620901249349117,-0.1494178026914596,0.4801462888717651
