time,seconds_elapsed,imu1_accel_x,imu1_accel_y,imu1_accel_z,imu1_gyro_x,imu1_gyro_y,imu1_gyro_z,imu2_accel_x,imu2_accel_y,imu2_accel_z,imu2_gyro_x,imu2_gyro_y,imu2_gyro_z,imu3_accel_x,imu3_accel_y,imu3_accel_z,imu3_gyro_x,imu3_gyro_y,imu3_gyro_z
1773257934721435000,0.098434814453125,0.1558048942178487,-0.0131271560659632,0.1170100302688777,0.0249014291912317,-0.0237890966236591,-0.0369064435362815,-0.0028898762226104,-0.0222225815309677,0.0133920540798455,-0.0002719620242714,0.006939582992345,0.0008525596931576,-1.288642803221941,2.246123999189585,-0.3986854298204183,-2.996867418289185,-5.272403717041016,0.6174676418304443
1773257934731462000,0.1084619140625,0.1732055263519287,-0.0067433367803692,0.0471099800907075,0.0301894024014472,-0.0331050977110862,-0.0602080412209034,0.0184171157002449,-0.0093234346677549,0.0164187814898788,8.4689818322e-06,0.007422680966556,0.0002464242279529,-1.185999882610142,1.987911892811954,0.0632283173292875,-3.111194133758545,-4.929978370666504,0.6501486301422119
1773257934741487900,0.11848779296875,0.03849368904531,-0.0080554788248613,0.0721636111959815,0.0421838574111461,-0.0750629529356956,-0.0733550935983657,0.0253916308879852,-0.0214918652367778,0.0126154436841607,-0.0001330650411546,0.0139840980991721,0.0015418953262269,-0.9362560371093452,1.825470337058604,0.507091444003582,-3.130004405975342,-4.47979211807251,0.6436275243759155
1773257934751515000,0.128514892578125,-0.0588408960253,0.0524808229414746,0.1337055828735232,0.0402259044349193,-0.1147278025746345,-0.0639741048216819,0.0202718036562204,-0.0122200602915603,0.0173206987656652,-0.0029355094302445,0.0139326993376016,0.0011738465400412,-1.003857235760614,1.5781968271940945,0.7964771256715059,-2.53891921043396,-3.5083048343658447,0.9839446544647216
1773257934761540900,0.138540771484375,0.0791214675098657,0.1336512223377823,0.1008124903142452,0.0384633094072341,-0.1297292709350586,-0.0415421873331069,0.0019943886876106,-0.0171001787496265,0.0072411302346736,-0.0011698161251842,0.017875425517559,0.0026324377395212,-1.4046943637222051,-2.2572934818491337,3.206546217045188,-1.7014169692993164,-2.76377272605896,1.2261608839035034
1773257934771567900,0.14856787109375,0.1682148784577846,0.0941659649718552,0.0352538303412497,0.033923152834177,-0.1216614991426467,-0.0151590500026941,0.0266980373114347,0.0025919801214244,0.0003070201225578,-0.0010635559447109,0.0219351481646299,0.0016068544937297,0.1388695780405774,-2.398654547911882,2.9338953970789907,-1.170280694961548,-2.3337883949279785,1.2171170711517334
1773257934781593900,0.15859375,0.2312052953779697,0.1276763126466423,0.0034703064590692,0.0197086054831743,-0.1070337519049644,0.0110847242176532,-0.0032090251743793,-0.0266800541301723,0.0078021981835365,-9.59960743784e-05,0.0199738945811986,0.0027501280419528,1.0163187309920787,-0.8663271992281079,0.6709048726320266,-0.794532299041748,-1.987279176712036,0.9642916917800904
1773257934791619800,0.168619873046875,0.3295581175804138,0.1745925237309187,0.0205808696053922,0.0028153774328529,-0.0639134496450424,0.0356313437223434,-0.0062105450779199,-0.0115903566864319,0.0268643337890505,-0.0005665766075253,0.0166622530668973,0.0013607569271698,0.9737404029816388,-0.4218965017989277,-0.2330646595090627,-0.4787703454494476,-1.711972713470459,0.5958763360977173
1773257934801646800,0.178646728515625,0.4220031770437956,0.133660465090163,-0.0375767203308641,-0.0054023750126361,0.0026858965866267,0.0577478408813476,0.0016927753925323,-0.0110905996039044,0.0281954362623393,0.0004476075991988,0.0142632937058806,-0.00124361529015,1.387020175343752,-0.6248948166072368,-0.0616162059575319,-0.2075843214988708,-1.5360273122787476,0.2619858086109161
1773257934811672800,0.1886728515625,0.4094301111966371,0.0740918758448213,-0.0949004897914826,-0.0111745111644268,0.0524481274187564,0.0849411115050315,0.0037479543566703,-0.0202626613685395,0.0154541742414236,0.000691286753863,0.0122872283682227,-0.0005048546008765,1.6194319239020347,-0.7787710808500647,0.3022895869046449,-0.0239532366394996,-1.478379487991333,0.0028669014573097
1773257934821699800,0.198699951171875,0.3446066336303949,0.0863089678611606,-0.0788492264397442,-0.0160503406077623,0.0770817920565605,0.105361558496952,-0.0026215806752443,-0.0156483177071902,0.0278094326194375,0.0008978273253887,0.0017647999338805,0.0019610996823757,1.6112416031837462,-0.5907625376418233,0.4987672677725553,0.0210911575704813,-1.500218629837036,-0.2565545737743377
1773257934831725800,0.208725830078125,0.239489139598608,0.0994427363310009,-0.0432135571740567,-0.0182216167449951,0.0797827765345573,0.1193016096949577,-0.0248708218842744,-0.0008380308598745,0.0097138039585202,0.001351895974949,0.0085907485336065,-0.00117450626567,1.4391069209337233,-0.1182385491505265,0.389342431935668,-0.0452002473175525,-1.5150798559188845,-0.5572134852409363
1773257934841751800,0.218751708984375,0.1376864692032337,0.1010149540837854,0.0078884151622653,-0.0192526765167713,0.0801542177796363,0.1251542866230011,0.045362405771017,-0.0286047659819014,0.0235402308676391,0.0008976294193416,0.0074727507308125,-0.0008451393805444,1.5267840353429316,0.4296630441471934,0.1077168628752231,-0.2106290608644485,-1.6145689487457275,-0.8993465304374695
1773257934851779000,0.228779052734375,0.0965577554792165,0.0725371937487274,0.0079810618817806,-0.0226759035140275,0.0862712264060974,0.1211526244878768,-0.022969372177124,0.0045153859320562,0.02064319425188,0.0019826011266559,0.0056452890858054,0.0010912450961768,1.9681997688651085,0.7546475702017545,-0.6014239246487617,-0.5970654487609863,-1.89585554599762,-1.3202087879180908
1773257934861805000,0.23880517578125,0.0671627341687679,0.0413672351876273,0.0164398242779076,-0.019772371277213,0.0898031294345855,0.1052778661251068,0.0042933132797479,-0.0250088969144038,0.0252205851700156,0.0011949932668358,0.0014459291705861,-0.0005515483208,2.474325582706928,0.9344155238091943,-1.8605963032364845,-1.1139389276504517,-2.1043906211853027,-1.821432948112488
1773257934871831800,0.248831787109375,0.0267079741835594,0.0504461753087118,0.0369464596033096,-0.0155326193198561,0.0943163931369781,0.0806825086474418,0.0096907884091138,-0.0212776744968257,0.0116180301446467,-2.20714136958e-05,9.97012248262e-05,0.0009672523592598,2.417286767667532,1.4895026446968316,-2.3364134880542755,-1.1702927350997925,-1.5148423910140991,-1.7188178300857544
1773257934881857800,0.25885791015625,-0.0194932204991579,0.0666270563894882,0.0669262950643897,-0.0114733949303627,0.0911951437592506,0.0560251623392105,-0.0067617492198944,-0.0013730601851828,0.0146827514775097,0.0016955905593931,-0.000610020069871,0.0009571984992362,0.2573449681542814,0.7102350125014781,-0.5768371804028749,-0.532718300819397,-1.0558500289916992,-1.2952601909637451
1773257934891884800,0.268884765625,-0.0906365487366914,0.0446170672964304,0.0769882548734545,-0.0008995807729661,0.0764952972531318,0.0374205857515335,0.0106271924763917,-0.0161343385253101,0.0089135934915393,0.0001019551418721,0.0076681501232087,0.001883179647848,-1.3917396050810813,-0.911784297545254,2.0416636490046978,0.4514930844306946,-0.9813877940177916,-1.263130784034729
1773257934901910800,0.278910888671875,-0.1663894165962934,0.0215104055404663,0.0767985775202512,0.0233130436390638,0.0678299739956855,0.0175518132746219,0.0265676889300346,-0.0072482449620496,0.0062978580351918,-0.0001055400352925,0.0118532087653875,0.0024121282622218,-0.8604256470341235,-1.582802859684825,3.3266303940624,1.2373743057250977,-0.4289463758468628,-1.505956530570984
1773257934911936800,0.288936767578125,-0.2061526871860027,-0.005716697146371,0.0808905230090022,0.0421290770173072,0.0440356954932212,0.0041300151497125,0.0087099606782197,-0.0066846379962284,0.0285796132743358,0.0004987309221178,0.0109903439879417,0.0027213213033974,0.2854055259905755,-0.6282210384204984,3.063326079112291,1.5321197509765625,-0.2144476920366287,-1.7735358476638794
1773257934921964000,0.298964111328125,-0.2429302199631929,0.0031831966133788,0.1200410685278475,0.0564579106867313,0.0223583355545997,-0.0045897252857685,-0.0046785132050514,-0.0169516827901825,0.0283758343305438,-0.0003557913005352,0.0095689296722412,0.0032274988479912,1.4147265129148958,0.0368824544563889,1.5436837322175505,1.391784906387329,-0.3714471161365509,-1.9683297872543333
1773257934931990000,0.308989990234375,-0.2167705273121595,0.0035470980223268,0.1294448566891252,0.0736938938498497,0.0209130365401506,-0.0138061270117759,0.0124766197353601,-0.022810656217765,0.0035440292824059,0.0004855014849454,0.0151937920600175,0.0031310925260186,1.530265447717905,0.4103317362114786,-0.2345744795501232,1.0815861225128174,-0.5830464363098145,-2.0321173667907715
1773257934942016800,0.319016845703125,-0.2044616653591394,-0.000137947165966,0.0789931649550795,0.0860794112086296,0.0228913594037294,-0.0176356770098209,0.0274286896735429,-0.0240371932048816,0.0031782647099345,0.0014873314648866,0.0160565748810768,0.00300357141532,0.595012815497443,0.559358222335577,-1.4821692330688236,0.5127032399177551,-0.4547503888607025,-1.7602691650390625
1773257934952042800,0.329042724609375,-0.1951987469732761,0.0193147221270948,0.0705916857041418,0.0887044891715049,0.0088471807539463,-0.017357375472784,-0.0078057053148746,-0.0153802778881508,0.0352612099301069,-0.0004469223786145,0.0042694234289228,0.0033463202416896,-2.573160050946474,0.330350437001884,-3.2620044848948715,0.1564330011606216,-0.5816300511360168,-1.3846523761749268
1773257934962068700,0.33906884765625,-0.1839852790415287,0.0702145594874396,0.1124829082332551,0.0812954232096672,-0.0046603875234723,-0.0168203022330999,-0.0095469960242509,-0.0112850627300795,0.009635039633885,0.0029873435851186,0.0151634309440851,0.0073422826826572,-2.471229954779148,0.8317913078978657,-2.5518343543231485,0.0912064686417579,-0.266056478023529,-0.9995085597038268
1773257934972096000,0.349095947265625,-0.1932709937810897,0.0936724093012511,0.1204991875588893,0.0857056155800819,-0.0120250927284359,-0.0126316826790571,0.0556073209315538,-0.0102648711031768,-0.0405917573031038,0.0074310936033725,0.0378447733819484,0.0024452623911201,-1.904738227301836,1.5496923249825834,-0.658755585154891,0.0954835042357444,0.0528107210993766,-0.4775803685188293
1773257934982122000,0.3591220703125,-0.2130927155822515,0.0577548543542623,0.0902576324217021,0.0989593714475631,-0.0187606532126665,-0.0140439365059137,0.0556710338175296,-0.0270184466385282,-0.0046448301311582,0.0089556248858571,0.0587660297751426,0.0024073130916804,-2.3815046756684777,1.9082564645558595,0.0079898297101259,0.1695075929164886,0.0506027229130268,0.1956510096788406
1773257934992149000,0.36914892578125,-0.2729606165677309,-0.008174246366322,0.0715538087345659,0.1220985129475593,-0.0478825867176055,-0.0133062414824962,0.0154646956354379,-0.0041346932185115,-0.0134892308440059,0.0103836115449666,0.0695361196994781,0.0055370600894093,-3.097305505603552,1.684013409405947,0.3433645246148109,0.3580359816551208,-0.0316071957349777,0.7810708284378052
1773257935002175000,0.379175048828125,-0.3166600575625896,0.0137608873922377,0.0544954141668975,0.1350013762712478,-0.0987539887428283,-0.0070785670541226,0.0296229848474264,0.1985941980978474,-0.1352300159618258,-0.020203772932291,0.13152776658535,0.0067710792645812,-2.303900042462349,1.781899198618531,1.0290963795006274,0.5863271355628967,-0.0653333291411399,1.1364885568618774
1773257935012201700,0.38920166015625,-0.297069221907854,0.1238059374867007,0.1282604692101478,0.1292074024677276,-0.1558356434106826,-0.0009719389490783,0.0375432564526796,-0.0915798026698641,0.0717055652301758,0.0114833172410726,0.0882322192192077,0.0119392089545726,-1.0804031536940484,2.007119866628945,1.6608862163186071,0.6948391795158386,-0.2739816009998321,1.405422329902649
1773257935022227700,0.399227783203125,-0.2092109057128429,0.1839573681212961,0.1762209286503493,0.1161121129989624,-0.1940842270851135,0.0110405161976814,-0.0554611904591321,-0.1649067950894124,0.1695702385894954,0.0002971903886646,0.0210685525089502,-0.0139863528311252,-1.2000795536279678,1.7915742049366234,1.5388661028027533,0.7496722936630249,-0.4561528265476227,1.6440844535827637
1773257935032254000,0.40925390625,-0.1081470709860324,0.1636276237327605,0.1578266093038022,0.1065223291516304,-0.1800781339406967,0.0283896792680025,-0.1603431221693754,0.1700058352614752,-0.0496431518301367,0.0055891573429107,0.0265674460679292,0.0038014319725334,-1.4795767323575912,1.422570504413545,0.9982400534659625,0.8768523335456848,-0.6019909381866455,1.7794276475906372
1773257935042281000,0.419281005859375,-0.0113993458926677,0.1132403390044346,0.0938194165565073,0.1132742464542388,-0.153978630900383,0.0624171569943428,0.1153776067614555,-0.1384797202064655,0.0575153465099632,0.0050696176476776,0.0382292531430721,0.0077138380147516,-0.977451532459259,1.1472680008947849,0.8443915540128946,1.0117928981781006,-0.6747492551803589,1.855056643486023
1773257935052307000,0.429306884765625,0.0166658881187438,0.060566477708891,-0.0349020942941308,0.1409879028797149,-0.1179646998643875,0.1139019206166267,0.0480254875004291,0.0286266444535693,-0.0044568332783877,-0.0006958595477044,0.0332834981381893,0.0039281542412936,-0.4988298116147517,0.9221864490941166,0.9117103555262088,1.0002094507217407,-0.7315342426300049,2.0097644329071045
1773257935062333700,0.439333740234375,-0.1648597228109836,0.004324548668228,-0.1255155544161796,0.1843547374010086,-0.1279716342687606,0.1834246516227722,-0.052591187980771,-0.0323839328941656,0.0644873774796724,-0.0013282231520861,-0.0116791883483529,-0.0077062640339136,-0.550827709877491,1.3109773846268653,0.3612801205337047,0.6384614109992981,-1.0361051559448242,2.196197986602783
1773257935072359700,0.449359619140625,-0.3994236809670924,0.0196101979423314,-0.0869119752556085,0.2376192808151245,-0.2306729853153228,0.257713258266449,-0.0288958396166563,-0.0209923410496907,0.0466212467256933,-0.0004725493490695,-0.0052244858816266,0.0020941686816513,-0.6362601140998303,3.827930687443912,-0.9469219541609288,0.0170114729553461,-1.3643532991409302,2.0999321937561035
1773257935082385700,0.4593857421875,-0.5605009626299142,0.0646892201947048,-0.0598103255793452,0.2905253767967224,-0.3681042194366455,0.3019181787967682,0.0573825139105319,0.0155816548123024,-0.0547962237443774,0.0026023793034255,0.0294976327568292,0.0015236750477924,-0.3175730807542801,5.490245182999968,-1.4660598097890614,-0.2207635343074798,-1.1712719202041626,1.846858263015747
1773257935092413000,0.469412841796875,-0.6689508159548044,0.1141665870038792,-0.0364468395181,0.3440764844417572,-0.5161075592041016,0.3135847151279449,0.0621142186075448,-0.0417076826557517,0.0023616876300424,0.0016313907690346,0.0305541083216667,-0.0015919571742415,0.0686057725839316,2.469095865359902,-0.6361451094180345,-0.1737941652536392,-0.7960264682769775,1.74546217918396
1773257935102439000,0.47943896484375,-0.7433791572123766,0.1352173756759613,-0.0068869830347597,0.3911207318305969,-0.6457476019859314,0.2898329794406891,-0.0488958405941724,0.0059539628012338,0.0316100670114159,0.0022743467707186,0.0164151173084974,0.0011113511864095,0.5115127675771713,1.8812755186498165,-0.5787076504498719,0.0278175808489322,-0.5659257769584656,1.6702345609664917
1773257935112466000,0.4894658203125,-0.7373316937416792,0.1540169513551518,-0.0196057409629225,0.4320939779281616,-0.7164270877838135,0.2435943782329559,-0.002398293313384,-0.0060365813170792,0.0190377318166196,-0.000923044513911,0.0198007933795452,-0.0021680654026567,0.1159866785705089,0.6176242410823702,-0.5490525168985128,0.0841303840279579,-0.5108497738838196,1.5891159772872925
1773257935122492000,0.499491943359375,-0.816639623734355,0.1460489316180348,-0.0752900726534426,0.4523962438106537,-0.7596627473831177,0.1804166585206985,0.076420391857624,-0.0349488743116147,0.0106817722078412,0.0033731842413544,0.0572365000844001,-0.0023774122819304,0.4419488174855708,-0.0006669394761323,-0.8371516658872366,-0.0197854731231927,-0.5599207878112793,1.3794366121292114
1773257935132518700,0.5095185546875,-0.8269757243096828,0.1312462252889759,-0.040117052463442,0.4578048586845398,-0.798561692237854,0.1224409639835357,0.0936807387381792,-0.0649250062785344,-0.0065816434126347,0.0065732388757169,0.0791226178407669,-0.0037188464775681,1.467404356265813,0.0774894823938608,-1.3922761961758137,-0.1346063315868377,-0.5649821162223816,1.1716748476028442
1773257935142545000,0.519544921875,-0.8118722632020712,0.122023985973373,-0.0093780691981315,0.4594850540161133,-0.8323394656181335,0.0848291367292404,-0.0491939467579126,0.0269786717505659,0.0031564912695437,0.0050765592604875,0.0491068512201309,-0.0057979980483651,1.3744175911411642,0.2925648962259292,-1.364917649129033,-0.0903944820165634,-0.6236266493797302,1.003121256828308
1773257935152571000,0.52957080078125,-0.7308785720795392,0.1051218414133414,0.0140910691946744,0.4667706787586212,-0.8593702912330627,0.0645129457116127,-0.1138245321005582,-0.0062878206983674,0.0723538000058382,0.0037297990638762,0.0074837729334831,-0.003605151316151,1.000952235034108,0.101722883157432,-0.477473135331273,0.1013712286949157,-0.6552785634994507,0.8640220165252686
1773257935162598000,0.539597900390625,-0.5949784017711878,0.0424738447226583,0.0063726037718355,0.4832956194877624,-0.868222177028656,0.068043440580368,0.0064262336552143,-0.0043033186505315,0.0060964171789586,0.005731550976634,0.0282003171741962,-0.0015602209605276,1.255939680276811,-0.0100330259755253,0.6427186425894499,0.4363227784633636,-0.8231770396232605,0.5462304949760437
1773257935172624000,0.549623779296875,-0.3896791165441274,-0.0161030483379028,-0.0962735317103564,0.4939301609992981,-0.8431974649429321,0.1045194268226623,0.1154413196474313,0.0019248168830061,-0.0640914369646459,0.0025032667908817,0.0822275951504707,-0.0083922939375042,2.398376315492392,0.12428396679461,1.0881243225306272,0.5965816974639893,-0.8909323811531067,0.4012860953807831
1773257935182651000,0.55965087890625,-0.1101081419259309,-0.0106121227714233,-0.1337714877165854,0.4987235367298126,-0.7640225887298584,0.1669242531061172,0.1306710374832153,-0.0197099045902956,-0.0542456041242927,0.0020825734827667,0.1201261579990387,-0.0158668104559183,1.2519646391659975,-0.6273388487584889,0.688366295042634,0.7857357859611511,-1.0682587623596191,0.374317467212677
1773257935192676900,0.5696767578125,-0.0723877753406763,0.0910375672856345,-0.1185785947598516,0.4830210208892822,-0.661679208278656,0.2482902109622955,-0.0321668241113424,-0.0113005342938471,0.0204599466394633,0.0012045290786772,0.0846717655658721,-0.0168239511549472,0.2250511566624045,-0.8727169002652168,0.5503524935811758,0.9988315105438232,-1.157687783241272,0.3532494902610779
1773257935202704000,0.579703857421875,-0.0535568181425333,0.2351612664621323,0.0079577540714293,0.4878572523593902,-0.5330758094787598,0.3360528945922851,-0.1522749665260314,0.0064659263447858,0.0804097537547349,0.0024373063351958,0.0222872141748666,-0.0085654892027378,0.4630725617960095,-1.1883774253964423,0.2090717895030975,1.1873804330825806,-1.1540544033050537,0.2856511771678924
1773257935212729900,0.589729736328125,0.0156944127380847,0.3189103207074105,-0.0071206456601619,0.55030757188797,-0.462893545627594,0.4203139841556549,-0.059016252592206,-0.0433287627852521,0.0970593483258038,0.0060011483728885,-0.001348074292764,-0.0014942637644708,1.1613120160773396,-1.6161251374416052,-0.3426163365960121,1.3131479024887085,-1.0219115018844604,0.1490781456232071
1773257935222755600,0.599755615234375,-0.1069780272066593,0.2130043066464364,-0.2497664957240223,0.6030595898628235,-0.4954376518726349,0.5193488597869873,0.1429752232611179,-0.0247087449240498,0.0162696553427726,0.0044566527940332,-0.0401521995663642,0.0184428263455629,1.2627622197732329,-1.92659788467139,-0.5210147554159165,1.3855253458023071,-0.8781110644340515,-0.0174425989389419
1773257935232782800,0.609782958984375,-0.0878875422894954,0.1389713670477736,-0.1848085781231522,0.6243086457252502,-0.5554813146591187,0.6276846528053284,0.0264572142928838,-0.0409644904724787,0.1301399262811988,-0.0038052722811698,-0.0279365461319684,0.0580999553203582,0.824466956359148,-1.9434854527167973,-0.3224088303476571,1.4457402229309082,-0.7389110922813416,-0.1685767173767089
1773257935242808800,0.619808837890625,-0.1118085161030292,0.2066773686472326,0.0109657767809927,0.5940233469009399,-0.5776022672653198,0.7552344799041748,-0.0685626640945673,0.0133092483343323,-0.0677776511967182,0.0070652184076607,-0.0298609472811222,0.0164795443415641,0.464548771828413,-1.8000784139096735,-0.2928986582249402,1.4917153120040894,-0.6340047717094421,-0.2849891483783722
1773257935252835800,0.6298359375,-0.151000124284625,0.1543493251146748,0.2608021228708326,0.5544666051864624,-0.5705544948577881,0.9025919437408448,-0.0132791682898998,0.0026029627397423,-0.0260591548860073,0.0037003145553171,-0.0437962003052234,0.0236415825784206,0.2487915132120251,-1.7570478120870887,-0.4777601355791092,1.548545479774475,-0.5753161907196045,-0.3874928951263428
1773257935262861800,0.63986181640625,-0.0549888967722654,-0.0121616172357462,0.3290157543320208,0.5296517610549927,-0.5918093323707581,1.0536900758743286,-0.0297089095652103,-0.0191384476781589,0.1118729596413671,0.0058483090251684,-0.0833626091480255,0.0447251386940479,0.3326277342841029,-1.7387521308094265,-0.4975315884977578,1.6117082834243774,-0.6612316966056824,-0.4577899873256683
1773257935272887800,0.6498876953125,0.0806920778274536,-0.086589136509411,0.2443976621672511,0.5306656360626221,-0.6729789972305298,1.1740188598632812,-0.03345803296566,-0.02163899578962,0.062294835871458,0.0113394809886813,-0.0982949510216713,0.0444713421165943,0.3887067643806338,-1.392993696795404,0.0578980622172355,1.6505647897720337,-0.7584671378135681,-0.4895092844963074
1773257935282914600,0.65991455078125,0.0491623825758695,-0.1630649118160828,0.2534200497955083,0.5387476086616516,-0.841943085193634,1.2228233814239502,-0.0077834934830665,-0.0485792352259391,0.0475260135456919,0.0159542933106422,-0.049501396715641,0.0231313444674015,-0.1632058181241154,-1.2469269372597336,0.1892968294531107,1.5258910655975342,-0.6831957697868347,-0.4965797066688537
1773257935292940800,0.66994091796875,-0.469420177257061,-0.1397460320815444,0.3978276074146851,0.5051712989807129,-1.0038704872131348,1.1617422103881836,0.0429261185348033,0.0106798314125044,-0.0426901908870786,0.016220074146986,0.0106154661625623,-0.0056054964661598,-0.979168857771158,-2.2887694010868667,-1.0665314994037152,1.2222965955734253,-0.5046806335449219,-0.4510082006454468
1773257935302967800,0.6799677734375,-1.0481588073670864,0.0050569911286234,0.6608040421172976,0.44571653008461,-1.0384042263031006,1.0251877307891846,0.2287123095184564,-0.0257328409745125,-0.0877373932290822,0.0176361128687858,0.0993837788701057,-0.0206606555730104,-1.7459566553607582,-2.984635988757014,-2.431018940421939,0.9098709225654602,-0.3591698706150055,-0.4115731716156006
1773257935312993800,0.689993896484375,-0.9518255082935094,0.1290415365852415,0.5154934347111731,0.4472009539604187,-1.03147554397583,0.880327582359314,0.0498263994425535,-0.0298700321107869,-0.0376328344322741,0.0205498784780502,0.1396198868751526,-0.0244324915111064,-1.8260770707800984,-2.6336580665290352,-2.200816684606671,0.7046442627906799,-0.1900974810123443,-0.3879384100437164
1773257935323020800,0.700020751953125,-0.688670246425271,0.0134003104515373,0.0165288177356123,0.482386440038681,-0.950037956237793,0.7392314076423645,0.1118511862009763,-0.0416134011015761,0.0396268577937036,0.0250299759209156,0.1521131098270416,-0.0171336755156517,-1.3283996440708636,-2.183506361104548,-1.506605755189061,0.5457905530929565,-0.1242956519126892,-0.352202445268631
1773257935333046800,0.710046875,-0.2438607788115739,-0.1501444573033601,-0.175312106709741,0.5042008757591248,-0.7788038849830627,0.5856897830963135,0.0736842448920011,-0.0220249309338629,-0.0981152140542864,0.0207345634698867,0.1543874442577362,-0.0017728290986269,-1.0543991630613805,-1.261948857563734,-1.4946756634205578,0.4367786049842834,-0.2435770332813263,-0.3178977370262146
1773257935343072800,0.72007275390625,0.267438053753972,-0.2404088847920298,-0.2219484414067119,0.4825320541858673,-0.6059461236000061,0.4287420213222503,-0.0751560710102319,0.0848361005633138,-0.125975573143363,0.0096318442374467,0.1467202007770538,-0.0045598270371556,-1.0543728595763444,-0.5155833780169486,-1.088368652680516,0.3137718737125397,-0.2287956625223159,-0.3450110852718353
1773257935353099800,0.730099853515625,0.4743383444368839,-0.2205500458508729,-0.1295726386541034,0.405484139919281,-0.4989421665668487,0.2753575146198272,-0.0980406875133514,0.0763438331898068,-0.2055533330533653,0.0476894788444042,0.2423130422830581,-0.0558195523917675,-0.7359636202588677,1.1490789958395062,-0.6306494346112013,-0.0238352101296186,-0.1920288503170013,-0.3769184350967407
1773257935363125800,0.740125732421875,0.3842442320138216,-0.0421047922145575,-0.0221226648204494,0.3188637495040893,-0.504059910774231,0.1307651996612548,-0.2667413036614656,0.0423238143932539,-0.1628745768757536,0.1022313311696052,0.2362142354249954,-0.0760295242071151,-0.987106665033102,1.5017060004487632,-0.2981394814878702,-0.4139622151851654,-0.2001025974750518,-0.2410778403282165
1773257935373152800,0.75015283203125,-0.0103863694578409,0.1356795132949948,-0.0480527408335357,0.2248030602931976,-0.6122614741325378,0.0089074708521366,-0.4469599236458539,-0.0232218491008505,-0.0519059821955859,0.2433442324399948,0.2787571549415588,-0.0405061542987823,-1.3653849743798374,0.7835099459402263,-0.3983388083398342,-0.9267756938934326,-0.6332466006278992,0.0261477418243885
1773257935383178800,0.7601787109375,-0.3641226504832506,0.3664175564873963,0.0874890992901288,0.1202078536152839,-0.7992536425590515,-0.0928374379873275,-0.2027653828352689,0.2561338387988507,-0.1541696211662143,0.4104533493518829,0.0697970315814018,-0.0662280321121215,-1.1556924226298928,2.136391997099668,-1.0381921246260404,-0.9447668194770812,-1.0599833726882937,0.4621585607528686
1773257935393205800,0.770205810546875,-0.7750444615423678,0.524021462951228,0.328109526207298,-0.0083948606625199,-1.1522740125656128,-0.273788571357727,0.1993003370732068,0.3574183305390179,0.5037478326641023,0.4526822865009308,-0.0863116160035133,-0.0881820693612098,-1.82198103363812,1.1550403884619471,0.3340624432623386,-0.7831925749778748,-1.0823347568511963,0.8459098935127258
1773257935403231700,0.780231689453125,-1.80631467795074,0.6294848478112369,0.9324899625740944,-0.166714459657669,-1.8683152198791504,-0.6815419793128967,0.2174789678424596,0.2070523394394665,-0.0783031368643045,0.4211233556270599,-0.0104075362905859,-0.0580708347260952,-1.785653582715988,0.1740720069881528,0.4705255081504583,-0.6843763589859009,-0.9323410987854004,0.9716561436653136
1773257935413257700,0.7902578125,-3.026629210355878,0.997667075883597,1.4220026413977145,-0.1804579794406891,-2.5678985118865967,-0.9871985912322998,-0.0794704270780086,0.3122250707898288,-0.2323991082724183,0.447642058134079,0.1021943688392639,-0.074803739786148,-0.8053671190917492,0.4596146764270961,0.0133095634281635,-0.564217209815979,-0.8737544417381287,1.004212498664856
1773257935423284700,0.80028466796875,-1.457183260372281,0.9638288114286958,1.18138077144213,-0.1542634218931198,-2.738760709762573,-1.2092273235321045,-0.1700111142247915,0.514361508071795,-0.301238799210079,0.5284514427185059,0.2974247932434082,-0.1744776368141174,-0.1024661027401685,1.1816636069715023,-0.683604779729247,-0.4501851499080658,-0.8909014463424683,0.9182946681976318
1773257935433310700,0.810310791015625,0.3242781313508748,-0.4728744824294,0.7622244351968169,-0.1485117822885513,-2.3323781490325928,-1.363942265510559,-0.1117179152101278,0.518086775672622,-0.3202188825553282,0.6464699506759644,0.1778347343206405,-0.2400396019220352,0.3169219233691692,1.6092846238970755,-0.7095838551163673,-0.3200652301311493,-0.3470844626426697,0.6001588106155396
1773257935443337700,0.820337646484375,1.3455267199605705,-1.464385739096999,0.2577778066135943,-0.138962984085083,-1.7338905334472656,-1.3728783130645752,0.2270703875303268,0.3220053275806829,-0.0409035631986334,0.7558958530426025,-0.0054477350786328,-0.2205844670534134,0.5590162770301104,1.1593026490163056,-0.1129249529123306,-0.3009466528892517,-0.0354757644236087,0.2773379981517792
1773257935453363700,0.83036376953125,1.872967709031701,-0.6098580275276676,0.4720467263683676,-0.1580860763788223,-1.2032378911972046,-1.3107670545578003,-0.0825105254262685,0.1617987643377855,0.1352102883480489,0.7928056716918945,-0.1381407976150512,-0.1727977693080902,0.7099386599034071,-0.3710227852605283,-0.7362444830268621,-0.2785393595695495,0.065418891608715,0.2623153626918793
1773257935463389700,0.8403896484375,1.5739672268003224,-0.0283985941516235,0.8189026002302765,-0.226701021194458,-0.911482036113739,-1.209235429763794,-0.0802121853560209,0.0982455807019956,-0.0742215666390955,0.7557090520858765,-0.2571704387664795,-0.209370881319046,-0.2473269936174154,-0.7857717533923685,-1.1229074666202068,0.0234188139438629,-0.2533774971961975,0.4371024966239929
1773257935473416700,0.850416748046875,0.8299252217650414,-0.0621636655061505,0.8416853637941181,-0.3470466136932373,-0.7660537362098694,-1.039461374282837,0.1416015968203544,0.0344300198029726,-0.3468366211721673,0.6947833895683289,-0.2742942869663238,-0.2772050499916076,-0.4837368719011545,-0.0604484042871743,-0.2194119817316532,0.3171974420547485,-0.5191354155540466,0.5905922055244446
1773257935483442700,0.860442626953125,0.395155502128601,-0.2350002306815236,0.7409785258114338,-0.4828299582004547,-0.6676825284957886,-0.7871944904327393,-0.0575578704774379,-0.0310379662118852,-0.1646180230095982,0.6280338764190674,-0.2419113218784332,-0.2891263663768768,-0.1558931570231914,0.1737893175892531,0.505554735955596,0.5919244289398193,-0.5587483644485474,0.5677697658538818
1773257935493469700,0.8704697265625,0.3980471319168805,-0.3795155229914933,0.3936280003003776,-0.5794691443443298,-0.6269212961196899,-0.4460110664367676,-0.1299520755589008,-0.1017331488231196,0.0569445608846843,0.5642282366752625,-0.1795877665281295,-0.2606230676174164,0.169903854458034,0.7583079924054443,1.186567745625973,0.7412031292915344,-0.3670261204242706,0.3983111977577209
1773257935503495700,0.88049560546875,0.932318259268999,-0.2829308429727331,0.0827503255315125,-0.5869875550270081,-0.6390089988708496,-0.0391359739005565,0.0410679234474897,-0.0700998470665887,-0.0255009730139747,0.5274152755737305,-0.0321171805262565,-0.2485734820365905,0.5628443108856678,-0.0591819645479321,0.5680027165621518,0.5899770855903625,-0.3273513913154602,0.2659820020198822
1773257935513522700,0.890522705078125,1.4878162990450858,-0.3597190086968242,-0.2990773468598723,-0.5123940110206604,-0.7509153485298157,0.3702544569969177,0.0039262335330247,0.2425416225044056,-0.0934822570240125,0.5421832799911499,0.0639068186283111,-0.2784086167812347,0.8443190732985735,-1.654227050690353,-0.7937713738441466,0.3687533736228943,-0.1997393816709518,0.2033191323280334
1773257935523549000,0.900548828125,1.660399894106388,-0.0077137709814123,-0.715473059285432,-0.426616370677948,-0.7649803161621094,0.7471140027046204,-0.1540010596662759,0.5002041687078773,-0.081294208439067,0.579317033290863,0.0615331567823886,-0.3212774395942688,0.6045441024959087,-1.4752315427601337,-0.3367559201300144,0.2522954642772674,-0.1229484155774116,0.1882900297641754
1773257935533575000,0.910574951171875,1.941739631962776,0.1742746351544745,-0.2467119304589927,-0.3843253850936889,-0.6478058099746704,1.0584388971328735,-0.4046095591723919,0.255546138571389,-0.2028043631387874,0.623863697052002,0.043894775211811,-0.3706135749816894,0.4773214519008993,-0.9692178109906612,0.3198836957842111,0.2122138291597366,-0.1320923864841461,0.1335263848304748
1773257935543601700,0.9206015625,2.0159715738654134,0.0679080361107364,0.2749102893307805,-0.397256463766098,-0.4210005104541778,1.2891141176223757,-0.4379202926218509,-0.0671326678240671,-0.3374916870586574,0.6457358598709106,0.0878732427954673,-0.4476959705352783,0.4535702816963196,-0.942952100681886,0.5552151311814785,0.3239485919475555,-0.1323756873607635,-0.0184477921575307
1773257935553627600,0.930627685546875,1.6164730740964413,-0.1460117779454216,0.4330041712686419,-0.4369058907032013,-0.2562589645385742,1.4249944686889648,-0.019653379496932,-0.5283093328708782,-0.2994819821380078,0.698984682559967,0.221778318285942,-0.5887244939804077,0.8508990362107753,-0.9889626681633292,0.5472632953941822,0.5216739177703857,-0.0097690820693969,-0.2101578414440155
1773257935563654700,0.940654541015625,0.6200450384885072,-0.3073131141550839,0.6464712731212378,-0.4556303024291992,-0.2830650806427002,1.4844003915786743,-0.2712561507374048,-0.3424445602256804,0.0868299595279619,0.7509377002716064,0.1893181055784225,-0.712591290473938,0.5732029155537486,-0.9869464329700915,0.3219868055433034,0.6556907892227173,0.1316800564527511,-0.4032319188117981
1773257935573680600,0.9506806640625,-0.0836415752828121,-0.1355612206775695,0.6581082271620631,-0.4308106899261474,-0.4757146835327148,1.4637545347213743,-0.5911351703464984,0.2214440720811486,-0.0051944633705541,0.8182064890861511,0.0990577042102813,-0.8196021914482117,0.4765718025773763,-0.8355522678665817,-0.508611200916767,0.833013117313385,0.3327231705188751,-0.6225847601890564
1773257935583708000,0.9607080078125,-0.8113760041177273,0.1497881181463599,0.6243266613304614,-0.3570615351200104,-0.658772885799408,1.4079740047454834,-0.3589969780325889,0.6509918923508375,-0.4014372858118266,0.8502371907234192,-0.0520308688282966,-0.9273388981819152,0.3484177163511514,0.4869893708910793,-0.5841922193408012,1.121910810470581,0.5682228803634644,-0.7928826212882996
1773257935593734000,0.97073388671875,-0.8529501235216855,0.1429316763803362,0.756149791458249,-0.2346264272928238,-0.7306814789772034,1.3848116397857666,-0.118905196365714,0.9339694605421276,-0.3944391705527901,0.8503607511520386,-0.3034284710884094,-1.0300804376602173,-0.4369418029785156,2.01434572622925,-0.403020244154334,1.3324443101882937,0.70677649974823,-0.8496457934379578
1773257935603759900,0.980759765625,-0.2591758368432522,-0.1845009734787046,0.6822701701246202,-0.0774644762277603,-0.6837462186813354,1.4239885807037354,-0.263094471591711,0.8939792493287474,-0.1137949406798928,0.8216941952705383,-0.4915246963500976,-1.0938364267349243,-1.223035481801629,2.038769973389804,-0.6517904223173856,1.3544254302978516,0.7193867564201355,-0.7645021080970764
1773257935613786600,0.99078662109375,0.3970218805223703,-0.253041133480519,0.3753875563412904,0.0707987621426582,-0.4364892542362213,1.4954164028167725,-0.4541039501816034,0.6589664514265954,-0.3540449816484004,0.7803952097892761,-0.5885378122329712,-1.1074241399765017,-1.560784212361276,1.2818120804190636,-0.9268237535059451,1.1573152542114258,0.7623904347419739,-0.64618319272995
1773257935623812600,1.0008125,1.1173206063985823,0.0570062279440462,0.0227788180410861,0.2577431201934814,0.0956821143627166,1.4756261110305786,-0.6150351013720036,0.4426765472382307,-0.6437294270671904,0.7302435040473938,-0.7417477965354919,-1.0754975080490112,-1.1397680005282165,1.0223778118353335,-1.1697644948631525,0.6156401634216309,0.6203562617301941,-0.6724734306335449
1773257935633839900,1.01083984375,1.135243801102042,-0.1738185436837375,-0.3918694661952555,0.6339330077171326,1.090109944343567,1.268893122673035,-0.6066688395649195,0.6026251171320677,-0.6411218749172986,0.6562834978103638,-0.9139198064804076,-1.0445798635482788,-0.0234098094210028,0.6282138780273496,-2.523783733358979,-0.2910503447055816,0.2135911881923675,-0.7635136246681213
1773257935643865900,1.020865966796875,1.3050707909315824,-0.31694369680956,-0.7607105235025287,0.95107102394104,1.9069424867630005,1.0190248489379885,-0.4347761493772268,0.7877788554310798,-0.4066388730429112,0.5461317300796509,-0.9614899754524232,-1.0700457096099854,0.4199374766856432,1.189308861027658,-3.857400235295296,-0.8210245370864868,0.1522051095962524,-0.885838508605957
1773257935653892900,1.030892822265625,1.5772124923318624,-0.8959194966763258,-1.0613844919040798,0.7373301982879639,1.4329546689987185,0.53413325548172,0.1691886919260025,0.5258550350539386,-0.0524730414938181,0.4475002288818359,-0.7494456171989441,-1.135867953300476,0.645043870666623,-0.3660654551140964,-1.4918635286092756,-0.88033527135849,0.1059270873665809,-0.890258252620697
1773257935663918800,1.0409189453125,-0.0548304913401603,-2.728830505129695,-2.490404903109372,0.6969002485275269,1.1571762561798096,-0.1640818566083908,-0.3738876731723546,0.3813566938787698,-0.0498990993525832,0.2760102450847626,0.06550233066082,-0.7480909824371338,-0.6531938593745231,-1.1286910915229469,-0.0972913304507732,-0.9186089038848876,0.0631549581885337,-0.7626226544380188
1773257935673944800,1.05094482421875,-1.4121382499873638,-1.2491112955614925,-2.722953722050786,1.0107077360153198,1.5993717908859253,-0.4027676880359649,-1.4719494523495436,0.8934870088323951,-0.1871293492209166,0.088623322546482,0.2419242262840271,-0.2392863184213638,-1.936689362835884,-0.2080840205747634,-0.9174269796073437,-1.0969693660736084,-0.0872736945748329,-0.651140034198761
1773257935683971600,1.0609716796875,0.2609527833878994,1.7142907665088771,-0.302869432619214,1.2708525657653809,1.9064712524414065,-0.5631561279296875,-1.539191096973419,1.1406104427017272,-0.0023692133493721,-0.0015079863369464,0.3508569300174713,0.1112547442317009,-1.5538143733486531,0.580253710848093,-1.7565531604379414,-1.200318694114685,-0.3176927268505096,-0.5920132398605347
1773257935693997800,1.070997802734375,-0.7618173157006501,1.6166721037998797,0.3607730477944016,1.115875244140625,1.825069546699524,-0.7357134819030762,-1.77345285731256,0.4207290654547512,-0.0567110443897545,-0.0925521403551101,0.5362944006919861,0.3794891238212585,-0.937196971221268,0.6778090990625322,-0.99229488132596,-1.1240636110305786,-0.4485431313514709,-0.5055800676345825
1773257935704024800,1.08102490234375,-1.4696259778380394,0.2701240779675543,0.6643959291294217,0.816736102104187,1.854159474372864,-0.8964055776596069,-0.5229834251403809,-0.1343028181143105,-0.1422125683255493,-0.2171699404716491,0.5440184473991394,0.4536799490451813,-0.9839745044872164,0.2720592838138341,0.2973988922536373,-1.0468672513961792,-0.6130983233451843,-0.488312155008316
1773257935714050800,1.09105078125,-1.4383084640324115,-0.1589144045405089,1.4451789343237875,0.5796130299568176,2.2697811126708984,-1.0367586612701416,1.0805834056317805,0.3583199555538594,-0.1714331829171627,-0.2685601413249969,0.4038102626800537,0.3165687024593353,-0.5754787515312433,-0.3100610976889729,0.8036486247360706,-1.094187617301941,-0.6574892401695251,-0.5510162711143494
1773257935724077800,1.101077880859375,-1.2609317894756793,0.3394663481324911,1.9197016954168675,0.437225341796875,2.296915292739868,-1.3401103019714355,1.6701882976710796,0.7217695290811359,0.1925196639571338,-0.2217562198638916,0.1939307749271392,0.1603575944900512,-0.3556692949146032,-0.5961978605635464,0.7830927434414625,-1.1086505651474,-0.7380300760269165,-0.6487975120544434
1773257935734103600,1.111103515625,-2.047816910937428,0.1912321814298629,1.0478589476376772,0.3655716478824615,2.063373565673828,-1.7616746425628662,1.09686584739089,0.4761813419550657,1.259383537120372,-0.0675397515296936,0.1548286378383636,0.0891446694731712,0.0322238149955868,-1.054878032619506,0.9704039520353078,-1.0842647552490234,-0.9128263592720032,-0.6665562391281128
1773257935744130800,1.121130859375,-1.8137883748322725,0.557616347104311,0.738804250512272,0.3439515829086303,1.7880276441574097,-2.2692975997924805,0.2272965975016355,0.2822296724334359,2.135055633929372,0.1367014050483703,0.2525181174278259,0.1548335254192352,-0.1676312333509325,-0.8526847505837678,1.147144666776061,-0.9764111638069152,-0.9860949516296388,-0.6990764141082764
1773257935754156800,1.13115673828125,-1.6389461871892212,0.508647222078219,0.3326690526751801,0.3327524662017822,1.7920162677764893,-2.7544662952423096,-0.273738030681014,0.2633291571304202,1.5717477971851823,0.2725745737552643,0.3590418994426727,0.1942320615053177,-1.0139268674194812,-1.3445814019344746,1.1647206554770468,-0.7829759120941162,-0.9342743754386902,-0.6390450596809387
1773257935764182800,1.141182861328125,-1.3909323803514242,0.1968845081031322,0.2291327086213044,0.2857928276062011,2.219501495361328,-3.115870714187622,0.0247433961123228,0.1395515324227511,0.056030222518742,0.1902697682380676,0.3277369439601898,0.2204533368349075,-1.3441533857807515,-1.838769086831808,1.6136965951204298,-0.5996479988098145,-0.7943385243415833,-0.6613879203796387
1773257935774209800,1.151209716796875,-0.5043500363409519,0.0773183544775005,0.5282456930501386,0.2820958197116852,2.8317227363586426,-3.2974963188171387,-0.5187929877132177,-0.5421873073041439,-0.2107960925450548,0.0678381323814392,0.4601085782051086,0.2929243445396423,-0.6468278314739465,-1.892924163128436,1.706596412613988,-0.3155334293842315,-0.5581193566322327,-0.7075005173683167
1773257935784235800,1.16123583984375,0.8422112873643636,0.235781170192454,0.6526838640257716,0.3379988074302673,3.3962559700012207,-3.24491810798645,-1.7014999662578103,-0.5252756277307867,0.0803504247829318,-0.0256437007337808,0.6866598129272461,0.3802220225334167,-0.8913958817720413,-2.516600251595676,2.580636670437455,-0.124677762389183,-0.3760310113430023,-0.6953820586204529
1773257935794262500,1.171262451171875,2.447161096927524,1.0293531307406725,0.5244396152980625,0.3123610615730285,3.779629468917847,-3.043433904647827,-1.17049631626904,-0.1430417126260697,-0.9006684447690844,-0.197708398103714,0.7441310882568359,0.4000918865203857,-1.388474465805292,-3.059081281149388,2.348962003982067,0.1061101853847503,-0.3574536144733429,-0.8027817606925964
1773257935804288500,1.18128857421875,3.138680303043127,1.936216484627128,0.3980937475375831,0.2683340609073639,4.025393962860107,-2.7775142192840576,-0.2546206577569246,0.1593026732057333,-1.6764739538118243,-0.397514283657074,0.7071704864501953,0.3141190409660339,-0.5855436339497566,-3.951204308152199,2.675408711543679,-0.0431724339723587,-0.5088415741920471,-1.0672823190689087
1773257935814315800,1.191315673828125,2.7424603865534065,2.077012610283494,0.198404849538207,0.2272798269987106,4.163755893707275,-2.476890802383423,-0.1938736358493566,-0.0256070272043347,-1.0254011782445014,-0.5060908198356628,0.6786672472953796,0.2509208917617798,0.6239166192248463,-1.7500230280168354,-1.344318513214588,-0.5763993263244629,-0.2489996552467346,-1.0838475227355957
1773257935824341800,1.201341796875,1.2309551688849925,1.3883908791750668,-0.1646725296758115,0.3299033939838409,1.620023250579834,-1.9102050065994265,-0.6808551887601614,-0.3162232735805213,0.017455084001366,-0.4603954553604126,0.6626520156860352,0.3244765400886535,-1.297665483111143,0.6104983347252011,-4.939539638197422,-1.1079485416412354,-0.1005917713046073,-1.1958720684051514
1773257935834367700,1.21136767578125,-7.353386494544148,-2.573965814371407,-4.794809095701575,0.5660839080810547,-0.6196547150611877,-1.3390538692474363,-1.2596242140084504,-0.4247999681554734,0.4121964706374332,-0.3609101474285126,0.6262745261192322,0.5284573435783386,-0.3216536280661821,1.2651288027741014,-4.243170069441199,-1.3862115144729614,-0.4832329154014587,-1.469027757644653
1773257935844394800,1.221394775390625,-3.3121108703225848,-3.2371161273539064,-3.3582758246481417,0.9062156677246094,-1.9936177730560305,-0.8458648920059204,-1.8650521136015648,-0.4821354280538856,0.5160732438931241,-0.2797102034091949,0.6219160556793213,0.8097155690193176,1.2095476391971112,1.71209384098649,-1.7445599403053522,-1.290511131286621,-0.6807196736335754,-1.6738314628601074
1773257935854420700,1.231420654296875,0.0877396582514047,-1.9485520884566008,-0.5583870392158627,1.1648787260055542,-2.0971357822418213,-0.4561387002468109,-2.385047462841868,-0.7849819181889295,0.8475638273734599,-0.179073080420494,0.5850712060928345,1.1559970378875732,0.4424342629149556,1.6475117709606886,1.512961846217513,-1.0968846082687378,-0.7424509525299072,-1.7461178302764893
1773257935864447700,1.24144775390625,3.305116481390596,-0.1592312154047191,1.8716244777292013,1.3316787481307983,-1.5686792135238647,-0.122490108013153,-2.1877859381198883,-0.523364021955803,1.0466533712401986,-0.0501080974936485,0.4435619115829468,1.3969392776489258,-0.571499326506257,1.1720949836373329,2.106969941651821,-0.9606605768203736,-0.632283627986908,-1.6652580499649048
1773257935874473700,1.2514736328125,4.211634528970718,0.6943532604977488,2.819610553990304,1.476363182067871,-1.078559637069702,0.2028634846210479,-1.5026263301640748,0.2335719514440745,0.2380027552320621,0.0797180756926536,0.111788235604763,1.296447515487671,-1.5103846892058848,0.6280521115943789,1.361250943315029,-0.84891676902771,-0.4390590190887451,-1.65030038356781
1773257935884500700,1.261500732421875,3.871955414870381,0.5822201886154711,2.453730538445711,1.5520267486572266,-0.5265398621559143,0.5609833598136902,-0.1529372298270463,0.6360816157277673,-0.8824719130169599,0.0649996697902679,-0.2406593710184097,1.0863319635391235,-0.597730623088777,0.4538847544729709,0.6371329514116049,-0.7521405220031738,-0.327947586774826,-1.7332103252410889
1773257935894526700,1.271526611328125,3.7755133947253214,0.4865644965425133,2.218281614148617,1.2636277675628662,0.5527026653289795,1.0144104957580566,-0.5924895075649023,0.0091367347229272,-0.2244602963634766,0.0583201944828033,-0.3138062655925751,0.9252707362174988,0.2387777764588594,0.4471002088993787,0.140054367378354,-0.6243511438369751,-0.0969934687018394,-1.6971596479415894
1773257935904553700,1.2815537109375,4.323483961606025,0.0453312799803912,1.2135115743920206,0.5539156794548035,1.7065069675445557,1.4296573400497437,-1.794680354258418,-0.3913421909181401,0.6876252674169838,0.0843866914510726,-0.0010052495636045,0.8912565112113953,-0.4347369864106178,0.7532523164510726,0.1017126540243625,-0.5078195333480835,0.1777025312185287,-1.6575369834899902
1773257935914579700,1.291579833984375,4.573456501296162,-0.4265274495352059,0.2443073535352945,-0.1769816726446151,2.2038869857788086,1.7058074474334717,-2.496801618409157,-0.7969974962837993,0.5587649326175451,4.03835438191e-05,0.3940328955650329,1.0109248161315918,-0.0799830527752637,1.5586574294656514,-0.2617594235956669,-0.5305453538894653,0.1752771884202957,-1.7660636901855469
1773257935924606000,1.30160595703125,3.868030934903025,0.2163902227576822,-0.2835457234680652,-0.6650296449661255,1.961503267288208,1.8932311534881592,-2.9024627324610948,-0.9012700639240444,0.1719242909023538,-0.1883900314569473,0.8915197849273682,1.21888530254364,1.4958452917218208,3.017484657652676,-1.213930384325981,-0.5739189386367798,0.0691177546977996,-2.03628158569336
1773257935934632700,1.3116328125,1.9373896200597285,1.5253703691527247,-0.5684697495520115,-0.9618895649909972,0.9533390998840332,2.0758423805236816,-3.606683599239588,-1.14964795483388,0.0567058567579835,-0.4336889982223511,1.4960026741027832,1.4795695543289185,2.772096230882406,4.562073522016406,-0.9663502927303314,-0.1040571630001068,-0.4098291099071502,-2.3119242191314697
1773257935944658700,1.32165869140625,0.1626607514619827,1.6978104640901088,-0.5779464568190277,-1.1320414543151855,0.6336464881896973,2.303903341293335,-4.12878848797977,-1.4589499777838586,-0.161490502106212,-0.709710955619812,2.069087505340576,1.7573941946029663,2.9965397770404816,3.8222891744256016,2.7997306722611186,1.1797465085983276,-1.050168752670288,-2.6332221031188965
1773257935954685700,1.331685791015625,1.947287329217792,1.1726781172875314,0.5713708778209984,-1.2188208103179932,0.4808042347431183,2.5966804027557373,-3.885305310308933,-1.057111636890471,-0.6358032371778041,-0.9761881828308104,2.539707660675049,1.9407634735107424,3.9337051840797055,0.7772364186286925,5.300446833765506,1.5657598972320557,-1.131536602973938,-2.7460813522338867
1773257935964711700,1.341711669921875,1.8193980314075944,0.8272719307772815,0.6632460284419357,-1.186811923980713,0.3119629025459289,2.8932199478149414,-3.3642367788791656,-0.5544537183549255,-0.8510027157809584,-1.1957485675811768,2.8574085235595703,2.0188379287719727,2.5117519347816706,1.5164143247589468,-1.115182425326109,2.1371657848358154,-1.2420806884765625,-2.512434959411621
1773257935974737700,1.351737548828125,1.72384390001297,0.7465815334502607,0.3993530999489128,-1.093192219734192,-0.1929527074098587,3.17901611328125,-2.576200149294734,-0.3740785195693373,-0.5586839032705873,-1.3424594402313232,3.1346540451049805,2.0012238025665283,0.8221276997566223,0.1711953555732965,0.5688707315683365,2.952042818069458,-1.4146662950515747,-2.20306134223938
1773257935984765000,1.361764892578125,1.0639397293448447,0.8075788037918508,0.2644051157988608,-1.032177209854126,-0.7379204630851746,3.434443950653076,-1.4821709866344928,-0.4502215557903051,-0.2456972004584968,-1.464173674583435,3.3112595081329346,1.9559963941574097,1.3577066948369143,-1.5534879178732632,1.31788818692863,3.305657148361206,-1.7840874195098877,-1.84285581111908
1773257935994791000,1.371791015625,1.4714794967502354,1.3020797924220562,1.134938096153736,-1.030532956123352,-1.218626618385315,3.6842777729034415,-0.5840595328718423,-0.4172448035355657,0.2976267096601426,-1.523059606552124,3.556182622909546,1.8789801597595213,1.6452695449918509,-1.076376893852651,-2.309584517839551,3.655315637588501,-2.5146424770355225,-1.4617539644241333
1773257936004817700,1.381817626953125,1.874634180939197,1.7060677125647663,2.018833977559209,-0.9310752749443054,-0.9257810115814208,3.4755795001983643,-0.527742602366209,-0.5877398288197815,1.152702593164146,-1.5206778049468994,4.113973617553711,1.853796124458313,2.0507301680356265,-1.8085712247058747,-2.034081815573573,4.015733242034912,-3.680051565170288,-1.1427814960479736
1773257936014843600,1.39184375,-0.8105383842498064,0.6756228410646319,-0.8740002180740237,0.0155213484540581,2.8944876194000244,0.7424485087394714,-1.0817997956842182,-0.8699855756051837,1.4870844776391985,-1.5510066747665403,5.030499458312988,1.9315346479415887,2.706649068459868,-1.9958637285992504,-1.792968289643526,4.191164016723633,-5.052218914031982,-1.3576141595840454
1773257936024870700,1.40187060546875,-6.504615702533721,-3.6291958752989766,-7.935306677299738,0.1328882277011871,1.8608750104904173,-0.4770678877830505,-0.9593705168455838,-0.8512257839471101,0.6388362481981515,-1.753512263298035,5.974762916564941,2.0252561569213867,5.452319064709544,-0.6236921628192067,-2.619223882985115,4.305767059326172,-6.990320682525635,-1.780390381813049
1773257936034897000,1.41189697265625,-1.6647282786995172,-1.6045625638112424,0.2417233283914625,-0.3677951097488403,-0.0023715980350971,-0.9708533883094788,-0.0789718299061059,-0.6080648239679635,-0.4443500334084033,-2.079122543334961,7.01372766494751,2.039958477020264,6.192501471707224,-1.3267932317875324,-3.0566274582564827,4.350252151489258,-8.683263778686523,-2.3315768241882324
1773257936044924000,1.421923828125,-0.7756663928329944,1.7541121970266105,3.883405029645562,-0.3386361300945282,-0.463379830121994,-1.6184176206588743,1.0066951626002787,-0.3629600364446639,-1.2958873675227165,-2.517940759658813,8.173440933227539,1.946119904518128,6.989401206704974,-3.9551954236149776,-3.2740707702636715,3.936691045761109,-9.922779083251951,-2.552334308624268
1773257936054950000,1.431949951171875,-1.0726274781912564,1.5158423700898884,0.7402443663179874,0.0694294050335884,-0.7143872976303101,-2.1422278881073,2.2097557778656483,-0.0759274937741458,-1.9703753593385216,-2.9554603099823,9.338348388671877,1.7097138166427612,4.785276712724566,-4.499610928362608,-4.952153036054969,2.9722557067871094,-10.174811363220217,-3.120557308197021
1773257936064975600,1.4419755859375,-1.0812865854650735,0.2522074591353535,0.7000481111384927,0.0735114142298698,-0.8836559057235718,-2.3162155151367188,2.7740742529571056,0.3115979518674314,-2.6683634692072866,-3.344696521759033,10.352886199951172,1.4036736488342283,5.395139379894733,-7.064356786707044,-7.144181434050202,1.7151788473129272,-10.754802703857422,-3.497016191482544
1773257936075002600,1.452002685546875,-0.1255114627629518,0.1332490347450599,2.13711446615532,-0.2203319221735,-0.6578813791275024,-2.2018070220947266,1.9432874459266665,0.6090288466945291,-2.872677835050225,-3.624566078186035,11.056404113769531,1.1842927932739258,1.900021135652065,-9.73814987974763,-8.928145163983107,0.7539421319961548,-9.435376167297363,-4.246692657470703
1773257936085028600,1.462028564453125,0.8314104918867349,0.2314767144641838,1.1391830402471124,-0.563269317150116,-0.3843134045600891,-1.82624101638794,1.057903956311941,0.4072899573627859,-2.7807828106850385,-3.766143798828125,11.36072826385498,1.1221346855163574,0.7134305936723947,-7.368208216100931,-7.129975798565149,-0.2116956412792205,-8.114054679870605,-4.884188652038574
1773257936095056000,1.472055908203125,1.940536685913801,1.1708042131744325,0.5957574233196675,-0.7393279671669006,0.0318105891346931,-1.3080018758773804,0.4056318879574537,0.228944364708662,-2.190539036220312,-3.68727445602417,11.32029628753662,1.118476629257202,-2.4594044924288987,-3.760291567935049,-7.38260849737525,-0.8476281762123108,-6.812270164489746,-5.275073528289795
1773257936105081900,1.482081787109375,2.507489016640186,1.8360631888739765,0.1010078667558729,-0.7662657499313354,0.5777729749679565,-0.6692624092102051,0.280726282133162,0.1572157108638435,-1.0989058287858962,-3.357056140899658,10.984651565551758,1.088260531425476,-6.394651937514543,0.2087447495058178,-5.5076598436594,-0.7195112109184265,-6.639037609100342,-4.801233768463135
1773257936115108600,1.492108642578125,2.7659108202457428,1.2213460674099623,-0.5828697385653853,-0.7306251525878906,1.192965388298035,0.0326551869511604,0.4074719628661871,0.1717626705998554,-0.344444136545062,-2.9061858654022217,10.425421714782717,1.0452371835708618,-10.042172574055192,2.8252783704936504,-1.891104838746786,-0.5320081114768982,-5.115027904510498,-4.3313188552856445
1773257936125134600,1.502134521484375,2.716767142370343,0.5452730348924174,-0.5347223782509565,-0.5946398973464966,1.65595281124115,0.6837586760520935,0.4452095728471875,0.2500456414589658,-0.112732060688734,-2.4334075450897217,9.733609199523926,1.0249629020690918,-8.119686508616805,7.086459312921762,-2.5339082370102406,-0.0982995480298996,-2.9509005546569824,-3.5346837043762207
1773257936135160600,1.51216064453125,1.8984224682837725,0.4082871151739731,-0.341601898856461,-0.4512936472892761,1.934738039970398,1.087950587272644,0.5695024536006152,0.4101559047205373,0.027715689921379,-1.9493671655654907,9.078669548034668,0.987867534160614,-7.837696782419085,7.047585100126266,-2.387138151510805,0.3623769879341125,-0.2237447053194046,-2.4537081718444824
1773257936145187800,1.522187744140625,0.2868582090169191,0.5710725159289315,0.178251703825593,-0.3286975026130676,2.059887409210205,1.159629464149475,0.4067173451066017,0.5185494247483089,-0.2590688693374395,-1.5248782634735107,8.513860702514648,0.9305826425552368,-8.708578868472575,5.221752067235112,-1.760726062208414,0.6400840878486633,2.1415460109710693,-1.448273777961731
1773257936155213800,1.5322138671875,-0.5277770891577005,0.9009723961517214,0.6617071284368634,-0.1895742416381836,2.125396013259888,1.0361464023590088,0.3371733052918687,0.1702636276811361,-0.7840303165525198,-1.2172188758850098,7.967209339141846,0.8636605739593506,-7.720618216958641,4.944278941679,-1.6992388894580304,0.716238260269165,3.2695465087890625,-1.0462325811386108
1773257936165240800,1.54224072265625,-0.9763877026200294,0.6642226183891295,-0.0198527014613151,-0.2054129242897033,1.7582582235336304,0.8672676086425781,0.7012999378304928,-0.1443986801929772,-1.5822066473573446,-1.0277825593948364,7.378702640533447,0.7562597990036011,-4.133103428569436,4.088564614140987,-0.8200339423477649,0.61411052942276,3.834981918334961,-1.0984628200531006
1773257936175266800,1.552266845703125,-1.932563807338476,-0.7256945935703814,-0.8108873438179492,-0.3983419239521026,1.6978135108947754,0.6978341341018677,1.076306897356361,-0.4653125592751428,-2.3902409398317337,-0.9372329711914062,6.633444309234619,0.6278578639030457,-2.736062794470787,1.828611849954724,-0.0629305034264922,0.3086443543434143,4.651371955871582,-1.2746117115020752
1773257936185293600,1.56229345703125,-0.3711065180212259,-0.6974272611156106,0.1900435561671853,-0.4540072083473205,1.823186993598938,0.478353351354599,1.2334824954055248,-0.9337819020807744,-2.7667110307127234,-0.8841239809989929,5.775782108306885,0.4878142774105072,-3.292451645606756,0.4517103330433368,-0.3862406665280461,-0.0680446848273277,5.369842052459717,-1.6670559644699097
1773257936195319600,1.572319580078125,-0.0850578718215227,-0.5495062520153821,-0.5407295097112655,-0.4687603116035461,1.769850492477417,0.253568172454834,1.008246483695507,-0.9350233535092324,-2.12881177110374,-0.8115975856781006,4.935622692108154,0.3456515371799469,-1.5651514676600693,0.1067044709622859,0.1661325192257761,-0.4934101104736328,5.299670696258545,-1.956431269645691
1773257936205346800,1.582346923828125,-0.6433505107522011,-0.2005181153651326,-0.6237900702357292,-0.5080331563949585,1.6389237642288208,0.0483734980225563,0.910184461133182,-0.8927489768814295,-1.2759721222192049,-0.6587316393852234,4.266910076141357,0.2159891724586486,-1.0803834991455077,-0.0563356352061033,-0.0083209613606333,-0.9493514895439148,5.227370262145996,-2.098407030105591
1773257936215372800,1.592372802734375,-0.8292705572485923,-0.3921463103752583,-0.4663528986409306,-0.5371567010879517,1.553060531616211,-0.1531857103109359,0.9387243269190192,-1.1219192593004554,-0.875650031107664,-0.4530182182788849,3.7295546531677246,0.0973879545927047,-1.4046511091023683,-0.1922124246388673,-0.7356997086256742,-1.261189341545105,5.220181465148926,-2.058596611022949
1773257936225399300,1.6023994140625,-0.8691010478556156,-1.0704762915067374,-0.4659297047927975,-0.556938648223877,1.5539859533309937,-0.3466382324695587,1.145686284661293,-0.9299011881899087,-0.7426525965034961,-0.2147086709737777,3.38826847076416,-0.0707403570413589,-1.5513801319390534,-0.241564776828885,0.1899295743986964,-1.5635186433792114,5.183264255523682,-1.852376103401184
1773257936235426300,1.61242626953125,-0.8451631229072809,-1.036446303872019,-0.2909495699837803,-0.5450846552848816,1.484161615371704,-0.5425212383270264,1.3370669346511364,-0.5402949176862836,-0.3416834396600723,-0.0099619170650839,3.034456253051758,-0.3060183823108673,-1.6830828505575657,-0.1453974819719791,-0.3621192017063498,-1.8315399885177608,5.20905351638794,-1.52906334400177
1773257936245452300,1.622452392578125,-1.469164205545187,-1.0946130269628018,-0.4797767360985279,-0.5539554357528687,1.1909416913986206,-0.5658078193664551,1.5496397180125117,-0.3156033150512725,0.1693412521392107,0.1281666308641433,2.6083474159240723,-0.6129013299942017,-1.6909873400717972,-0.5758060837894677,-1.2569976648971437,-2.024200201034546,5.432731628417969,-1.222934007644653
1773257936255479300,1.632479248046875,-2.3649574454933404,-1.6113623069539664,-0.5218509139791131,-0.5693128108978271,1.0319427251815796,-0.4164359271526336,1.7430507047861814,-0.2815904246818274,0.0192208332985639,0.2211807370185852,2.1861727237701416,-0.949708878993988,-0.188359840863943,-1.6972195124596356,-2.15947169778347,-2.017655611038208,4.744992733001709,-1.054465413093567
1773257936265505300,1.64250537109375,-1.1957868248701096,-1.9002337554894384,-0.2392874795466661,-0.4496239423751831,0.8990532755851746,-0.2469984591007232,1.5054507399350403,-0.5950572391610592,-0.3479617892771959,0.2638557255268097,1.674476981163025,-1.2597980499267578,3.160851802840829,-1.8320517612755296,-3.20318580070138,-1.917863726615905,4.51209020614624,-0.7331964373588562
1773257936275532300,1.6525322265625,-1.4418383917242288,-1.4436761285454034,-0.4119727814167738,-0.3155779838562011,0.737248957157135,-0.0660848766565322,1.0332833097964524,-1.1477486970838158,-0.8266051374316215,0.2959425449371338,1.03421950340271,-1.4423696994781494,1.140797928097844,-2.5214012221366167,-3.623104572686553,-2.0003013610839844,4.441972732543945,-0.1979649811983108
1773257936285558300,1.662558349609375,-1.5009253714650868,-1.2974756596274672,-0.0918763196647167,-0.1543348282575607,0.625933051109314,0.1271762400865554,0.5435211862564087,-1.5839116977095602,-1.1845441308438778,0.3402911722660064,0.3580764830112457,-1.4847103357315063,-0.2052992852270603,-2.5202152272224425,-4.9200440796107054,-1.932409286499024,4.379966735839844,0.283048540353775
1773257936295585300,1.672585205078125,-1.2864146057784556,-1.5507137769848107,-0.1420344352796673,0.0154608599841594,0.5105409622192383,0.2699685394763946,-0.3197305510491132,-1.5073517512507737,-1.0641337906122208,0.399912416934967,0.1924632787704467,-1.5220677852630615,0.3117144178539514,-2.0370219606786963,-3.978849855446816,-1.835841536521912,3.951017141342163,0.6500347852706909
1773257936305611000,1.682611083984375,-1.321558399873972,-1.5661600601807235,0.0314689049750566,0.1935926973819732,0.386597603559494,0.2971265017986297,-2.317323587659001,-0.5565806108484045,-0.934586204200983,0.4773072898387909,0.8771059513092041,-1.6624618768692017,1.3632283808678387,-2.054007582271099,-3.4608401270657776,-1.6634975671768188,3.214120864868164,0.9365207552909852
1773257936315637200,1.69263720703125,-1.3940531427204608,-1.5775662742055951,0.0614423106953501,0.3664917647838592,0.2731584012508392,0.2266619205474853,-2.862631072810292,0.2061414168733172,-0.6215887607991695,0.4673390984535217,1.8295097351074217,-1.7275832891464231,2.1226114551588893,-1.7270231145709751,-3.3396909511655566,-1.5057063102722168,2.409383773803711,1.2313350439071655
1773257936325664300,1.702664306640625,-1.35686644462049,-1.5053599929116666,0.3651423489198088,0.5030412077903748,0.1217421442270279,0.078263059258461,-3.279312762570381,0.7923489398255944,0.0476940635889768,0.3625096380710602,2.6570398807525635,-1.6028629541397097,2.047539263039828,-1.749368217369914,-3.289527867114544,-1.4196901321411133,1.6984165906906128,1.567267656326294
1773257936335690200,1.712690185546875,-1.387926184272766,-1.5473637359045445,0.4823793198123574,0.582824170589447,0.0392193086445331,-0.1045895814895629,-3.183988348278404,1.002045656294003,0.6798059719681739,0.2987817823886871,3.1005046367645264,-1.309118151664734,1.4383639936119317,-2.063622382834553,-3.388152491995692,-1.3515689373016355,1.1119719743728638,1.8847475051879885
1773257936345717200,1.72271728515625,-0.9202876297354696,-1.5496464400142431,0.5355319410681724,0.6206323504447937,-0.0292577855288982,-0.2666577398777008,-2.207214276689291,0.2293623709250241,1.3220774553120136,0.3587113320827484,2.824296236038208,-0.8960341215133667,1.123684588472545,-2.5102783550977708,-3.1028987955659626,-1.2788344621658323,0.765285074710846,2.1966805458068848
1773257936355743200,1.7327431640625,-0.8038841870576143,-1.2006248394858092,0.7771157148584723,0.6186853647232056,-0.152187705039978,-0.3463522791862488,-0.7980255241572857,-0.7100584138255566,1.421169697704911,0.4387148320674896,1.919836401939392,-0.4839733242988586,0.8325047168642282,-2.650149767124653,-2.957930352661013,-1.2651649713516235,0.720902144908905,2.493237972259521
1773257936365770200,1.742770263671875,-0.8521277012228965,-1.04750370445922,0.6385311277717352,0.5943970084190369,-0.1956711411476135,-0.3592533767223358,0.3008931641101837,-1.1273343431517482,1.0604156468719244,0.4759253561496734,0.7830678224563599,-0.2878640592098236,0.5676952580481768,-2.616709854337573,-3.0909786406695843,-1.2373223304748535,0.6461471319198608,2.791663885116577
1773257936375796200,1.752796142578125,-0.2298065344959497,-0.8692652985066175,0.589459346088767,0.5526506304740906,-0.2506510317325592,-0.32034832239151,1.1478542763501405,-1.167368466572091,0.3927548707276582,0.4671805799007416,-0.1538210958242416,-0.3945910334587097,0.6606015052825213,-2.7132787157326934,-2.719097046622634,-1.1793556213378906,0.6833762526512146,3.038132429122925
1773257936385822200,1.762822265625,-0.1846469578206539,-0.3647024961978197,0.9363324633464216,0.536092221736908,-0.1977398842573166,-0.2218532860279083,1.0202934798419474,-0.3698169896673411,-0.2385328617870807,0.5127866864204407,-0.4528921246528625,-0.7578744292259216,0.7525380307018756,-2.89555193015933,-2.4422090274780985,-1.0731449127197266,0.8532445430755615,3.30568265914917
1773257936395849200,1.77284912109375,0.0428945543527603,-0.3686005265496671,0.6580927373319864,0.5467797517776489,0.0008461787365376,-0.0705519169569015,0.5324018263489008,0.6779740803658962,-0.2779986107349395,0.5841870903968811,-0.536395251750946,-1.123308539390564,0.765351919567585,-3.1779765406429767,-2.939960396206379,-1.020311713218689,0.6626966595649719,3.290802001953125
1773257936405875200,1.782875244140625,0.439389780652523,-0.3961094053199514,0.5409025281906128,0.5687421560287476,0.219283789396286,0.1037945598363876,0.240652922680974,0.9841728035382926,0.1955675802856683,0.6779144406318665,-0.7363525629043579,-1.3384181261062622,2.934402177557349,-2.461158058097958,-3.167762020620704,-0.7894212007522583,-0.0658357068896293,3.2554914951324463
1773257936415902200,1.792902099609375,0.2013666219532489,-0.2956259642969817,0.5718114611953496,0.5488989353179932,0.3579037189483642,0.1955753415822982,-0.0970820716142654,1.0603352751120925,0.7043558913350105,0.8246764540672302,-0.9716380834579468,-1.4124504327774048,3.1263854696154594,-2.3322131137549875,-1.8963763494089243,-0.6419848799705505,-0.9454392194747924,3.1118130683898926
1773257936425928400,1.802928466796875,-0.515125697377324,-0.2405552709927782,0.8276362340450286,0.4960316121578216,0.2577455639839172,0.1174845770001411,-0.5598503897666931,1.314030926978588,0.9280161781609058,1.0040490627288818,-1.106369972229004,-1.4254546165466309,3.4232734897375106,-2.280404600584507,-2.2276427322119474,-0.5171809792518616,-1.615002155303955,2.856717109680176
1773257936435955200,1.812955078125,-1.551054553246498,0.0590857741644606,1.4670926599681378,0.428872287273407,-0.1250507980585098,-0.0814442262053489,-0.878611803522706,1.549906698385626,0.6191261700779199,1.141501784324646,-1.1689523458480835,-1.4005372524261477,3.4183319416821,-2.329068385988473,-1.9647405683219432,-0.4005374610424042,-2.042520761489868,2.5241971015930176
1773257936445981200,1.822981201171875,-2.3652537980914112,0.375265062472783,1.9870581985920663,0.378911942243576,-0.4772514998912811,-0.2644198834896087,-1.0181915391266343,1.5863044380649924,-0.0901706847906112,1.1903932094573977,-1.200581431388855,-1.362581491470337,2.9962761576682326,-2.0813760661900043,-1.5509174828633665,-0.3928412795066833,-2.1989521980285645,2.2258005142211914
1773257936456008200,1.83300830078125,-2.018276343676448,-0.0110410339742898,1.6876728086963295,0.3374273478984833,-0.574052095413208,-0.4121254682540893,-0.9151046741396188,1.2296356107190252,-1.0981985572993755,1.1374584436416626,-1.2795966863632202,-1.3376448154449463,2.097021379089356,-2.242780095589161,-1.963273126117885,-0.4421350657939911,-1.989002704620361,1.9964674711227417
1773257936466034200,1.8430341796875,-1.1832844861716032,-0.0541850330434739,1.253817281295359,0.2341007590293884,-0.6187030076980591,-0.5629823803901672,-0.6579506985127925,0.9194460643447936,-1.913617699328065,1.007254958152771,-1.4310674667358398,-1.3417457342147827,1.1974871990472078,-2.2225988928258418,-1.8576798312678933,-0.5567313432693481,-1.5732847452163696,1.8601667881011963
1773257936476060200,1.85306005859375,-0.9760539406210184,0.5709991949643939,1.3595599214881655,0.0622158087790012,-0.6942030787467957,-0.6943521499633789,-0.3890267901152372,1.0471440773665903,-2.1276392201930285,0.8607597351074219,-1.5872069597244265,-1.384745955467224,0.4857102178007364,-1.751705135884881,-1.5252172244176267,-0.6875772476196289,-1.148709774017334,1.766198992729187
1773257936486087400,1.86308740234375,-0.725175976523757,0.7199335458256304,1.2506778142258523,-0.0606229156255722,-0.6485093832015991,-0.7132242321968079,-0.2265910795807838,0.7674310639292001,-2.290081944990158,0.724898636341095,-1.73935866355896,-1.444584608078003,0.3146732676595449,-1.1556816089749335,-0.8298515720069408,-0.7934499979019165,-0.8404633402824402,1.5664467811584473
1773257936496113400,1.873113525390625,0.3196627465099096,0.3545676903482526,0.7449012522131204,-0.049213133752346,-0.3633729815483093,-0.5951734781265259,-0.3983341321647167,0.9554537817932665,-1.756324612379074,0.647112250328064,-1.7231658697128296,-1.5183504819869995,1.4399644145458936,-0.9736176533848048,-0.1489925838544964,-0.8081796765327454,-0.3991508781909942,1.2346850633621216
1773257936506140200,1.88314013671875,1.6011574315428734,0.0638289592367131,0.0936041663706302,0.0345853567123413,0.0433210171759128,-0.4073484539985657,-0.7781991261810064,0.8945036385290324,-1.314497375446558,0.6113379001617432,-1.644905686378479,-1.5362588167190552,2.15206755900681,-0.4667296229988336,0.6007876725718378,-0.8038379549980164,-0.2425409704446792,0.9765822291374208
1773257936516166100,1.893166259765625,2.028283942949772,0.0223102872138842,-0.1104331360965967,0.0938532128930091,0.2859062254428863,-0.2771233320236206,-0.9280290376424788,1.018465095371008,-1.0526736544430255,0.58049476146698,-1.542554259300232,-1.4873636960983276,1.851059828606248,-0.024478023174405,1.1239432394087314,-0.9243199229240416,-0.0552240721881389,0.8883935213088989
1773257936526193200,1.903193115234375,1.4329273555159567,0.2110751286821439,0.2578489721536636,0.0471616089344024,0.2869365215301513,-0.2992491722106933,-1.0952183724448084,1.1418825084641575,-0.8780360494613647,0.5521578192710876,-1.3887887001037598,-1.3854737281799316,1.2456862895488738,-0.4776116670191287,0.854155992180109,-1.2233713865280151,0.4337783753871918,1.000057339668274
1773257936536219400,1.913219482421875,0.6948626713246107,0.3027570948185399,0.6445616401076316,-0.0984957292675972,0.1516213119029998,-0.4331441223621368,-1.074586503304541,0.904906520730257,-1.13026835077703,0.4769222140312195,-1.2556432485580444,-1.2733408212661743,0.470095300039649,-1.1401356647968293,-0.1096060376226902,-1.5656871795654297,1.0998178720474243,1.3795961141586304
1773257936546246400,1.923246337890625,0.260121593260765,0.2184419676557183,0.7807832974553107,-0.2061668336391449,0.0387814976274967,-0.6134337186813354,-0.6852905408591031,0.8335191546037792,-1.4588409644514322,0.3650461435317993,-1.1161720752716064,-1.1821238994598389,-0.721587596642971,-1.1749492040246723,-0.2590904966473579,-1.9597086906433103,1.8673423528671265,2.012803792953491
1773257936556272400,1.9332724609375,0.316838336738944,-0.0399047888190951,0.829720639103651,-0.2717026770114898,-0.0850717350840568,-0.7863724827766418,-0.4534785117596387,0.7737175968527793,-1.634340154698491,0.2095692008733749,-1.0415633916854858,-1.1223965883255005,-1.8761089296668767,-1.044429557710886,-0.3870665959581733,-2.3663651943206787,2.6267852783203125,2.7646965980529785
1773257936566298400,1.94329833984375,0.1586924323529005,-0.0690850074682384,0.9546645311117172,-0.3662059307098388,-0.199346050620079,-0.8884187340736389,-0.0161035780608654,0.391901176507771,-1.6403735896438358,0.0615748353302478,-1.0068217515945437,-1.0763176679611206,-2.0760545789062976,-1.2019430094122885,-0.3528355327934026,-2.7267889976501465,3.241048574447632,3.42413330078125
1773257936576325000,1.9533251953125,0.1407259830296039,0.2341271376414224,1.1970178279697894,-0.4937804043292999,-0.2615503072738647,-0.8960627913475037,0.204356159158051,0.4880450904890894,-1.4242559732824562,-0.0537818521261215,-0.9653360843658448,-1.0453795194625854,-0.6116729314625263,-1.3674866228342055,0.1494993643328547,-2.888505220413208,3.360145330429077,3.7448017597198486
1773257936586351000,1.96335107421875,0.3956704659134149,0.3628013387516141,0.933892376717925,-0.5465987324714661,-0.0804661959409713,-0.820220947265625,0.3557680791139602,0.6330261006146669,-1.1915291674256323,-0.1284139603376388,-0.9210007190704346,-1.0284427404403689,2.124120982939005,-0.1178863747119903,0.6502551755741238,-2.905356407165528,3.3131935596466064,4.079000949859619
1773257936596378400,1.97337841796875,1.4315028756707906,-0.179626207049191,0.052121232381463,-0.4735163152217865,0.3035560250282287,-0.7407426238059998,0.6143868665963411,0.6818859931126237,-0.8502952250987291,-0.1562557071447372,-0.92887145280838,-1.0247081518173218,1.8579203620254992,0.5935092060014605,-0.3745139883771538,-2.7000343799591064,3.146052837371826,4.420853614807129
1773257936606404400,1.983404296875,2.2232857060462234,-0.6004144188126549,-0.6230626327440142,-0.3922373056411743,0.7072147130966187,-0.7041322588920593,0.6846878987908362,0.7093430320978165,-0.4557517173886299,-0.1139945909380912,-0.9485709071159364,-1.0192008018493652,1.3606214132398369,1.3886203040167688,-1.1554296800404786,-2.2910475730896,2.892613410949707,4.548741340637207
1773257936616431400,1.993431396484375,2.4730793820381165,0.901827917002514,0.3857514217063784,-0.2437700629234314,0.7258174419403076,-0.7520425319671631,0.7395733351886272,0.6465700573205948,-0.1858423050850629,-0.0291689094156026,-1.0015089511871338,-0.99505215883255,1.9808850629150867,1.1195187009647487,-1.4857052982404828,-2.0540659427642822,2.1763436794281006,4.602643966674805
1773257936626457000,2.00345703125,0.8115963688701391,1.2065486035116015,0.4722554006829857,0.0563937537372112,0.4748171269893646,-0.6246792078018188,0.9006196371912956,0.57603492410928,-0.1636398256272077,0.0537631213665008,-1.0889804363250732,-0.978200912475586,1.7542109812259674,1.6749346154153346,-2.4182976982757447,-1.7912695407867432,1.4468060731887815,4.281684875488281
1773257936636484000,2.013484130859375,0.2368932778865098,-0.8904295940231531,-0.3342740401864051,0.3537487387657165,0.3386278450489044,-0.2338728308677673,1.052370579843223,0.6015440438970923,-0.3534510343432426,0.1135172620415687,-1.1734445095062256,-0.994336724281311,2.846550875625014,1.4077835619091987,-1.2735673991650345,-1.742720603942871,0.2169801592826843,3.863933563232422
1773257936646510000,2.023510009765625,1.290780399772525,-0.9589462270189076,0.0078919222936034,0.6212447881698608,0.3262538909912109,0.1742798686027526,1.3349430743649602,0.187317346073687,-0.7304524556219577,0.1389560103416443,-1.251754879951477,-1.0531039237976074,1.073808796930313,1.1528075148433443,-1.0678288457378744,-1.871768593788147,-0.6896392107009888,2.9377517700195312
1773257936656536300,2.033536376953125,1.6418249574959276,-0.0957864057805389,-0.0800768685385584,0.8038920760154724,0.4339601099491119,0.3980285227298736,1.3289046709835528,0.0766436792194843,-0.915035116034746,0.125394120812416,-1.233223557472229,-1.143627643585205,1.2357739673435688,0.4167898263096809,-0.9936503875881432,-1.944891571998596,-0.9065573811531068,2.000328302383423
1773257936666563300,2.043563232421875,1.3277157534599304,0.2712936332035809,-0.2539095868781209,0.8876392841339111,0.6392621994018555,0.3838230967521667,0.9645990651488304,0.2317208436846733,-0.9847264918982982,0.0756970047950744,-1.112265706062317,-1.1927566528320312,-0.7492898425608873,0.6872644712805748,-0.3560021801307797,-1.8481903076171875,-0.8606090545654297,1.175880789756775
1773257936676589300,2.05358935546875,0.8174071009755134,0.1095798802681267,-0.0483288543611764,0.9022709727287292,0.6097235083580017,0.2255157530307769,0.6236731658577919,0.2159580418854951,-0.8967121083587407,0.0237547159194946,-0.970885932445526,-1.1671277284622192,-2.0603326936393973,1.4520911979302764,1.2020347793489694,-1.792314529418945,-0.9084426164627076,0.6009562611579895
1773257936686616000,2.063615966796875,-0.1349848090291023,0.2814489703845232,0.6639788727611303,0.900845468044281,0.4718826413154602,0.0681793540716171,0.3567392622336745,0.2296551433265209,-0.7050415355116129,-0.0040059895254671,-0.7991967797279358,-1.101528882980347,-2.5760528497785327,1.4209446567773818,0.5862044359460473,-1.778584361076355,-0.9526562094688416,0.0160541031509637
1773257936696642000,2.07364208984375,-0.57078504075706,0.3369617083678022,1.0644897644430398,0.9569854736328124,0.413472056388855,-0.0733641982078552,0.2287678390979766,0.2169572820559143,-0.5156792396068572,-0.0074340105056762,-0.598336398601532,-1.043203830718994,-1.1049287423372267,1.3162003799721598,0.0445966820955276,-1.7658275365829468,-0.9207025170326232,-0.5207616686820984
1773257936706669300,2.08366943359375,-0.4572358184665441,0.1216340368077158,0.9465010984003543,1.0332351922988892,0.3773086965084076,-0.1792777776718139,0.3092413057386875,0.0555021069914102,-0.52811377376616,-0.0106250010430812,-0.4456212222576141,-0.9937204122543336,-0.5464280136138201,2.106639394523204,-0.1734206304073333,-1.737939715385437,-0.8110815286636353,-0.8865545392036438
1773257936716695300,2.0936953125,-0.1963689597964286,0.3896596446586772,0.7839218877419829,1.0847716331481934,0.3765688836574554,-0.2438205480575561,0.3464674590662122,0.1235731881767511,-0.6427601436436176,-0.0163982007652521,-0.369712084531784,-0.9429816007614136,-1.235088907688856,2.516955640904605,-0.5688824220061302,-1.5541142225265503,-0.1910739541053772,-0.9220243692398072
1773257936726722300,2.103722412109375,0.0736368986189365,0.4345088402105495,0.6146580847531556,1.055863380432129,0.3653117716312408,-0.2593912482261657,0.4977426008999347,-0.1340834762752056,-0.991185458779335,-0.0224305447191,-0.4294964969158172,-0.9057870507240297,-2.877451625323296,3.3366379933357235,-0.5348752307251096,-1.2997827529907229,-0.0446208678185939,-1.0844322443008425
1773257936736748300,2.113748291015625,0.1729986056029796,0.511969425303489,0.6374053386121988,0.9733163714408876,0.3552042841911316,-0.2477689385414123,0.7821521015904843,-0.3438683824837207,-1.170684532317519,-0.0040755062364041,-0.557239830493927,-0.8827608227729797,-1.603174032062292,3.243927853195369,-0.4902244803547859,-1.133870005607605,0.0824209675192833,-1.3086073398590088
1773257936746774300,2.123774169921875,0.3150058606147766,0.4513698490425944,0.4949205292165279,0.8840287327766418,0.3807661235332489,-0.3112024366855621,0.6091476507686078,-0.2594102301210165,-1.1262386568695306,0.0229898113757371,-0.638614296913147,-0.8612955808639526,-1.3512649713516234,3.1526164739370346,-0.789716253234446,-1.0375789403915403,0.1200819984078407,-1.5629276037216189
1773257936756801000,2.133801025390625,0.2398889525711536,0.4574500822717323,0.1928963152498006,0.8022199273109436,0.3910161256790161,-0.4335693418979645,0.4024314844809472,-0.0876461347490549,-0.8348013033688068,0.0385147109627723,-0.6232028603553772,-0.8261365294456482,-1.1120020417243242,3.4003096705183387,-0.7847071929007768,-0.9598639011383056,0.4079846143722534,-1.7077343463897705
1773257936766827300,2.1438271484375,0.1158586682766675,0.5048197727445513,0.0046627311140298,0.7633141279220581,0.4073492884635925,-0.5354657173156738,0.2278174065053463,0.2083563347101211,-0.5387801292091607,0.0427449867129325,-0.4749829471111297,-0.7719317674636841,-2.044926450192928,3.718229957275093,-0.5156324778556823,-0.899246871471405,0.6537843942642212,-1.803735613822937
1773257936776854300,2.153854248046875,0.3682306703239679,0.2925373871644958,-0.2315729596465826,0.7510287165641785,0.4233687222003937,-0.5810691118240356,0.0100409170210361,-0.1378054194077849,-0.6026286242634058,-0.0050313235260546,-0.2371240705251693,-0.7129265069961548,-2.007356890255213,3.347803238211572,-0.4193929945454001,-0.9022629261016846,0.696997880935669,-1.9949759244918823
1773257936786880300,2.16388037109375,0.6936684931039809,0.4205639380209148,-0.1905558896034956,0.7495085000991821,0.4315998554229736,-0.5908998847007751,0.0869708658359944,-0.5741150619626045,-0.6925462110757827,-0.0715025067329406,0.0284008309245109,-0.6425860524177551,-1.0976853470802306,2.826849857594073,-0.7231456397399306,-0.900327742099762,0.8732993006706238,-2.1192800998687744
1773257936796907300,2.1739072265625,0.6496697769016027,0.5921877481393516,-0.2951163342744112,0.7629561424255371,0.4971170723438263,-0.5753520727157593,-0.166892836073786,-0.5551034875005483,-0.7534422860652208,-0.1703585088253021,0.2213969230651855,-0.5619660019874573,-1.6985738496780394,2.9050241073817014,-0.5424290071055293,-0.8876628279685974,1.169997215270996,-2.1392569541931152
1773257936806933200,2.183933349609375,0.7593319286257029,0.2638875947307795,-0.6740215433478355,0.79942387342453,0.5858839750289917,-0.5429936051368713,0.13356237501055,-0.878567087598145,-0.8927923045665025,-0.2504525184631347,0.3077817857265472,-0.4740233719348907,-2.4011329207241534,3.342876010942459,-0.302203662186861,-0.8161261081695557,1.1866329908370972,-2.0330910682678223
1773257936816960300,2.193960205078125,0.922623963728547,0.2209360677600838,-0.7701923453360795,0.8639311790466309,0.6542826294898987,-0.5244613885879517,0.1624034157000482,-0.4251812225580215,-0.6546008035629988,-0.3067855536937713,0.3822767734527588,-0.4156373143196106,-3.158258279216289,2.9323516747683285,0.1539230259940028,-0.6833280920982361,1.2501413822174072,-1.853666067123413
1773257936826986200,2.203986328125,0.8022364198505878,0.1078457864845171,-0.7916144880712032,0.93953937292099,0.731454074382782,-0.5316089987754822,0.4498343100383877,-0.3535778755933046,-0.3271750218361616,-0.2975618541240692,0.3868454992771148,-0.3976932764053345,-3.945671808466315,2.605807352051139,0.4163943972513079,-0.4884704053401947,1.2545746564865112,-1.6800910234451294
1773257936837012200,2.21401220703125,0.3867804724931716,0.0271121710702776,-0.6632762774497271,1.0118331909179688,0.7440124750137329,-0.5713540315628052,0.8623194248914718,-0.5501847357988358,-0.2205348482817411,-0.2502806186676025,0.255961000919342,-0.4116778373718261,-4.214015871149301,2.658100433868169,0.6110775959178805,-0.2212469428777694,0.9837652444839478,-1.5222399234771729
1773257936847039200,2.224039306640625,0.1122691193521022,-0.0892273760585114,-0.556073793837428,0.9982002377510072,0.7127662301063538,-0.6537714004516602,0.9245977480195462,-0.35622546749264,-0.0758072283953428,-0.1925665140151977,0.1333998590707779,-0.4459148347377777,-4.031176255011558,1.933466309136152,0.6861193928986787,-0.0004935304168611,0.6850597262382507,-1.326069474220276
1773257936857065200,2.234065185546875,-0.0889683232635259,0.0674420260341838,-0.1571346815168857,0.917579710483551,0.6261188983917236,-0.7528061270713806,0.931269919259846,-0.2393891863554716,0.1326420452952385,-0.1373943388462066,0.0805323719978332,-0.5020433664321899,-4.288260088011622,2.590155609411001,0.6110343412980437,0.1071908548474311,0.4685873091220855,-1.1001760959625244
1773257936867092200,2.24409228515625,-0.2547930917143821,0.3045003217566758,0.3102858463555574,0.8455319404602051,0.4725763201713562,-0.7999006509780884,0.8846971147857606,0.0014227262794971,0.4588450072288513,-0.1181005015969276,0.1344660818576812,-0.5738043785095215,-3.9123768571078776,3.1217876204311845,0.613478811840713,0.206205204129219,0.2392259836196899,-0.9585397243499756
1773257936877118500,2.254118408203125,-0.4713356554895639,0.7145404546104371,0.8470154727756977,0.8652212023735046,0.3103410899639129,-0.7170225381851196,0.8430101826570927,0.4254448419302701,1.0339344671815631,-0.0814114660024643,0.3162153661251068,-0.6621608734130859,-2.995621493151784,2.645552502462268,0.942281142617762,0.2602449953556061,0.0474256686866283,-0.7195199728012085
1773257936887145200,2.264145263671875,-0.779576259753108,0.4575613240938633,0.6503682805597781,0.9407474398612976,0.2424290925264358,-0.5342051982879639,0.9037009443327784,0.2913420764327049,1.5285323403149842,0.0048517272807657,0.4844583570957184,-0.7575305104255676,-3.4915438928872344,1.924136170732975,0.748369220584631,0.3311318755149841,-0.2183677107095718,-0.6127963066101074
1773257936897171200,2.274171142578125,-0.3359948726296424,0.467271803584136,0.5505091454476118,1.0031373500823977,0.2414202839136123,-0.3511442542076111,1.062561134468019,-0.0299850961580872,1.5756290225327014,0.1046321168541908,0.5021196603775024,-0.8631879091262817,-1.9141841010391711,0.8838368446946143,0.7946490334615111,0.3685128092765808,-0.5399705171585083,-0.5098384618759155
1773257936907198200,2.2841982421875,-0.2703472191989421,0.4243309624042362,0.2272574345350265,1.0427719354629517,0.3113112449645996,-0.2743631601333618,0.9634148238003252,0.1492728621006012,1.651018902298808,0.266994833946228,0.4755136966705322,-0.9308161735534668,-1.4390472997009751,0.8592869253277778,0.7948451405555009,0.4448859691619873,-0.8310408592224121,-0.3618039786815643
1773257936917224200,2.29422412109375,-0.3827747439831495,0.1307007750343531,-0.0969961468964815,1.038333535194397,0.3615139722824096,-0.3063195049762726,0.5963000057637691,0.2750730786770582,1.5152771374225615,0.4123094081878662,0.295456051826477,-0.957394540309906,-1.8211697172552344,0.6881108589768409,1.0909162913367152,0.5159428715705872,-0.7677897214889526,-0.1591211855411529
1773257936927250200,2.304250244140625,-0.441433853700757,0.1165298090038821,-0.1188531739175319,1.089766502380371,0.5151154398918152,-0.4393740892410278,0.6892237886548042,0.117592360201478,1.5921119552999734,0.6285247802734375,0.1303041726350784,-0.9581473469734192,-2.136696971395612,1.2219658067435026,1.4480121119230984,0.5062717795372009,-0.5230353474617004,0.0802420526742935
1773257936937277400,2.31427734375,-0.3208464033365249,-0.4121574903339147,-0.5694359642356633,1.177626609802246,0.6053315997123718,-0.6351494193077087,0.1038254083946347,0.4135942451387643,1.4697913975328205,0.767090916633606,0.0093809459358453,-0.9399425387382508,-2.13753868291676,1.6506225964576005,1.214918810841441,0.3633050620555877,-0.4310385882854461,0.3159539103507995
1773257936947303200,2.32430322265625,-0.3420972811579704,-0.4913500503186136,-0.6774608701467514,1.2066410779953003,0.6046714782714844,-0.8137525320053101,0.2139244902312755,0.5230664272487163,0.9807155026912688,0.8176741600036621,-0.0173940993845462,-0.9204018712043762,-1.8208447230845688,1.7068816592961549,0.5077388019964099,0.2725420892238617,-0.3238309919834137,0.5203309059143066
1773257936957330200,2.334330078125,-0.2071153947383165,-0.2791384466861374,-0.2352116084098816,1.0867844820022583,0.423136293888092,-0.903864562511444,0.0021571780338883,0.801727009023726,0.7444149300009012,0.7985175251960754,0.1408919543027877,-0.909289300441742,-1.7937638239353897,1.5042267510980367,0.9229121330201624,0.1150973141193389,-0.2411398142576217,0.7106230854988098
1773257936967356200,2.344356201171875,-0.4593769221484661,0.9736502404801548,1.0383826787620782,0.9838008880615234,0.1640609502792358,-0.820013701915741,0.0957071299992501,0.4264268387049436,0.4527589653134345,0.7217656970024109,0.2666146457195282,-0.9233959317207336,-1.5655407592386006,1.6380822638362644,0.5419868162959813,-0.140866532921791,-0.300378143787384,0.7741369009017944
1773257936977383200,2.354383056640625,-0.872977597028017,0.8263940519642085,0.860758166924119,1.0112708806991575,0.103879377245903,-0.6567097306251526,0.3514332647800445,0.0316328633651137,-0.116771691468358,0.5677787661552429,0.3402363955974579,-0.9423733949661256,-0.6060141750484704,1.912019031959772,-0.1089639403268694,-0.3996570706367492,-0.3592353463172912,0.9077008366584778
1773257936987409400,2.364409423828125,-0.2492687753349542,0.4563874945415184,0.0840869809627532,1.0773998498916626,0.1806973367929458,-0.522607147693634,-0.0041664720296859,-0.2772901702046394,-0.5658914234966039,0.3792364597320556,0.4876509308815002,-0.8884850144386292,-1.1964695464372634,1.5472697740107777,0.4328749919310212,-0.6535429358482361,-0.38153737783432,1.1679255962371826
1773257936997436200,2.374436279296875,-0.1121101293981075,0.5423606545770541,-0.2267635135382413,1.1034791469573977,0.2900722920894623,-0.4498237371444702,-0.2337294070281088,-0.2235883906334638,-1.682110206133127,0.0590185150504112,0.6511815190315247,-0.7972552180290222,-2.391389525344968,0.6943857014626265,1.078665589311719,-0.7767207622528076,-0.2805702984333038,1.3298784494400024
1773257937007462100,2.384462158203125,-0.3252431769907474,0.6026603345759213,-0.2498223175644874,1.0606412887573242,0.3854681551456451,-0.4239115118980407,0.0420526967011392,-0.0377007851019501,-2.296317624509334,-0.3219122886657715,0.8902783989906311,-0.7932743430137634,-2.4854881972342726,-0.0887783536493778,1.5773133223578333,-0.872326672077179,-0.2488816231489181,1.2694789171218872
1773257937017488100,2.394488037109375,-0.456352021369338,0.3418262091316282,-0.3382102105915546,1.002341389656067,0.3585025668144226,-0.4332810342311859,0.5509051590278744,-0.2299196394816041,-2.0225977140069005,-0.6104665994644165,1.1091727018356323,-0.916279137134552,-1.905040425118804,-0.1954775639146566,1.08712157522887,-1.060756802558899,-0.2640230357646942,1.027841091156006
1773257937027515100,2.40451513671875,-0.7438876912564039,0.0996040643725544,-0.3035831338465213,0.8673117756843567,0.2470634579658508,-0.4726511836051941,0.913093626578152,-0.2078819951966404,-1.461247441071272,-0.7745447158813477,1.1378828287124634,-1.0669615268707275,-1.4895453147947788,0.312847221276164,-0.0468713490292429,-1.2864840030670166,-0.217837706208229,0.7431331276893616
1773257937037541000,2.414541015625,-0.8437655310690403,0.2158413201706484,-0.1066676460832357,0.7113919854164124,0.150997906923294,-0.5422019958496094,0.7426711550734937,0.4958496267601847,-0.8947340862840414,-0.814264178276062,1.0365298986434937,-1.1854727268218994,-1.6643524311244486,1.4932447538346052,-0.6193190623015165,-1.460161566734314,-0.0906163603067398,0.4967001974582672
1773257937047568400,2.424568359375,-0.6409785209238529,0.0482326000456232,-0.2590396432429552,0.5975802540779114,0.0422770865261554,-0.597408652305603,0.8802546022936701,0.8857657669305801,-0.5928858134061098,-0.8002090454101562,0.8045909404754639,-1.332452654838562,-1.3664625404834747,0.8009878810942173,-1.200524959307909,-1.3429323434829712,0.0393348410725593,0.2384834140539169
1773257937057594400,2.434594482421875,-0.2830237454205751,-0.0809388008638285,-0.2580325120270252,0.5446096658706665,-0.0629390850663185,-0.5912074446678162,1.3029305640324949,0.8367910158812999,-0.941854149377346,-0.7778408527374268,0.4538938999176025,-1.5421137809753418,-0.1802601210385561,-0.7648299415200949,-0.1321302963808178,-1.0752981901168823,-0.2661877870559692,0.0744859501719474
1773257937067621000,2.44462109375,0.1473328339487314,-0.2384157930123619,-0.1702332325428724,0.5312414169311523,-0.1925741285085678,-0.5254683494567871,1.3555819577679038,0.9069631609991192,-1.5721914492994546,-0.7241343855857849,0.1350906640291214,-1.842090725898743,0.6932014601141214,-1.1502157447844743,0.9427394077792765,-0.8976263999938965,-0.2976943850517273,-0.0168918967247009
1773257937077647000,2.454647216796875,0.329201559227705,-0.5164502239793539,-0.3467570896625518,0.5508350729942322,-0.3209270536899566,-0.4529544711112976,1.3747487227916717,0.9323317032724618,-1.8490291995614765,-0.640001654624939,-0.2488055974245071,-2.172386646270752,1.2940204046070576,-1.3354179984003305,0.3730465461730957,-0.854026734828949,-0.1036445051431655,-0.0060400459915399
1773257937087674000,2.464674072265625,0.5702303294837474,-0.8548812377147376,-0.5879653081387282,0.5848633050918579,-0.4315604567527771,-0.4055283069610595,1.3210448973938822,0.6786544638454913,-1.8542139087229963,-0.5123356580734253,-0.8151105642318726,-2.4804022312164307,1.2460597990363835,-1.068396708753705,-0.3174932935163378,-0.8286978006362915,-0.0668696612119674,0.0553045943379402
1773257937097700400,2.474700439453125,0.7188520341992378,-1.007324546544999,-0.6668658263742924,0.5973905324935913,-0.5596451759338379,-0.3584319055080414,1.0708150219418109,0.8745224883824586,-1.5619664078831672,-0.3273767232894897,-1.3888670206069946,-2.7283310890197754,1.3133581422835587,-0.6528022297084332,-0.2094765709117055,-0.6716203093528748,-0.019964201375842,0.0525426305830478
1773257937107727400,2.484727294921875,0.867654940700531,-0.7345370945870876,-0.4761158755034208,0.588676393032074,-0.7214309573173523,-0.2280038297176361,0.8852408662736415,1.2508134233042596,-1.216491174724698,-0.1237292438745498,-1.9259182214736936,-2.9512712955474854,1.595465941902995,0.3747247085183858,1.189558451874554,-0.4726796448230743,0.01288628205657,0.319119393825531
1773257937117753300,2.49475341796875,1.0235685559898615,-0.0633798911618068,0.0478290881454944,0.6634233593940735,-0.9971773624420166,0.054766334593296,0.7409399473667144,1.824604952400923,-0.7170049450278282,0.1129946112632751,-2.3199350833892822,-3.167170524597168,-0.5421756168663502,-0.065140872952342,2.040741273462772,-0.2439178228378296,0.118181012570858,0.6109922528266907
1773257937127779300,2.504779296875,1.243886546650529,0.499254430234991,0.8564753750383853,0.8101686835289001,-1.3126991987228394,0.460429310798645,0.8160428999502212,2.475737787592411,0.0767985775202512,0.3784343600273132,-2.5958213806152344,-3.4152321815490723,-1.656192505544424,-0.7157265956550836,2.324827387417853,-0.1760137677192688,-0.0388123430311679,0.6196473240852356
1773257937137806000,2.51480615234375,1.660320399129391,0.5287414772104472,1.3302046476662155,0.9608537554740906,-1.4043306112289429,0.9284932017326356,1.284977850973606,2.5794220339506864,0.436219333922863,0.6531378030776978,-2.8675694465637207,-3.675780296325684,-0.1247878246635198,-0.2408241875946521,1.4476646136596798,-0.1849683821201324,-0.2962825000286102,0.4797391891479492
1773257937147832000,2.52483203125,2.691488908728957,0.1284585855981335,1.159573355716467,1.0279104709625244,-1.2872893810272217,1.3527852296829224,1.986906807422638,2.378743686522544,0.4359837716013193,0.9438109993934632,-3.3004698753356934,-3.965864658355713,0.5957587384939194,-0.918043650200963,1.1319012126758694,-0.1403196603059768,-0.4458309412002563,0.2750808000564575
1773257937157859300,2.534859375,3.4262317550212145,-0.1525132687939331,0.8148392963141202,1.0131003856658936,-0.9869338870048524,1.6790657043457031,2.560442023670673,2.361241932101548,0.1636725588530302,1.2721941471099854,-3.876529693603516,-4.3010334968566895,0.6298071385681628,-0.9067635467737912,1.2294050168335438,-0.1123444736003875,-0.3926031589508056,0.1243597418069839
1773257937167885300,2.54488525390625,3.9461154605805873,-0.4490578457731753,0.2502069329679012,0.8959764838218689,-0.636714518070221,1.8620810508728027,2.5901860045492646,2.391825578674674,-0.3251215964376926,1.5878674983978271,-4.35916805267334,-4.657139301300049,0.1015583402454853,-0.5976069967091083,0.4645619235709309,0.0093190046027302,-0.3415634334087372,-0.0179486088454723
1773257937177912300,2.554912353515625,3.719699737566709,-0.2821531000658869,-0.1875268971711397,0.6708381772041321,-0.3705368936061859,1.8967639207839968,2.404698650381714,2.566289288394153,-0.8144488356918096,1.81403911113739,-4.627524375915527,-4.984674453735352,0.4782867898017168,-0.6298346110969781,0.9101593266919256,-0.0216674078255891,-0.2621538341045379,-0.3258374631404876
1773257937187938300,2.564938232421875,2.951373770624399,0.4338927906714379,0.0571668253332376,0.4674869477748871,-0.0627112314105033,1.7716997861862185,2.28439045535028,2.5880387633875013,-1.2736504012733698,1.927028775215149,-4.7340850830078125,-5.263896465301514,2.0050819310605523,-2.926967059120536,-0.0273287364304065,-0.0100573757663369,0.2944470942020416,-0.3380847573280334
1773257937197965000,2.574965087890625,2.6378087564677,0.7848211016040295,0.4371463856399059,0.345594584941864,0.2155781835317611,1.4835926294326782,2.219203405168652,2.405117314185202,-1.3818050710439682,1.990529179573059,-4.746680736541748,-5.495872497558594,-0.7610580217659473,1.3507348099976777,0.0317372005224227,0.1275697350502014,0.7075142860412598,-0.5314555168151855
1773257937207991300,2.5849912109375,1.839546500945091,1.1175345414102076,0.7148924829185008,0.2908050417900085,0.4296762943267822,1.06641685962677,2.3575845786377787,2.527526719279587,-0.851043413117528,2.088081121444702,-4.704195022583008,-5.700156211853027,1.8259353242218488,0.3994996688127517,0.6862120396181941,0.4346098601818084,-0.0894036144018173,-0.6341465711593628
1773257937218018600,2.5950185546875,0.8847492833644152,1.3457216580107807,0.8613724994301796,0.2773890793323517,0.6622424125671387,0.5449897646903992,2.3392981035798788,2.987577302905917,0.1078746837854385,2.2626352310180664,-4.491672515869141,-5.9097161293029785,1.8855320070505144,0.0399924031704664,0.9118041712895036,0.4764635562896728,-0.399556428194046,-0.6531935334205627
1773257937228044500,2.60504443359375,0.1692979975193738,1.2130565241008997,0.6971516590446233,0.3267120718955993,0.6686652898788452,-0.0040795779787003,2.1472198267146942,3.192987355031073,1.3170809621989723,2.541520357131958,-4.192814350128174,-6.124227046966553,1.8043758188426493,-0.1049170030236244,0.6158364808827639,0.5201513171195984,-0.5443393588066101,-0.6777338981628418
1773257937238070800,2.61507080078125,-0.8598930745273828,0.6010711656883359,0.2985486468106508,0.4246636629104614,0.5532553195953369,-0.4847415089607239,2.029525467443466,3.1654607579410072,2.1502818446338177,2.893115997314453,-3.996883869171143,-6.289141654968262,1.2673784813970326,-0.0354980143606662,0.4231242900282144,0.5496373176574707,-0.5836699604988098,-0.708279550075531
1773257937248097500,2.62509765625,-1.116961709958315,0.1906190179675817,0.1483914030909538,0.5188623666763306,0.378448486328125,-0.8323294520378113,1.7140946594148874,3.335244785411656,2.559545367091894,3.262763500213623,-3.6975700855255127,-6.396428108215332,0.7163929506093263,0.3925269071906805,0.2737181569367647,0.5943567156791687,-0.3357149660587311,-0.7319290637969971
1773257937258123500,2.63512353515625,-0.4570154537141322,0.2695798880882561,0.2017354552656412,0.5767035484313965,0.2077976465225219,-0.9718852043151855,1.4231073877692222,3.810627378204465,2.9332535920441147,3.609384536743164,-3.1686456203460693,-6.513042449951172,0.0734545277893543,1.5344365959227084,0.4351777159154414,0.6956367492675781,0.0253723878413438,-0.7508774399757385
1773257937268150500,2.645150634765625,0.2358002219527959,0.4186240559995174,0.2594780346602201,0.6316859722137451,0.176974356174469,-0.9412314891815186,1.0844073478341103,4.400338653227687,3.317514775192737,3.8361904621124254,-2.417369842529297,-6.707502841949463,-0.283734524038434,2.344229714763165,0.8858411702543496,0.790760338306427,0.4764118790626526,-0.6467655301094055
1773257937278176500,2.655176513671875,0.5144014747560024,0.3218444744631648,0.4246060530185699,0.7350725531578064,0.2999197244644165,-0.7998724579811096,1.01361239464283,4.765400922648609,3.440975150644779,3.89162278175354,-1.5873219966888428,-6.952983856201172,-1.4620307004034518,2.316283138695359,0.6564829640477895,0.8629842400550842,0.7246752381324768,-0.5780719518661499
1773257937288203800,2.665203857421875,0.4401642721563577,0.1297211894124746,0.2448158875793218,0.8527852892875671,0.4936118721961975,-0.6188834309577942,0.8100462168186903,4.454731045411527,2.7561574879944324,3.7909770011901855,-0.8676367998123169,-7.183176517486572,-1.4643506677836178,1.515122239121795,0.3562047169655561,0.9480763673782348,0.983431339263916,-0.5161007046699524
1773257937298229800,2.675229736328125,0.4090981027632951,0.2533563369095325,-0.2645931857168674,0.9934603571891784,0.5475560426712036,-0.4198132157325744,-0.1853413698256015,4.127880433224141,1.8151140704780813,3.672346830368042,-0.1238920986652374,-7.269749164581299,-1.6773106968969105,0.8209288453608751,0.5266133060753345,1.0183382034301758,1.2195879220962524,-0.5196882486343384
1773257937308256500,2.685256591796875,0.2128945626616477,0.3461396884165704,-0.4293669838100671,1.1233341693878174,0.455621063709259,-0.2253254950046539,-1.051219948503375,3.7550668190240857,1.0556371804237366,3.4510087966918945,0.5413752198219299,-7.170848846435547,-1.6731670212209224,0.6037064826279879,0.6109025316119193,1.1010922193527222,1.6557741165161133,-0.4685569703578949
1773257937318282500,2.695282470703125,-0.1082575456231832,0.3117695090420544,-0.0937766003280878,1.126679301261902,0.4104077816009521,-0.0545912943780422,-1.5696248136818407,3.3093723852694032,0.120811322247982,3.125801086425781,1.1364691257476809,-6.979174613952637,-2.534171856382489,0.3863742297798395,0.8264525772184133,1.1115853786468506,1.7457716464996338,-0.4961894154548645
1773257937328308500,2.70530859375,-0.3027554508507251,0.3700454646609723,0.5430360330879688,0.9807044863700868,0.4960828721523285,0.0302179269492626,-2.0004694688290354,2.4104893626123665,-0.6951666227072477,2.813642263412476,1.6393369436264038,-6.743497848510742,-1.33454238460958,-0.0324614231437444,0.3023573914438486,1.0746705532073977,0.9233756065368652,-0.6603555083274841
1773257937338335500,2.71533544921875,-0.7904214788943529,0.430866574718058,0.963189782872796,0.7688750624656677,0.5540521740913391,-0.0288877375423908,-2.3004946179330346,1.85419841889292,-1.2792811006367206,2.4580423831939697,1.968472003936768,-6.458139896392822,2.252604154989123,-0.856837778609991,-0.2732441096842289,1.0205823183059692,0.0975333228707313,-0.65977942943573
1773257937348361700,2.72536181640625,-1.8446388556480409,0.3871547126330435,0.8062386412292718,0.5870752334594727,0.5365278720855713,-0.2412543594837188,-2.2269933283925054,1.5740915838323533,-1.7813760515272616,2.1265549659729004,2.1179769039154053,-6.106082439422607,2.1629227150201795,-1.4329133269906045,-0.7404729143768548,0.9226223826408386,-0.2070290148258209,-0.5843315124511719
1773257937358388700,2.735388671875,-2.474270053127408,0.5138311275221407,0.0306558350265026,0.4502739906311035,0.5389454960823059,-0.515267550945282,-2.104519041368365,1.365405578776449,-2.208293888619542,1.8432267904281616,2.14225172996521,-5.72919511795044,0.8890408430784941,-1.6657921085387468,-0.9915320802599192,0.8658952116966248,-0.4355564713478088,-0.6558030247688293
1773257937368414700,2.745414794921875,-1.7759312301248311,0.8268174650080502,-0.6479711562901735,0.2935591340065002,0.5335796475410461,-0.7406750321388245,-1.7106325362622736,1.0798821254946291,-2.491725045797229,1.6255621910095217,1.8006983995437622,-5.373278617858887,1.5281155762076375,-1.2771440886080263,-0.5024927180364728,0.7463376522064209,-0.6614670753479004,-0.748693585395813
1773257937378441500,2.75544140625,-1.229647008895874,0.8076917626470327,-1.1801058561354876,0.1244441419839859,0.490879625082016,-0.8419182896614075,-1.570687474477291,1.0749510988332331,-2.939263646113872,1.4781514406204224,1.2729157209396362,-5.000576972961426,1.491385974225402,-0.889922886610031,-0.7622621368587017,0.629025936126709,-0.8273060917854309,-0.8211525678634644
1773257937388467500,2.765467529296875,-0.7213596331059933,0.4812187516003847,-1.64944887650311,0.0048106438480317,0.6492587327957153,-0.8384971618652344,-1.5910656611174343,1.1018057149458675,-3.641383741220832,1.370730757713318,0.584060788154602,-4.611526012420654,1.237455636820197,-0.5741162310063839,-0.8216717726826668,0.4980219602584839,-0.8912895917892456,-0.8668456673622131
1773257937398494700,2.77549462890625,0.707020142108202,0.3911249314382672,-1.941829648333788,0.0441378094255924,0.9013373255729676,-0.7332452535629272,-1.827922698646784,0.7606606930114328,-4.252508975672722,1.2230461835861206,-0.041258729994297,-4.213701725006104,0.7778244476497173,-0.2608037303060293,-1.1226409246385096,0.3910633027553558,-0.7725046277046204,-0.8508238792419434
1773257937408520700,2.785520751953125,1.5000497576743363,-0.023613661430031,-2.123212051400542,0.1929653286933899,1.0347838401794434,-0.542068600654602,-2.1173703396350145,0.1411716079052537,-4.613704925054312,0.991767168045044,-0.497123658657074,-3.837826013565064,0.0052291328251361,-0.1290828915089368,-1.3409718331351876,0.3495392501354217,-0.647703230381012,-0.8202260136604309
1773257937418547700,2.795547607421875,1.606767672640085,-0.6405901061281561,-2.0574930862993,0.3413944840431213,1.011650323867798,-0.3351221084594726,-2.592005621191859,-0.4441125713907182,-4.543876771068573,0.721501350402832,-0.6814436912536621,-3.4610183238983154,-0.1721954725265503,-0.2566968795090913,-1.281587624013424,0.3796111345291137,-0.5114740133285522,-0.7889668941497803
1773257937428573700,2.80557373046875,1.4258318442970517,-0.9888231135621668,-1.891429832917452,0.4377084672451019,0.9192580580711364,-0.1859882473945617,-3.0281232483059166,-0.8874576655402779,-3.821584825548529,0.4839640855789184,-0.5839648842811584,-3.0400335788726807,-0.3423895421028137,-0.150267133834958,-0.872378754352033,0.4112308919429779,-0.3413873612880707,-0.7938771843910217
1773257937438599700,2.815599609375,1.216218787524104,-0.8525583477251231,-1.6775351533025502,0.4539910554885864,0.8443787693977356,-0.1497791111469268,-3.155748342221975,-0.9797472421810032,-2.6217344045013187,0.362728476524353,-0.1617295145988464,-2.597283840179444,-0.473364530968666,0.2298690783381462,-0.5630275584980845,0.4812661707401275,-0.3619240522384643,-0.8831687569618225
1773257937448626400,2.82562646484375,0.986256185683608,-0.4024534040518104,-1.5164461812019348,0.3728973269462585,0.7899259924888611,-0.2229641824960708,-2.262298450529576,-1.1335501489266753,-0.899302124851942,0.3450132012367248,0.3676078617572784,-2.3085291385650635,0.2499222708076238,0.4330184920549392,0.0669233724549412,0.497601568698883,-0.5870622992515564,-0.9855273962020874
1773257937458652700,2.835652587890625,0.831746007451415,0.0969843103282153,-1.5302508346706627,0.2209306806325912,0.7131922841072083,-0.3924930095672607,-2.1485013909578323,-0.4586073990806937,0.8049035932332277,0.4015539884567261,0.6693299412727356,-1.951461672782898,0.6983586967468262,0.4037473893851042,0.1868584963902831,0.4637229442596435,-0.6797730326652527,-1.0035104751586914
1773257937468679700,2.8456796875,0.6776134303599596,0.4208523995734751,-1.612096174186468,0.0390227138996124,0.6567830443382263,-0.6253901720046997,-2.8457524187237024,0.2253833112262189,1.6489572935938834,0.6155908107757568,0.7617424130439758,-1.6754001379013062,0.0899409676879644,0.2875304091900587,0.2857043628066778,0.3984725177288055,-0.650547981262207,-1.0153716802597046
1773257937478705700,2.85570556640625,0.6990379111826419,0.5149242565210909,-1.517445129111409,-0.1013272106647491,0.6216711401939392,-0.8416417837142944,-2.1527087795197963,0.8259487193495034,1.404936940306425,0.7874796986579895,0.7385724186897278,-1.5359399318695068,-0.0395253701806068,0.5359212326467037,0.2846659596696496,0.3654197454452514,-0.5165933966636658,-0.9765883684158324
1773257937488732700,2.865732666015625,0.6155424663722515,0.4052040179342031,-1.3154419628202914,-0.1845922321081161,0.5297180414199829,-0.9957352876663208,-2.103543474334478,1.3203686055675148,0.2602940272182226,0.806361198425293,0.5483501553535461,-1.393057107925415,-0.3772457514286041,0.7998901489853858,0.224039349271357,0.3752862811088562,-0.3810185194015503,-0.869184136390686
1773257937498758700,2.875758544921875,0.4136345771491527,0.2281253764759749,-1.314058399507403,-0.2597916424274444,0.4688864052295685,-1.0733251571655271,-2.3604437674611805,1.210558569805324,-1.3381570679754018,0.6841140985488892,0.3119235038757324,-1.2301735877990725,-0.805430831977725,0.8866045558422804,-0.0413823962241411,0.4313220977783203,-0.329256534576416,-0.7440800070762634
1773257937508785700,2.88578564453125,0.5687959127664566,0.2646964999608695,-1.297986385628581,-0.3336475491523742,0.5135698318481445,-1.0760037899017334,-2.79290287206769,0.7927927380703389,-2.8599147995889185,0.4274194836616516,0.0357409231364727,-1.040088415145874,-0.9313035292685032,0.6208867500096559,-0.2953776155591011,0.4736041724681854,-0.3439880907535553,-0.6132513880729675
1773257937518811600,2.895811767578125,0.9502730181545018,0.3697083416610956,-1.3812106122821568,-0.4085167348384857,0.6754793524742126,-1.0198498964309692,-2.742666722780466,0.3914624928295612,-3.614553017440438,0.1080129742622375,-0.3639489412307739,-0.8233118057250977,-1.2183406019836664,0.1271294193536043,-0.6288938231155276,0.4740779399871826,-0.2959638237953186,-0.4855027198791504
1773257937528838700,2.905838623046875,1.3803689007610085,0.4956318923562764,-1.4641998611360787,-0.5053766965866089,0.9381104111671448,-0.8985351920127869,-2.4654917033880945,0.677188336815685,-3.1632898436427115,-0.1542094647884369,-0.9372329711914062,-0.613803505897522,-1.4561416423648594,-0.0433738623023033,-0.6227215642213821,0.4300115704536438,-0.2483292073011398,-0.4011924862861633
1773257937538864600,2.91586474609375,1.8020763097286223,0.7342715755186975,-1.322310095024109,-0.5959311127662659,1.1437503099441528,-0.7084677815437317,-2.089371741119027,1.3167640052042902,-1.7131652696102857,-0.21591517329216,-1.1389814615249634,-0.4105177223682403,-1.230949908187985,0.2025175455540418,-0.3140250328838825,0.3538062870502472,-0.2289014458656311,-0.3627651929855346
1773257937548890600,2.925890625,1.4707926835298537,0.817752845673263,-1.2121557758688926,-0.6420743465423584,1.1528195142745972,-0.5069477558135986,-1.3233324238091706,1.5378791375920176,0.0611485884457826,-0.1186161115765571,-1.0248597860336304,-0.2869672477245331,-0.78531684923172,0.1230722529172897,-0.314734642457962,0.2667833566665649,-0.2492602467536926,-0.3438161611557007
1773257937558917600,2.935917724609375,0.5317910009741783,1.0116478896368295,-0.9764058227986095,-0.6886298656463623,1.0487970113754272,-0.3591763973236084,-0.1807137100249528,1.4347231528915465,1.128494326841831,0.0980485528707504,-0.7562631964683533,-0.2611931562423706,-0.4699550147861242,-0.0849292770057916,-0.4152680235698819,0.2145379930734634,-0.2903493642807007,-0.3682394623756408
1773257937568943600,2.945943603515625,-0.4157137215107679,1.1794664622534066,-0.644904169934988,-0.7571246027946472,0.8688509464263916,-0.3284763991832733,0.1966840170949697,1.3197155484862624,2.078237183642387,0.2899914085865021,-0.6798908710479736,-0.3381090462207794,-0.1511602832823991,0.009520692539215,-0.455458579660952,0.1962937861680984,-0.2977828681468963,-0.4003734588623047
1773257937578970600,2.955970703125,-1.3239783204972744,1.1193084922801702,-0.3603928163051605,-0.8768630027770996,0.6898527145385742,-0.4071075618267059,0.1524766265779733,0.9233169144287704,2.015962806037068,0.2476405054330825,-0.7224956154823303,-0.4005532562732696,-0.1057563764572143,0.1952010850608348,-0.4017991779267787,0.2248074561357498,-0.3337744176387787,-0.415217638015747
1773257937588996600,2.96599658203125,-1.8285031288832423,1.167262083588168,-0.1606236926764249,-1.061813473701477,0.5644174814224243,-0.555029034614563,-0.6040121875762939,0.6772035343848168,0.628889439201355,0.1103579923510551,-0.4480400085449219,-0.2153157144784927,-0.0561842440366745,0.2200876890361308,-0.2792988796785474,0.2554704844951629,-0.3736246824264526,-0.3866617381572723
1773257937599023600,2.976023681640625,-2.2468699952512976,1.314211836503446,0.1594587405502796,-1.2626606225967407,0.4719749391078949,-0.6996658444404602,-1.1900123331218957,0.1678809703283011,-1.118375083887577,-0.140914186835289,-0.3074975311756134,0.0823825374245643,-0.2463835752874612,0.3255307617604732,-0.4032730498716235,0.2700187861919403,-0.3892388045787811,-0.3654081225395202
1773257937609049600,2.986049560546875,-2.948345362713933,1.2620775985099375,0.5659294174194336,-1.3949793577194214,0.3478788435459137,-0.7781671285629272,-1.582580741366744,-0.6368500428169965,-2.6480355514496563,-0.4766006767749786,-0.5307148098945618,0.3574315011501312,-0.3173018625974655,0.6152548816025257,-0.4903320323824882,0.261900931596756,-0.5419085025787354,-0.3724338710308075
1773257937619076600,2.99607666015625,-3.516865965670347,1.0868217154994606,0.945823053008318,-1.4439167976379397,0.2244533002376556,-0.7603489756584167,-2.160015303140878,-1.350648593018949,-3.382218425771594,-0.7973155975341797,-0.9593327045440674,0.5453478693962097,-0.5442173518270254,0.9563286649316548,-0.7798673516541719,0.2080955058336258,-0.2926965355873108,-0.1411260813474655
1773257937629102600,3.0061025390625,-3.722747434699535,0.7903319009147584,1.214924656060338,-1.4010947942733765,0.0887118428945541,-0.6444128751754761,-2.547946699234843,-1.6819674366615711,-3.036228228828311,-1.011599898338318,-1.3538119792938232,0.7037275433540344,-2.761404740998149,0.3742109137773514,-1.113171962286532,0.1330629289150238,0.0572247132658958,0.1221245005726814
1773257937639128600,3.016128662109375,-3.8063176983118057,0.3518926259201019,1.728683156737685,-1.1941746473312378,0.0614890083670616,-0.3944296240806579,-2.6669875046789646,-0.8373527414172888,-1.611279012584686,-1.1054214239120483,-1.3538308143615725,0.9462014436721802,-2.4040438397347925,-1.3454887260377406,-0.8900999967426061,0.0519044324755668,0.2170623242855072,0.2535440325736999
1773257937649155600,3.026155517578125,-3.495815578857064,-1.1337401185408231,2.222454515919089,-0.8748353719711304,-0.2270092964172363,-0.0967171192169189,-1.205476444235444,0.2932324202239513,0.5891805291473865,-1.0650869607925415,-1.292238473892212,1.148108959197998,-0.71405486305058,-1.8175778302431105,-0.6277206876829267,-0.0246219802647829,0.0310289468616247,0.154488667845726
1773257937659181600,3.036181640625,-3.912276319342852,-1.5638047292262316,1.27033031693995,-0.6183817386627197,-0.5846361517906189,0.0475519113242626,3.856910405951738,1.7241778081424532,5.870488947200775,-0.4382939338684082,-1.3892865180969238,0.556793212890625,1.228279812195897,-0.9380898284077644,-0.3924798531785607,-0.0121725006029009,-0.481973648071289,-0.0741333216428756
1773257937669208600,3.04620849609375,-4.30346350236237,-0.7368321467217057,1.302176823055744,-0.466024249792099,-0.8388375043869019,0.0219169463962316,9.63320248158574,5.173793799751997,13.858247111749648,0.7447842955589294,-1.9014002084732056,0.142150729894638,2.241511098566652,0.1515115809381008,-0.0172059863448142,0.0882106944918632,-1.0550832748413086,-0.3828952014446258
1773257937679234600,3.056234619140625,-3.908123291316629,-0.0717008890550583,1.5541647942215204,-0.3549123704433441,-0.8706196546554565,0.0355294272303581,6.521039014068245,2.691923208492994,9.528206568107008,1.506117820739746,-2.6754653453826904,0.1315540075302124,2.4568881256937978,1.2723843268603086,0.2612999893903732,0.1723484694957733,-1.571268081665039,-0.7152092456817627
1773257937689261600,3.066261474609375,-2.110503960996866,-0.6153565153460949,1.6151871259391306,-0.321607381105423,-0.8680461645126343,0.1178088039159774,4.934132226195931,0.2402196458302438,5.32705310114026,2.080767869949341,-2.628813505172729,-0.2017486542463302,2.4673060593336817,1.7879191895604132,-0.0652653761148452,0.2846687138080597,-1.7223352193832395,-1.0892219543457031
1773257937699287600,3.07628759765625,-0.9809510650128126,-0.5890981115609407,0.613249386999011,-0.3553184866905212,-0.7618967890739441,0.1604904979467392,3.221728004086017,0.0854591460987925,2.601726220217347,2.2704460620880127,-2.455216407775879,-0.4905863106250763,2.8545085566312074,1.2370406262785196,0.3259951644018292,0.3610945045948028,-1.7143577337265017,-1.3971047401428225
1773257937709314600,3.086314453125,-0.3566010228067636,0.1773528552897274,0.3611521102398634,-0.4292065799236297,-0.529005229473114,0.2115199118852615,1.604671577143669,-0.4166825665429234,0.6007970249220729,2.253742456436157,-2.466960906982422,-0.6258509755134583,3.044769262680412,0.5041273335009813,0.3348120925858616,0.2884039282798767,-1.751155138015747,-1.5666805505752563
1773257937719340500,3.096340576171875,0.534728807991743,0.7044038221299648,0.2053635826349258,-0.5042163729667664,-0.3279546797275543,0.312788724899292,1.2055588618218898,-1.2214954127527773,-0.1921840753272175,2.1733407974243164,-2.743354082107544,-0.66972416639328,2.1107792708069084,0.0237771814286708,-0.6546785449743271,0.1312332153320312,-1.804813027381897,-1.6086828708648682
1773257937729367800,3.106367919921875,0.9714613521337508,0.8006234316959977,-0.2584989604949951,-0.5549420714378357,-0.0832891836762428,0.4431304335594177,0.3243535346746444,-1.372074242885411,-0.6073688045278192,2.1147336959838867,-3.29367470741272,-0.5674009919166565,0.7151566868126392,0.4994172561138868,-1.5840972834095357,0.052952691912651,-1.822601675987244,-1.5603141784667969
1773257937739393800,3.116393798828125,1.503170520043373,0.5790167894642799,-0.2801262704133987,-0.5574899315834045,0.2093818336725235,0.5943667888641357,0.0905137991398572,-0.8057000043079257,-0.7877049134120344,2.231573820114136,-3.7166881561279297,-0.4568585157394409,-0.3191144649773836,0.61849196382761,-1.6314666450887918,0.000475636916235,-1.5286632776260376,-1.4637566804885864
1773257937749420500,3.126420654296875,1.88641580414772,0.2335221209529787,-0.3239285872608423,-0.5138658881187439,0.4795618653297424,0.7342013120651245,-0.6920768399983644,-0.0023231822505593,-1.2263976517111062,2.4597432613372803,-3.025257110595703,-0.3532459437847137,-1.2610159606277942,-0.2157458604395389,-1.7447440647006034,-0.0615646988153457,-1.1580021381378174,-1.3612676858901978
1773257937759446500,3.136446533203125,1.712892297887802,-0.0416447004221379,-0.2446808630228042,-0.4452064335346222,0.6068643927574158,0.8342443108558655,-1.2247615749418734,1.1833784480653702,-1.504302738943696,2.504852056503296,-1.7800482511520386,-0.2159440368413925,-1.427693546515703,-1.0973965932667256,-1.846443566982448,-0.1694464236497879,-0.9899486899375916,-1.3170450925827026
1773257937769472500,3.146472412109375,1.0947861185073853,-0.1412140588074922,0.0549170005798339,-0.3817487955093384,0.593733012676239,0.8839976191520691,-0.7216781975358724,1.7310170065127313,-1.5282488471984863,2.446166753768921,-0.7767402529716492,-0.0249069053679704,-0.6572095247566699,-1.122280274632573,-1.911186088266969,-0.284916877746582,-0.9141926169395448,-1.313565373420715
1773257937779499500,3.15649951171875,0.8273574171036482,-0.1038916054986417,0.4484907864749431,-0.353493183851242,0.549720048904419,0.8735391497612,-0.5088450096726417,1.749871782977879,-2.0610203836426138,2.1410953998565674,-0.3343279063701629,0.1230050548911094,-0.5396943214446306,-0.6099211193591356,-1.7566709415987134,-0.3342064023017883,-0.8979552984237671,-1.1868211030960083
1773257937789525500,3.166525390625,0.8300678451061249,-0.1955661555135622,0.7799737346380948,-0.3563651442527771,0.4872062802314758,0.793371856212616,-0.5997890169233083,1.5617270461693404,-2.291398872807622,2.0078160762786865,-0.2873823344707489,0.2003514915704727,-1.3541355583518744,-0.0620066665798425,-0.9331617243558168,-0.1918441951274871,-1.1209763288497925,-1.370970606803894
1773257937799552800,3.176552734375,0.7320499539464712,-0.397729480802454,0.98802436439991,-0.3566503822803497,0.3706980347633362,0.6348253488540649,-0.937680078563094,1.5204881500691174,-1.9579010776907204,2.303586959838867,-0.3953732550144195,0.4843666851520538,1.2236837165772914,0.792785869938135,1.2120017543509602,-0.0485301800072193,-1.5896623134613037,-1.397200584411621
1773257937809578800,3.186578857421875,0.2735743645519018,-0.6108094099683686,1.0433891087472438,-0.3571226000785827,0.1985194385051727,0.409661054611206,-1.8974802189975977,1.0510825858592987,-3.445882211908698,2.715287685394287,0.2960860133171081,1.0001106262207031,0.4145107754617929,0.231997322538495,1.4555981831379234,-0.2576238214969635,-1.6513361930847168,-1.2209371328353882
1773257937819605500,3.19660546875,-0.3444716090738773,-0.8732445774011314,1.0693225914269686,-0.3345536291599273,-0.1390857547521591,0.1120983138680458,-5.554999102461338,1.018567678962648,-5.900541555637121,2.4378199577331543,1.310012698173523,1.6525079011917114,-2.002242323720455,0.1316775841772556,-1.119736727629602,-0.4759630858898163,-1.3361202478408811,-0.9940844774246216
1773257937829631500,3.206631591796875,-1.6885948919773102,-0.3489644269810989,-1.230703824472427,-0.5355634093284607,-0.4739658534526825,-0.3323872983455658,-8.870945020902155,2.0227306927368045,-4.092725533212721,1.993799924850464,2.7771451473236084,2.3736045360565186,-2.594033327627182,0.8364443944007158,-1.2462307716891168,-0.5337883234024048,-0.9876348376274108,-0.8798410296440125
1773257937839658800,3.21665869140625,-3.2161276998609303,2.2359331523038444,-1.0689403141111136,-0.6698431968688965,-0.4172461032867431,-0.5724382400512695,-7.028696859782934,1.216104075103253,-3.5536516817539927,2.0646073818206787,3.769243955612183,2.853748083114624,-1.6469260800272223,1.1089876623392103,-0.4866990827076137,-0.4541020691394806,-0.6776620745658875,-0.8180665969848633
