time,seconds_elapsed,accel_x,accel_y,accel_z,gyro_x,gyro_y,gyro_z
1773258211437438500,0.0654384765625,-0.515220974445343,-0.1043380340918898,0.1840957536786794,0.1661527156829834,-0.224060371518135,0.1877297908067703
1773258211447450400,0.075450439453125,-0.5669605140328406,-0.0691103611052036,0.1677170119382441,0.169240653514862,-0.1471874266862869,0.1848807483911514
1773258211457462300,0.085462158203125,-0.5637187556326388,-0.064862932793796,0.099903704906255,0.1718584597110748,-0.0522476732730865,0.1658426821231842
1773258211467474400,0.095474365234375,-0.5795926165908575,-0.0909139043733477,0.0070588324703276,0.1693220734596252,0.058430902659893,0.1291379332542419
1773258211477486300,0.105486328125,-0.5971791266858577,-0.1463455764770507,-0.0952013724341988,0.1564775705337524,0.1770136803388595,0.0897277519106864
1773258211487499500,0.11549951171875,-0.6036322483479977,-0.1522024858117103,-0.1507362126514315,0.1413132548332214,0.2644005119800567,0.0636285096406936
1773258211497511400,0.125511474609375,-0.5640753139853477,-0.1022439844220876,-0.150478876889497,0.1361254900693893,0.3060252368450165,0.051959678530693
1773258211507523300,0.1355234375,-0.5166869553446769,-0.0387879958167672,-0.0746679952323436,0.131779745221138,0.3168371319770813,0.0688622295856475
1773258211517535500,0.145535400390625,-0.4925631524354219,0.0060129766792058,0.0349169996023178,0.1323103308677673,0.3012726604938507,0.1014281287789344
1773258211527547400,0.15554736328125,-0.4650321714311838,0.0798456901311874,0.0906993848398327,0.1167180687189102,0.24137844145298,0.1441399157047271
1773258211537559600,0.1655595703125,-0.510263644298911,0.1974371735498309,0.0059931029349565,0.1275684535503387,0.2598824799060821,0.205791637301445
1773258211547571500,0.175571533203125,-0.5380892243355512,0.0153866619631648,0.229599029225111,0.1507395505905151,0.2662338614463806,0.2548228204250335
1773258211557583400,0.185583251953125,-0.4384229814469814,-0.0672048197448253,0.2306364094488322,0.1607147306203842,0.2481201440095901,0.2898679673671722
1773258211567595500,0.195595458984375,-0.2935954083174467,-0.0933159970790147,0.2247143259234726,0.1400025337934494,0.1953834295272827,0.3041566014289856
1773258211577608400,0.2056083984375,-0.2246960596144199,-0.1484124458789825,0.1900856417432427,0.0939594209194183,0.1537465155124664,0.3077569603919983
1773258211587620600,0.21562060546875,-0.2474059040725231,-0.0538274517774581,0.1785636923842131,-0.0034669968299567,0.1430347561836242,0.3172684609889984
1773258211597632500,0.225632568359375,-0.3385831355571747,0.3067185092628002,0.0134000181905925,-0.04290721565485,0.1731935888528823,0.3372812271118164
1773258211607644400,0.23564453125,-0.5033212778151035,0.2295937685281038,0.3325723508350551,-0.0305994134396314,0.2740957140922546,0.3603340685367584
1773258211617656600,0.245656494140625,-0.6158575236707925,0.0919376944631338,0.6180578101940453,-0.0139011619612574,0.4081549644470215,0.3810010552406311
1773258211627668500,0.25566845703125,-0.6562777968645096,0.0596317541420459,0.6425834719024598,-0.0185478460043668,0.5241140723228455,0.3918246924877167
1773258211637680400,0.265680419921875,-0.6041144789069891,0.2871656675308943,0.5369447304755449,-0.0853137597441673,0.6161801218986511,0.4054757356643677
1773258211647692500,0.275692626953125,-0.5955775367081165,0.4659247363567352,0.4146194965332746,-0.1924514025449752,0.7011549472808838,0.4216091632843017
1773258211657704400,0.285704345703125,-0.6156663850128651,0.3531815697520971,0.4337703333355486,-0.2878722250461578,0.8101208209991455,0.4449133574962616
1773258211667716600,0.295716552734375,-0.5904711534798145,0.104652799129486,0.5942552020631731,-0.3489672541618347,0.8655412197113037,0.4682181477546692
1773258211677729300,0.305729248046875,-0.5409533815950155,-0.0733195032328367,0.8507100895099341,-0.3717014193534851,0.7786448001861572,0.4874045848846435
1773258211687741400,0.315741455078125,-0.6338011766403913,-0.1545633697241544,1.1229055669240653,-0.3605555593967438,0.5834382772445679,0.5107690095901489
1773258211697753300,0.32575341796875,-0.8639595933139324,-0.1556079103410244,1.3727873595908284,-0.3131041526794433,0.3919072151184082,0.5619543790817261
1773258211707765200,0.33576513671875,-1.1192150418430566,-0.0484077648162841,1.463592396762222,-0.2701204717159271,0.3320188522338867,0.6224033236503601
1773258211717777400,0.34577734375,-1.1959849777907132,0.0176613288968801,1.30816685725078,-0.254881352186203,0.4123432338237762,0.6703051328659058
1773258211727789300,0.355789306640625,-1.1055559343248604,0.4629010046213865,0.8827126629702746,-0.2764108777046203,0.597700297832489,0.7131261229515076
1773258211737801200,0.36580126953125,-0.9147054456889628,0.9171627757132051,0.3242836843088269,-0.3193620443344116,0.851127564907074,0.7403669953346252
1773258211747813400,0.3758134765625,-0.5036158768475055,0.9346323814302684,-0.145086224065721,-0.3960339426994324,1.075579285621643,0.7431371808052063
1773258211757825300,0.3858251953125,0.0269394448518753,0.7952817784070968,-0.5181237101495265,-0.5027704834938049,1.223171949386597,0.7353186011314392
1773258211767838500,0.39583837890625,0.459951507166028,0.9055886577755212,-0.7451125568762421,-0.6298043131828308,1.3199467658996582,0.73176509141922
1773258211777850400,0.405850341796875,0.6482762767165899,1.0417378344088792,-0.6811191003933549,-0.7788892388343811,1.3636655807495115,0.7307583093643188
1773258211787862300,0.4158623046875,0.7618629084080457,1.1512748984485863,-0.7514502354651689,-0.91787987947464,1.3311731815338137,0.7445366978645325
1773258211797874400,0.42587451171875,1.0199527035802602,1.2782535111546516,-1.0432605139315128,-1.0202641487121582,1.2501474618911743,0.7811381220817566
1773258211807886300,0.43588623046875,1.092318851611018,1.5465180788606403,-0.9849839737907052,-0.990850865840912,1.0910475254058838,0.9043460488319396
1773258211817898500,0.4458984375,0.830884422186017,2.9615199015855787,-0.5301224832400679,-0.8978084921836853,1.029760479927063,1.0401864051818848
1773258211827910400,0.455910400390625,0.4304945265352726,2.0274504147350787,-0.789216487018764,-0.8108911514282227,0.979154109954834,1.2591882944107056
1773258211837922300,0.46592236328125,0.3416471993029117,1.093083990764618,-1.1468006756439804,-0.7360750436782837,0.9200052618980408,1.5119776725769043
1773258211847934500,0.4759345703125,0.6712988403856754,0.909397402408719,-0.9973767146348952,-0.6664519906044006,0.8371068835258484,1.7584476470947266
1773258211857946400,0.4859462890625,0.9465122043162584,0.5987970832765102,-1.3104475155338644,-0.587472677230835,0.7635168433189392,1.9724681377410889
1773258211867959600,0.49595947265625,1.2858464505016802,0.3663987787216901,-1.5516355680048466,-0.272258311510086,1.5389846563339231,2.060153722763061
1773258211877971500,0.505971435546875,2.4074013334691524,-0.2304454169213771,0.3626943712458014,0.270921379327774,1.7294635772705078,2.019540309906006
1773258211887983400,0.5159833984375,2.4104320794671774,-0.1632838517963886,1.455670517721772,0.760802149772644,0.6385502219200134,1.800598382949829
1773258211897995500,0.52599560546875,2.7089088300853965,1.383625856730342,0.5886661498844623,1.2313740253448486,-0.1113602221012115,1.393291711807251
1773258211908007400,0.53600732421875,3.614901977008581,3.193283999890089,1.422730955672264,1.644089937210083,-0.9151816368103028,0.978314995765686
1773258211918019300,0.546019287109375,3.57558937279582,2.7890853596061467,0.4452656869485974,1.947427034378052,-1.6267379522323608,0.6485185623168945
1773258211928031500,0.556031494140625,3.148506700530648,2.5463953781396147,-0.6194456112906337,2.122195243835449,-1.9815056324005127,0.5186231136322021
1773258211938043400,0.56604345703125,1.7906529984384774,2.3715876772880558,-1.6366475548580288,2.1357734203338623,-1.645067572593689,0.6022458672523499
1773258211948055600,0.5760556640625,0.1974871501713991,1.6142828705757857,-2.945788371707499,2.0658318996429443,-1.1763458251953125,0.7713955044746399
1773258211958067500,0.5860673828125,-0.7834522244036197,1.026607485294342,-3.4573531617328523,1.983614802360535,-0.8062763810157776,0.902332842350006
1773258211968080600,0.59608056640625,-0.7293424485534429,0.3219049724787473,-3.169330877372622,1.8326956033706665,-0.6175751686096191,0.8792325854301453
1773258211978092500,0.606092529296875,-0.0280482828766107,-0.4867132573634385,-2.96853007260859,1.5012341737747192,-0.4912112653255462,0.6205657124519348
1773258211988104400,0.6161044921875,0.9846084184765816,-1.6168448300182818,-3.7445021703898895,0.4982175827026367,0.4946787059307098,-0.6736264824867249
1773258211998116600,0.62611669921875,1.8654186088263984,-5.176826299315691,-6.798986186876893,-0.5171610116958618,0.7888957262039185,-1.883749723434448
1773258212008128500,0.63612841796875,1.8582383419334887,-5.842573350793123,-6.934112450203299,-0.6830013394355774,0.5055614709854126,-2.172363042831421
1773258212018140400,0.646140380859375,1.5621499477565288,-1.830904344806075,-2.11156925214082,-0.5121949911117554,0.2212209105491638,-2.112722158432007
1773258212028152600,0.656152587890625,0.9065069416642187,0.8182780385911465,0.0786991504445672,-0.2520989179611206,-0.209460437297821,-2.017061948776245
1773258212038164500,0.66616455078125,0.8668202434420585,0.8255138350635767,1.0374652716562152,-0.0348197445273399,-0.6855708956718445,-1.9250773191452024
1773258212048176400,0.67617626953125,0.8462164313524961,-0.0369452905595302,1.1057204772368072,0.0786599442362785,-1.0094763040542605,-1.7228931188583374
1773258212058188500,0.6861884765625,0.0428285033792257,-0.426045730432868,0.5024564776793122,0.082753024995327,-1.1465755701065063,-1.4272443056106567
1773258212068201200,0.696201171875,-1.0065402642995118,-0.8677204071521758,-0.0348420346699655,0.0265044011175632,-1.1420146226882937,-1.0986977815628052
1773258212078213400,0.70621337890625,-1.8607967942446468,-1.475188288140297,-0.0877946033090353,-0.088182084262371,-1.1183156967163086,-0.8180266618728638
1773258212088225300,0.716225341796875,-2.219965037190914,-1.8617174162209036,-0.0599494417890906,-0.2600899338722229,-0.9931674599647522,-0.5670000314712524
1773258212098237400,0.726237548828125,-2.3632763605386016,-1.6550065106302498,-0.0776132549040019,-0.4200842678546905,-0.8888070583343506,-0.3289052248001098
1773258212108249300,0.736249267578125,-2.345769929942489,-1.0749094516485929,0.2251386888153851,-0.5195642113685608,-0.94145405292511,-0.0991242229938507
1773258212118261200,0.74626123046875,-2.070285347855091,-0.3712614163219928,0.4887888945937156,-0.5390156507492065,-1.131096124649048,0.1281313002109527
1773258212128273400,0.7562734375,-1.768042522701621,0.2534703186780214,0.7823097763702273,-0.4897437691688537,-1.4861074686050415,0.3808895051479339
1773258212138285300,0.766285400390625,-1.677214835307002,0.4138654632955789,1.1077663038507104,-0.350940853357315,-1.9179434776306152,0.7148571610450745
1773258212148297200,0.776297119140625,-1.9598317534923555,0.0352682972580194,1.6497811771973967,-0.2575909197330475,-2.22965407371521,1.1097655296325684
1773258212158310400,0.786310302734375,-2.0528870538085697,0.1061111812442541,0.938115985762328,-0.2549019753932953,-2.290127992630005,1.3794625997543335
1773258212168322300,0.796322265625,-1.59127901160717,0.0478220738828182,0.1865364248290658,-0.2143473625183105,-1.9228880405426023,1.194491624832153
1773258212178334500,0.80633447265625,-0.8109691768825054,-0.2507394324094057,-0.0844555220142006,-0.1364628821611404,-1.402924656867981,0.7071365714073181
1773258212188346400,0.816346435546875,-0.2662766087591648,-0.0057704000949859,-0.0525115468733012,-0.1624790430068969,-1.209626317024231,0.4065383672714233
1773258212198358300,0.826358154296875,0.1103723458200693,0.585613776576519,0.7022416756600142,-0.1357784271240234,-0.7898788452148438,0.080108031630516
1773258212208370400,0.836370361328125,0.0742407097309827,0.6457791992038489,1.2497851031698286,0.003710770746693,-0.5084772706031799,-0.1571410000324249
1773258212218382300,0.84638232421875,-0.0035299276918172,0.443761419865489,1.2234779648721217,0.1692157834768295,-0.4698667526245117,-0.086190290749073
1773258212228394500,0.85639453125,-0.1742524050563573,0.086808514881134,1.116087776667997,0.2872824966907501,-0.6559221148490906,0.1252905279397964
1773258212238406400,0.866406494140625,-0.4339537270784377,0.1570031640917062,0.6555423221968114,0.432361364364624,-0.929184079170227,0.4903976917266845
1773258212248418300,0.876418212890625,-1.0346148506611583,0.2527227151811123,0.7514638255991041,0.3940770924091339,-1.0551702976226809,0.9461382627487184
1773258212258431500,0.886431396484375,-1.366889241462946,0.8164408862918615,0.0124023854553699,0.243260458111763,-1.1532959938049316,1.4093842506408691
1773258212268443400,0.896443359375,-1.5705805069714784,0.884620688548684,-0.0284641702011227,0.1078485772013664,-1.347925305366516,1.867054343223572
1773258212278455600,0.90645556640625,-1.244691433292627,0.8933990382879972,0.2954834870863705,-0.0105317831039428,-1.714569926261902,2.2607102394104004
1773258212288467500,0.916467529296875,-0.5854115320026875,1.0626531966656445,0.2499851799760013,-0.1498912721872329,-2.0657224655151367,2.619718313217163
1773258212298479400,0.926479248046875,-0.3880915550917387,1.1849077034592628,0.1680674693437293,-0.3036918342113495,-2.318013429641724,2.970399856567383
1773258212308491500,0.936491455078125,-0.465068996310234,1.2499784337848423,0.1117302632350474,-0.4397186636924743,-2.41287899017334,3.280921220779419
1773258212318503400,0.94650341796875,-0.4164630785733461,1.3688953205883505,-0.0041693398402072,-0.5249895453453064,-2.492109537124634,3.458667278289795
1773258212328515300,0.956515380859375,-0.2089718362599611,1.4456097269564867,-0.001228628479503,-0.5850110650062561,-2.5333564281463623,3.445505142211914
1773258212338527500,0.966527587890625,0.1280161390602588,1.3693401417464015,0.0655295160769019,-0.6686455011367798,-2.399842977523804,3.1887638568878174
1773258212348539400,0.976539306640625,0.3228349468052387,1.2192898655325173,-0.0046842351263621,-0.7228240370750427,-1.9836993217468264,2.784447193145752
1773258212358552600,0.986552490234375,0.2336398290485143,1.3435305777072906,-0.0559079569790978,-0.7213286757469177,-1.27806293964386,2.1920673847198486
1773258212368564500,0.996564453125,0.7454527486160397,1.375816644284129,0.0918146252058912,-0.6776349544525146,-0.3684630692005157,1.415558934211731
1773258212378576600,1.00657666015625,1.3320336166590452,1.5078092857599257,0.3205945109346881,-0.588145911693573,0.4220661520957947,0.590640664100647
1773258212388588500,1.016588623046875,1.3426584710478782,1.87272747053504,0.5958073268759996,-0.3882844448089599,0.7799941897392273,0.1267486065626144
1773258212398600400,1.026600341796875,0.968600117483735,1.7527993608623742,1.3062006717443466,-0.1873032450675964,0.8196610808372498,0.1090491488575935
1773258212408612600,1.036612548828125,0.7048056809291243,1.642171578976512,1.0665151327908038,-0.0042407494038343,0.5866091847419739,0.2888290286064148
1773258212418624500,1.04662451171875,0.117525140184164,0.9681669867634772,0.4165617897074669,0.0279939230531454,0.5257096290588379,0.4350362718105316
1773258212428636400,1.056636474609375,-0.1178852056682109,-0.1608691918700933,-0.5918962909121066,-0.0389140024781227,0.7969477772712708,0.5270652770996094
1773258212438648600,1.066648681640625,-0.5169698639392852,-0.747913878032565,-1.5358628293335437,-0.033313512802124,0.9982756972312928,0.61472088098526
1773258212448660500,1.076660400390625,-0.3579220422774553,-0.937689430913329,-1.424489489777386,0.025497606024146,0.972018301486969,0.5985086560249329
1773258212458673400,1.08667333984375,0.2835135747641324,-0.8872972142815589,-0.9819251707419752,0.1487709134817123,0.8241711258888245,0.4571414589881897
1773258212468685300,1.096685302734375,0.6785328832924366,-0.5506593675732613,-0.3491093884097412,0.3299399018287658,0.7167969942092896,0.2895596623420715
1773258212478697200,1.106697265625,0.5779767058268189,-0.0635848756819963,0.1702057965466752,0.6213312745094299,0.7136691212654114,0.1084606274962425
1773258212488709400,1.11670947265625,0.4993681562751531,0.9228314689993856,0.8666993204761296,0.9886165857315063,0.8216086626052856,-0.0818706974387168
1773258212498721300,1.12672119140625,0.4711506543114781,1.6589438500791789,1.3424540345169602,1.313302755355835,0.9314157962799072,-0.2392007559537887
1773258212508733400,1.1367333984375,0.3687450495868921,1.4495336224019526,1.2146456199232487,1.5545449256896973,0.9886194467544556,-0.2438857853412628
1773258212518745300,1.146745361328125,-0.0655237347900867,1.223876608800888,0.990535616568476,1.7351809740066528,0.9710482954978944,-0.1075140610337257
1773258212528757200,1.15675732421875,-0.4204278905510902,1.2271370719015595,0.7905849258277565,1.6844147443771362,0.7240539193153381,0.3662612438201904
1773258212538769400,1.166769287109375,-0.924434812542796,-0.1994751091182231,-0.1314356469138525,1.1356772184371948,0.1059914454817771,1.0882335901260376
1773258212548781300,1.17678125,-0.5905439264550805,-2.9589339767456053,-2.0410367492780086,0.9513816237449646,-0.2368628531694412,1.4137674570083618
1773258212558794500,1.18679443359375,0.0031444355055689,-2.1511580429464576,-1.6061626924842596,1.1595104932785034,-0.3557741641998291,1.59015691280365
1773258212568806400,1.196806396484375,0.2469569912612438,-0.4124176025748252,-0.5807673959912731,1.4346507787704468,-0.2671793103218078,1.6077651977539062
1773258212578818300,1.206818359375,0.6730734488427639,0.4399602740168571,0.0561000728845596,1.6075774431228638,0.0512329898774623,1.2789549827575684
1773258212588830500,1.21683056640625,1.114249820651114,0.7056985381156206,-0.111367275141552,1.6235334873199463,0.4953177571296692,0.680793821811676
1773258212598842400,1.22684228515625,1.3469213891893626,0.0168909290462732,-0.6457126367736608,1.6070926189422607,0.7644508481025696,0.032699316740036
1773258212608854300,1.236854248046875,1.7398104076907035,-0.2538788994789123,-0.5283173335142434,1.5312572717666626,0.9607702493667604,-0.6314866542816162
1773258212618866400,1.246866455078125,2.3890546526566148,-0.6061228961199522,-0.7657102314859628,1.0674222707748413,0.9735159873962402,-1.307983160018921
1773258212628878300,1.25687841796875,3.105727296990156,-2.713411402201652,-2.3763597139954564,0.5843254923820496,0.9321759939193726,-1.9936223030090328
1773258212638890500,1.266890380859375,3.3394793542414902,-3.4679853226453066,-2.4035215694263576,0.3393986523151397,0.910799503326416,-2.4447150230407715
1773258212648902400,1.27690234375,2.6292577857434747,-2.196474271488189,-1.3426409353911877,0.2760516405105591,0.8682640194892883,-2.6139652729034424
1773258212658915600,1.28691552734375,1.8165408884108063,-0.7619628616511821,-0.4675408663164824,0.2949804961681366,0.6337608695030212,-2.5509607791900635
1773258212668927500,1.296927490234375,1.039149571481347,0.0771504596978426,0.2562112879492342,0.3614636659622192,0.2573148012161255,-2.3441479206085205
1773258212678939400,1.306939453125,0.0045651159584522,0.3884305777877569,0.7106966386638581,0.5066120028495789,0.0322177708148956,-2.0216763019561768
1773258212688951600,1.31695166015625,-1.1959639350026845,0.8863561340391636,1.2645242610096932,0.6800887584686279,0.0624561011791229,-1.606291651725769
1773258212698963500,1.32696337890625,-2.115118176794052,1.0386334386527538,1.270562518260628,0.715610146522522,0.2475262731313705,-1.2256196737289429
1773258212708975400,1.336975341796875,-2.3225977286696438,0.787041773328185,0.8488326052002608,0.7154013514518738,0.2676936089992523,-0.8651214241981506
1773258212718987500,1.346987548828125,-2.108447612988949,0.5267033224463462,0.7002196683131158,0.7005378007888794,0.3757988214492798,-0.6005340218544006
1773258212728999400,1.35699951171875,-1.6785422845184803,0.4222434155404567,0.5440617228738963,0.6987577676773071,0.6590020060539246,-0.5357472896575928
1773258212739011300,1.36701123046875,-1.0777800386488436,0.4026987571150064,0.2621719499193132,0.79194575548172,1.1398028135299685,-0.8066927790641785
1773258212749023500,1.3770234375,-0.4797007482528686,0.2533043144613504,-0.0146747143015265,0.7904322743415833,1.5370784997940063,-1.0600956678390503
1773258212759035400,1.387035400390625,-0.3436819200009107,0.6469938356906175,0.1700795032858848,0.790294885635376,1.8016161918640137,-1.228890299797058
1773258212769048600,1.397048583984375,-0.1810410422831773,0.6732984897702932,0.6634943041145801,0.8352288007736206,1.968326568603516,-1.347126841545105
1773258212779060500,1.407060546875,0.0292559051007032,0.8133236310541629,0.9843263866648078,0.8998352289199829,2.0736501216888428,-1.4675352573394775
1773258212789072600,1.41707275390625,0.1522737974822521,1.0789683716505765,1.088108905765787,0.943997859954834,2.060822010040283,-1.5028711557388306
1773258212799084500,1.42708447265625,0.0653074616909027,1.273726389119029,1.144451774430275,1.0116894245147705,1.936997413635254,-1.400195598602295
1773258212809096400,1.437096435546875,-0.1687900479972362,1.3325982648044823,1.238717035058141,1.0868229866027832,1.759266376495361,-1.166985034942627
1773258212819108600,1.447108642578125,-0.3505143963694572,1.250865153491497,1.1770921343374996,1.1721432209014893,1.4714441299438477,-0.8701338171958923
1773258212829120500,1.45712060546875,-0.2958306200236082,1.0510860929906367,0.9378259898398073,1.2674977779388428,0.9966772198677064,-0.5050264000892639
1773258212839132400,1.46713232421875,-0.2609709035664797,0.8571844000905752,0.6834587223220616,1.2911295890808103,0.5728638172149658,-0.1777594536542892
1773258212849143800,1.477143798828125,-0.4125210629492998,0.5287807132422924,0.4596037897069007,1.2634968757629397,0.3052079379558563,0.0696154534816742
1773258212859156000,1.487156005859375,-0.6423661758899688,0.7716179942250251,0.2530249129980802,1.1673049926757812,0.2490280717611313,0.2677429616451263
1773258212869168600,1.497168701171875,-0.8095797683507203,0.7698293572425842,-0.6452586824610829,1.051425576210022,0.4016386568546295,0.4616434574127197
1773258212879180500,1.5071806640625,-0.8471931674301624,0.3766524617105722,-0.8266711884051561,0.9866675138473512,0.4576259851455688,0.6524317264556885
1773258212889192700,1.517192626953125,-1.091936574295163,0.3324918329447507,0.2365894726343452,1.0210810899734497,0.1732358038425445,0.7907088994979858
1773258212899204600,1.52720458984375,-1.1528466778099535,1.2677443920999765,0.3165551358833909,1.1104798316955566,-0.0277786627411842,0.8210509419441223
1773258212909216800,1.537216796875,-1.4923258854240178,0.3719856389433145,-0.9023695495985448,1.0221824645996094,0.110961377620697,0.9308860898017884
1773258212919228700,1.547228759765625,-1.753736349451542,-1.5178940419226885,-0.9044891721010208,0.8463500738143921,0.295113742351532,1.0721580982208252
1773258212929240600,1.557240478515625,-1.0954384449362755,-2.517582540631294,-1.465800428200513,0.7751682996749878,0.5826584696769714,1.159472942352295
1773258212939252700,1.567252685546875,-1.158478546217084,-2.736566067817807,-0.8074703749813139,0.7726342082023621,0.8076336979866028,1.1487735509872437
1773258212949264600,1.5772646484375,-1.0977437992691994,-2.4442209518224,-1.1421709700167175,0.4942115843296051,0.8580968379974365,0.9983044266700744
1773258212959276800,1.58727685546875,-1.1175742888987064,-2.2525416111469267,-2.255831300342083,0.2478097230195999,0.9063953161239624,0.9059296250343324
1773258212969288700,1.597288818359375,-0.8849836766421795,-1.544152518773079,-2.489903675588965,0.0722618699073791,1.1502727270126345,0.7678900361061096
1773258212979301600,1.607301513671875,0.0362076239347457,-1.4805080218583344,-2.476412325853109,-0.1061121523380279,1.4949954748153689,0.5738518238067627
1773258212989313800,1.617313720703125,1.0546002385914326,-1.5398118592202663,-1.894629505741596,-0.2413807511329651,0.5801194310188293,0.3310425877571106
1773258212999325700,1.62732568359375,4.288164810943603,-1.2135299868315457,-1.3659218577355146,-0.2672891318798065,-0.5115380883216858,-0.0099759045988321
1773258213009337600,1.637337646484375,5.385943097004295,-0.5008469966560601,-0.1163876605868339,-0.1608969271183014,-0.5722362995147705,-0.3728766143321991
1773258213019349800,1.647349853515625,3.099983784902096,1.4659294614076614,1.7550842569291591,-0.1586938351392746,-0.6675270199775696,-0.6189030408859253
1773258213029361700,1.657361572265625,1.978111506548524,2.403179916381836,0.3603858020424842,-0.391011506319046,-0.7782425880432129,-0.7975521087646484
1773258213039373800,1.667373779296875,0.3264332635581493,0.9920634106576444,-1.3722056141801178,-0.4868165254592895,-0.3463902473449707,-0.8682366013526917
1773258213049385700,1.6773857421875,-0.6714145757198333,-0.0214712425738573,-0.6902063699513673,-0.3657814562320709,0.2367826402187347,-0.755540132522583
1773258213059397600,1.687397705078125,-1.8220149359077211,-1.2061153266608715,-0.5945628067076206,-0.1558815091848373,0.9754148721694946,-0.5183400511741638
1773258213069409800,1.697409912109375,-2.860157960695028,-2.136283714419603,-0.4797651917912066,-0.0715024396777153,1.6073052883148191,-0.2463886886835098
1773258213079422700,1.707422607421875,-3.0287112773269413,-2.302857255411148,-0.9904371976953,-0.1124326065182685,1.907112717628479,-0.0731269568204879
1773258213089435000,1.717434814453125,-2.4028186818540096,-1.690426199057698,-1.5908096405297516,-0.2084946930408477,2.0102479457855225,-0.0089785968884825
1773258213099446800,1.72744677734375,-1.500562967893481,-1.3353911103934049,-1.5965803328856825,-0.3253099322319031,1.891051769256592,-0.0256031230092048
1773258213109458700,1.737458740234375,-0.8574386671125889,-1.2480272997170685,-1.3914610804006458,-0.3724694550037384,1.2609490156173706,-0.0964866131544113
1773258213119470800,1.747470947265625,-0.8704302506327628,-0.9355904128074646,-1.0783050123710185,-0.3988929986953735,1.125976800918579,-0.2316078245639801
1773258213129482800,1.757482666015625,-0.7907225076675415,-0.3853250129878521,0.0989068393560126,-0.4292282462120056,1.4996984004974363,-0.3459602296352386
1773258213139495000,1.767494873046875,-0.0107347445040941,0.3000684037238359,1.1062396788053217,-0.4017552733421325,1.8146085739135744,-0.3894877135753631
1773258213149506800,1.7775068359375,0.4984229843795299,-0.5800958899378776,1.4344881750918923,-0.3947181403636932,2.028273344039917,-0.3171397447586059
1773258213159518700,1.787518798828125,0.3428483917862177,-1.1831278343051672,0.6101008963728323,-0.3028708100318908,2.1744160652160645,-0.2457200437784195
1773258213169531000,1.79753076171875,0.1493932736098766,-1.2703759096473457,0.8987130729176104,-0.3004239201545715,2.3266444206237797,-0.1336869895458221
1773258213179543800,1.807543701171875,0.888024359512329,-0.2983405570179224,0.8680746274173259,-0.5845213532447815,2.137528657913208,-0.058877807110548
1773258213189556000,1.817555908203125,2.098271671411395,1.8196300865978,-1.294621877631545,-0.7696318626403809,2.0755507946014404,-0.1145013868808746
1773258213199568000,1.82756787109375,2.125329189684987,1.4275100066423416,-1.8841499050423505,-0.9178433418273926,1.9394512176513672,-0.1727102100849151
1773258213209579800,1.837579833984375,1.7024270179748535,0.9182423876434564,-1.766642738906294,-1.0508487224578855,1.5664925575256348,-0.150289848446846
1773258213219592000,1.847592041015625,1.0280711281061172,0.3648182315319776,-1.391647689013928,-1.110101580619812,0.6524986624717712,-0.3180320262908935
1773258213229603800,1.857603759765625,0.6276122588723898,0.0096229838699102,-0.4067807657316327,-0.8591708540916443,-0.4431326687335968,-0.2052785903215408
1773258213239615700,1.86761572265625,-1.9512860434651371,-0.9389613505452872,2.342125582090765,-0.6052780747413635,-0.6583858132362366,-0.1606545597314834
1773258213249628000,1.8776279296875,-1.7183248443305492,-0.9263432765126228,2.362322713075578,-0.4918699860572815,-0.4077493250370025,-0.1781312972307205
1773258213259639800,1.887639892578125,-0.7016121455848217,-0.5824708023756742,0.9785901811003684,-0.3117058277130127,-0.2990244626998901,-0.0242779217660427
1773258213269652000,1.89765185546875,-1.6041092670857906,-0.9849088627278804,1.3885793874844907,-0.1514631509780883,-0.0238312277942895,0.1586775183677673
1773258213279663900,1.907663818359375,-1.6027350561231373,-0.9561147299200295,1.1421858022596687,-0.0329330749809742,0.1873411834239959,0.2992497682571411
1773258213289676500,1.917676513671875,-1.2216168471753597,-0.8097679843991994,0.7995285491313785,0.0598794184625148,0.2364528030157089,0.3819989860057831
1773258213299688700,1.927688720703125,-0.9786755212962628,-0.6687766284316777,0.4551670493684708,0.1145525500178337,0.1888368427753448,0.4114635288715362
1773258213309700600,1.93770068359375,-0.761381262370944,-0.5326543398052453,0.1205070786044001,0.1372216492891311,0.2137384563684463,0.3948680460453033
1773258213319712800,1.947712646484375,-0.4412000449448823,-0.3895388312906027,-0.1067534246705472,0.1399375647306442,0.2946378588676452,0.3531309366226196
1773258213329724700,1.957724609375,-0.0273299054741859,-0.2055424463331699,-0.201805744022876,0.1166357100009918,0.4340511560440063,0.3074289560317993
1773258213339736600,1.967736572265625,0.185648243817687,-0.2005769328802824,-0.3836162363085895,0.0760430544614791,0.5712846517562866,0.2953476309776306
1773258213349748700,1.977748779296875,0.008052958074212,-0.2152396644830703,-0.3686354517325759,0.0394088849425315,0.6821624636650085,0.3276267349720001
1773258213359760600,1.9877607421875,-0.1952221278488635,-0.0934258871942758,-0.3924361601673066,0.0209065377712249,0.8245313167572021,0.3658402860164642
1773258213369772800,1.997772705078125,-0.5213227984517812,0.0670323857873678,-0.2366884029641747,0.357945829629898,0.9597384333610536,0.3810037970542907
1773258213379784700,2.00778466796875,-0.9469956039190291,1.3860440237879752,2.660332138442993,0.4701010584831238,0.7347891330718994,0.4873114228248596
1773258213389796600,2.017796630859375,-1.0335457601249218,2.2554273957163096,1.3140209901064634,0.4647398591041565,0.4786468148231506,0.5304144024848938
1773258213399809800,2.027809814453125,-0.3728904788285493,2.75502410005033,0.249879016187787,0.5222068428993225,0.3192970752716064,0.4375101625919342
1773258213409821700,2.03782177734375,0.8071282835453748,2.496300683149695,1.0576597722925245,0.4966215789318084,0.0935795381665229,0.2480073720216751
1773258213419833900,2.047833740234375,1.5692413673222063,1.9256898299157617,0.314834449570626,0.3747646808624267,-0.0981651246547699,0.0173228532075881
1773258213429845800,2.057845703125,1.857511781224608,1.599919414180517,-0.3088995796289295,0.2296045422554016,-0.1919331699609756,-0.1996286213397979
1773258213439857700,2.067857666015625,1.5560381868779658,2.142178033155203,-0.3767692199580371,-0.0019375435076653,-0.1200669109821319,-0.2941240966320038
1773258213449869800,2.077869873046875,0.4475298324882983,3.0928152084469795,-0.6363971844829619,-0.2158706039190292,0.0826768800616264,-0.284135103225708
1773258213459881700,2.0878818359375,-0.2920271360874176,3.0719787566453216,-0.8132027811534702,-0.3817749321460724,0.2608700096607208,-0.2280037999153137
1773258213469893600,2.0978935546875,-0.1075333230018615,2.712155264660716,-0.5618709358088672,-0.429887592792511,0.472452312707901,-0.1834515333175659
1773258213479905800,2.10790576171875,0.1864367638468742,2.35570797111094,-0.1409799577906727,-0.4474317133426666,0.6261447072029114,-0.1299982219934463
1773258213489918700,2.117918701171875,0.3481657874166965,1.5105921944767235,-0.2606805423177779,-0.4828333556652069,0.8224250078201294,-0.0571634359657764
1773258213499931000,2.127930908203125,0.2508434773057699,0.4367874891996383,-0.3476379641503095,-0.4772993624210357,1.1475085020065308,0.0294241309165954
1773258213509942800,2.13794287109375,-0.0369037895053625,-0.4695458494633436,-0.163413615655899,-0.4968935549259186,1.438747525215149,0.0858661010861396
1773258213519954700,2.14795458984375,0.1676326946556568,-0.3327589594483375,-0.2610365161485969,-0.5515923500061035,1.561400055885315,0.0968143492937088
1773258213529966800,2.157966796875,0.48102235224545,0.2850555435091257,-0.1938448481462895,-0.5688653588294983,1.8175026178359983,0.0558432079851627
1773258213539978800,2.167978759765625,0.5767910031735897,0.4663222112417221,0.2719198753431439,-0.5498254299163818,1.8545589447021484,-0.138594314455986
1773258213549991000,2.177990966796875,1.3717916265517471,0.2788298008620739,0.0249131997212767,-0.5044243931770325,1.7482359409332275,-0.4237805306911468
1773258213560002800,2.1880029296875,1.6777005729973316,-0.1088993506580591,-0.3609934125468134,-0.4544143974781036,1.561687469482422,-0.7365365028381348
1773258213570014700,2.1980146484375,1.4867501311182976,-0.5755839654713869,-0.744101918528974,-0.4130661785602569,1.3038372993469238,-0.955519437789917
1773258213580027000,2.20802685546875,0.7233470075309276,-0.0408481432169675,-0.8844929705157876,-0.3746675550937652,1.0489754676818848,-1.0485230684280396
1773258213590038800,2.218038818359375,-0.1966810944855213,1.0447995600670577,-0.3296542714312672,-0.2678934633731842,0.7306070327758789,-0.9932811260223388
1773258213600052000,2.228052001953125,-0.8492425011754036,1.9016221411079168,0.5845379640385509,-0.134508267045021,0.5171086192131042,-0.8708012700080872
1773258213610064000,2.23806396484375,-0.9981330859601496,1.9274907418578864,0.8373921966448425,-0.0275751631706953,0.4772144556045532,-0.762834370136261
1773258213620075800,2.24807568359375,-1.0937117672741412,1.7233189993560314,0.5289174913644791,0.0185572132468223,0.5920025706291199,-0.6051938533782959
1773258213630088000,2.258087890625,-1.419096398562193,1.6458908917605877,-0.0017605799317359,-0.1409072875976562,0.4898061752319336,-0.3376138508319855
1773258213640099800,2.268099853515625,-1.4122282663583754,1.5398714804530145,-1.5806415899977089,-0.3274436891078949,0.576630711555481,0.1040540784597396
1773258213650111700,2.27811181640625,-1.2396522700816393,3.585388297754526,-1.8397396854296328,-0.3036536574363708,0.5980265140533447,0.3377033174037933
1773258213660124000,2.2881240234375,0.0982253964304924,3.852781343322992,-0.1693082266524434,-0.2157278209924698,0.5010097622871399,0.4044030606746673
1773258213670135800,2.2981357421875,1.215418577057123,1.5462135429561137,-0.2890881600260734,-0.2998523116111755,0.38072270154953,0.4702481031417846
1773258213680148000,2.30814794921875,1.217666063722968,-0.8186959717422724,-2.0639596519649026,-0.9191949367523192,-0.1535697877407074,0.593666136264801
1773258213690159900,2.318159912109375,1.3931898038893935,-3.868546483209729,-5.593971514934301,-1.1531052589416504,0.1163186803460121,0.5271608829498291
1773258213700171800,2.328171875,1.4716045844346284,-6.4008133827537295,-1.8602572805404665,-1.0320836305618286,0.9365909695625304,0.2931249439716339
1773258213710184700,2.338184814453125,0.8950579114109277,-6.650078066435456,-0.3564116377145052,-0.761106014251709,1.4749692678451538,0.021776782348752
1773258213720196600,2.348196533203125,0.2317243508160114,-5.267940402436256,-0.4106514696851372,-0.4944165050983429,1.6521886587142944,-0.2911587059497833
1773258213730208800,2.358208740234375,0.5708101751983166,-4.189878039714694,0.984967607177794,-0.3616827130317688,1.3171329498291016,-0.478419691324234
1773258213740220700,2.368220703125,0.35155367628932,-2.728531229922176,1.7635241684943437,-0.2412779778242111,0.5607877969741821,-0.4338811337947845
1773258213750232600,2.378232666015625,-0.7328086633592844,-0.7641285152524709,1.9432474061772227,-0.1327933073043823,-0.0559987276792526,-0.3524275422096252
1773258213760244700,2.38824462890625,-0.7035159333795309,0.3094739454507828,1.359811558161676,-0.1212534829974174,-0.4061092734336853,-0.3043199181556701
1773258213770256600,2.398256591796875,-0.4639700951576233,0.325309227964282,0.2870443792387843,-0.1013261154294014,-0.5272697806358337,-0.2855430245399475
1773258213780268500,2.4082685546875,-0.2425648937821388,0.1114677398413419,0.0824932820305228,-0.0867980644106864,-0.5494650602340698,-0.2626791000366211
1773258213790280700,2.41828076171875,-0.1118640456825494,-0.3294540726840496,-0.0244353530764579,-0.0349777527153492,-0.5726604461669922,-0.2058531045913696
1773258213800292600,2.428292724609375,-0.2300444349050521,-0.6414642586141824,0.1775114068523049,0.0230995807796716,-0.629280149936676,-0.1130780279636383
1773258213810304800,2.4383046875,-0.5661638106971979,-0.6265162803292275,0.2866527495726942,0.0614762641489505,-0.5984484553337097,-0.0417159646749496
1773258213820317700,2.448317626953125,-0.6785995187878608,-0.5559557204157114,0.1349693191990256,0.0816737115383148,-0.4524888098239898,0.0007883170619606
1773258213830329900,2.458329833984375,-0.7574415848344564,-0.624019787338376,-0.0154208564937114,0.089109793305397,-0.2764557301998138,0.0366584323346614
1773258213840341800,2.468341796875,-0.754318484377861,-0.5663982039749622,-0.0878244139254093,0.1046463027596473,-0.1495117396116256,0.0783048942685127
1773258213850354400,2.4783544921875,-0.6995832701057195,-0.4891244101583957,-0.0293225405961275,0.127413660287857,-0.0857751071453094,0.1244247183203697
1773258213860366300,2.488366455078125,-0.721070879292488,-0.2992033113270997,0.1007473161235451,0.1460982710123062,-0.0781519338488578,0.1587991267442703
1773258213870378500,2.49837841796875,-0.6161784261882305,-0.1191711538255214,0.1359057232663035,0.1737274974584579,-0.0780025348067283,0.1788982599973678
1773258213880390400,2.508390380859375,-0.3759282390892505,-0.0822767166703939,0.2454465866982936,0.1772527247667312,-0.0390700586140155,0.1773238629102707
1773258213890402300,2.51840234375,-0.148974755936861,-0.17695172714293,0.0258592483997344,0.175255611538887,0.0204571820795536,0.1781957894563675
1773258213900414500,2.52841455078125,-0.0802414114505052,-0.1933586720645427,-0.1323550450474023,0.1908140778541565,0.0493975020945072,0.1977257430553436
1773258213910426400,2.53842626953125,-0.1152683011680841,-0.2140992622762918,0.0233282686173915,0.2325865626335144,0.0727976337075233,0.2328762859106063
1773258213920439600,2.548439453125,-0.2700567118197679,-0.0136176064640283,0.3463230821594595,0.1974517703056335,-0.1067159175872802,0.3761000335216522
1773258213930451500,2.558451416015625,-0.8549515264719724,0.4138572799891233,-0.3559852289959788,0.2478366494178772,-0.1649613827466964,0.4162064492702484
1773258213940463400,2.56846337890625,-0.3400637295037508,0.9543103108465671,0.336562735645473,0.2634655833244324,0.1428829133510589,0.2866182327270508
1773258213950475500,2.5784755859375,0.4665694640010595,1.0924053608506916,0.4793897826075554,0.2775294780731201,0.3400673568248749,0.2505222856998443
1773258213960487400,2.5884873046875,-0.1371025318354368,0.887701703429222,0.0923144188210368,0.2879999577999115,0.4452723562717438,0.301113486289978
1773258213970499600,2.59849951171875,-0.7884586543887853,0.6915472631663083,-0.1575739497169852,0.1656604707241058,0.6305047869682312,0.3738625049591064
1773258213980511500,2.608511474609375,-1.0807342122793198,0.196955819773674,-1.42954531186223,0.1270262449979782,0.7812391519546509,0.337064117193222
1773258213990523400,2.6185234375,-0.0792997466862201,0.0678822806149721,-0.7988245655804872,0.0736082941293716,0.8521990776062012,0.3174920082092285
1773258214000535600,2.62853564453125,0.0824175864458084,0.00216331551373,-0.7330702369049191,-0.0002065930166281,1.0082440376281738,0.3288464844226837
1773258214010547500,2.63854736328125,-0.1213718787401914,0.2696650821536779,-0.9513803948745132,-0.0712301656603813,1.2667535543441772,0.2638238072395324
1773258214020560400,2.648560302734375,0.5844891564607619,0.4496592457324266,-1.0103042930081485,-0.2272085547447204,1.337189793586731,0.0959782153367996
1773258214030572300,2.658572265625,1.8614041124880312,-0.2026397106289863,-1.9894892251312728,-0.3899676501750946,0.9155753254890442,-0.0691146031022071
1773258214040584400,2.66858447265625,2.200789212077856,-1.6957710672169923,-2.4412784686297178,-0.3941478431224823,0.96037095785141,0.0458280071616172
1773258214050596400,2.678596435546875,-0.8427332654118538,-1.3600871602326632,-0.2838005750119686,-0.3905943930149078,0.9169944524765016,0.0609888508915901
1773258214060608500,2.6886083984375,-0.2115735431909561,-0.3860924902290105,-0.1115796757832169,-0.5366790294647217,0.6164451837539673,-0.0798908472061157
1773258214070620400,2.698620361328125,1.6089917784303427,0.0636211160391569,-1.614279947966337,-0.5057754516601562,0.1239451766014099,-0.2254112958908081
1773258214080632600,2.708632568359375,1.8623031071543688,0.6532271771222352,0.1022355088546872,-0.3340632319450378,0.767069935798645,-0.0785813182592392
1773258214090644500,2.71864453125,-1.5899030470788478,1.1144728157520294,2.0295298513576387,-0.1781311482191085,1.808151602745056,-0.140873447060585
1773258214100656400,2.728656494140625,-0.4541898748993873,1.330355454313755,1.615615872745216,-0.16913802921772,2.4697115421295166,-0.2429170459508896
1773258214110668500,2.73866845703125,0.2654460031539201,0.4649807335048914,0.2564537184029817,-0.1851987540721893,2.5847980976104736,-0.3806008994579315
1773258214120681200,2.74868115234375,0.97827044762671,-1.222601182037592,-0.082494743335247,-0.0981786847114563,2.541856288909912,-0.5282996892929077
1773258214130693400,2.758693359375,1.733929825219512,-1.8906448200196029,0.6329033510178327,0.0102513898164033,2.771585464477539,-0.5798483490943909
1773258214140705300,2.768705322265625,1.5132354024618864,-1.8624691113710403,0.8744441624492406,0.1594294756650924,3.4408016204833984,-0.616787850856781
1773258214150717400,2.778717529296875,1.4608838684558867,-1.4912152938336134,1.1455044983536005,0.3046396672725677,4.103392124176025,-0.6601611375808716
1773258214160729300,2.788729248046875,1.8307512000709767,-1.4260183067798613,1.129174125799537,0.4614172875881195,4.449317932128906,-0.6987560987472534
1773258214170741200,2.7987412109375,1.669537140285969,-1.239732934102416,1.140462412533164,0.6190543174743652,4.806581974029541,-0.6072772741317749
1773258214180753400,2.80875341796875,0.1893818773880601,-0.6098083066344261,0.8057862212866544,0.7603306770324707,5.232691287994385,-0.3984102606773376
1773258214190765300,2.818765380859375,-0.8520067051917314,0.3480652496516704,0.0455991371363401,0.8468117713928223,5.547989845275879,-0.2120001763105392
1773258214200777200,2.828777099609375,-0.512350679706037,0.9616787937879562,-0.2216957087546587,0.8544337749481201,5.733669281005859,-0.2755908071994781
1773258214210790400,2.838790283203125,-0.4110755403161049,0.9040683163404464,-0.062070963987708,0.7803574204444885,5.736656188964844,-0.370079755783081
1773258214220802300,2.84880224609375,-1.158359011490643,1.0274854371726512,-0.090292265343666,0.8005451560020447,4.9850897789001465,-0.1625360995531082
1773258214230814500,2.858814453125,-1.866751610995829,1.7391262248188255,0.5879951187551021,0.7176654934883118,3.8726675510406494,0.2027047276496887
1773258214240826400,2.868826416015625,-2.5478493763402104,1.5694757605999707,1.0392156224548816,0.4984578490257263,2.8083605766296387,0.5330396294593811
1773258214250838500,2.878838623046875,-2.9383778031900523,1.853905865687132,0.0777875885576009,0.2928804457187652,1.8435871601104736,0.6177601218223572
1773258214260850400,2.888850341796875,-2.2409230695456266,2.742331207215786,-0.4128542404264211,0.218129888176918,1.1967182159423828,0.6375361680984497
1773258214270862300,2.8988623046875,-2.2183568713419137,2.835124641725421,-0.1815051526635885,0.0519704669713974,1.4032080173492432,0.7436037659645081
1773258214280874500,2.90887451171875,-2.5427485460698604,3.022469752588868,-0.3327531142294406,-0.1713317185640335,1.937618970870972,0.9543458223342896
1773258214290886400,2.918886474609375,-1.965775025936216,2.6823767969906327,-0.4362573278456926,-0.1743251085281372,1.998361110687256,1.2030634880065918
1773258214300899600,2.928899658203125,-1.4128371920369565,1.5589783319830894,-0.0952764834970235,-0.1056447699666023,2.16507625579834,1.434614896774292
1773258214310911500,2.938911376953125,-0.1400280638933181,0.8919564382642508,-0.2155482920408248,-0.006732303649187,1.737967848777771,1.5043774843215942
1773258214320923400,2.94892333984375,0.1624047308743,-0.7345879479914903,-0.509940988215804,0.0374862402677536,1.2301537990570068,1.7073131799697876
1773258214330935600,2.958935546875,-0.6057797087054699,-1.028919853889942,-0.2629571089476347,0.2183351069688797,0.8637678027153015,1.6822264194488523
1773258214340947500,2.968947509765625,-0.1897567751150578,-0.2418552842080593,1.102048802986741,0.3701056838035583,0.5738480687141418,1.204765558242798
1773258214350959400,2.97895947265625,0.5483482410866767,-0.5371726940125227,0.6443447824865579,0.2396552562713623,0.2551760971546173,0.4973650872707367
1773258214360971500,2.988971435546875,0.9275638312835246,-2.850762940362096,-0.4395838419198989,0.0285628568381071,0.1625014096498489,-0.1779464334249496
1773258214370983400,2.9989833984375,1.544596170887351,-2.325474160888791,-0.8055868993222713,-0.1210183724761009,0.2884537577629089,-0.3755761682987213
1773258214380995600,3.00899560546875,0.9207435568094252,-1.2993635192006825,-0.657681233921647,-0.1340990215539932,0.5733656883239746,-0.2867705523967743
1773258214391008300,3.01900830078125,0.4134427809040993,-1.220978549271822,-0.7225485506296158,-0.0641385689377784,0.7638053894042969,-0.2366232126951217
1773258214401020400,3.0290205078125,0.2531786422550678,-1.6132909369289874,-0.3685965810269117,0.0044017625041306,0.7274084091186523,-0.2065500617027282
1773258214411032300,3.0390322265625,0.1066132855474948,-1.22489835306406,0.4821031332194805,0.1123498007655143,0.557456374168396,-0.1970471143722534
1773258214421044200,3.049044189453125,0.1245353112071752,-0.6464484767675399,1.3255705581247803,0.2201039493083953,0.4523602724075317,-0.1938223987817764
1773258214431056400,3.059056396484375,-0.0987953052729368,-0.5992313830405473,1.2672627460628747,0.3199367821216583,0.2927748560905456,-0.1423871666193008
1773258214441068300,3.069068359375,-0.58373157955911,-0.7138771683961153,0.845302823638916,0.4404004216194153,0.0173699930310249,-0.0799532681703567
1773258214451080400,3.07908056640625,-0.7447405086934566,-0.5988508592903614,0.4995961198121309,0.5207682251930237,-0.2127084881067276,-0.1057526469230651
1773258214461092400,3.08909228515625,0.013364508485794,-0.3534071952015161,0.1192225917518138,0.6216762065887451,-0.1626439690589904,-0.1436345875263214
1773258214471104300,3.099104248046875,0.3155903825044632,-0.3172235366642475,0.4459627293020486,0.7299392819404602,0.0039474079385399,-0.116819754242897
1773258214481117400,3.109117431640625,0.148023775354959,-0.2398375146448612,0.7968523887246847,0.8145881295204163,0.1489192247390747,-0.1060439273715019
1773258214491129300,3.11912939453125,0.2905997336328029,-0.0930085385650396,0.8169336382448673,0.82439124584198,0.2696320414543152,-0.1256122887134552
1773258214501141200,3.129141357421875,0.214106276538968,0.0522989270359277,0.4059516214311122,0.844318687915802,0.2873775660991668,-0.1380246728658676
1773258214511153400,3.1391533203125,0.07639058124125,0.0080886139094829,0.3088800712108612,0.8189893364906311,0.2601930797100067,-0.1924519538879394
1773258214521165300,3.149165283203125,0.2705535554260015,-0.2344640049129724,-0.2545703888744116,0.8535884618759155,0.2720168232917785,-0.2297028452157974
1773258214531177500,3.159177490234375,0.1686912637978792,-0.0685953973203897,0.1294330201208591,0.9311519265174866,0.3774670958518982,-0.2152296304702758
1773258214541189400,3.169189453125,0.0587660772234201,0.1572989321678876,0.3997860845386982,0.9822596311569214,0.5975387692451477,-0.1712293773889541
1773258214551201300,3.179201171875,0.1337591031590476,0.4152858514875173,0.4743459432214498,0.8569735884666443,0.5433818101882935,-0.067763976752758
1773258214561213400,3.18921337890625,-0.1785912379782646,1.1582201875418423,-0.1656996807664632,0.639590859413147,0.3972817361354828,-0.0052984389476478
1773258214571226400,3.199226318359375,-0.4049818630835041,1.5729203480958938,-0.5768102923959493,0.525881826877594,0.2511615455150604,-0.07465061545372
1773258214581238500,3.209238525390625,-0.0381271938204765,1.1935177108943462,-0.5049082547456025,0.5203191041946411,0.1911720484495163,-0.193142369389534
1773258214591250400,3.21925048828125,0.3344739832052961,0.4071306020826101,-0.3590624444842338,0.4920424818992615,0.2123345881700515,-0.2382267564535141
1773258214601262300,3.229262451171875,0.4220891017615795,0.1279021572917699,-0.684787267512083,0.432788997888565,0.2258498519659042,-0.2463447153568267
1773258214611274500,3.2392744140625,0.3538122688710689,0.0958557446897029,-0.9241226778537034,0.4229834973812103,0.1932088136672973,-0.2656624913215637
1773258214621286400,3.249286376953125,0.277763084946014,-0.1160445462375879,-0.3624368893533944,0.3998070359230041,0.1622881591320037,-0.2945139408111572
1773258214631298300,3.25929833984375,0.2472042440205812,0.2858165910094976,0.0061696285456418,0.3178181648254394,0.2166592627763748,-0.3077993988990783
1773258214641310500,3.269310546875,0.1421984302023425,0.9434159918665884,-0.0265402164012193,0.2390123456716537,0.2679075896739959,-0.278335303068161
1773258214651322400,3.279322265625,-0.243317721443437,0.7199561960488557,-0.2350356673210859,0.1862902790307998,0.2827565670013428,-0.2137773334980011
1773258214661335600,3.28933544921875,-0.6948883902877568,0.3674474109917879,-0.5989221709609032,0.2352803647518158,0.4819622635841369,-0.1429780274629593
1773258214671347500,3.299347412109375,-0.9874562091231346,0.3779927704036235,-0.1217272680491209,0.3284409344196319,0.5025644302368164,-0.0602474585175514
1773258214681359400,3.309359375,-0.8295189790517091,0.4505208309978246,0.9502724336326122,0.4020077288150787,0.3913867175579071,-0.0039656748995184
1773258214691371500,3.31937158203125,-0.6794751325786114,0.4516629867702722,1.1882879935473205,0.4528016746044159,0.3757968544960022,-0.0139575880020856
1773258214701383400,3.329383544921875,-0.3854704858731478,-0.0927057562261819,0.8410475042819976,0.5358394980430603,0.4349876642227173,-0.0290932990610599
1773258214711395600,3.3393955078125,-0.2907177705219015,-0.6500204900354146,1.0182026450425383,0.6899672746658325,0.4311351478099823,0.0002459492534399
1773258214721407500,3.349407470703125,-0.5750333458513021,-0.4414654178828001,1.8257284034729,0.77748042345047,0.2467975318431854,-0.0104076489806175
1773258214731419400,3.35941943359375,-0.44689270362854,-0.2867792985618114,1.1042957051306963,0.6827049255371094,-0.1727536767721176,-0.0827409625053405
1773258214741432300,3.369432373046875,0.0896691650092601,-0.3667120824545621,-1.3661165035247802,0.5830257534980774,-0.5797339081764221,-0.1490519195795059
1773258214751444200,3.3794443359375,0.2755371525248512,0.141208798110485,-2.2859008599132298,0.4828514754772186,-0.697584867477417,-0.2294639348983764
1773258214761456400,3.389456298828125,1.013199722188711,0.5634989754021168,-1.909977296999097,0.3613385260105133,-0.4235380291938782,-0.2534409165382385
1773258214771468300,3.39946826171875,1.2130693835824726,0.7805120792984962,-1.374419636967778,0.330131322145462,-0.2403309196233749,-0.1774803698062896
1773258214781480200,3.409480224609375,0.4363800774425267,0.8167500983715057,-0.0275493934437632,0.3148577809333801,-0.222368448972702,-0.0746414512395858
1773258214791492400,3.419492431640625,-0.5391904270431026,0.3637187458574771,0.2894219220250845,0.2402842193841934,-0.095281608402729,-0.0479997172951698
1773258214801504300,3.429504150390625,-0.4314589145880192,-0.1258230129301548,-0.6744438604131341,0.1450691670179367,-0.0011586842592805,-0.0240292884409427
1773258214811516400,3.439516357421875,-0.2229933473497629,-0.3951362129062414,-0.9832938287466764,0.1746041476726532,-0.0238940902054309,0.0036337641067802
1773258214821528300,3.4495283203125,-0.3256487621169537,-0.8235615319520234,-0.2222656175971031,0.1680353581905365,0.0072535970248281,0.0366424322128295
1773258214831541200,3.459541259765625,-0.1826344489544629,-0.1973947957128286,-0.0438040704131126,0.0599126145243644,0.0717233940958976,0.1028811037540435
1773258214841553400,3.469553466796875,-0.2953121491074562,0.1098486142069101,-0.8997764643654227,0.1974376291036605,0.312550812959671,0.1146636009216308
1773258214851565300,3.4795654296875,-0.4210831030568108,0.5690706380546092,0.3878746974706649,0.1687351465225219,0.2669199407100677,0.1008495166897773
1773258214861577500,3.489577392578125,-0.3755698906382546,0.7614397145599127,-0.3097282124727964,0.1015171855688095,0.2243149429559707,0.069836251437664
1773258214871589400,3.49958935546875,-0.0836099380355328,0.2374053190618753,-0.8313082005560397,0.0120224598795175,0.3973170816898346,0.0524775087833404
1773258214881601300,3.509601318359375,-0.0602338482210412,-0.4428302764952183,-1.27225105586946,0.0026766897644847,0.5538233518600464,0.0587569624185562
1773258214891613400,3.519613525390625,-0.1022585609367117,-0.4976204358249902,-0.6640396630376577,0.0179635006934404,0.6165837049484253,0.0842924192547798
1773258214901625300,3.529625244140625,-0.1324777581116184,-0.0122901572525501,0.1445487561881542,-0.0281790699809789,0.5923025012016296,0.1096560359001159
1773258214911637500,3.539637451171875,-0.089178714611195,0.1565676952838897,0.1310036304384469,-0.0904794633388519,0.4277692139148712,0.0874721705913543
1773258214921650400,3.549650390625,0.1672269999315962,0.2970598695576191,0.0545721326649188,-0.1199224591255188,0.1465310007333755,0.0337641015648841
1773258214931662600,3.55966259765625,0.4704372453451156,0.5037298586159944,0.0672217708796262,-0.1498207002878189,-0.0224319174885749,-0.0270137656480073
1773258214941674500,3.569674560546875,0.4900450321346521,0.3801806358367204,-0.3366638579323888,-0.1877077966928482,-0.1502925902605056,-0.0605186820030212
1773258214951686400,3.579686279296875,0.2027583868389017,-0.2465069094061851,-0.7217725978210568,-0.1474778205156326,-0.4154126644134521,-0.0816796272993087
1773258214961698600,3.589698486328125,-0.1877127385994419,-0.490138555637002,-0.3443643493071198,-0.0608955174684524,-0.5487281084060669,-0.1359258145093917
1773258214971710500,3.59971044921875,-0.4071966530561446,-0.6444535035580397,-0.1746878738641739,-0.0222149640321731,-0.5899946093559265,-0.1426822543144226
1773258214981722400,3.609722412109375,-0.2982084185382351,-0.4900736737072467,-0.1379869134545326,-0.0242111776024103,-0.5891215205192566,-0.1398224383592605
1773258214991734500,3.619734619140625,0.1142348299345001,-0.1809206307739019,-5.46527966856e-05,-0.0598168447613716,-0.587594211101532,-0.1463271975517273
1773258215001746400,3.629746337890625,0.4087303654294461,-0.0976554875880479,-0.1062938443347811,-0.0763157978653907,-0.5991873145103455,-0.1563331484794616
1773258215011759600,3.639759521484375,0.5349147224852815,-0.257361480897665,-0.2198889515936374,-0.0561415515840053,-0.712794303894043,-0.1774597316980362
1773258215021771500,3.649771484375,0.6919885771930218,-0.4178928191155195,0.0456023520067334,-0.0294719040393829,-0.9397907257080078,-0.2227636277675628
1773258215031783400,3.659783447265625,0.8484090460259467,-0.71547232863307,0.307671864464879,-0.0176109820604324,-1.1439971923828125,-0.2518568038940429
1773258215041795600,3.669795654296875,0.6320231341172009,-0.9566267710953952,0.2728489728868007,-0.0387152545154094,-0.9453160762786864,-0.2157998830080032
1773258215051807500,3.679807373046875,-0.5226016592811793,-0.9481798452675342,-0.5065460850805044,-0.0794842541217804,-0.3727353811264038,-0.1335044801235199
1773258215061819600,3.689819580078125,-1.1958259878367186,-0.5248971498072147,-1.4079232626408338,-0.0616919845342636,0.0573067702353,-0.1277821213006973
1773258215071831600,3.69983154296875,-0.4180962327331304,0.0601858808934688,-1.347110482020676,-0.0929004997014999,0.4464332163333893,-0.1353042125701904
1773258215081843500,3.709843505859375,0.1646989792913198,0.4417033182919025,-1.1581745948344468,-0.1530426889657974,0.8918085694313049,-0.1158577427268028
1773258215091855600,3.719855712890625,0.2701034735709429,0.4366998109161853,-0.918248525123298,-0.2012083530426025,1.1848621368408203,-0.088183507323265
1773258215101868300,3.729868408203125,0.237387198883295,0.6334165612369775,-0.606322802606225,-0.205067902803421,1.2414623498916626,-0.0853451713919639
1773258215111880400,3.73988037109375,-0.035322584728524,0.9593658406704664,-0.0838783066481351,-0.1650786846876144,0.8970209956169128,-0.0617612861096859
1773258215121892400,3.749892333984375,-0.78509297734797,1.3474264161020515,0.9745505503207444,-0.1545108258724212,0.4859383404254913,-0.0818955153226852
1773258215131904300,3.759904296875,-1.329689683881402,0.7782318594068288,0.8443266720831394,-0.1604693830013275,0.235492005944252,-0.0841757208108902
1773258215141916400,3.76991650390625,-1.3204881402939557,-0.1766594661980867,0.023752631509304,-0.1332792192697525,0.0622569285333156,-0.0053646732121706
1773258215151928300,3.77992822265625,-1.0374490511737764,-0.3303150734275579,0.0946072059333324,-0.095585897564888,0.0210112202912569,0.0596995465457439
1773258215161940200,3.789940185546875,-0.5831826404394581,-0.249037889188528,0.2147831528872251,-0.0518458522856235,0.0241396464407444,0.12209103256464
1773258215171952400,3.799952392578125,-0.5410621026664972,-0.3516811020612716,0.2690489960819482,0.0042512384243309,-0.0701698139309883,0.1783234179019928
1773258215181964300,3.80996435546875,-0.5407832857251167,-0.4476362154722213,0.4490437441825866,0.0163075178861618,-0.1392834782600402,0.187954232096672
1773258215191977500,3.8199775390625,-0.2781394439777359,-0.095232644355297,0.0517085599273443,-0.0334382019937038,-0.1077087745070457,0.1700474023818969
1773258215201989400,3.8299892578125,0.0903244140475988,0.1674111608594655,-0.648544572263956,-0.066276304423809,-0.0148882772773504,0.1558217108249664
1773258215212001500,3.84000146484375,0.2719540698736906,0.0588420650690793,-0.330201091659069,-0.0695882067084312,0.019914710894227,0.1384365856647491
1773258215222013400,3.850013427734375,0.2282768407106399,0.0556184268474578,-0.0073106152743101,-0.0922645330429077,-0.0242538563907146,0.1311510056257248
1773258215232025300,3.860025390625,-0.0586778144180774,0.056815527677536,-0.3323503786474466,-0.1607799381017685,-0.1666514873504638,0.0848402380943298
1773258215242037500,3.87003759765625,0.2237626146892085,-0.2006453219413757,-0.8072773366272449,-0.1923853904008865,-0.1813586503267288,0.0959834456443786
1773258215252049400,3.88004931640625,-0.1158493889916688,0.0944528921544551,-0.712784696984291,-0.2226841747760772,-0.2076933234930038,0.0987877547740936
1773258215262061300,3.890061279296875,-0.2331809793651104,-0.1407657305181026,-0.6777285811722278,-0.2622492015361786,-0.2398590147495269,0.088902398943901
1773258215272073500,3.900073486328125,-0.095394483853504,-0.1508504866808653,-0.7263701547443866,-0.2915234863758087,-0.3655748665332794,0.0390994250774383
1773258215282086400,3.91008642578125,0.420118678471446,0.1211848317354917,-0.7521610140830278,-0.3026751577854156,-0.3763523697853088,0.0250746551901102
1773258215292098600,3.9200986328125,0.2274988786080852,0.206396432814002,-0.2347884145617484,-0.2872780859470367,-0.226412147283554,-0.0008762520737946
1773258215302110500,3.9301103515625,0.242239899611473,0.2202688908219337,0.4063678010165691,-0.2644135057926178,-0.1436088681221008,-0.057717427611351
1773258215312122400,3.940122314453125,0.5678776288777589,0.1982195560991764,0.5977618950098753,-0.2351786643266677,-0.0669804066419601,-0.0705195143818855
1773258215322134500,3.950134521484375,0.0918617066174745,0.0107025958001613,0.4560065689325332,-0.2267229855060577,0.0036819188389927,-0.0599830597639083
1773258215332146400,3.960146484375,-0.1759702783575281,-0.2985322801977396,0.0440706123948097,-0.2226084023714065,-0.0101713119074702,-0.0513371080160141
1773258215342158600,3.97015869140625,-0.2138432416886091,-0.519711856123805,-0.2221738476604223,-0.220702975988388,-0.0490745715796947,-0.0378301814198493
1773258215352170500,3.98017041015625,-0.3049702042907476,-0.636841859510541,-0.4608253673911094,-0.221693679690361,-0.0634918585419654,-0.0398206263780593
1773258215362182400,3.990182373046875,0.0059452086726203,-0.4888607907861471,-0.5158581033051014,-0.2130081057548523,-0.0745174214243888,-0.08671285957098
1773258215372195600,4.000195556640625,0.5083393982380628,-0.1632078639507293,-0.1450368319660425,-0.1713988780975341,-0.0798429474234581,-0.1184582784771919
1773258215382207500,4.01020751953125,0.5344160887807607,0.0909545286446809,0.3785772922933101,-0.1103930175304412,-0.2066149562597274,-0.149648979306221
1773258215392219600,4.0202197265625,0.1925379302661866,0.1184960310429334,0.6324018312364816,-0.0714733153581619,-0.3117624223232269,-0.1787165850400924
1773258215402231600,4.0302314453125,-0.0994020389944315,-0.0650835898071527,0.5370347468465566,-0.0412390045821666,-0.3444663286209106,-0.170907437801361
1773258215412243500,4.040243408203125,-0.3635078065205365,-0.0440986694455146,0.1953466310113668,-0.0284566301852464,-0.3396132588386535,-0.1478239595890045
1773258215422255600,4.050255615234375,-0.415894338774681,0.0990980876117944,-0.0553378563404083,-0.0367120802402496,-0.3624095618724823,-0.1573532521724701
1773258215432267500,4.060267578125,-0.0879343040406703,0.2436597032815217,-0.1956102503836154,-0.0666236355900764,-0.4325574934482574,-0.2188570946455001
1773258215442279400,4.070279541015625,0.3991706560540944,0.2254080072760581,-0.2497965986013412,-0.0841499269008636,-0.496384710073471,-0.2681810855865478
1773258215452291600,4.08029150390625,0.3929834918517619,-0.0401946477442979,0.0614279899090528,-0.0395020395517349,-0.5555974245071411,-0.2516354024410248
1773258215462304300,4.09030419921875,-0.2287385399382561,-0.2401163315862417,0.5305670121371746,0.0127247041091322,-0.5896053910255432,-0.2356481552124023
1773258215472316400,4.10031640625,-0.5578226833313703,-0.225119253462553,0.3763508484154939,0.0518870204687118,-0.6207973957061768,-0.2168933749198913
1773258215482328300,4.110328369140625,-0.6612381957508623,-0.0755114603191614,0.3675082012683153,0.0744853541254997,-0.7260047197341919,-0.2214692085981369
1773258215492340500,4.120340576171875,-0.471825411767885,-0.0879015708148479,0.3825999719381332,0.0529781989753246,-0.7583714723587036,-0.2268152385950088
1773258215502352400,4.130352294921875,-0.4114764492671937,-0.2423544659018516,-0.2334457677811384,-0.0573898144066333,-0.7155272960662842,-0.0995715633034706
1773258215512364300,4.1403642578125,-1.132211301538348,-0.5065238732486963,-1.0328747289955615,0.3124106228351593,-0.4221942126750946,0.1097558215260505
1773258215522376400,4.15037646484375,-1.9769816257357595,0.520925908088684,3.188845140659809,0.8136312365531921,-0.4294008612632751,0.1572079509496688
1773258215532388400,4.160388427734375,0.0312337810449302,0.9886188231617212,5.72396392250359,0.9702991247177124,-0.7271478772163391,-0.1391821652650833
1773258215542400300,4.170400146484375,3.0998832471370696,0.7060860761284827,2.8745740240603683,0.9207932949066162,-1.255008578300476,-0.6159594655036926
1773258215552413400,4.180413330078125,4.599567678630351,0.99953126232028,0.3392226025044917,0.8767331838607788,-1.770350456237793,-1.0308531522750854
1773258215562425300,4.19042529296875,4.119167842197418,1.4528700733482838,-0.0582020135998725,0.92783522605896,-2.2573628425598145,-1.2676652669906616
1773258215572437500,4.2004375,2.497636900189519,1.123116140934825,0.6120929104402661,0.8758479356765747,-2.455077886581421,-1.2856040000915527
1773258215582449400,4.210449462890625,0.6240145266413688,0.4125929591417312,-0.7881815910130738,0.7797572016716003,-2.611846446990967,-1.3693419694900513
1773258215592461300,4.22046142578125,1.3149547638252377,-0.4962795426100492,-2.0372645372629163,0.5945961475372314,-2.7091593742370605,-1.469868540763855
1773258215602473500,4.230473388671875,1.6484531434640288,-1.1582570124208926,-2.955324261815846,0.4963733851909637,-2.608196496963501,-1.476117491722107
1773258215612485400,4.2404853515625,1.199372282141447,-1.3354215055316685,-2.381163607145846,0.4047550559043884,-2.260502576828003,-1.3037036657333374
1773258215622497500,4.25049755859375,0.0896647810950875,-1.059775010880828,-2.304186458188296,0.2735861837863922,-1.7832612991333008,-1.1579909324645996
1773258215632509400,4.260509521484375,-0.2028933931291103,-0.2195674645543098,-2.245313997980952,0.1979348063468933,-1.3222076892852783,-1.0811896324157717
1773258215642521300,4.270521240234375,-0.4496875950440764,0.6389274336129427,-0.9668483053803444,0.1901953518390655,-0.9145451784133912,-0.986355185508728
1773258215652534500,4.280534423828125,-1.1683154650986194,0.9210042535722256,0.1785027559772133,0.2151244133710861,-0.6547085046768188,-0.8493791818618774
1773258215662546400,4.29054638671875,-1.6946645672798155,0.7132078908324241,0.8677724296003579,0.304085373878479,-0.3715570569038391,-0.7378360033035278
1773258215672558600,4.30055859375,-1.5055658907473086,0.6533528493285179,1.826062457732856,0.4555148482322693,-0.1293742358684539,-0.5937315821647644
1773258215682570500,4.310570556640625,-1.7516186266452074,0.6344435661971569,2.308523610609769,0.4924880862236023,0.1602240651845932,-0.416297048330307
1773258215692582400,4.32058251953125,-2.0996979048222304,0.6782260093003512,0.930142084273696,0.4018833339214325,0.5333675146102905,-0.3604223430156708
1773258215702594600,4.330594482421875,-1.0865481592550874,0.8812818995147943,-0.6408227458402515,0.3897567987442016,0.8430850505828857,-0.2628925740718841
1773258215712606500,4.3406064453125,-1.0553723920077085,0.4425672416448593,-0.1426066822096705,0.3902167379856109,1.1936659812927246,-0.188532069325447
1773258215722618400,4.350618408203125,-0.5282137270092964,0.0801151547223329,-0.0308715236037969,0.3782251477241516,1.5452691316604614,0.0091251814737916
1773258215732630500,4.360630615234375,-1.016431543716788,0.3651268590897321,-0.1639466996192932,0.3441478908061981,1.9454975128173828,0.0265971161425113
1773258215742642400,4.370642333984375,0.0884445916503667,0.98759532533288,-0.6176683724850416,0.2136749476194381,2.108703851699829,-0.0045595876872539
1773258215752655600,4.380655517578125,1.0893860130295157,0.421869906052947,-1.7499457249969244,-0.0030754650942981,2.1411595344543457,-0.0315920040011405
1773258215762667500,4.39066748046875,0.8370584346458315,0.3606108429700136,-2.575091895791888,-0.1426655650138855,2.234753370285034,0.0752308815717697
1773258215772679400,4.400679443359375,-1.0824801791638134,0.4163870907276868,-2.096288973161578,-0.1898053884506225,2.567636251449585,0.3249512314796448
1773258215782691600,4.410691650390625,-2.6450413380697366,-0.3195867586642503,-1.0634542839154602,-0.1525637954473495,2.877058267593384,0.5312201976776123
1773258215792703500,4.420703369140625,-1.8217516087964176,-1.1206605644762515,0.0805278271764516,0.0074090864509344,2.4520046710968018,0.563225269317627
1773258215802715600,4.430715576171875,0.5038496856033802,-0.8494570207089185,1.0995900116577744,0.2210978716611862,1.0735485553741455,0.1946283876895904
1773258215812727600,4.4407275390625,3.908714827468991,0.0623994652897119,1.9644784102544188,0.2547498643398285,0.1329304128885269,-0.2800353169441223
1773258215822739500,4.450739501953125,3.2364854282349347,0.1408966634213924,1.2583368045464158,0.1715626418590545,-0.0705853402614593,-0.5517375469207764
1773258215832751600,4.460751708984375,1.099475153106451,0.3342933294087648,-0.1165723695039749,0.187850534915924,0.1877532750368118,-0.6068080067634583
1773258215842764300,4.470764404296875,0.162744045831263,0.2153834568679332,-0.2145090121209621,0.0838290750980377,0.4812118113040924,-0.5365621447563171
1773258215852776200,4.480776123046875,-0.2287546873554587,-0.1977116065770387,-0.9499807572096586,-0.0118995793163776,0.7941765785217285,-0.4504333436489105
1773258215862788400,4.490788330078125,-0.8199126540556549,-0.2297036586433649,-1.0375634713336823,-0.0604712106287479,0.9061885476112366,-0.4112814962863922
1773258215872800300,4.50080029296875,-0.6068237378656863,-0.0288186827272176,-0.620992840732634,-0.035826850682497,1.0211178064346311,-0.3494812250137329
1773258215882812400,4.5108125,-0.7242322659328579,-0.1410229201495647,-0.319557532569766,0.0184147786349058,0.812173068523407,-0.4087011218070984
1773258215892824300,4.52082421875,0.4498272957757115,-0.3931739729225635,-0.0743935622051358,-0.0370159931480884,0.8155592679977417,-0.3971334099769592
1773258215902836200,4.530836181640625,-0.1881213559329509,-0.4329413351655006,-1.0604337670505046,-0.0073046120814979,1.096274971961975,-0.3167689442634582
1773258215912848400,4.540848388671875,-0.5582941002354026,-0.4226467356443404,-0.318005919213593,0.0845850929617881,1.2547199726104736,-0.1966896802186966
1773258215922860300,4.5508603515625,-0.4986220140829682,-0.1494797828495502,0.5916746840506791,0.1259897500276565,1.2302294969558716,-0.1578138768672943
1773258215932872200,4.5608720703125,0.5081029591336846,0.19293489369452,0.6203203482985497,0.192210853099823,0.9612334370613098,-0.2091678828001022
1773258215942885400,4.570885498046875,0.4111407145068049,-0.0117500590264797,0.7343295893162488,0.2691724896430969,0.9265239238739014,-0.1275779455900192
1773258215952897300,4.580897216796875,-1.378834530800581,0.5837620112299918,1.071774076232314,0.0979655757546424,0.9121452569961548,-0.0684768036007881
1773258215962909400,4.590909423828125,-0.7656669768661261,0.4090992718070745,-0.926221695959568,-0.0447225645184516,1.164784550666809,-0.0343485362827777
1773258215972921300,4.60092138671875,-0.499135224302113,0.0493693033248186,-1.6534110581323505,-0.0478802733123302,1.062675714492798,-0.0174129642546176
1773258215982933500,4.61093359375,-0.2838210332781076,0.7442810744881629,-0.2478410806193947,-0.0234180521219968,0.6622012257575989,-0.0896264091134071
1773258215992945400,4.6209453125,0.2986573678821325,0.7353373050540685,0.531224599263072,-0.0316863656044006,0.3421367108821869,-0.1992722004652023
1773258216002957300,4.630957275390625,-0.181099494472146,0.5503899029821158,0.2725970439523458,0.020218588411808,0.0324679985642433,-0.3374619483947754
1773258216012969500,4.640969482421875,-0.2750780471131205,0.1813473317533731,0.7668006570711732,0.0846833288669586,-0.0597271732985973,-0.3046994805335998
1773258216022981400,4.6509814453125,-1.2689827017232775,-0.286267257386446,1.4590192436277865,0.057445291429758,-0.2173096388578415,-0.1979600936174392
1773258216032994600,4.66099462890625,-1.8954194870755077,-0.4113508501261472,0.1677902233049273,0.0010776198469102,-0.3219071626663208,-0.1639685779809951
1773258216043006500,4.67100634765625,-1.1440037384018302,0.3240793939083814,-0.9204881207436324,0.0634712725877761,-0.3217699527740478,-0.0694372132420539
1773258216053018400,4.681018310546875,-0.632880554664135,0.3518172956615686,0.3852203835695982,0.148734763264656,-0.5414879322052002,-0.0303915459662675
1773258216063030500,4.691030517578125,-0.241833364637196,-0.0578799420386552,0.9893512290894984,0.2310227006673813,-0.5670098066329956,-0.0130818895995616
1773258216073042400,4.70104248046875,0.0257540344595909,-0.4110959985822439,0.5719023543491959,0.2891821563243866,-0.465852826833725,-0.0726179257035255
1773258216083054300,4.711054443359375,1.1837608715116976,-0.5139332727223634,0.1723465714350342,0.421080470085144,-0.4254016280174255,-0.1515796780586242
1773258216093066500,4.72106640625,1.333368956916034,-0.6434019486784934,1.3708619444862007,0.5928258299827576,-0.4928874373435974,-0.2033792287111282
1773258216103078400,4.731078369140625,0.3686366207763552,-1.0558704046577214,1.2281871654763816,0.6009791493415833,-0.3994530737400055,-0.1600105762481689
1773258216113090600,4.741090576171875,-0.354563671760261,-0.572418779438734,-0.4588429614022374,0.6492729187011719,-0.4100399315357208,-0.1218070089817047
1773258216123102500,4.7511025390625,-0.2753600789248943,-0.2079851633101701,0.0704424864917993,0.7514203190803528,-0.5456898808479309,-0.160205602645874
1773258216133115400,4.761115478515625,0.1176078500315546,-0.1745329755634069,1.1225623064443468,0.771503746509552,-0.4563040733337402,-0.1823444366455078
1773258216143127600,4.77112744140625,-0.0743055916607379,-0.6114163263529538,0.3231286690548062,0.7469329237937927,-0.3752669990062713,-0.2049719542264938
1773258216153139500,4.781139404296875,0.3907555136039853,-0.5808534303069114,-0.396226053969562,0.6381358504295349,-0.2917875647544861,-0.1988104581832885
1773258216163151600,4.791151611328125,0.2619339033797383,-0.1569932272195816,-1.1745683880135416,0.5941012501716614,-0.1096876040101051,-0.1737610399723053
1773258216173163500,4.80116357421875,-0.0803662068739533,-0.2016015997529029,-0.6275736804276705,0.5345585942268372,0.0578281618654727,-0.1521399021148681
1773258216183175400,4.811175537109375,0.0829711286753416,-0.0092255089849233,-0.4856254621267318,0.4140233099460602,0.1419062614440918,-0.1190060451626777
1773258216193187600,4.8211875,-0.14601122995615,0.4808680384665727,-1.166921088130772,0.2745471894741058,0.234666034579277,-0.1111792847514152
1773258216203199500,4.831199462890625,-0.407677130049467,0.8142220411986112,-1.6891317753329873,0.0971449613571167,0.4746660888195038,-0.0597551763057708
1773258216213211400,4.84121142578125,-0.667472560095787,0.9848632700204848,-2.1752479435861107,-0.0233449656516313,0.7617191672325134,-0.0102073298767209
1773258216223223600,4.8512236328125,-0.433559759324789,0.9448848953753708,-1.468063843087852,-0.0423730388283729,0.8727471232414246,-0.030198510736227
1773258216233236200,4.861236328125,0.1272290803357958,0.9160492615133524,-0.0591387099280953,-0.0748899728059768,0.6384952068328857,-0.1300441473722458
1773258216243248400,4.871248291015625,0.8382625497385859,0.4085784628033638,0.0127478378921747,-0.0258414093405008,0.1227125898003578,-0.2416215389966964
1773258216253260300,4.88126025390625,1.1297750143021343,-0.0918523542672395,0.137363228598237,0.0758615210652351,0.2271737456321716,-0.1763210892677307
1773258216263272400,4.8912724609375,-0.8884732723236084,-0.2963192803233861,0.8564832660838961,0.1506455093622207,0.2801699042320251,-0.1291152834892273
1773258216273284400,4.901284423828125,-0.515215421487391,-0.6404290703475475,1.070823059117794,0.1823139637708664,0.0451152995228767,-0.1286215335130691
1773258216283296300,4.911296142578125,-0.3395557799816131,-0.7393453716516495,0.685514705003798,0.1754819899797439,-0.2287302762269973,-0.1808867454528808
1773258216293308400,4.921308349609375,-0.007989537449181,-0.7147586274057627,0.2554708448454738,0.2158278077840805,-0.4295645952224731,-0.266092985868454
1773258216303320300,4.9313203125,0.557994825027883,0.1101361989766359,0.5430506461352109,0.2701398432254791,-0.6758909821510315,-0.4164761900901794
1773258216313332200,4.941332275390625,1.2062675946131347,1.2203589560687542,1.1661965732485056,0.3261426389217376,-0.8507264256477356,-0.4913016855716705
1773258216323344400,4.951344482421875,0.2283253560274839,0.8359118949592113,0.9486310961663722,0.3408794105052948,-0.6560187935829163,-0.4375461041927337
1773258216333357300,4.961357421875,-0.879609582388401,-0.4126677779436111,-0.2117746187210082,0.3079419732093811,-0.4907355606555938,-0.3501092195510864
1773258216343369500,4.971369384765625,-0.2631345113411545,-0.4882756843745708,-0.6317176483646035,0.3251228928565979,-0.3837222158908844,-0.2500773072242737
1773258216353381400,4.98138134765625,-0.1743488511681556,-0.3586363280266523,-0.589692570322752,0.2979077696800232,-0.4263109564781189,-0.1802247166633606
1773258216363393300,4.991393310546875,-0.4857105100616812,-0.0353261649250984,-0.7559235814869404,0.2890515923500061,-0.5118030905723572,-0.1682706624269485
1773258216373405400,5.001405517578125,-0.289247442241013,-0.2483580902308225,-0.4700941309958696,0.3910399973392486,-0.5081335306167603,-0.1504860818386078
1773258216383417300,5.011417236328125,-0.1956362616077065,-0.6454764168649911,0.4678109884947538,0.3775085508823395,-0.4881632030010223,-0.1546099334955215
1773258216393429500,5.021429443359375,0.0190454767316579,-0.2105734262377023,-0.0896624430075287,0.3175429403781891,-0.525800883769989,-0.1369065642356872
1773258216403441400,5.03144140625,0.1180661151930689,0.019890110862255,-0.5678729527026415,0.2658563554286957,-0.5630291700363159,-0.1470423936843872
1773258216413453300,5.041453369140625,0.619040245360136,-0.0314858561098575,-0.3532014434963464,0.1785320937633514,-0.690712034702301,-0.1417842507362365
1773258216423465500,5.051465576171875,0.5895087381884455,0.0192272630393505,-0.5113350729227065,0.0732533186674118,-0.7525991201400757,-0.1465174406766891
1773258216433478400,5.061478515625,-0.1704597347751259,0.039297406643629,-1.067934059678018,-0.0149742811918258,-0.5131769180297852,-0.0840617939829826
1773258216443490600,5.071490478515625,-1.0466332052350045,0.3302800021141767,-1.4334189384251832,-0.0618952177464962,-0.3599690496921539,-0.0556434281170368
1773258216453502500,5.08150244140625,-0.0023459786042571,0.359116220498085,-0.9071531306132674,-0.1054834425449371,-0.2267239093780517,-0.0605297945439815
1773258216463514400,5.091514404296875,0.4408879102557897,0.5111538711369037,-0.5194985056340694,-0.1403838992118835,0.0246372111141681,-0.0249331872910261
1773258216473526500,5.101526611328125,0.0877814515665173,0.6639835489362478,-0.1470908418864011,-0.1945312917232513,0.2680807709693908,0.0184092279523611
1773258216483538400,5.111538330078125,0.1362438691794872,0.7618348513573407,-0.2928872600480914,-0.253343254327774,0.4705003798007965,0.0379557758569717
1773258216493550300,5.12155029296875,0.1969908910870552,0.6220388426542282,-0.6500672517865896,-0.2477402538061142,0.6058267951011658,0.047321580350399
1773258216503562500,5.1315625,0.2704085939973593,0.1393324828445911,-0.2724275326043367,-0.2105736881494522,0.5524849891662598,0.0569976717233657
1773258216513574400,5.141574462890625,-0.0241886848390102,-0.3195271374315023,-0.065062547019124,-0.1605198383331298,0.3559964597225189,0.0233078859746456
1773258216523586600,5.151586669921875,-0.1827466771572828,-0.7649906850397586,0.1763420708119869,-0.0938152223825454,0.124313861131668,-0.0130999758839607
1773258216533599500,5.161599609375,-0.3244090642541646,-1.3434732945621013,0.5086807590216398,-0.0359878689050674,-0.0058278981596231,-0.0149910878390073
1773258216543611400,5.171611328125,-0.4074088345021009,-1.0063228221565483,0.2328986552923917,-0.0993390306830406,0.1805136054754257,0.0141304647549986
1773258216553623600,5.18162353515625,0.1232511166155338,-0.0999397991329431,-0.3119517337411642,-0.0309897996485233,-0.148223802447319,-0.0177931115031242
1773258216563635500,5.191635498046875,0.0591284807950258,0.0041004210561513,1.2992325862973928,0.0289136935025453,-0.3293499946594238,-0.0546777918934822
1773258216573647600,5.201647705078125,-0.3315045754730701,0.3886258080989122,1.0311237936750053,0.0563868656754493,-0.3496344685554504,-0.029398264363408
1773258216583659500,5.211659423828125,-0.5283101731210946,0.2940583496540784,0.4761702360391616,0.0394599437713623,-0.2807335555553436,-0.0089507009834051
1773258216593671400,5.22167138671875,-0.2185042192369699,0.3567641044139862,0.0920072525680065,0.0538050606846809,-0.2817535698413849,-0.0259853433817625
1773258216603683600,5.23168359375,0.0963207318529486,0.1248737493813037,0.1197796411126852,0.0446018278598785,-0.2168362289667129,-0.0249419286847114
1773258216613695500,5.241695556640625,-0.1391594643652439,0.3447095094829797,-0.1712207822754979,0.0055044936016201,-0.1539928168058395,-0.0092364689335227
1773258216623707400,5.251707275390625,-0.2592164611145854,0.5668699131399393,-0.5185583021745085,-0.0068483650684356,-0.1488726735115051,-0.0217407047748565
1773258216633720300,5.26172021484375,0.0522670705929398,0.5099146847307682,-0.1590747096687555,0.0006529605598188,-0.1784633249044418,-0.0771879851818084
1773258216643732200,5.271732177734375,0.7703168484985828,0.3426718661755323,0.2559165427863598,0.0183520317077636,-0.525665819644928,-0.247314840555191
1773258216653744400,5.281744384765625,1.8309981605693697,0.1031236898660659,0.4712237195476889,0.0027845231816172,-0.4774689674377441,-0.2456711232662201
1773258216663756300,5.29175634765625,-0.2686433378905057,0.3736708155512809,-0.2308326626732945,-0.0207243170589208,-0.4000642597675323,-0.2492985278367996
1773258216673768400,5.3017685546875,-0.1436608674377203,0.0392541520237922,-0.5587000506877898,-0.0279547981917858,-0.4347745478153229,-0.3211647272109985
1773258216683780400,5.3117802734375,0.7847586308270692,-0.2840343837678432,-0.3210854727894067,-0.0063779670745134,-0.5307754874229431,-0.4351181387901306
1773258216693792300,5.321792236328125,1.156147180660069,-0.1236561902850866,0.009574760814011,0.0184381678700447,-0.6651991009712219,-0.5219089984893799
1773258216703804400,5.331804443359375,0.8901093490928411,0.166229842120409,0.2383990062743425,0.0394564270973205,-0.7345898151397705,-0.5276622176170349
1773258216713816300,5.34181640625,0.1625377096042037,0.3100771720409393,0.2975242721989751,0.0263326372951269,-0.6223160028457642,-0.4131886065006256
1773258216723828200,5.351828125,-1.0121978516697885,0.20005904648602,0.0313499547705054,0.0254357680678367,-0.3422445654869079,-0.2173884660005569
1773258216733841400,5.36184130859375,-1.7384589930817484,-0.5454506930142641,-0.193402803467214,0.0142662031576037,-0.0866056159138679,0.0306911133229732
1773258216743853300,5.371853271484375,-1.9509683558180928,-0.9807681096613406,-0.604267623642087,-0.0450872890651226,-0.0359684266149997,0.0883028954267501
1773258216753865500,5.381865478515625,-0.4689645424440503,-0.7085393144994974,-1.1637445039212704,-0.0846695825457573,-0.128312200307846,0.0197014603763818
1773258216763877400,5.39187744140625,0.4058540062755346,-0.1672995171785354,-0.9242416280582548,-0.0683779865503311,-0.2965717911720276,-0.0301652904599905
1773258216773889300,5.40188916015625,0.0948027285054326,0.2778308529525995,-0.0622431056842207,-0.0522576123476028,-0.3880684375762939,-0.0331397727131843
1773258216783901400,5.4119013671875,-0.2771674206078052,0.4682552251309156,0.2463330141440033,-0.0532773062586784,-0.3903669714927673,-0.0462306849658489
1773258216793913300,5.421913330078125,-0.1805862842530012,0.3418248939573765,0.2355743042424321,-0.0441751554608345,-0.3606599569320678,-0.0315758399665355
1773258216803925500,5.431925537109375,-0.2872439934641123,0.067947747066617,0.2494344872906804,-0.0279844366014003,-0.3094433546066284,-0.0084019526839256
1773258216813937400,5.4419375,-0.2386836684346198,-0.062802200871706,0.1749362956672907,0.0022267291788011,-0.2342220991849899,-0.0092107560485601
1773258216823950300,5.451950439453125,0.0180851072669029,-0.0712970574945211,0.2614484579503536,0.0330136157572269,-0.1787921786308288,0.0050942501984536
1773258216833962500,5.46196240234375,-0.0825911894470453,-0.1479278772324323,0.2748296253100037,0.0543455332517623,-0.0672741830348968,0.0442951805889606
1773258216843974100,5.47197412109375,-0.2235547806248068,-0.1407908649593591,0.0723468588083982,0.0535748824477195,-0.002720141550526,0.0723833888769149
1773258216853986300,5.481986328125,-0.0107177933692932,-0.0308048881083726,-0.118052963450551,0.044456485658884,-0.0333456955850124,0.0748033970594406
1773258216863998200,5.491998291015625,0.0739443571329116,0.4484492854207754,0.1792284399032592,0.0545692928135395,-0.138687327504158,0.0955790430307388
1773258216874010000,5.502010009765625,-0.3227688958317041,0.5378799654990434,0.49486996807307,0.0754167884588241,-0.2124430388212204,0.1564503908157348
1773258216884022300,5.512022216796875,-0.8224810432389378,0.05561433519423,0.2480412793666124,0.0818236023187637,-0.2461695075035095,0.2377502024173736
1773258216894034200,5.5220341796875,-1.1204054206714034,-0.3818757493168115,-0.1932353379458189,0.0709376707673072,-0.2901580333709717,0.2706207931041717
1773258216904046000,5.532046142578125,-0.6634802755892276,-0.247521639406681,-0.418863417713344,0.0664557963609695,-0.4489916563034057,0.1910809874534607
1773258216914059300,5.542059326171875,0.4239502194583415,-0.3448550554335117,-0.3720274322584271,0.1059483438730239,-0.5827689170837402,0.1190581992268562
1773258216924071200,5.5520712890625,0.4202651012048125,0.0093172789216041,0.0824997117713093,0.1487021446228027,-0.5589067339897156,0.1966664642095565
1773258216934083300,5.562083251953125,-0.7165373275160789,-0.0861941823750734,0.3219046802178025,0.2137362658977508,-0.528003990650177,0.3391903042793274
1773258216944095200,5.57209521484375,-1.298767891395092,-0.9460796581178904,0.7275348146095871,0.2412452101707458,-0.561572253704071,0.4862543642520904
1773258216954107100,5.582107177734375,-1.524513460062444,-1.5007342328071591,0.2956973490327596,0.1676439642906189,-0.6644672155380249,0.5436457395553589
1773258216964119300,5.592119384765625,-1.2312801630556582,-1.4080360753655432,-0.953040729302168,0.035145878791809,-0.8238255977630615,0.5340642333030701
1773258216974131200,5.602131103515625,-1.1011872177213429,-0.9685597854733466,-1.8269632059648635,-0.0671647787094116,-0.707595944404602,0.4016279578208923
1773258216984143400,5.612143310546875,0.0429670350670814,-0.9888058701664209,-2.238478891263902,-0.1065986976027488,-0.3899412453174591,0.3879325985908508
1773258216994156000,5.622156005859375,-0.2746446241319179,-0.6117150170385838,-1.9582944609224795,-0.0607100389897823,-0.2193210572004318,0.4466084241867065
1773258217004168200,5.632168212890625,-0.5647039672777057,-0.3920610432446003,-0.971386825592816,0.0705134123563766,-0.4250010550022125,0.3690379858016968
1773258217014180000,5.64218017578125,0.3347469183951616,0.3147580233335494,-0.0362149304583668,0.2641401290893554,-0.6966685652732849,0.2727234363555908
1773258217024192000,5.65219189453125,0.2325450195491313,1.8644716833651065,1.34991910970062,0.4064723253250122,-0.8771652579307556,0.2558247148990631
1773258217034204200,5.6622041015625,-0.3901695304095744,2.859904862716794,2.0029241685047743,0.3584600389003753,-1.1535919904708862,0.3754493594169616
1773258217044216000,5.672216064453125,-0.9694789461448788,2.833939815855026,1.431841313844919,0.2897132337093353,-1.512439846992493,0.5654833316802979
1773258217054228000,5.68222802734375,-1.388461606323719,2.1150871971338985,1.3369769182801243,0.027307204902172,-1.7958718538284302,0.8340314626693726
1773258217064240000,5.692240234375,-2.198537633758783,1.7052116802573205,-0.1096688737258315,-0.3589478731155395,-1.5961726903915403,1.0417776107788086
1773258217074253000,5.702253173828125,-2.5246535019308327,2.214372331750393,-0.5473651483334601,-0.4990253448486328,-1.4706017971038818,1.2076411247253418
1773258217084265200,5.71226513671875,-2.290436749777198,2.480172555169463,0.3060217591702938,-0.4348071217536926,-1.0429141521453855,1.2509853839874268
1773258217094277000,5.722277099609375,-1.6061995173633097,0.9919698871552944,0.3745408763840794,-0.2269900143146515,-0.3815585970878601,1.5525697469711304
1773258217104289000,5.7322890625,-2.2368819774612785,-0.2588070035308599,0.6828394944451749,-0.25352343916893,-0.2184387892484665,1.712244749069214
1773258217114301200,5.74230126953125,0.3163663353130221,-2.17142633947134,-1.099147966978699,-0.1871375143527984,-0.1089759320020675,1.4564372301101685
1773258217124313000,5.75231298828125,3.0589816201671955,-3.035515112122893,-1.0268716891884804,-0.0785178616642952,0.1319551318883896,0.9190379977226256
1773258217134325200,5.7623251953125,5.412703093636035,-0.2124900735139846,-0.140283792220056,-0.1553900092840194,0.1323695182800293,0.3785643875598907
1773258217144337200,5.772337158203125,6.5748460075795645,3.6492484832465646,1.056138115683198,-0.1185897141695022,0.0728517994284629,0.3465562760829925
1773258217154350000,5.78235009765625,2.5869246646657587,2.404578092741966,0.9138578889489172,-0.0028721704147756,-0.1953450292348861,0.4614937901496887
1773258217164362200,5.7923623046875,0.0722884066194295,-0.0186778124630451,0.4126072799280285,0.1215007007122039,-0.7115395665168762,0.5262995958328247
1773258217174374100,5.8023740234375,-1.0253528090581296,-1.4899059648007154,0.6931093979164957,0.1535201668739318,-1.3360061645507812,0.5637468099594116
1773258217184386300,5.81238623046875,-1.674342494741082,-0.3196317668497562,0.9140680245682596,-0.0155837219208478,-1.5787259340286257,0.5676612257957458
1773258217194398200,5.822398193359375,-2.014546509498357,1.1744061831891537,0.486381395060569,-0.1168890371918678,-1.0971782207489014,0.339350014925003
1773258217204410000,5.83241015625,0.5759466613039373,0.0097428108572959,0.6580594195842743,-0.1749193668365478,-0.7303088903427124,0.2135903388261795
1773258217214422300,5.84242236328125,1.43587714523226,-0.3459890278995037,0.0789155696742236,-0.2179994583129882,-0.5379983186721802,0.2410363405942917
1773258217224435200,5.852435302734375,0.7769824438676237,-0.12588789485991,-0.8247446042567491,-0.1145784109830856,-0.4422977566719055,0.1995195150375366
1773258217234447400,5.862447265625,0.6798524414584041,-0.7854010203838347,-0.4900235509552061,-0.0986388549208641,-0.632716178894043,0.0521037019789218
1773258217244459300,5.872459228515625,1.0542810896396635,-0.5750479588985443,-1.1210348046161234,-0.2841296792030334,-0.7821001410484314,-0.1695789843797683
1773258217254471200,5.88247119140625,1.1177958226948976,0.8464297818422317,-1.4012107593901455,-0.2049991935491562,-0.832861065864563,-0.0985287725925445
1773258217264483300,5.8924833984375,-0.8639239374786615,-0.2379687981635332,0.9261017228417098,-0.0069948160089552,-0.9508034586906432,-0.1761443763971328
1773258217274495200,5.9024951171875,0.6502797254934907,-2.7853835824787616,0.8502981477081775,0.196232870221138,-1.0396286249160769,-0.2578131258487701
1773258217284507100,5.912507080078125,1.3756985708624123,-3.129638918453455,0.4032951155729591,0.3502061367034912,-0.9727301001548768,-0.2565915286540985
1773258217294519300,5.922519287109375,0.9229469120725988,-2.001419901421666,0.3830966694138944,0.386158287525177,-0.7951180338859558,-0.25196373462677
1773258217304532000,5.932531982421875,0.8055024359092116,-0.714230219617486,-0.0992551778696477,0.2657577097415924,-0.7256876826286316,-0.2707157433032989
1773258217314544000,5.942544189453125,0.8175017935216427,0.5264607458621263,-0.7206301497876644,0.2219434082508087,-0.7922701835632324,-0.3480478227138519
1773258217324556000,5.95255615234375,0.8276385721325874,1.080465332210064,0.0466261420965194,0.1321160793304443,-0.8921114802360535,-0.4403783082962036
1773258217334568200,5.962568115234375,0.6017667467370629,1.1078314780414105,-0.1200626958377659,-0.0154813583940267,-0.8999238610267639,-0.5364475846290588
1773258217344580000,5.972580078125,0.4700719191640615,1.720555964383483,-0.8590515091367066,-0.0807468593120575,-0.7880918383598328,-0.4977319836616516
1773258217354592000,5.982592041015625,-0.3665861179873347,2.155193582072854,-0.3337665290556847,-0.1521041244268417,-0.5167215466499329,-0.3397346436977386
1773258217364604200,5.992604248046875,-1.219506723153591,1.966701054739952,-0.16064692742154,-0.2299571335315704,-0.291082352399826,-0.2010617405176162
1773258217374617000,6.0026171875,-1.1888558565631508,0.7005284420013427,-0.6439893931776285,-0.2097741067409515,-0.2018257081508636,-0.1662771254777908
1773258217384629200,6.012629150390625,-0.3820937759816646,-1.5220213509857654,-0.6749132314905524,-0.1891664117574691,-0.2983438074588775,-0.1425392478704452
1773258217394641200,6.02264111328125,-0.1601537370771169,-1.7727391560852526,-0.7941577428132295,-0.168782576918602,-0.2512775063514709,-0.0371217504143714
1773258217404653000,6.032653076171875,-1.0177285977900028,0.2162444576114416,-0.2623253869153559,-0.1400415152311325,-0.1355067640542984,0.0280733350664377
1773258217414665200,6.042665283203125,-0.5997483926519751,1.181749531689286,0.5069555426642298,-0.1149521470069885,-0.1551379859447479,0.0744901001453399
1773258217424677000,6.052677001953125,-0.3185594614431262,0.7938280724674462,0.5804565399438143,-0.0833892598748207,-0.1876424998044967,0.1785136610269546
1773258217434689000,6.06268896484375,-0.9647790978908538,0.1197334638833999,0.3952981254696845,0.0110437637194991,-0.2985788881778717,0.3170587718486786
1773258217444701200,6.072701171875,-1.4948051350191234,-0.8526344817012548,0.4889515378095209,0.1651240885257721,-0.4101105332374573,0.351964384317398
1773258217454714000,6.082714111328125,-0.7990054751053453,-2.0341957973420617,0.793964850589633,0.2204001396894455,-0.5018734335899353,0.3047278821468353
1773258217464726300,6.092726318359375,0.5075847804784774,-1.94631994549036,-0.3088926384314894,0.0852517932653427,-0.4041488766670227,0.2966407239437103
1773258217474738200,6.10273828125,0.4697033781126141,-0.4538257177621126,-1.939697312480211,0.0360139422118663,-0.1894887685775756,0.2498266100883484
1773258217484750300,6.112750244140625,0.5373474660575389,0.442090271782875,-0.5837231405243277,0.0393898636102676,-0.0622841045260429,0.2211291491985321
1773258217494762200,6.12276220703125,0.3982639895379543,0.6587742898553609,0.5630586842887103,0.0854862481355667,-0.0607064440846443,0.0706237852573394
1773258217504774100,6.132774169921875,1.1750777988404035,0.5273924737542868,0.6640514996059238,0.0290538091212511,-0.155832752585411,0.0122624896466732
1773258217514786300,6.142786376953125,0.8441621291711926,1.182307750093937,-0.0864864433199167,-0.036961693316698,-0.3317931294441223,-0.1012044176459312
1773258217524799200,6.15279931640625,0.6936395592704415,1.7528250798255205,-0.3711458271183073,-0.1631791442632675,-0.3066985607147217,-0.2967570722103119
1773258217534811100,6.16281103515625,1.133852639004588,1.4477847329080105,-0.6666469229266047,-0.1365299522876739,0.4349579811096191,-0.430154800415039
1773258217544823300,6.1728232421875,1.396723530973494,-0.454365815988183,0.5642107769332826,-0.1289052367210388,1.0353062152862549,-0.5275163054466248
1773258217554835200,6.182835205078125,1.5663248953536153,-0.4830348611116409,-0.2623695183180272,-0.1030629873275756,1.4071037769317627,-0.5587735772132874
1773258217564847000,6.19284716796875,0.9102055039212108,0.0232663092970848,-0.6266079041354358,-0.0205022152513265,1.4373857975006104,-0.5861682891845703
1773258217574859300,6.202859375,0.7309323480933905,-0.7939771255493163,-0.229070183045417,0.1354434341192245,1.202879786491394,-0.6300066113471985
1773258217584871200,6.21287109375,0.2738125572219491,-1.3224731766313311,0.5929457268998026,0.2129829227924347,0.685594379901886,-0.6667065620422363
1773258217594884000,6.222884033203125,0.0229258252963423,-1.1752566625386476,0.5348797607697546,0.217663437128067,0.2357739359140396,-0.7466296553611755
1773258217604896000,6.23289599609375,0.2028635825127363,-1.1588678377956152,-0.5165197820842266,-0.0596951991319656,0.4307231903076172,-0.6063879728317261
1773258217614908200,6.242908203125,-1.2917507061094045,-0.6780570824742317,-3.316443054307997,-0.0287591200321912,0.9369144439697266,-0.573955237865448
1773258217624920000,6.252920166015625,0.2865121720582246,0.3103682639420032,-0.2007562349699437,-0.1472855061292648,0.8415924906730652,-0.7052126526832581
1773258217634932000,6.262931884765625,1.7943518529564142,1.1216232720285653,-0.6283988792054355,-0.2581238746643066,0.6786502003669739,-0.7997333407402039
1773258217644944100,6.272944091796875,1.1317270251527427,1.726712148925662,-0.3481773317240178,-0.3165053725242615,0.496142715215683,-0.7970806360244751
1773258217654956000,6.2829560546875,0.1079085860550403,1.0892144558548926,0.1410033386662602,-0.2976698875427246,0.2661728858947754,-0.8171103000640869
1773258217664968200,6.29296826171875,0.0982283190399408,0.5749661258339882,0.6636665919415652,-0.2676860392093658,-0.0774535834789276,-0.8547662496566772
1773258217674981000,6.302981201171875,0.0520534278422594,0.5261117862939835,0.829570563108474,-0.2159584015607834,-0.1432219445705413,-0.8201086521148682
1773258217684993300,6.3129931640625,-0.5935284952238202,0.6148293496668339,1.014325365217775,-0.24879851937294,-0.1007763668894767,-0.7325618863105774
1773258217695005200,6.323005126953125,-0.8902256689488888,0.4811731588929891,0.2783769425280392,-0.3013490736484527,-0.0372037813067436,-0.5986331105232239
1773258217705017000,6.33301708984375,-1.3540718454658984,-0.423072852101922,-0.3254625188298523,-0.3620012700557709,-0.018249325454235,-0.4737224876880646
1773258217715029200,6.343029296875,-1.525934725037217,-1.1676192995280026,-0.9426447152331472,-0.4270431399345398,0.1447201520204544,-0.3369409441947937
1773258217725041200,6.353041259765625,-1.5390090184047818,-1.4350918400734662,-1.3561197179064153,-0.4556262791156769,0.2265221178531646,-0.259580135345459
1773258217735053000,6.363052978515625,-0.8770204426780343,-1.4291601119369268,-1.1122492944836615,-0.4991234242916107,0.3402388393878937,-0.2787288129329681
1773258217745066200,6.373066162109375,0.3356868295937776,-0.8685621186733246,-0.966384487260878,-0.6159249544143677,0.6958528161048889,-0.2279707938432693
1773258217755078100,6.383078125,-0.0202668352201581,0.0205500360757112,-1.6187719986885785,-0.7380204796791077,0.948780119419098,-0.1328493356704712
1773258217765090300,6.39309033203125,-0.4790653729587793,0.3650771747291088,-1.5884730142757295,-0.7602399587631226,0.9192691445350648,0.0395710617303848
1773258217775102200,6.403102294921875,-1.30224053594172,0.891260272693634,-0.1940720810309052,-0.5891425013542175,0.5024160146713257,0.3545787930488586
1773258217785114000,6.413114013671875,-3.149655286043882,1.480893221783638,2.155626128271222,-0.5263067483901978,0.2362416684627533,0.4081955254077911
1773258217795126300,6.423126220703125,-1.7491034289538858,0.9684498953580856,1.6876169868558644,-0.6405182480812073,-0.218986302614212,0.3053636848926544
1773258217805138200,6.43313818359375,0.0925140330463647,0.1317389589756727,-0.3212286806523799,-0.5516319870948792,-0.591464102268219,0.1696371883153915
1773258217815151000,6.443151123046875,1.3289666303038596,-0.8340776652693748,0.7865551588550209,-0.4791582822799682,-0.8921613693237305,0.0306556113064289
1773258217825163000,6.4531630859375,1.6943442492842673,-0.692926150304079,0.6481035504981875,-0.4925370216369629,-0.8073320388793945,-0.0143964849412441
1773258217835175000,6.4631748046875,0.5374252074688672,0.0814063635766506,-0.0106856446653604,-0.5273293852806091,-0.8234630823135376,0.0296841561794281
1773258217845187000,6.47318701171875,-0.3305114727824926,0.1309668055593967,-0.1826429245218634,-0.4640146493911743,-0.8242834210395813,0.0990302562713623
1773258217855199000,6.483198974609375,-0.8302408635854721,-0.2914677486389875,0.6937643546938895,-0.3850290179252624,-0.635648787021637,0.1872607767581939
1773258217865211100,6.493211181640625,-0.8622320388689637,-0.65517655762434,0.7951406163707375,-0.3388330340385437,-0.4923188090324402,0.2132574915885925
1773258217875223000,6.50322314453125,-0.0474967874512076,-0.7729419363051653,0.2691702843740582,-0.2694269120693207,-0.3762426674365997,0.2309198528528213
1773258217885235000,6.51323486328125,0.2452572016060352,-0.9121218589365482,0.381274276292324,-0.2134039402008056,-0.2673444747924804,0.2075213938951492
1773258217895248000,6.523247802734375,0.6354021820962429,-0.8636907132446765,0.2557423552632332,-0.1442211419343948,-0.2082284241914749,0.2303774505853653
1773258217905259800,6.533259765625,0.3311199600696563,-0.6462298655807972,0.3050657736197114,-0.0748109221458435,-0.1491720378398895,0.1437041461467743
1773258217915272000,6.54327197265625,0.8545993520334363,-0.8123439723670483,0.4046393697887658,0.0763069540262222,0.2810762524604797,0.3723144233226776
1773258217925283800,6.553283935546875,-2.207463867536187,-2.5207816289335487,0.892433408126235,0.2719921171665191,1.1494394540786743,1.0519459247589111
1773258217935296000,6.5632958984375,-3.897030234894156,-11.836972755300998,-1.1408160482764242,0.2059888690710067,1.5317848920822144,-0.752472460269928
1773258217945308000,6.573307861328125,13.82534554362297,-2.700060337719321,-3.164154936039448,-0.135340929031372,0.5927574038505554,-1.5480988025665283
1773258217955319800,6.58331982421875,8.395373919799923,9.784090962189437,-1.4170491106435656,-0.2489172965288162,0.0869122892618179,-1.0963082313537598
1773258217965332000,6.59333203125,-0.6943909621596336,11.626191823792457,2.3788024309724567,-0.4352445602416992,-0.0313357897102832,-0.4320759177207947
1773258217975343900,6.60334375,-2.259898988172412,4.4172219834893935,-0.073289108094573,-0.393377274274826,0.1727108061313629,-0.0908107534050941
1773258217985357000,6.613357177734375,-2.675962838295102,2.170719652506709,-0.1174190494611859,-0.3874112367630005,0.1334254890680313,0.1852855831384658
1773258217995369000,6.623368896484375,-3.365636708804965,3.8157080424696206,0.9048723261997104,-0.5626717209815979,0.2372331172227859,0.1974692791700363
1773258218005380900,6.633380859375,-2.230919854186475,2.9817952123731373,0.1057455628022551,-0.8233234882354736,0.5054505467414856,0.2053102552890777
1773258218015393000,6.64339306640625,-2.1675372230783103,1.3635568821698427,-1.3351809747740626,-0.979747712612152,0.956352472305298,0.2370556592941284
1773258218025405000,6.653405029296875,-1.3985221048280596,-0.1692600035965442,-1.5602493748322128,-1.0780900716781616,1.4341028928756714,0.262137234210968
1773258218035416800,6.663416748046875,-0.2020505125641822,-0.8247446042567491,-1.3798515988886355,-1.1127934455871582,1.8766154050827024,0.3530554175376892
1773258218045429000,6.673428955078125,0.1410153213649988,-1.1576339120864867,-1.02684450892061,-1.099615454673767,1.956420660018921,0.3247258961200714
1773258218055441000,6.68344091796875,1.1827806283026934,-0.9776233818948268,-1.0269441699028017,-1.01644766330719,1.864051818847656,0.2107396721839904
1773258218065454000,6.6934541015625,1.9132322071418164,-1.153480299538374,-0.3309551248967647,-0.9382774829864502,1.646661400794983,0.0444226935505867
1773258218075466000,6.703466064453125,2.273230178910494,-1.6622803010255098,0.2578673845931887,-0.9041690826416016,1.3760602474212646,-0.1180226802825927
1773258218085478000,6.713477783203125,1.7119263754650949,-1.7591788327664135,0.1369753983244299,-0.7965121269226074,1.2449145317077637,-0.2062523663043975
1773258218095490000,6.723489990234375,0.7565124872907996,-1.5212404297411442,0.8094064576104283,-0.7004795670509338,1.2052205801010132,-0.2908186316490173
1773258218105502000,6.733501953125,0.8198363739490508,-1.3615414506942034,0.8674220087274909,-0.6482979655265808,1.288794755935669,-0.4427174627780914
1773258218115514000,6.74351416015625,1.327843179231882,-1.1127549059182404,0.206939161388576,-0.6798495054244995,1.401819348335266,-0.5646370053291321
1773258218125526000,6.753526123046875,1.3553873119786382,-0.9364332933723926,-0.8217138582587241,-0.742066502571106,1.4568583965301514,-0.558949887752533
1773258218135538000,6.763537841796875,0.0936538507312536,-0.5043278245091438,-1.248308454746008,-0.5871677398681641,1.7592263221740725,-0.5199087262153625
1773258218145550000,6.773550048828125,-0.6850187381803989,0.3865454946935177,1.1354840395987034,-0.4453055560588836,2.083781480789185,-0.410799115896225
1773258218155562800,6.783562744140625,-0.8057754076316952,0.8478793961286545,1.8246499605864288,-0.3054690957069397,2.251572847366333,-0.4880360960960388
1773258218165575000,6.793574951171875,0.5265437479704618,0.5421399610310793,1.562048825469613,-0.1837018430233001,1.9036870002746584,-0.6658613085746765
1773258218175586800,6.8035869140625,1.3016972228452564,0.2844043861240148,1.6963474058002233,-0.0808620080351829,1.347141981124878,-0.9721671342849731
1773258218185599000,6.813598876953125,2.3407325202971694,0.1161129352986812,1.3690776914179323,-0.0180240608751773,0.8914732933044434,-1.3232494592666626
1773258218195611000,6.82361083984375,2.948777324390411,0.00533376224339,0.8426584466099739,0.0963017120957374,0.667262077331543,-1.609014630317688
1773258218205622800,6.833622802734375,2.847748560976982,-0.386309932371974,1.1365525456130503,0.2333708703517913,0.886861264705658,-1.6977849006652832
1773258218215635000,6.843635009765625,0.6470160475224256,-1.865841802674532,1.1966618541389704,0.7970859408378601,1.3385403156280518,-0.7338974475860596
1773258218225646800,6.853646728515625,-8.299428743261098,-2.9949767655074595,3.7683126695662734,0.997969388961792,1.6364930868148804,-0.7506818771362305
1773258218235659800,6.86365966796875,-1.5409858714357016,-0.4100789304941892,2.3941432079672813,0.6871837973594666,1.281707525253296,-0.8567225933074951
1773258218245672000,6.873671875,0.3073591452538967,1.5247440539479256,-1.827399551555514,0.4083366692066192,0.8463147282600403,-0.9697938561439514
1773258218255683800,6.883683837890625,0.2070686329871416,2.498329558628797,-2.6515187173902985,0.0065841702744364,-0.0014533153735101,-1.2025641202926636
1773258218265696000,6.893696044921875,2.427098552107811,1.7574147457033396,-4.181937894365191,-0.4622235894203186,-0.3567600846290588,-1.602134108543396
1773258218275708000,6.9037080078125,3.845246271643042,0.3835755389720201,-5.817394485872984,-0.7657946944236755,-0.6878508925437927,-1.8794724941253664
1773258218285719800,6.9137197265625,3.882790989400446,-0.2499737087339162,-4.501151728063822,-0.8666287064552307,-0.7596055865287781,-2.0550856590271
1773258218295732000,6.92373193359375,2.4645392249688505,0.7646680289566516,-1.5138631789714097,-0.8793676495552063,-0.6183454394340515,-1.889095425605774
1773258218305744000,6.933743896484375,-0.722928489857912,1.0195487989544867,-0.1062000285714864,-0.8076423406600952,-0.1831231713294983,-1.964161992073059
1773258218315755800,6.943755859375,-0.0043774844318628,-1.8897160147368908,0.389070044735074,-0.6511611342430115,0.1220828145742416,-1.8271620273590088
1773258218325768000,6.953767822265625,-1.122662551948428,0.6660802289545535,1.5899766968369482,-0.4066100120544433,0.3114250004291534,-1.679212212562561
1773258218335780900,6.96378076171875,-1.6700450898081065,0.634465778028965,2.620487034788728,-0.2175277173519134,0.3212456703186035,-1.5506893396377563
1773258218345793000,6.97379296875,-1.886735245360434,0.0014028525352478,2.252102635207772,-0.2428109943866729,0.412825345993042,-1.3772810697555542
1773258218355805000,6.983804931640625,-1.9907126294463875,0.3919634280890226,-0.1636889254659414,-0.322414219379425,0.4836087226867676,-1.0748006105422974
1773258218365816800,6.99381689453125,-3.365672364640236,0.5285480735301971,-0.9476964456647634,-0.3631600141525268,0.7290544509887695,-0.7848894596099854
1773258218375829000,7.0038291015625,-3.223602858047187,0.6721732851326465,-0.0761924283206462,-0.3641283214092254,0.832724928855896,-0.58698570728302
1773258218385841000,7.0138408203125,-2.093021203537285,-0.3144897277861833,0.0840104085952043,-0.3187261819839477,0.7873609662055969,-0.325559139251709
1773258218395853000,7.02385302734375,-2.678822319379449,-0.721442050692439,0.3556891686588526,-0.3315607607364654,0.6413571834564209,-0.156658798456192
1773258218405865000,7.033864990234375,-2.3473285575613376,-0.4888227968633175,-0.1973369280457496,-0.3271821737289428,0.4422880709171295,0.0502355769276618
1773258218415876900,7.043876953125,-2.268267003545165,-0.06799801594913,-0.1900637221723795,-0.322237491607666,0.495672732591629,0.184047445654869
1773258218425889000,7.053888916015625,-1.6117352319195866,0.556579405272007,0.0303629895597696,-0.3064286112785339,0.8167589902877808,0.4388089179992676
1773258218435902000,7.06390185546875,-2.265789799776673,1.3452058174431325,0.1185281797468662,-0.3421636819839477,1.1331661939620972,0.6994458436965942
1773258218445914000,7.0739140625,-2.3589333628982305,1.2179033796101808,-0.4063894283264875,-0.423221617937088,1.1150078773498535,0.7632262706756592
1773258218455926000,7.083926025390625,-0.5413432576954365,0.5819108304053545,-1.2481056256502867,-0.4901972115039825,0.4562134444713592,0.6459267735481262
1773258218465938000,7.09393798828125,1.3430378257542848,-0.1656014810889959,-1.1607470756709577,-0.5695915222167969,-0.1672225147485733,0.5618440508842468
1773258218475950000,7.1039501953125,0.8030258166626095,-1.0789292086839677,-1.147628066378832,-0.5311753749847412,-0.2186731994152069,0.5928856134414673
1773258218485962000,7.1139619140625,-0.4347992379918694,-1.0723732111692428,0.1132867719620466,-0.4450795948505401,-0.0898379534482956,0.6907484531402588
1773258218495974100,7.12397412109375,-1.0617711531341076,-0.6939058089911937,0.9090572106689214,-0.3931820392608642,-0.1088009923696518,0.7579829096794128
1773258218505986000,7.133986083984375,-1.008919268390536,0.0153431150823831,0.537287844824791,-0.4076201915740967,-0.2626449763774872,0.8536666035652161
1773258218515998000,7.143998046875,-1.0123936665028332,0.631149785348773,-0.1652741488307714,-0.3948527574539184,-0.4946331977844238,0.9594854712486268
1773258218526010000,7.154010009765625,-1.1674763839259743,1.0158160421669482,0.1258680211156606,-0.3766348659992218,-0.7176225781440735,1.068838119506836
1773258218536022000,7.16402197265625,-0.8285030800074339,1.2580477584719658,0.180455935871601,-0.4209791421890259,-0.8592537641525269,1.0459895133972168
1773258218546035000,7.174034912109375,0.2182651497840881,0.3089449531406164,-0.3153741094052791,-0.4029861390590668,-0.7799164652824402,0.9698453545570374
1773258218556046800,7.184046875,0.879268221604824,-0.356408130583167,0.3080997344881296,-0.3430458307266235,-0.5389935970306396,0.9332133531570436
1773258218566058800,7.194058837890625,0.573267505222559,-0.5375882890760898,0.727104314237833,-0.3266416788101196,-0.652210533618927,0.8783169388771057
1773258218576071000,7.20407080078125,1.0279963093042372,-0.1502899301886558,-0.1487269186556339,-0.4349212944507599,-1.0694963932037354,0.8316037654876709
1773258218586082800,7.214082763671875,1.024406468118727,0.02170855846107,-1.871031772533059,-0.3646555244922638,-0.9240296483039856,0.9146438241004944
1773258218596094700,7.2240947265625,-1.1797492977827786,0.1453729320526122,0.5053337866812944,-0.1889297664165496,-0.7997644543647766,0.9209728240966796
1773258218606107000,7.23410693359375,-0.686243896061182,0.0069417819619178,2.0608003111511466,-0.0252451915293931,-0.5111499428749084,1.0188984870910645
1773258218616118800,7.244118896484375,-1.5164794989496468,-0.0074070613861083,1.854015171280503,0.063252180814743,-0.2472993582487106,1.12016499042511
1773258218626131000,7.254130859375,-1.99285197956264,-0.302867679053545,0.9354448668569326,0.1340777724981308,-0.4908535480499267,1.2245527505874634
1773258218636142800,7.264142822265625,-1.738946192076802,-0.1043120228677988,1.1949386836081743,0.231439471244812,-0.7096876502037048,1.0220105648040771
1773258218646155000,7.274155029296875,1.7400228813976049,-1.214036767309904,1.1529425393998622,0.1789596378803253,-0.765755832195282,0.806610107421875
1773258218656168000,7.28416796875,2.7125270205825567,-0.7551958517342805,-0.7780822218030691,0.0745197758078575,-0.969290852546692,0.5063813328742981
1773258218666179800,7.294179931640625,3.401352749830484,-0.3501917402863502,-1.627993416020274,0.0323886834084987,-1.2122317552566528,0.3154000639915466
1773258218676192000,7.30419189453125,2.477505381786824,0.2921884641289711,-0.965343746036291,0.0485913567245006,-1.352988600730896,0.2370908856391906
1773258218686204000,7.314203857421875,0.9116752842128276,1.0903747318059205,-0.0244552268207073,0.1227909997105598,-1.4695523977279663,0.300728440284729
1773258218696215800,7.3242158203125,-0.6863046863377094,1.2153612939119338,1.081742512539029,0.170926034450531,-1.554593801498413,0.4068029522895813
1773258218706228000,7.33422802734375,-1.4332751460403204,0.4346405402988195,0.8901011657863854,0.1981236636638641,-1.704319715499878,0.4105788767337799
1773258218716240000,7.344239990234375,-0.4817109190315007,-0.520344308808446,0.365796721175313,0.2492478340864181,-1.7048283815383911,0.4063756167888641
1773258218726251800,7.354251708984375,-0.4088599100932478,-0.8637824831813573,0.632656682780385,0.4786390960216522,-1.901852011680603,0.4332272112369537
1773258218736264000,7.364263916015625,-0.496526210847497,-1.130014668276906,2.236741399946809,0.6655263900756836,-2.538086175918579,0.4616117179393768
1773258218746275800,7.37427587890625,-0.2786597049921751,-0.859094617626071,1.991857707828283,0.6545915603637695,-2.862467050552368,0.5643281936645508
1773258218756288000,7.3842880859375,-1.3438883051037789,-1.0540274071395397,0.0186526780217885,0.6671409010887146,-2.9978761672973637,0.629605770111084
1773258218766300000,7.3942998046875,-0.9737444946348668,-1.330411568415165,-0.1312830319017171,0.6272929906845093,-3.089019298553467,0.5993237495422363
1773258218776312800,7.404312744140625,-0.014908815318346,-0.976015362176299,-0.5966366903722286,0.6425832509994507,-3.197429895401001,0.5557549595832825
1773258218786325000,7.414324951171875,0.4161936139822006,-0.486149193739891,-0.2287789450138807,0.6796103119850159,-3.5052947998046875,0.434242844581604
1773258218796337000,7.4243369140625,1.2393173390388488,0.1310498076677322,-0.0211252056151628,0.709717333316803,-3.673102140426636,0.4337128698825836
1773258218806349000,7.43434912109375,1.2957692941009995,0.9697650696098804,-0.1168096853911876,0.8196443915367126,-3.5186924934387207,0.6275351643562317
1773258218816361000,7.44436083984375,0.8055904064536095,1.9927116943091152,0.139478028795123,0.8367711901664734,-3.241713762283325,0.7600391507148743
1773258218826372900,7.454372802734375,1.215399872356653,2.696152808886766,-0.4790343932986259,0.6860415935516357,-2.6877830028533936,0.6480427980422974
1773258218836385000,7.464385009765625,0.8652765211313962,2.559358320087194,-0.7865981212139129,0.5651870965957642,-2.229461193084717,0.4817648828029632
1773258218846397000,7.47439697265625,0.9836252526581288,1.7355267390221356,0.286455473434925,0.4463133215904236,-1.77004873752594,0.200323686003685
1773258218856409000,7.4844091796875,2.005243259102106,0.721499918359518,0.9096218588143586,0.2739865481853485,-0.98841792345047,-0.0280860625207424
1773258218866421000,7.4944208984375,1.6393284645050763,-0.5974854161560536,0.4110945372775196,0.1131003648042678,-0.2996774315834045,-0.3251082897186279
1773258218876433200,7.50443310546875,2.5114976677596568,0.3520201247572899,-0.24437165094316,0.0076367892324924,0.1647373735904693,-0.5345606207847595
1773258218886446000,7.514446044921875,2.506665425297618,-0.0719528910547494,-0.6085957159742713,-0.0880259051918983,0.4700953364372253,-0.7523930668830872
1773258218896458200,7.524458251953125,2.340539628073573,-0.7954051125258207,-1.085185346469283,-0.1535202264785766,0.7326409220695496,-0.8631784319877625
1773258218906470100,7.53447021484375,1.4818448234200476,-0.1814882015287876,-0.7837424395218491,-0.1447703838348388,0.8098236322402954,-0.9093597531318665
1773258218916482000,7.54448193359375,0.9659364512324332,0.8433306467831134,0.4756248771160841,-0.1305469721555709,0.7596834897994995,-0.9555610418319702
1773258218926494200,7.554494140625,0.3762497261285781,1.4805886858791113,0.6757827078014612,-0.1413325816392898,0.7184286713600159,-0.9919707775115968
1773258218936506000,7.564506103515625,-0.2947475009620189,1.2579010434776543,0.6777502084821462,-0.0263948068022727,0.9135555624961852,-0.9537107944488524
1773258218946518000,7.57451806640625,-0.9723001410454511,0.6695400140196085,1.809283464628458,0.1860061287879943,1.383348822593689,-0.8481284379959106
1773258218956530200,7.5845302734375,-1.2412743183255197,0.6163502756237983,2.885467173996568,0.4516791105270386,1.8851124048233032,-0.7052106857299805
1773258218966542000,7.5945419921875,-1.3355840026170014,1.3405167828440665,3.369447791525721,0.6812227368354797,1.982501745223999,-0.730229914188385
1773258218976554000,7.604553955078125,-0.0135614923626184,0.4841898763656616,2.490353172922134,0.8374480605125427,1.7801458835601809,-0.7708476781845093
1773258218986566100,7.614566162109375,-0.2264905418157577,0.4358218590378761,1.5374413306966423,0.8781435489654541,1.361660361289978,-0.9145933389663696
1773258218996578000,7.624578125,0.7137883210688829,-1.344028005835414,0.1800257277607917,0.6169071793556213,1.0746674537658691,-1.065116286277771
1773258219006591000,7.634591064453125,2.21618668769598,-3.673522508281469,-3.8501772983044384,0.3742320537567138,0.6813918948173523,-1.0167993307113647
1773258219016603000,7.644602783203125,0.3983937533974647,-2.8196926793158053,-4.229146220263838,0.1686954051256179,-0.2600618898868561,-1.1675081253051758
1773258219026615000,7.654614990234375,1.894018095844984,-3.0147762754768133,-3.627794191807508,0.0810365676879882,-1.1749039888381958,-1.387078881263733
1773258219036627000,7.664626953125,1.5698106916427612,-1.4014543588876724,-1.5439976204723118,-0.0630665495991706,-1.559716820716858,-1.3075100183486938
1773258219046638800,7.674638916015625,-1.0737743101388215,-0.0991243910968303,-2.172486369918287,-0.4170897305011749,-0.5536357164382935,-0.9166089296340942
1773258219056651000,7.684651123046875,-4.024892060175538,1.901295393371582,-4.213843437191843,-0.4823326468467712,-0.1714041531085968,-0.8226355314254761
1773258219066663000,7.694662841796875,-0.4725643205016851,2.5067706392377613,-0.3662438804209232,-0.4872654676437378,0.0083937318995594,-0.79188472032547
1773258219076674800,7.7046748046875,-0.1034708958685398,1.4731044676035645,0.7088593402341008,-0.47507244348526,0.091255322098732,-0.7848781943321228
1773258219086687000,7.71468701171875,-0.2571761874586343,0.2505097153067588,0.1106155069261789,-0.4394325613975525,0.0084537956863641,-0.7242084741592407
1773258219096699000,7.724698974609375,-0.7726204492658376,-0.0291559518575668,0.2769581617712974,-0.3705427050590515,-0.0090487645938992,-0.5970326662063599
1773258219106710800,7.734710693359375,-1.6796078679233788,0.7309428694874048,1.0746826571553945,-0.2268858551979065,0.0551630742847919,-0.5188588500022888
1773258219116723000,7.744722900390625,-0.8951602027416229,-0.4500871157556771,1.7245155156642198,-0.1454013735055923,-0.0101248510181903,-0.3329736590385437
1773258219126736000,7.75473583984375,-1.878289196315408,0.5241612367480993,0.7642255458861589,-0.2539231479167938,0.2895610928535461,0.0025951284915208
1773258219136748000,7.764748046875,-3.727479723918438,1.3491373116731642,-1.2784919960856438,-0.2584734261035919,0.3157780468463897,0.2742530107498169
1773258219146760000,7.774760009765625,-3.040860564804077,0.0903974792838096,-0.4306459177047014,-0.3217898309230804,0.2689743340015411,0.4489496648311615
1773258219156772000,7.784772216796875,-1.94445532066226,0.0009913491249084,-0.9749620537310838,-0.2715932130813598,0.0371653400361537,0.4366498291492462
1773258219166784000,7.794783935546875,0.036341479447484,-0.5147983651190996,0.4385261495605111,-0.2642373144626617,0.0005766649264842,0.492793470621109
1773258219176796000,7.8047958984375,-0.4218704905748367,-0.3178232561230659,0.1320493400990963,-0.3223272562026977,0.0127214780077338,0.553208589553833
1773258219186808000,7.81480810546875,-0.7456932793736457,-0.3010539076298475,-0.9003650779083371,-0.3826368749141693,-0.1244384497404098,0.4594828188419342
1773258219196820000,7.824820068359375,0.7987269504249096,-0.0983580828994512,-0.7509747269079089,-0.4568650424480438,-0.2824291288852691,0.2586948573589325
1773258219206831900,7.834831787109375,2.1821792041540147,0.648054158398509,-0.7523924847513437,-0.4547808468341827,-0.1261532455682754,0.1185174435377121
1773258219216844000,7.844843994140625,1.7116595412224531,1.211429799681902,0.2296285475805401,-0.4393507540225982,0.0480377301573753,-0.0072428835555911
1773258219226856000,7.85485595703125,1.513802973216772,1.198706511709094,0.6211360485956072,-0.4225742220878601,0.1554147154092788,-0.0662688165903091
1773258219236868000,7.8648681640625,0.6871417216837405,0.6821656868368386,0.310245514345169,-0.3658441007137298,0.2249024510383606,-0.1056737452745437
1773258219246881000,7.874881103515625,0.2912099744856357,-0.0505184733599424,0.6515539832130074,-0.1844207793474197,0.2844414412975311,-0.0610181987285614
1773258219256893000,7.884892822265625,-0.4965151049315929,-0.6972153719305991,1.9647469980627297,-0.0467220321297645,0.4392496645450592,0.1372216492891311
1773258219266905000,7.894905029296875,-2.208487949886918,-0.7218798575878143,1.306427466237545,0.0428388006985187,0.5542109608650208,0.5687934756278992
1773258219276917000,7.9049169921875,-4.711718140038848,-0.5576549255490303,0.5081885915905237,0.0404843017458915,0.419264554977417,1.0271035432815552
