time,seconds_elapsed,z,y,x
1774470097287823600,0.06782373046875,-0.589816689491272,-0.19852134585380554,0.08504538238048553
1774470097297850600,0.0778505859375,-0.5894497036933899,-0.13901939988136292,0.00794660672545433
1774470097307877600,0.087877685546875,-0.5694094300270081,-0.10949480533599854,-0.054061904549598694
1774470097317904600,0.097904541015625,-0.5202048420906067,-0.08503446727991104,-0.09277042001485825
1774470097327930600,0.1079306640625,-0.46233034133911133,-0.08744622766971588,-0.10263955593109131
1774470097337957600,0.11795751953125,-0.4154616594314575,-0.12535952031612396,-0.07581167668104172
1774470097347984600,0.127984619140625,-0.3830714821815491,-0.18904422223567963,-0.01870817318558693
1774470097358012700,0.1380126953125,-0.3593216836452484,-0.2795970141887665,0.060755226761102676
1774470097368038700,0.14803857421875,-0.3491489291191101,-0.39590126276016235,0.14083167910575867
1774470097378065700,0.158065673828125,-0.359500914812088,-0.5244024991989136,0.206389918923378
1774470097388092400,0.168092529296875,-0.40354132652282715,-0.5588440895080566,0.24781300127506256
1774470097398119700,0.17811962890625,-0.4593513309955597,-0.45317307114601135,0.2705252468585968
1774470097408146700,0.188146728515625,-0.5056261420249939,-0.2694146931171417,0.2839379906654358
1774470097418173400,0.19817333984375,-0.521460235118866,-0.14524853229522705,0.2713034152984619
1774470097428200700,0.20820068359375,-0.5106022953987122,-0.11699772626161575,0.23586764931678772
1774470097438226700,0.218226806640625,-0.48095518350601196,-0.13210636377334595,0.2099766731262207
1774470097448253700,0.228253662109375,-0.4379461705684662,-0.14607705175876617,0.19451941549777985
1774470097458280400,0.238280517578125,-0.392342209815979,-0.15021400153636932,0.19387812912464142
1774470097468307700,0.2483076171875,-0.34072110056877136,-0.15099431574344635,0.19948327541351318
1774470097478334700,0.258334716796875,-0.30047860741615295,-0.15872013568878174,0.2032575160264969
1774470097488361500,0.268361572265625,-0.2648002505302429,-0.16592319309711456,0.19265760481357574
1774470097498388500,0.278388427734375,-0.23405323922634125,-0.1715640276670456,0.17619900405406952
1774470097508414700,0.288414794921875,-0.21140305697917938,-0.16922764480113983,0.1574639230966568
1774470097518441700,0.298441650390625,-0.19673463702201843,-0.1643708348274231,0.1321905255317688
1774470097528468700,0.30846875,-0.19112467765808105,-0.17807039618492126,0.09587805718183517
1774470097538495500,0.31849560546875,-0.18828947842121124,-0.16255243122577667,0.05155160650610924
1774470097548522800,0.328522705078125,-0.17251664400100708,-0.09498989582061768,0.008334096521139145
1774470097558549800,0.3385498046875,-0.1630008965730667,-0.025187112390995026,-0.033596575260162354
1774470097568575700,0.34857568359375,-0.16678018867969513,0.014366422779858112,-0.06259360909461975
1774470097578602500,0.3586025390625,-0.1644163727760315,0.03431269899010658,-0.07498103380203247
1774470097588629800,0.368629638671875,-0.1460440307855606,0.03075684793293476,-0.045456431806087494
1774470097598656800,0.37865673828125,-0.12869992852210999,-0.005846437532454729,0.021257352083921432
1774470097608683500,0.38868359375,-0.11137472838163376,-0.06269826740026474,0.12393632531166077
1774470097618710500,0.39871044921875,-0.09915268421173096,-0.0998443067073822,0.23419199883937836
1774470097628737800,0.40873779296875,-0.0836714580655098,-0.13164803385734558,0.3272518813610077
1774470097638767400,0.418767333984375,-0.05968543514609337,-0.14595374464988708,0.3940327763557434
1774470097648794400,0.42879443359375,-0.023850737139582634,-0.13671763241291046,0.41190260648727417
1774470097658821600,0.438821533203125,0.006395314820110798,-0.11828269809484482,0.3907456398010254
1774470097668848600,0.4488486328125,0.021942850202322006,-0.0981966108083725,0.32715868949890137
1774470097678875400,0.45887548828125,0.01683996617794037,-0.0485805869102478,0.24238547682762146
1774470097688902700,0.468902587890625,-0.0010426276130601764,0.03403972461819649,0.15384867787361145
1774470097698929700,0.4789296875,-0.01732306368649006,0.12954947352409363,0.0716848373413086
1774470097708955600,0.48895556640625,-0.024333834648132324,0.2591000199317932,0.030544593930244446
1774470097718982400,0.498982421875,-0.02672562003135681,0.3930570185184479,0.03502456098794937
1774470097729009700,0.509009765625,-0.03014778159558773,0.4689491093158722,0.07821278274059296
1774470097739036700,0.51903662109375,-0.017104951664805412,0.4765329957008362,0.14232252538204193
1774470097749063400,0.5290634765625,0.00583738274872303,0.43942663073539734,0.20528897643089294
1774470097759090400,0.53909033203125,0.028594093397259712,0.3698939085006714,0.26844823360443115
1774470097769116400,0.549116455078125,0.04157380759716034,0.30141016840934753,0.3215346336364746
1774470097779143700,0.559143798828125,0.05566193163394928,0.25603336095809937,0.3633158802986145
1774470097789170400,0.56917041015625,0.05173483490943909,0.23370809853076935,0.38868942856788635
1774470097799197400,0.579197509765625,0.02305471897125244,0.2532080411911011,0.38814079761505127
1774470097809224700,0.589224609375,-0.003400590270757675,0.3098209798336029,0.35588592290878296
1774470097819251500,0.59925146484375,-0.02744573913514614,0.38736316561698914,0.29870733618736267
1774470097829278500,0.609278564453125,-0.04417864605784416,0.45423540472984314,0.22044475376605988
1774470097839304400,0.619304443359375,-0.044389303773641586,0.49122297763824463,0.143307626247406
1774470097849331700,0.629331787109375,-0.059846822172403336,0.5014117360115051,0.07064434140920639
1774470097859358500,0.6393583984375,-0.06973540782928467,0.4606192708015442,0.008311459794640541
1774470097869385500,0.649385498046875,-0.05558363348245621,0.3777877688407898,-0.04993586614727974
1774470097879412500,0.65941259765625,-0.02900395542383194,0.2601844370365143,-0.09529110044240952
1774470097889439500,0.669439453125,-0.00447011599317193,0.12598855793476105,-0.11219657957553864
1774470097899465500,0.679465576171875,0.008250739425420761,-0.006859237793833017,-0.10388219356536865
1774470097909492500,0.689492431640625,0.0015736619243398309,-0.1031026840209961,-0.0864398181438446
1774470097919519500,0.69951953125,-0.00824008695781231,-0.1566934734582901,-0.05752960592508316
1774470097929546500,0.70954638671875,-0.006726079620420933,-0.15289659798145294,-0.024456873536109924
1774470097939573500,0.719573486328125,0.0028221518732607365,-0.08832453936338425,0.019756127148866653
1774470097949600500,0.7296005859375,0.014822089113295078,0.023725302889943123,0.055876582860946655
1774470097959627500,0.73962744140625,0.03532097116112709,0.1314440369606018,0.0866752415895462
1774470097969653500,0.749653564453125,0.0618700236082077,0.19297504425048828,0.10396288335323334
1774470097979680500,0.759680419921875,0.0865708440542221,0.18980562686920166,0.10859998315572739
1774470097989707500,0.76970751953125,0.10205312818288803,0.12374937534332275,0.10515224933624268
1774470097999734500,0.779734619140625,0.1198374554514885,0.036677055060863495,0.09458349645137787
1774470098009761500,0.789761474609375,0.1271936446428299,-0.044549889862537384,0.07897017896175385
1774470098019788500,0.79978857421875,0.11885687708854675,-0.11011398583650589,0.05534421652555466
1774470098029814500,0.809814453125,0.10157483071088791,-0.12496403604745865,0.030853785574436188
1774470098039841500,0.819841552734375,0.08591890335083008,-0.07345318049192429,0.016696687787771225
1774470098049868500,0.82986865234375,0.076566681265831,0.010132795199751854,0.0008207862265408039
1774470098059895600,0.8398955078125,0.07036151736974716,0.05578363686800003,-0.019102588295936584
1774470098069922600,0.849922607421875,0.06373130530118942,0.05965374410152435,-0.03700835257768631
1774470098079949600,0.859949462890625,0.06589725613594055,0.034329745918512344,-0.05770483985543251
1774470098089976600,0.8699765625,0.0712938904762268,0.002341983839869499,-0.06693695485591888
1774470098100002600,0.88000244140625,0.08370235562324524,-0.01884079910814762,-0.059724051505327225
1774470098110029600,0.890029541015625,0.09802643209695816,-0.025465412065386772,-0.022788137197494507
1774470098120056600,0.900056640625,0.1094181016087532,-0.02719806507229805,0.023309582844376564
1774470098130083600,0.91008349609375,0.11089508980512619,-0.04289686679840088,0.06730127334594727
1774470098140110600,0.920110595703125,0.10099825263023376,-0.06814896315336227,0.09445619583129883
1774470098150137300,0.930137451171875,0.07746735960245132,-0.08144372701644897,0.0993976965546608
1774470098160164600,0.94016455078125,0.05089646950364113,-0.06791433691978455,0.09524236619472504
1774470098170190600,0.950190673828125,0.020172379910945892,-0.059595685452222824,0.09536593407392502
1774470098180217600,0.960217529296875,-0.009270730428397655,-0.02888704091310501,0.09701762348413467
1774470098190244400,0.970244384765625,-0.019572902470827103,0.003922570031136274,0.10912702232599258
1774470098200271600,0.980271728515625,-0.034810710698366165,0.029043635353446007,0.14355796575546265
1774470098210298600,0.990298583984375,-0.06467726081609726,0.0385601744055748,0.19492927193641663
1774470098220325400,1.000325439453125,-0.13511493802070618,0.07335411012172699,0.27372661232948303
1774470098230351400,1.010351318359375,-0.25093820691108704,0.11123064905405045,0.3769558072090149
1774470098240378600,1.020378662109375,-0.3843252956867218,0.17257896065711975,0.4578338861465454
1774470098250405600,1.030405517578125,-0.5132231116294861,0.24209412932395935,0.5124672651290894
1774470098260432400,1.040432373046875,-0.685157299041748,0.23061271011829376,0.5411514043807983
1774470098270459400,1.05045947265625,-0.9447616934776306,0.0021281319204717875,0.4963945746421814
1774470098280486700,1.060486572265625,-1.1978025436401367,-0.23241938650608063,0.4747167229652405
1774470098290513400,1.070513427734375,-1.4591941833496094,-0.46677011251449585,0.5300574898719788
1774470098300539400,1.080539306640625,-1.7192074060440063,-0.6145800948143005,0.585405707359314
1774470098310566400,1.09056640625,-1.936436653137207,-0.5937677621841431,0.566731333732605
1774470098320593700,1.10059375,-1.9891581535339355,-0.5076797008514404,0.5026607513427734
1774470098330620400,1.110620361328125,-1.8320704698562622,-0.4377081096172333,0.40216583013534546
1774470098340647400,1.1206474609375,-1.6995830535888672,-0.35317644476890564,0.24992302060127258
1774470098350674700,1.1306748046875,-1.4928905963897705,-0.25849175453186035,0.1850380301475525
1774470098360700700,1.14070068359375,-1.31786048412323,-0.1427195966243744,0.14933302998542786
1774470098370727400,1.1507275390625,-1.190476894378662,-0.06839822977781296,0.16619883477687836
1774470098380754400,1.16075439453125,-1.0975350141525269,-0.08656924962997437,0.2704741060733795
1774470098390781400,1.170781494140625,-1.0660146474838257,-0.35247042775154114,0.4793063998222351
1774470098400808400,1.180808349609375,-0.984993040561676,-1.3122526407241821,0.7932283878326416
1774470098410835500,1.19083544921875,-1.0757954120635986,-2.5886313915252686,1.0755149126052856
1774470098420862500,1.200862548828125,-1.2856833934783936,-3.7023184299468994,1.220872163772583
1774470098430888400,1.210888427734375,-1.5818569660186768,-3.6398138999938965,1.0418856143951416
1774470098440915700,1.220915771484375,-1.3091702461242676,-3.0095715522766113,0.9512915015220642
1774470098450942500,1.2309423828125,-0.6689218878746033,-1.5868695974349976,0.8216216564178467
1774470098460969500,1.240969482421875,-0.004316717851907015,-0.0033358754590153694,0.6581355333328247
1774470098470996700,1.250996826171875,0.4112306833267212,1.3826426267623901,0.46950864791870117
1774470098481023500,1.2610234375,0.5877047777175903,2.34031343460083,0.3383769989013672
1774470098491049500,1.271049560546875,0.6822600364685059,2.8370234966278076,0.3434910476207733
1774470098501076500,1.281076416015625,0.7163357138633728,2.5268685817718506,0.3844403624534607
1774470098511103700,1.291103759765625,0.6854665279388428,1.2620350122451782,0.3896918296813965
1774470098521130500,1.301130615234375,0.5307080745697021,-0.017360614612698555,0.36833542585372925
1774470098531157500,1.311157470703125,0.6086061000823975,0.32117190957069397,0.19926489889621735
1774470098541184500,1.3211845703125,0.5903328061103821,0.7226951122283936,0.08239287883043289
1774470098551211500,1.33121142578125,0.4643990993499756,1.0446017980575562,-0.03069905750453472
1774470098561237500,1.341237548828125,0.22499556839466095,0.7974790334701538,-0.16120167076587677
1774470098571264500,1.351264404296875,-0.10927242785692215,0.5046945810317993,-0.16618071496486664
1774470098581291500,1.36129150390625,-0.4091499447822571,0.4556626081466675,-0.19010841846466064
1774470098591318500,1.371318603515625,-0.6391858458518982,0.37190139293670654,-0.19437719881534576
1774470098601345500,1.381345458984375,-0.5277218818664551,0.10707345604896545,-0.053882140666246414
1774470098611372500,1.39137255859375,-0.009666741825640202,-0.2401188611984253,0.175193652510643
1774470098621399300,1.4013994140625,0.47743314504623413,-0.6135952472686768,0.4631916284561157
1774470098631425500,1.411425537109375,0.7595924139022827,-0.9588141441345215,0.9048246741294861
1774470098641452500,1.42145263671875,0.8496794104576111,-1.2411500215530396,1.4699344635009766
1774470098651479600,1.4314794921875,0.8150417804718018,-1.4757912158966064,1.8782765865325928
1774470098661506300,1.44150634765625,0.6852231025695801,-1.6509662866592407,2.091416597366333
1774470098671533600,1.451533447265625,0.6235852837562561,-1.6134428977966309,1.9898260831832886
1774470098681560600,1.461560546875,0.5822998881340027,-1.4884058237075806,1.5860133171081543
1774470098691586600,1.471586669921875,0.5644761919975281,-1.1701730489730835,1.0439047813415527
1774470098701613300,1.48161328125,0.5673670172691345,-0.8181496858596802,0.5743434429168701
1774470098711640300,1.491640380859375,0.5782830715179443,-0.5021888017654419,0.3158698081970215
1774470098721667600,1.50166748046875,0.6051223874092102,-0.3307448923587799,0.28792604804039
1774470098731694300,1.5116943359375,0.6984209418296814,-0.35110902786254883,0.4796166718006134
1774470098741721300,1.521721435546875,0.8209303021430969,-0.4823083281517029,0.81956946849823
1774470098751748600,1.53174853515625,0.9085792303085327,-0.48444098234176636,1.158281683921814
1774470098761774600,1.541774658203125,0.8504024744033813,-0.5214802026748657,1.381304144859314
1774470098771801300,1.55180126953125,0.8066776394844055,-0.5437312126159668,1.410062313079834
1774470098781828400,1.561828369140625,0.7454161047935486,-0.394100159406662,1.2438069581985474
1774470098791855600,1.571855712890625,0.8061774969100952,0.014120612293481827,0.887483537197113
1774470098801882600,1.581882568359375,0.8895919322967529,0.5529870390892029,0.4891952574253082
1774470098811909400,1.591909423828125,0.9890002608299255,0.9044025540351868,0.21121476590633392
1774470098821936400,1.601936279296875,1.081842064857483,0.9705658555030823,0.12524846196174622
1774470098831962600,1.611962646484375,1.0731260776519775,0.6820392608642578,0.2592962682247162
1774470098841989600,1.62198974609375,1.0774725675582886,0.31017330288887024,0.512862503528595
1774470098852016400,1.632016357421875,1.2392127513885498,-0.040835846215486526,0.7250179052352905
1774470098862043400,1.64204345703125,1.480146884918213,-0.27477964758872986,0.8760337829589844
1774470098872070700,1.652070556640625,1.7437644004821777,-0.29841333627700806,0.9617023468017578
1774470098882097400,1.662097412109375,1.8224996328353882,-0.306709349155426,0.9792059659957886
1774470098892123400,1.672123291015625,1.850612998008728,-0.1927367001771927,0.9745225310325623
1774470098902150400,1.682150390625,2.070438861846924,0.41054996848106384,0.981933057308197
1774470098912177700,1.692177734375,2.217048406600952,0.6443134546279907,1.0970919132232666
1774470098922204400,1.702204345703125,2.18205189704895,0.4003186523914337,1.4470301866531372
1774470098932231400,1.7122314453125,2.1110246181488037,0.12265720963478088,1.7972043752670288
1774470098942258400,1.722258544921875,2.088442087173462,-0.14394812285900116,1.8262795209884644
1774470098952285400,1.732285400390625,2.0700862407684326,-0.21236419677734375,1.6132519245147705
1774470098962311400,1.7423115234375,1.7569589614868164,-0.22880655527114868,1.3079042434692383
1774470098972338400,1.75233837890625,1.3905553817749023,0.05162804201245308,0.8924681544303894
1774470098982365400,1.762365478515625,1.0739140510559082,0.5399321913719177,0.36788347363471985
1774470098992392400,1.772392333984375,0.7581300735473633,0.933827817440033,-0.04909297823905945
1774470099002419500,1.78241943359375,0.6091986298561096,1.4997109174728394,-0.2964324653148651
1774470099012446500,1.792446533203125,0.4523043632507324,1.90004563331604,-0.45323246717453003
1774470099022473500,1.802473388671875,0.23202604055404663,1.784460425376892,-0.4045719802379608
1774470099032499500,1.81249951171875,0.0252212006598711,1.1315046548843384,-0.33473724126815796
1774470099042526500,1.8225263671875,-0.15342338383197784,0.8637568950653076,-0.5053020715713501
1774470099052553500,1.832553466796875,-0.2954106032848358,0.8648809790611267,-0.80716472864151
1774470099062580500,1.84258056640625,-0.4076319634914398,0.9547826647758484,-1.2185673713684082
1774470099072607500,1.852607421875,-0.5908966064453125,1.140037178993225,-1.4909907579421997
1774470099082634500,1.862634521484375,-0.6847304105758667,1.2915984392166138,-1.5435642004013062
1774470099092661500,1.87266162109375,-0.6797353625297546,1.1942967176437378,-1.3165209293365479
1774470099102687200,1.882687255859375,-0.7092357277870178,0.9339953660964966,-0.8705564737319946
1774470099112714500,1.892714599609375,-0.8297794461250305,0.8150508403778076,-0.5426763296127319
1774470099122741500,1.902741455078125,-0.9334115982055664,0.880242645740509,-0.5395697355270386
1774470099132768500,1.9127685546875,-0.9893627166748047,1.3048114776611328,-0.7740922570228577
1774470099142795500,1.92279541015625,-1.0145118236541748,1.8250786066055298,-1.1356773376464844
1774470099152822500,1.932822509765625,-0.9937710762023926,2.194429636001587,-1.552844762802124
1774470099162849500,1.942849609375,-0.9607979655265808,2.086904525756836,-1.7830162048339844
1774470099172875500,1.95287548828125,-0.9697365760803223,1.3025480508804321,-1.9063143730163574
1774470099182902500,1.962902587890625,-1.0513536930084229,0.36300402879714966,-1.7825686931610107
1774470099192929500,1.972929443359375,-1.1127123832702637,-0.21902209520339966,-1.5754613876342773
1774470099202956500,1.98295654296875,-0.9307100772857666,-0.2799379229545593,-1.4561221599578857
1774470099212983300,1.9929833984375,-0.5466500520706177,-0.05925852805376053,-1.5164555311203003
1774470099223010600,2.003010498046875,-0.08280513435602188,0.3770895004272461,-1.5507293939590454
1774470099233037600,2.01303759765625,0.18339033424854279,0.9475210309028625,-1.2872346639633179
1774470099243063600,2.0230634765625,0.16349464654922485,1.0182998180389404,-0.878978967666626
1774470099253090300,2.03309033203125,0.08605659008026123,0.46676769852638245,-0.4454749524593353
1774470099263117600,2.04311767578125,0.11984917521476746,-0.34629377722740173,-0.08298143744468689
1774470099273144600,2.05314453125,0.3344174027442932,-0.9457454681396484,0.14916285872459412
1774470099283171300,2.06317138671875,0.5927075147628784,-1.2020102739334106,0.1947558969259262
1774470099293198600,2.073198486328125,0.8124492168426514,-1.176055669784546,0.050454918295145035
1774470099303225600,2.0832255859375,0.9156048893928528,-0.914318859577179,-0.15500396490097046
1774470099313251600,2.09325146484375,0.7940470576286316,-0.48357465863227844,-0.28596463799476624
1774470099323278300,2.1032783203125,0.3949398696422577,-0.14767201244831085,-0.2826857566833496
1774470099333305300,2.113305419921875,0.10633789002895355,-0.026868898421525955,-0.2214176058769226
1774470099343332600,2.12333251953125,0.13452105224132538,-0.0003552656853571534,-0.18185076117515564
1774470099353359400,2.133359375,0.39011502265930176,-0.030967503786087036,-0.1376231163740158
1774470099363386400,2.143386474609375,0.5558217167854309,-0.0700717642903328,-0.010366886854171753
1774470099373413600,2.15341357421875,0.5730584859848022,0.0012183962389826775,0.2843209505081177
1774470099383439600,2.163439697265625,0.46857625246047974,0.06174618750810623,0.6598737835884094
1774470099393466400,2.17346630859375,0.3653004765510559,0.008649148046970367,0.9293484091758728
1774470099403493400,2.183493408203125,0.23554247617721558,-0.08161629736423492,1.0514689683914185
1774470099413520600,2.193520751953125,0.07031091302633286,-0.029166674241423607,0.9394409656524658
1774470099423547400,2.20354736328125,0.00971494521945715,0.1981269270181656,0.7007290720939636
1774470099433574400,2.213574462890625,-0.009047556668519974,0.3872433304786682,0.4671589434146881
1774470099443600400,2.223600341796875,-0.010075004771351814,0.5276150703430176,0.4331676661968231
1774470099453627600,2.233627685546875,-0.0540991872549057,0.428208589553833,0.5427231788635254
1774470099463654400,2.243654296875,-0.17852020263671875,0.283961683511734,0.7579622864723206
1774470099473681400,2.253681396484375,-0.24162167310714722,0.0332823246717453,0.9290061593055725
1774470099483708400,2.26370849609375,-0.2097977101802826,-0.1404641717672348,0.9681229591369629
1774470099493735400,2.2737353515625,-0.16545847058296204,-0.2866509258747101,0.9554638862609863
1774470099503762400,2.283762451171875,-0.20023003220558167,-0.46837547421455383,0.8892398476600647
1774470099513788400,2.293788330078125,-0.2116243690252304,-0.5555495023727417,0.8021965622901917
1774470099523815400,2.3038154296875,-0.2097095549106598,-0.6329023838043213,0.6709101796150208
1774470099533842700,2.3138427734375,-0.23324044048786163,-0.746802568435669,0.5364711880683899
1774470099543869400,2.323869384765625,-0.20604370534420013,-0.6629771590232849,0.4396415650844574
1774470099553896400,2.333896484375,-0.1570756435394287,-0.4099947214126587,0.36072757840156555
1774470099563923500,2.34392333984375,-0.14634495973587036,0.03525758907198906,0.29822877049446106
1774470099573950500,2.353950439453125,-0.1652507483959198,0.5790471434593201,0.3139408826828003
1774470099583977500,2.3639775390625,-0.22952133417129517,0.531247615814209,0.4535169005393982
1774470099594003500,2.37400341796875,-0.23809511959552765,-0.040158070623874664,0.7206889390945435
1774470099604030500,2.384030517578125,-0.26326411962509155,-0.7172457575798035,0.9563336968421936
1774470099614057500,2.394057373046875,-0.28790849447250366,-0.9737361073493958,1.0886038541793823
1774470099624084500,2.40408447265625,-0.3270423114299774,-1.0133490562438965,1.03214430809021
1774470099634111500,2.414111572265625,-0.47530126571655273,-0.992689311504364,0.813744843006134
1774470099644134100,2.424134033203125,-0.5715588331222534,-0.8359598517417908,0.5313589572906494
1774470099654161000,2.434160888671875,-0.5992661118507385,-0.6534595489501953,0.22215797007083893
1774470099664187000,2.444186767578125,-0.605881929397583,-0.6008541584014893,0.0068296766839921474
1774470099674214100,2.454214111328125,-0.584140419960022,-0.5616121888160706,-0.12406362593173981
1774470099684241200,2.4642412109375,-0.49350717663764954,-0.4673624038696289,-0.20899689197540283
1774470099694268000,2.474267822265625,-0.4346585273742676,-0.5518991351127625,-0.1788264662027359
1774470099704295000,2.484294921875,-0.2751293182373047,-0.9910152554512024,0.012074772268533707
1774470099714322200,2.494322265625,-0.010802313685417175,-1.9412460327148438,0.24853205680847168
1774470099724349000,2.504348876953125,0.4968385398387909,-2.9029526710510254,0.38921165466308594
1774470099734375000,2.514375,1.1679068803787231,-3.2430226802825928,0.5936662554740906
1774470099744402000,2.52440185546875,1.5113273859024048,-3.3090357780456543,1.146321177482605
1774470099754429200,2.53442919921875,1.6129605770111084,-3.4066832065582275,1.8651906251907349
1774470099764456000,2.5444560546875,1.2863060235977173,-3.44708514213562,2.2322869300842285
1774470099774483000,2.55448291015625,0.9250543117523193,-3.007221221923828,1.9241487979888916
1774470099784510000,2.564510009765625,0.8176122903823853,-1.7015924453735352,1.0322585105895996
1774470099794537000,2.574536865234375,0.7512305974960327,-0.3060328960418701,-0.05186266452074051
1774470099804563000,2.58456298828125,0.6401435136795044,0.5790087580680847,-0.920820415019989
1774470099814590000,2.59458984375,0.5370038151741028,0.8629970550537109,-1.5359972715377808
1774470099824617000,2.604616943359375,0.5182253122329712,0.5912832617759705,-1.6790075302124023
1774470099834644000,2.61464404296875,0.689336359500885,-0.12114106863737106,-1.4193284511566162
1774470099844671000,2.6246708984375,0.7169613242149353,-0.34841495752334595,-1.2334028482437134
1774470099854698000,2.634697998046875,0.6856787800788879,-0.840422511100769,-1.1600979566574097
1774470099864725000,2.64472509765625,0.7932630181312561,-1.0947074890136719,-1.060459852218628
1774470099874751000,2.6547509765625,0.7483341693878174,-0.2549681067466736,-0.8928822875022888
1774470099884778000,2.664778076171875,0.4613143503665924,0.8290334939956665,-0.7278344631195068
1774470099894805000,2.674804931640625,0.13450321555137634,1.264056921005249,-0.6253344416618347
1774470099904832000,2.68483203125,-0.07031970471143723,0.9830750226974487,-0.4269079267978668
1774470099914859000,2.69485888671875,-0.09961820393800735,0.586086094379425,-0.12372327595949173
1774470099924886000,2.704885986328125,0.006795587949454784,0.3592119514942169,0.1762852817773819
1774470099934913000,2.7149130859375,0.15830734372138977,0.267414391040802,0.37566524744033813
1774470099944939000,2.72493896484375,0.2793214023113251,0.2745404839515686,0.4122101962566376
1774470099954966000,2.734966064453125,0.3035910427570343,0.2433231770992279,0.29406917095184326
1774470099964993000,2.744992919921875,0.22499902546405792,0.24086986482143402,0.10565905272960663
1774470099975020000,2.75502001953125,0.07997579127550125,0.2624971270561218,-0.12095491588115692
1774470099985047000,2.765047119140625,-0.021378790959715843,0.26534804701805115,-0.33536335825920105
1774470099995074000,2.775073974609375,-0.04824715852737427,0.17117413878440857,-0.5306382775306702
1774470100005101000,2.78510107421875,-0.033074863255023956,0.04441939666867256,-0.6973540782928467
1774470100015127000,2.795126953125,0.030471622943878174,0.01824291981756687,-0.7843784093856812
1774470100025154000,2.805154052734375,0.12660375237464905,0.03309643268585205,-0.6832797527313232
1774470100035181000,2.81518115234375,0.10466969013214111,-0.20695185661315918,-0.5445740818977356
1774470100045208000,2.8252080078125,0.0037736992817372084,-0.3290034532546997,-0.42143484950065613
1774470100055234800,2.83523486328125,-0.03706374391913414,-0.2774292230606079,-0.30551010370254517
1774470100065262000,2.845261962890625,-0.011624165810644627,-0.18183530867099762,-0.23818913102149963
1774470100075289000,2.8552890625,0.07390858232975006,-0.1161135584115982,-0.20776277780532837
1774470100085315000,2.865315185546875,0.16913123428821564,-0.09733827412128448,-0.20502665638923645
1774470100095341800,2.875341796875,0.24782152473926544,-0.12884533405303955,-0.1666068285703659
1774470100105369000,2.885369140625,0.24571628868579865,-0.18114688992500305,-0.07493788748979568
1774470100115396000,2.89539599609375,0.19084905087947845,-0.08375907689332962,0.03947443887591362
1774470100125422800,2.9054228515625,0.08537667989730835,0.058947738260030746,0.13360945880413055
1774470100135450000,2.9154501953125,-0.023382553830742836,0.13144750893115997,0.14863501489162445
1774470100145477000,2.92547705078125,-0.06828185170888901,0.2176513671875,0.10438313335180283
1774470100155503000,2.935503173828125,-0.024520788341760635,0.28426554799079895,0.014255101792514324
1774470100165529900,2.94552978515625,0.08857060968875885,0.2519949674606323,-0.09060393273830414
1774470100175556900,2.955556884765625,0.20190942287445068,0.13358362019062042,-0.18794433772563934
1774470100185584000,2.965584228515625,0.26787087321281433,0.03783712536096573,-0.2252080887556076
1774470100195611000,2.97561083984375,0.2539142966270447,-0.11982201039791107,-0.2497376650571823
1774470100205638000,2.985637939453125,0.19894292950630188,-0.26482605934143066,-0.3198762834072113
1774470100215665200,2.9956650390625,0.14196619391441345,-0.2736198306083679,-0.3461153209209442
1774470100225691100,3.005691162109375,0.08453379571437836,-0.19251857697963715,-0.30737486481666565
1774470100235718000,3.0157177734375,0.05848994106054306,-0.01866023615002632,-0.2466888725757599
1774470100245745000,3.025744873046875,0.006167881190776825,0.20156720280647278,-0.14694443345069885
1774470100255772200,3.035772216796875,-0.06263355165719986,0.32237857580184937,-0.05163230001926422
1774470100265799200,3.045799072265625,-0.10700234770774841,0.33200669288635254,0.013085175305604935
1774470100275826000,3.055825927734375,-0.11687362194061279,0.318335622549057,0.0320303700864315
1774470100285853000,3.06585302734375,-0.08441927284002304,0.2685512900352478,0.01756700873374939
1774470100295879200,3.075879150390625,-0.018037056550383568,0.1680808812379837,-0.03900998458266258
1774470100305906200,3.08590625,0.026162095367908478,-0.05186745896935463,-0.1371709108352661
1774470100315933000,3.095932861328125,0.04613926634192467,-0.20311929285526276,-0.23989169299602509
1774470100325960000,3.1059599609375,0.06419096887111664,-0.2081979364156723,-0.3044413924217224
1774470100335987200,3.1159873046875,0.08014436811208725,-0.16007675230503082,-0.32423266768455505
1774470100346014000,3.126013916015625,0.08301898837089539,-0.059235092252492905,-0.2902587354183197
1774470100356041000,3.136041015625,0.0786077231168747,0.09953111410140991,-0.21289736032485962
1774470100366067000,3.14606689453125,0.05835998058319092,0.20906826853752136,-0.11005566269159317
1774470100376094200,3.15609423828125,0.03797028586268425,0.23827488720417023,-0.008171909488737583
1774470100386121000,3.166120849609375,0.04537174105644226,0.2471860945224762,0.09337069094181061
1774470100396148000,3.17614794921875,0.07900799810886383,0.2678133249282837,0.166786327958107
1774470100406175000,3.186175048828125,0.1254921406507492,0.22509197890758514,0.193461611866951
1774470100416202000,3.196201904296875,0.15250511467456818,0.03302505984902382,0.16651014983654022
1774470100426229000,3.20622900390625,0.16512371599674225,-0.16963644325733185,0.11671622842550278
1774470100436255000,3.2162548828125,0.1664891093969345,-0.18554723262786865,0.0763765275478363
1774470100446282000,3.226281982421875,0.14880865812301636,-0.061290789395570755,0.049606699496507645
1774470100456309000,3.23630908203125,0.12291473895311356,0.08714209496974945,0.027162378653883934
1774470100466336000,3.2463359375,0.08950910717248917,0.2241436243057251,0.009354619309306145
1774470100476363000,3.256363037109375,0.06037412956357002,0.3349015712738037,-0.004175836686044931
1774470100486390000,3.26639013671875,0.04571289196610451,0.3986760079860687,-0.015426892787218094
1774470100496417000,3.2764169921875,0.029316609725356102,0.4183538556098938,-0.01979314535856247
1774470100506443000,3.286443115234375,0.02220570296049118,0.4493439793586731,-0.02965483069419861
1774470100516470000,3.296469970703125,0.022248314693570137,0.49234816431999207,-0.03711860626935959
1774470100526497000,3.3064970703125,0.0165395624935627,0.4273814260959625,-0.044466532766819
1774470100536524000,3.31652392578125,0.013815414160490036,0.1840241700410843,-0.049553971737623215
1774470100546551000,3.326551025390625,0.02448590099811554,-0.10856562852859497,-0.054851796478033066
1774470100556578000,3.336578125,0.06111981347203255,-0.22660145163536072,-0.040282443165779114
1774470100566605000,3.34660498046875,0.11927259713411331,-0.1434631496667862,-0.013579724356532097
1774470100576631000,3.356631103515625,0.17235073447227478,0.04704314097762108,0.025292307138442993
1774470100586658000,3.366657958984375,0.22899696230888367,0.2726837396621704,0.05601160228252411
1774470100596685000,3.37668505859375,0.267679899930954,0.5094975829124451,0.08392233401536942
1774470100606712000,3.386712158203125,0.28358083963394165,0.7030289769172668,0.13600283861160278
1774470100616739000,3.396739013671875,0.28072914481163025,0.6628929972648621,0.19995439052581787
1774470100626766000,3.40676611328125,0.22069083154201508,0.2951093912124634,0.21951530873775482
1774470100636792800,3.416792724609375,0.21423906087875366,-0.10563880950212479,0.23689936101436615
1774470100646824700,3.42682470703125,0.2646159529685974,-0.3274819850921631,0.23729777336120605
1774470100656850700,3.4368505859375,0.3084888458251953,-0.33053743839263916,0.21789531409740448
1774470100666877400,3.44687744140625,0.3150029480457306,-0.28359976410865784,0.17108705639839172
1774470100676904400,3.456904541015625,0.24818983674049377,-0.31169822812080383,0.067599818110466
1774470100686931700,3.466931640625,0.16127517819404602,-0.31104734539985657,-0.08474178612232208
1774470100696958500,3.47695849609375,0.0906076654791832,-0.19958262145519257,-0.24342437088489532
1774470100706985500,3.4869853515625,0.05642998591065407,-0.11822650581598282,-0.3787132203578949
1774470100717012500,3.497012451171875,0.08117261528968811,-0.11706377565860748,-0.47987231612205505
1774470100727038700,3.507038818359375,0.15208220481872559,-0.1202545091509819,-0.5206066966056824
1774470100737065500,3.5170654296875,0.2339981198310852,-0.1402931958436966,-0.48217275738716125
1774470100747092500,3.527092529296875,0.31049662828445435,-0.17887067794799805,-0.39272063970565796
1774470100757119500,3.537119384765625,0.35292476415634155,-0.10728757083415985,-0.3321968615055084
1774470100767146500,3.547146484375,0.35807159543037415,0.0016732640797272325,-0.3235117495059967
1774470100777173500,3.557173583984375,0.3496674597263336,0.08927794545888901,-0.3544693887233734
1774470100787200500,3.567200439453125,0.32239535450935364,0.14208896458148956,-0.416888564825058
1774470100797226500,3.5772265625,0.24608273804187775,0.20089316368103027,-0.5133967399597168
1774470100807253500,3.58725341796875,0.15139271318912506,0.1804182380437851,-0.5601330995559692
1774470100817280500,3.597280517578125,0.03783472999930382,0.008872853592038155,-0.5387060642242432
1774470100827307500,3.6073076171875,-0.04316078498959541,-0.33735671639442444,-0.43227899074554443
1774470100837334300,3.617334228515625,-0.029703566804528236,-0.7025408148765564,-0.2601253092288971
1774470100847361500,3.627361572265625,0.00009108010999625549,-0.9029703140258789,-0.07709957659244537
1774470100857388500,3.637388427734375,0.02088663913309574,-1.0488369464874268,0.1182350292801857
1774470100867414500,3.64741455078125,0.16293326020240784,-1.282086968421936,0.31865042448043823
1774470100877441300,3.657441162109375,0.39993274211883545,-1.5885244607925415,0.5516067147254944
1774470100887468500,3.667468505859375,0.7801160216331482,-1.2561651468276978,0.7483943104743958
1774470100897495600,3.67749560546875,1.2096596956253052,-1.8113343715667725,0.9706298112869263
1774470100907522600,3.6875224609375,1.5032622814178467,-2.785080909729004,1.2485631704330444
1774470100917549600,3.697549560546875,1.7561451196670532,-3.5920214653015137,1.6422100067138672
1774470100927576600,3.70757666015625,2.062817096710205,-4.429374694824219,2.0749924182891846
1774470100937602600,3.7176025390625,2.4143106937408447,-5.147005558013916,2.5738167762756348
1774470100947629600,3.727629638671875,2.7976224422454834,-5.624866962432861,3.3081789016723633
1774470100957656600,3.737656494140625,3.1040430068969727,-5.690195083618164,4.240291118621826
1774470100967683600,3.74768359375,3.313114881515503,-5.305315017700195,5.215629577636719
1774470100977710600,3.757710693359375,3.3662331104278564,-4.6616997718811035,6.0076422691345215
1774470100987737300,3.7677373046875,3.2274889945983887,-3.620854139328003,6.563356876373291
1774470100997764600,3.7777646484375,2.9771556854248047,-2.424865484237671,6.883630275726318
1774470101007791600,3.78779150390625,2.748549699783325,-1.3451000452041626,7.038380146026611
1774470101017817600,3.797817626953125,2.848254919052124,-1.0472278594970703,6.706684112548828
1774470101027844400,3.80784423828125,3.9871561527252197,-1.7139785289764404,5.691601753234863
1774470101037871600,3.81787158203125,5.409364223480225,-2.9798450469970703,4.405524253845215
1774470101047898600,3.827898681640625,5.38286828994751,-3.2429816722869873,3.588067054748535
1774470101057925400,3.83792529296875,5.22517204284668,-3.7343649864196777,3.175196886062622
1774470101067952400,3.847952392578125,5.048126220703125,-3.993138551712036,3.0788097381591797
1774470101077979600,3.857979736328125,4.771867752075195,-3.9670283794403076,3.0720503330230713
1774470101088005600,3.868005615234375,4.435109615325928,-3.9244494438171387,3.0770058631896973
1774470101098032400,3.878032470703125,3.9649200439453125,-4.204067707061768,3.0265655517578125
1774470101108059400,3.888059326171875,3.461465358734131,-4.54456090927124,2.9003283977508545
1774470101118086700,3.898086669921875,3.0687944889068604,-4.585038661956787,2.653754234313965
1774470101128113400,3.908113525390625,2.8485138416290283,-4.203506946563721,2.2629034519195557
1774470101138140400,3.918140380859375,2.793621301651001,-3.7555410861968994,1.7082700729370117
1774470101148167700,3.928167724609375,2.848278522491455,-3.16317081451416,1.0868855714797974
1774470101158194400,3.9381943359375,2.9147467613220215,-2.536886215209961,0.44420647621154785
1774470101168220400,3.948220458984375,2.9334495067596436,-2.0303590297698975,-0.122817263007164
1774470101178247400,3.958247314453125,2.910830020904541,-1.6032005548477173,-0.49650564789772034
1774470101188274700,3.968274658203125,2.8839545249938965,-1.0986127853393555,-0.7126118540763855
1774470101198301400,3.978301513671875,2.834953784942627,-0.7818188667297363,-0.7945943474769592
1774470101208328400,3.988328369140625,2.7332358360290527,-0.7695696353912354,-0.6722215414047241
1774470101218355500,3.99835546875,2.5478878021240234,-0.8039841055870056,-0.30910858511924744
1774470101228382500,4.008382568359375,2.2224314212799072,-0.9216979146003723,0.12459758669137955
1774470101238408400,4.018408447265625,1.855231523513794,-1.1103975772857666,0.45489081740379333
1774470101248435500,4.028435546875,1.6477248668670654,-1.3129093647003174,0.6381810307502747
1774470101258462500,4.03846240234375,1.6278185844421387,-1.3380645513534546,0.7247065901756287
1774470101268489500,4.048489501953125,1.6049151420593262,-1.2577310800552368,0.7218047976493835
1774470101278516500,4.0585166015625,1.525114893913269,-1.3374162912368774,0.6547077894210815
1774470101288543500,4.06854345703125,1.4015347957611084,-1.3467779159545898,0.5157914757728577
1774470101298570500,4.078570556640625,1.2794570922851562,-1.1684679985046387,0.2489672154188156
1774470101308596700,4.0885966796875,1.187347412109375,-0.8603085875511169,-0.15492646396160126
1774470101318623500,4.09862353515625,1.094841480255127,-0.5230413675308228,-0.6488616466522217
1774470101328650500,4.108650390625,0.960256814956665,-0.24260012805461884,-1.0918909311294556
1774470101338677500,4.118677490234375,0.8077647089958191,-0.10134340077638626,-1.3835062980651855
1774470101348704500,4.12870458984375,0.7136680483818054,-0.054722633212804794,-1.4410330057144165
1774470101358731500,4.1387314453125,0.7425428628921509,-0.20207160711288452,-1.2682127952575684
1774470101368758500,4.148758544921875,0.7812819480895996,-0.4555760324001312,-0.9045501351356506
1774470101378785500,4.15878564453125,0.6635857224464417,-0.7016662359237671,-0.48685726523399353
1774470101388811500,4.1688115234375,0.44400301575660706,-0.9378084540367126,-0.177360400557518
1774470101398838500,4.178838623046875,0.21594694256782532,-1.03468656539917,-0.016266055405139923
1774470101408865500,4.188865478515625,0.040102679282426834,-0.9774746298789978,-0.0355212427675724
1774470101418892500,4.198892578125,-0.08381660282611847,-0.854242742061615,-0.2355073243379593
1774470101428919600,4.20891943359375,-0.14997272193431854,-0.6934418678283691,-0.5324870944023132
1774470101438946600,4.218946533203125,-0.1240851953625679,-0.5532131195068359,-0.8409144282341003
1774470101448973300,4.228973388671875,-0.04104730114340782,-0.42210277915000916,-1.059493899345398
1774470101458999300,4.238999267578125,0.016826916486024857,-0.3438204824924469,-1.1550593376159668
1774470101469026600,4.249026611328125,0.019344402477145195,-0.2714376449584961,-1.0925461053848267
1774470101479053600,4.259053466796875,0.23372220993041992,0.2855854034423828,-0.6346374154090881
1774470101489080300,4.269080322265625,0.5158689618110657,0.8326823115348816,0.06258934736251831
1774470101499107600,4.279107666015625,0.6311132311820984,0.8103437423706055,0.5746848583221436
1774470101509134600,4.289134521484375,0.6344707012176514,0.4084242582321167,0.717357337474823
1774470101519161300,4.299161376953125,0.6498382091522217,0.09667913615703583,0.673804521560669
1774470101529187300,4.309187255859375,0.743594229221344,0.005750829819589853,0.6069455742835999
1774470101539214600,4.319214599609375,0.7696945667266846,-0.1180262416601181,0.5970999002456665
1774470101549241600,4.32924169921875,0.703534722328186,-0.23084865510463715,0.632631778717041
1774470101559268400,4.339268310546875,0.56486976146698,-0.170598104596138,0.6961606740951538
1774470101569295400,4.34929541015625,0.37130165100097656,0.008994294330477715,0.6611331701278687
1774470101579322600,4.359322509765625,0.24322757124900818,0.1534729152917862,0.49541667103767395
1774470101589349600,4.369349609375,0.14176911115646362,0.39437633752822876,0.21846948564052582
1774470101599375400,4.379375244140625,0.04801706224679947,0.678666889667511,-0.18212959170341492
1774470101609402400,4.38940234375,0.00242187874391675,1.2351511716842651,-0.6775686144828796
1774470101619429600,4.3994296875,0.7659834623336792,2.9570534229278564,-1.8829790353775024
1774470101629456600,4.40945654296875,1.5498154163360596,4.393796920776367,-2.8707635402679443
1774470101639483400,4.4194833984375,1.6206285953521729,4.463002681732178,-3.389899730682373
1774470101649506300,4.42950634765625,1.4898782968521118,3.2738752365112305,-3.307919502258301
1774470101659533300,4.439533203125,1.246580958366394,1.6837157011032104,-2.34421443939209
1774470101669560300,4.449560302734375,0.9601622223854065,0.20534569025039673,-0.6684457063674927
1774470101679586000,4.4595859375,1.0148476362228394,-1.1260087490081787,0.8377002477645874
1774470101689613300,4.46961328125,1.0536519289016724,-1.9567714929580688,1.653957486152649
1774470101699640300,4.479640380859375,0.975810706615448,-2.156161308288574,1.8264648914337158
1774470101709667300,4.489667236328125,0.8503454923629761,-2.073265552520752,1.6215500831604004
1774470101719694300,4.4996943359375,0.6430870890617371,-1.7311646938323975,1.2496289014816284
1774470101729721300,4.509721435546875,0.48524153232574463,-1.0073156356811523,0.9111712574958801
1774470101739748400,4.519748291015625,0.4323168098926544,-0.22885075211524963,0.7038457989692688
1774470101749774300,4.5297744140625,0.36601927876472473,0.14847229421138763,0.7005761861801147
1774470101759801000,4.539801025390625,0.28147268295288086,0.2629067301750183,0.9871770739555359
1774470101769828400,4.549828369140625,0.03915512561798096,0.48481515049934387,1.4554121494293213
1774470101779855400,4.55985546875,-0.34958863258361816,0.8690589666366577,1.7987136840820312
1774470101789882000,4.569882080078125,-0.5857976675033569,1.1733222007751465,1.9273117780685425
1774470101799909400,4.579909423828125,-0.5445272326469421,1.1109453439712524,1.9460649490356445
1774470101809936400,4.589936279296875,-0.2709537446498871,0.6602240204811096,1.9192613363265991
1774470101819962400,4.59996240234375,0.1001039668917656,-0.02748754993081093,1.9795411825180054
1774470101829989000,4.609989013671875,0.5520200133323669,-0.5630558729171753,2.2972524166107178
1774470101840016400,4.620016357421875,1.0668383836746216,-0.7389747500419617,2.6680405139923096
1774470101850043400,4.63004345703125,1.5456531047821045,-0.5955371260643005,2.831794023513794
1774470101860070100,4.640070068359375,1.8260382413864136,-0.30421555042266846,2.3712847232818604
1774470101870097200,4.65009716796875,1.3606945276260376,0.11449702084064484,0.8284609317779541
1774470101880124400,4.66012451171875,1.0898504257202148,0.6483396291732788,-0.5248933434486389
1774470101890150400,4.670150390625,1.366281509399414,1.1069903373718262,-1.182246208190918
1774470101900177200,4.68017724609375,1.4919686317443848,1.3358485698699951,-1.301668405532837
1774470101910204200,4.6902041015625,1.3995449542999268,1.178533673286438,-1.1773598194122314
1774470101920231400,4.7002314453125,1.2781710624694824,0.8228131532669067,-0.9163780212402344
1774470101930258200,4.710258056640625,1.220349907875061,0.45201486349105835,-0.5626124739646912
1774470101940285200,4.72028515625,1.1046075820922852,0.20556168258190155,-0.23623357713222504
1774470101950312400,4.7303125,0.8586398959159851,0.09290783852338791,-0.03918974846601486
1774470101960339200,4.740339111328125,0.5602476000785828,-0.0003818972909357399,-0.09799633920192719
1774470101970365200,4.750365234375,0.3845900297164917,-0.11903610825538635,-0.360769122838974
1774470101980392200,4.76039208984375,0.35611817240715027,-0.15896141529083252,-0.6405988931655884
1774470101990419200,4.770419189453125,0.387446790933609,0.08584859222173691,-0.9064878225326538
1774470102000446200,4.7804462890625,0.45667219161987305,0.48978328704833984,-1.206764817237854
1774470102010473200,4.79047314453125,0.39243489503860474,0.9834984540939331,-1.453340768814087
1774470102020500200,4.800500244140625,0.1978592872619629,1.483970046043396,-1.3295656442642212
1774470102030527200,4.81052734375,0.367536723613739,1.5529859066009521,-0.9140748977661133
1774470102040553200,4.82055322265625,0.8375396728515625,1.3442717790603638,-0.4743412137031555
1774470102050580200,4.830580322265625,1.1571578979492188,0.9926578402519226,-0.12634089589118958
1774470102060607200,4.840607177734375,1.1147667169570923,0.5862051844596863,0.04574431851506233
1774470102070634200,4.85063427734375,0.9728873372077942,0.14404772222042084,0.08719668537378311
1774470102080661200,4.8606611328125,0.8886986970901489,0.042028676718473434,0.1023937463760376
1774470102090688300,4.870688232421875,0.7399095296859741,0.1699000895023346,0.09207213670015335
1774470102100715300,4.88071533203125,0.4989645183086395,-0.08055955916643143,0.10107175260782242
1774470102110741500,4.890741455078125,0.3437941074371338,-0.253140389919281,0.12464579194784164
1774470102120768300,4.900768310546875,0.21636825799942017,-0.1484387367963791,0.053701844066381454
1774470102130795300,4.910795166015625,0.12782400846481323,-0.132024347782135,-0.08387971669435501
1774470102140822300,4.920822265625,0.06679687649011612,-0.07833927869796753,-0.11749866604804993
1774470102150849300,4.930849365234375,0.015722237527370453,-0.03375503420829773,-0.04030641168355942
1774470102160876300,4.940876220703125,0.01606711745262146,0.015395468100905418,0.05414818972349167
1774470102170903300,4.9509033203125,0.01690681092441082,0.08586511015892029,0.15589852631092072
1774470102180929300,4.96092919921875,-0.06700459867715836,0.20406071841716766,0.20163458585739136
1774470102190956300,4.970956298828125,-0.1995173692703247,0.4545302093029022,0.2330510914325714
1774470102200983300,4.9809833984375,-0.34403887391090393,0.8493241667747498,0.4463745653629303
1774470102211010300,4.99101025390625,-0.5934247374534607,1.1195132732391357,0.8878547549247742
1774470102221037000,5.001037109375,-0.9864659905433655,1.36940598487854,1.3948959112167358
1774470102231064300,5.011064208984375,-1.493593692779541,1.4499013423919678,1.9140543937683105
1774470102241091300,5.02109130859375,-2.0956387519836426,1.071080207824707,2.1560142040252686
1774470102251118000,5.0311181640625,-2.603120803833008,0.5623443126678467,1.9773603677749634
1774470102261144000,5.04114404296875,-2.7283709049224854,0.522501528263092,1.5384058952331543
1774470102271171300,5.05117138671875,-2.373783588409424,0.6882015466690063,1.100664496421814
1774470102281198300,5.0611982421875,-1.8977999687194824,0.8345316052436829,0.8882648944854736
1774470102291225000,5.07122509765625,-1.3926827907562256,0.9538412094116211,1.0054237842559814
1774470102301252400,5.08125244140625,-1.0040756464004517,0.7801903486251831,1.1547179222106934
1774470102311279400,5.091279296875,-0.6416223645210266,0.4547584652900696,1.1233288049697876
1774470102321306000,5.10130615234375,-0.408290833234787,0.12362153828144073,0.8543537855148315
1774470102331332000,5.11133203125,-0.3312186598777771,-0.0029489181470125914,0.4787980020046234
1774470102341359400,5.121359375,-0.3150056302547455,0.17990878224372864,-0.015133678913116455
1774470102351386400,5.131386474609375,-0.38506752252578735,0.02353595197200775,-0.21858534216880798
1774470102361413000,5.1414130859375,-0.38162699341773987,-0.3607310354709625,-0.15233707427978516
1774470102371440000,5.151440185546875,-0.24910329282283783,-0.6260838508605957,-0.07719145715236664
1774470102381467400,5.16146728515625,-0.16228637099266052,-0.7576552033424377,-0.0741695687174797
1774470102391494400,5.171494384765625,-0.002731071785092354,-0.7741934657096863,-0.01423512864857912
1774470102401520000,5.18152001953125,0.1209421306848526,-0.6259714961051941,0.1021420806646347
1774470102411547100,5.191547119140625,0.19051668047904968,-0.2685025632381439,0.16187891364097595
1774470102421574400,5.201574462890625,0.13138225674629211,0.022829681634902954,0.04453258216381073
1774470102431601400,5.211601318359375,-0.09670337289571762,0.14437422156333923,-0.06952980905771255
1774470102441628200,5.221628173828125,-0.3384387791156769,0.19093559682369232,-0.11384454369544983
1774470102451655200,5.2316552734375,-0.45881417393684387,0.3672613501548767,-0.18515147268772125
1774470102461682400,5.241682373046875,-0.4815458655357361,0.3319225609302521,-0.2783205807209015
1774470102471708400,5.25170849609375,-0.40620529651641846,-0.44784700870513916,-0.16581453382968903
1774470102481735200,5.261735107421875,-0.6142107248306274,-0.8069196939468384,-0.1436554342508316
1774470102491762200,5.27176220703125,-0.7732738256454468,-0.4680526852607727,-0.17957082390785217
1774470102501789400,5.28178955078125,-0.8045830130577087,-0.04218633472919464,-0.03013553097844124
1774470102511816200,5.291816162109375,-0.7238005995750427,0.07231973856687546,0.17627249658107758
1774470102521843200,5.30184326171875,-0.6084369421005249,0.0765291303396225,0.22007563710212708
1774470102531870500,5.311870361328125,-0.5456036925315857,0.013439642265439034,0.1669413149356842
1774470102541896400,5.321896484375,-0.5722605586051941,0.13861380517482758,-0.001205080421641469
1774470102551923200,5.331923095703125,-0.6530513167381287,0.26579999923706055,-0.08796501159667969
1774470102561950200,5.3419501953125,-0.6669319868087769,0.2618284225463867,-0.12307053059339523
1774470102571977500,5.3519775390625,-0.7169613242149353,0.43287739157676697,-0.2036929428577423
1774470102582004200,5.362004150390625,-0.7985190153121948,0.272422194480896,-0.09161700308322906
1774470102592031200,5.37203125,-0.8124588131904602,0.33005833625793457,-0.11706990003585815
1774470102602058200,5.382058349609375,-0.7849376797676086,0.2790105938911438,-0.07554882019758224
1774470102612084200,5.392084228515625,-0.7639682292938232,0.31883764266967773,-0.07064726948738098
1774470102622111200,5.402111328125,-0.8845537900924683,0.3381359577178955,-0.024765534326434135
1774470102632138200,5.41213818359375,-1.1600793600082397,0.3420628011226654,0.034998465329408646
1774470102642165500,5.42216552734375,-1.527359127998352,0.3307243883609772,0.06323862075805664
1774470102652192500,5.432192626953125,-1.9292287826538086,0.4949319660663605,-0.049308694899082184
1774470102662219500,5.442219482421875,-2.4180078506469727,0.9981735348701477,-0.3103799819946289
1774470102672246500,5.45224658203125,-2.739006280899048,1.4618234634399414,-0.4970981776714325
1774470102682273500,5.4622734375,-2.7187888622283936,1.580409049987793,-0.4711536765098572
1774470102692299500,5.472299560546875,-2.4781389236450195,1.4414708614349365,-0.4097086787223816
1774470102702326500,5.482326416015625,-1.897674560546875,0.9595443606376648,-0.3362339437007904
1774470102712353500,5.492353515625,-1.3765594959259033,0.42053258419036865,-0.09466472268104553
1774470102722380300,5.50238037109375,-0.8025241494178772,0.5791432857513428,-0.03821902349591255
1774470102732407600,5.512407470703125,-0.26879629492759705,0.7408394813537598,-0.2859925925731659
1774470102742434600,5.5224345703125,-0.023897608742117882,0.46964284777641296,-0.47464001178741455
1774470102752461300,5.53246142578125,-0.017830928787589073,0.18139296770095825,-0.5845901966094971
1774470102762487300,5.5424873046875,-0.08525177836418152,0.20013469457626343,-0.7714772820472717
1774470102772514600,5.5525146484375,-0.3238164186477661,0.5897011160850525,-1.078766107559204
1774470102782541600,5.56254150390625,-0.6544702053070068,0.5986820459365845,-1.3786052465438843
1774470102792568300,5.572568359375,-0.8174120187759399,0.48211178183555603,-1.7276439666748047
1774470102802595600,5.582595703125,-1.1150356531143188,-0.17425915598869324,-1.8355563879013062
1774470102812622600,5.59262255859375,-0.9983035326004028,-0.8869910836219788,-1.2202566862106323
1774470102822649600,5.602649658203125,-0.5674506425857544,-1.4736993312835693,-0.251691609621048
1774470102832676400,5.61267626953125,-0.29657334089279175,-1.7147465944290161,-0.0032589102629572153
1774470102842702600,5.62270263671875,-0.26155462861061096,-1.4478379487991333,-0.19058619439601898
1774470102852729600,5.6327294921875,-0.4105968475341797,-1.145037055015564,-0.2548120617866516
1774470102862756600,5.642756591796875,-0.6202427744865417,-1.0685611963272095,-0.21913793683052063
1774470102872783400,5.652783447265625,-0.8129743933677673,-0.799782931804657,-0.2885098159313202
1774470102882810600,5.662810546875,-0.9052944779396057,-0.3846358358860016,-0.4133412539958954
1774470102892837600,5.672837646484375,-0.9026861786842346,0.10589341074228287,-0.5960383415222168
1774470102902864400,5.682864501953125,-0.9171769618988037,0.2519763112068176,-0.7069568634033203
1774470102912890400,5.692890380859375,-0.9672747254371643,-0.2056168019771576,-0.737679660320282
1774470102922917600,5.702917724609375,-1.1124950647354126,-0.670060396194458,-0.7003682255744934
1774470102932944600,5.712944580078125,-1.0253747701644897,-0.2880174219608307,-0.8449626564979553
1774470102942971400,5.722971435546875,-0.8181886076927185,0.024026505649089813,-1.0358120203018188
1774470102952998400,5.732998291015625,-0.6232358813285828,0.5417511463165283,-1.0304059982299805
1774470102963025700,5.743025634765625,-0.3160974979400635,1.3962894678115845,-0.9458552002906799
1774470102973052400,5.753052490234375,-0.12433286756277084,1.7134959697723389,-0.8224166035652161
1774470102983079400,5.763079345703125,-0.13878877460956573,1.4856047630310059,-0.6107640266418457
1774470102993105400,5.77310546875,-0.17650899291038513,1.4218814373016357,-0.29356157779693604
1774470103003132700,5.783132568359375,-0.5833292007446289,1.3582861423492432,-0.06735879927873611
1774470103013159400,5.793159423828125,-1.014609456062317,1.834380865097046,0.18491072952747345
1774470103023186400,5.8031865234375,-1.147114872932434,2.375730037689209,0.9357916712760925
1774470103033213700,5.813213623046875,-1.6764436960220337,2.0312485694885254,2.2531843185424805
1774470103043240400,5.823240478515625,-2.245945930480957,1.245537519454956,3.594021797180176
1774470103053267500,5.833267333984375,-2.2520389556884766,0.850663423538208,4.074403762817383
1774470103063293400,5.84329345703125,-0.7102373838424683,0.9997461438179016,5.208357810974121
1774470103073320700,5.85332080078125,-0.42505621910095215,1.8331400156021118,3.566291093826294
1774470103083347500,5.863347412109375,-0.8151552677154541,2.4758102893829346,1.7702816724777222
1774470103093374500,5.87337451171875,-1.0053871870040894,2.0688812732696533,1.0579833984375
1774470103103401500,5.8834013671875,-0.886300802230835,1.4146738052368164,0.6127749681472778
1774470103113428500,5.893428466796875,-0.6894881129264832,0.9499125480651855,0.21965140104293823
1774470103123455500,5.90345556640625,-0.47031450271606445,0.4791482090950012,0.015471101738512516
1774470103133481500,5.9134814453125,-0.30892321467399597,0.06492387503385544,-0.06336965411901474
1774470103143508500,5.923508544921875,-0.2460332065820694,-0.19593168795108795,-0.08536683022975922
1774470103153535500,5.933535400390625,-0.20374274253845215,-0.2481943666934967,-0.12064731866121292
1774470103163562500,5.9435625,-0.21837520599365234,-0.238891139626503,-0.11922919005155563
1774470103173589500,5.953589599609375,-0.2711462676525116,-0.3023627996444702,-0.10718903690576553
1774470103183616500,5.963616455078125,-0.3474578261375427,-0.3576076626777649,-0.09730444848537445
1774470103193643500,5.9736435546875,-0.4031943380832672,-0.36956846714019775,-0.0705263614654541
1774470103203669500,5.98366943359375,-0.4124560058116913,-0.3706054985523224,-0.030723290517926216
1774470103213696500,5.993696533203125,-0.3516738712787628,-0.5406286120414734,-0.061105430126190186
1774470103223723500,6.0037236328125,-0.29339298605918884,-0.6392664909362793,-0.0998712033033371
1774470103233750500,6.01375048828125,-0.2510913610458374,-0.7002997994422913,-0.0989561378955841
1774470103243777500,6.023777587890625,-0.2508047819137573,-0.7076088190078735,-0.11709679663181305
1774470103253804500,6.033804443359375,-0.28370362520217896,-0.8302431106567383,-0.16298837959766388
1774470103263831600,6.04383154296875,-0.3277198076248169,-1.0733397006988525,-0.2552216351032257
1774470103273858600,6.053858642578125,-0.3725173771381378,-1.2340257167816162,-0.3593757450580597
1774470103283884500,6.063884521484375,-0.42461758852005005,-1.4634933471679688,-0.5508413314819336
1774470103293911600,6.07391162109375,-0.43526729941368103,-1.8105732202529907,-0.8156650066375732
1774470103303938600,6.0839384765625,-0.3878917992115021,-1.9985655546188354,-0.9742721915245056
1774470103313965600,6.093965576171875,-0.19759775698184967,-2.097472667694092,-0.9283803701400757
1774470103323992600,6.10399267578125,0.022886672988533974,-1.853680968284607,-0.6499966382980347
1774470103334019300,6.114019287109375,0.09237387031316757,-1.565097451210022,-0.21154873073101044
1774470103344046600,6.124046630859375,0.06269373744726181,-1.4237607717514038,0.11009880900382996
1774470103354072600,6.134072509765625,-0.026040121912956238,-1.090651273727417,0.18159136176109314
1774470103364099600,6.144099609375,-0.08264028280973434,-0.7895931601524353,0.1819666028022766
1774470103374126300,6.154126220703125,-0.006314621306955814,-0.8747634291648865,0.14233557879924774
1774470103384153600,6.164153564453125,0.1409480720758438,-0.9739528894424438,0.10667025297880173
1774470103394180600,6.1741806640625,0.29355543851852417,-1.1370166540145874,0.08514498919248581
1774470103404207400,6.184207275390625,0.45597392320632935,-1.2787526845932007,0.06943686306476593
1774470103414234400,6.194234375,0.5901258587837219,-1.3582384586334229,0.10236498713493347
1774470103424260600,6.204260498046875,0.6725504398345947,-1.2690995931625366,0.1957508623600006
1774470103434287600,6.21428759765625,0.7585591077804565,-0.6167223453521729,0.740299642086029
1774470103444314400,6.224314453125,0.7627546191215515,-0.6807391047477722,0.5537939667701721
1774470103454341400,6.23434130859375,0.4785577952861786,-0.4595998227596283,0.19579586386680603
1774470103464368600,6.24436865234375,0.09508603811264038,-0.40290510654449463,0.042700059711933136
1774470103474395400,6.2543955078125,-0.03423706442117691,-0.29086965322494507,0.08412765711545944
1774470103484422400,6.26442236328125,-0.19285361468791962,0.45975932478904724,0.30396148562431335
1774470103494449700,6.27444970703125,-0.24158146977424622,1.0968185663223267,0.15837286412715912
1774470103504475600,6.2844755859375,-0.3043058216571808,1.1557663679122925,0.001272990950383246
1774470103514502400,6.29450244140625,-0.10780316591262817,1.266026258468628,-0.001600293442606926
1774470103524529400,6.304529296875,0.11809468269348145,1.4636794328689575,0.022069349884986877
1774470103534556700,6.314556640625,0.14283251762390137,1.5475988388061523,0.014367487281560898
1774470103544583700,6.324583740234375,-0.00731304008513689,1.5488576889038086,0.01830071024596691
1774470103554610400,6.3346103515625,-0.194022998213768,1.3680027723312378,0.058342400938272476
1774470103564637400,6.344637451171875,-0.3287121057510376,0.9648603200912476,0.07186460494995117
1774470103574663400,6.354663330078125,-0.32149359583854675,0.4868442118167877,0.06666611135005951
1774470103584690700,6.364690673828125,-0.1678646355867386,0.2137162834405899,0.06565943360328674
1774470103594717400,6.374717529296875,-0.007406783755868673,0.24607394635677338,0.07774166762828827
1774470103604744400,6.384744384765625,0.07690303772687912,0.3144540786743164,0.0819217637181282
1774470103614771700,6.394771728515625,0.1122485101222992,0.3226049542427063,0.12387160956859589
1774470103624798500,6.404798583984375,0.1252972036600113,0.37091389298439026,0.11018562316894531
1774470103634825500,6.414825439453125,0.10672511160373688,0.3852315843105316,0.10583561658859253
1774470103644851700,6.424851806640625,0.059004995971918106,0.40588465332984924,0.11088576912879944
1774470103654878700,6.434878662109375,0.0314766988158226,0.490180104970932,0.12024465203285217
1774470103664905500,6.444905517578125,0.042152248322963715,0.4955042898654938,0.141421839594841
1774470103674932500,6.454932373046875,0.12587377429008484,0.526311993598938,0.17851275205612183
1774470103684959700,6.464959716796875,0.2372242659330368,0.6052190661430359,0.2366495579481125
1774470103694986500,6.474986572265625,0.35434797406196594,0.6472165584564209,0.3089495897293091
1774470103705013500,6.485013427734375,0.4373711943626404,0.6382073760032654,0.3654150068759918
1774470103715040800,6.495040771484375,0.42818304896354675,0.7057408690452576,0.3833841383457184
1774470103725066800,6.505066650390625,0.43774670362472534,0.7955410480499268,0.3695466220378876
1774470103735093500,6.515093505859375,0.42308521270751953,0.7078689932823181,0.37137460708618164
1774470103745120500,6.52512060546875,0.34395283460617065,0.6177063584327698,0.35671284794807434
1774470103755147800,6.535147705078125,0.2842807173728943,0.6235344409942627,0.31541281938552856
1774470103765174500,6.545174560546875,0.31490814685821533,0.7390663623809814,0.29788416624069214
1774470103775201500,6.555201416015625,0.4370462894439697,1.0531339645385742,0.3277517855167389
1774470103785228500,6.565228515625,0.5565140843391418,1.5175848007202148,0.3730928897857666
1774470103795254800,6.5752548828125,0.5497675538063049,1.923524260520935,0.39434465765953064
1774470103805281500,6.585281494140625,0.3609190583229065,2.0059354305267334,0.3486842215061188
1774470103815308500,6.59530859375,0.09214670211076736,1.5309157371520996,0.30643025040626526
1774470103825335600,6.60533544921875,-0.1295742392539978,0.7502905130386353,0.24723589420318604
1774470103835362600,6.615362548828125,-0.14755909144878387,0.1067940890789032,0.15074530243873596
1774470103845389600,6.6253896484375,-0.048881255090236664,-0.30781668424606323,0.09447883814573288
1774470103855416600,6.63541650390625,-0.008835037238895893,-0.3997306227684021,0.08790136128664017
1774470103865442600,6.645442626953125,0.058169830590486526,-0.045510757714509964,0.09618032723665237
1774470103875469600,6.655469482421875,0.21043206751346588,0.8740513324737549,0.1009332686662674
1774470103885496600,6.66549658203125,0.44697749614715576,2.2366883754730225,0.21332745254039764
1774470103895523600,6.675523681640625,0.43920186161994934,2.2684481143951416,0.4026859402656555
1774470103905550600,6.685550537109375,0.4646534323692322,1.8624260425567627,0.40278926491737366
1774470103915577600,6.69557763671875,0.604398787021637,2.173271417617798,-0.023960726335644722
1774470103925604600,6.7056044921875,0.5054296255111694,1.2037352323532104,0.02827611193060875
1774470103935630600,6.715630615234375,0.24223127961158752,0.21127308905124664,0.19484378397464752
1774470103945657600,6.72565771484375,-0.014336861670017242,-0.0810927227139473,0.059413790702819824
1774470103955684600,6.7356845703125,-0.06617981940507889,-0.18399274349212646,-0.09179943054914474
1774470103965711600,6.745711669921875,-0.033121734857559204,-0.1309116780757904,-0.03322533145546913
1774470103975738600,6.755738525390625,0.05493435636162758,0.23505432903766632,0.0644650086760521
1774470103985765600,6.765765625,0.07698612660169601,0.7753572463989258,0.16357454657554626
1774470103995792600,6.775792724609375,0.014038586989045143,0.7013874053955078,0.24018517136573792
1774470104005818600,6.785818603515625,-0.052132975310087204,0.600956916809082,0.22548292577266693
1774470104015845600,6.795845703125,-0.04447239264845848,0.25797587633132935,0.1270114779472351
1774470104025872600,6.80587255859375,-0.012406069785356522,0.015035142190754414,-0.0015281217638403177
1774470104035899600,6.815899658203125,0.02209518291056156,0.05949102342128754,-0.06314035505056381
1774470104045926700,6.8259267578125,0.039076562970876694,0.18529236316680908,0.0017480988753959537
1774470104055953400,6.835953369140625,0.01938648149371147,0.2329469621181488,0.03370150551199913
1774470104065980700,6.845980712890625,0.019958527758717537,0.2437751144170761,0.027752269059419632
1774470104076006700,6.856006591796875,0.01683916710317135,0.23849406838417053,0.013719541020691395
1774470104086033700,6.86603369140625,0.002560629276558757,0.2045629918575287,0.013079582713544369
1774470104096060400,6.876060302734375,-0.011057711206376553,0.1257251650094986,-0.0000031957933970261365
1774470104106087700,6.886087646484375,-0.027838556095957756,0.07682926952838898,-0.008713596500456333
1774470104116114700,6.89611474609375,-0.03153182566165924,0.046667903661727905,-0.0067780110985040665
1774470104126141400,6.906141357421875,-0.03187510743737221,0.04382684454321861,-0.009693640284240246
1774470104136168400,6.91616845703125,-0.02606169506907463,0.0608242005109787,-0.011446799151599407
1774470104146194700,6.926194580078125,-0.020130036398768425,0.08413325250148773,-0.019332950934767723
1774470104156221700,6.9362216796875,-0.014858308248221874,0.10083180665969849,-0.032583508640527725
1774470104166248400,6.94624853515625,-0.011534150689840317,0.10033166408538818,-0.027086744084954262
1774470104176275500,6.956275390625,-0.013193832710385323,0.08292338252067566,-0.027750670909881592
1774470104186302700,6.966302734375,-0.007056844420731068,0.06611190736293793,-0.03904407098889351
1774470104196329500,6.97632958984375,-0.005678125657141209,0.05405125021934509,-0.03832715004682541
1774470104206356500,6.9863564453125,-0.00962439738214016,0.04863704368472099,-0.04302629828453064
1774470104216382500,6.996382568359375,-0.014429539442062378,0.046475090086460114,-0.04435388371348381
1774470104226409700,7.00640966796875,-0.01799657754600048,0.04013277217745781,-0.04486973583698273
1774470104236436500,7.0164365234375,-0.017800303176045418,0.04020734131336212,-0.049129463732242584
1774470104246463500,7.02646337890625,-0.01936730556190014,0.0399002768099308,-0.04745353385806084
1774470104256490800,7.03649072265625,-0.017966749146580696,0.03606506064534187,-0.050332412123680115
1774470104266517800,7.046517822265625,-0.017677530646324158,0.04312429949641228,-0.04585403949022293
1774470104276544500,7.05654443359375,-0.011857458390295506,0.045573875308036804,-0.04976142942905426
1774470104286570500,7.066570556640625,-0.004436027258634567,0.04827219247817993,-0.04821200296282768
1774470104296597500,7.076597412109375,0.000023169501218944788,0.05548323318362236,-0.04723542183637619
1774470104306624800,7.086624755859375,-0.0023156185634434223,0.0521518848836422,-0.040109336376190186
1774470104316651500,7.096651611328125,0.005286108236759901,0.1381877064704895,-0.21569953858852386
1774470104326678500,7.106678466796875,0.1229243278503418,0.5716677904129028,-0.9673802256584167
1774470104336705800,7.116705810546875,0.16911232471466064,0.6819945573806763,-0.9067800045013428
1774470104346732500,7.126732666015625,0.05974855273962021,0.5438052415847778,-0.41227757930755615
1774470104356758500,7.136758544921875,-0.08704355359077454,0.24104191362857819,-0.12861230969429016
1774470104366785500,7.14678564453125,-0.12880244851112366,-0.03843926638364792,-0.037220340222120285
1774470104376812800,7.156812744140625,-0.14317579567432404,-0.2106693536043167,0.1991083025932312
1774470104386839600,7.166839599609375,-0.19894053041934967,-0.27140167355537415,0.5212786197662354
1774470104396866600,7.176866455078125,-0.22145995497703552,-0.20956040918827057,0.5503337383270264
1774470104406893600,7.1868935546875,-0.17886455357074738,-0.14049799740314484,0.4497562348842621
1774470104416920600,7.196920654296875,-0.11505894362926483,-0.05885026603937149,0.28854256868362427
1774470104426946600,7.206946533203125,0.019887421280145645,0.06137148290872574,0.1907811313867569
1774470104436973600,7.2169736328125,0.0027358653023838997,0.027784759178757668,0.24707983434200287
1774470104447000600,7.22700048828125,0.03761794790625572,0.011275557801127434,0.15550915896892548
1774470104457027600,7.237027587890625,-0.037890657782554626,-0.022401446476578712,0.11796551942825317
1774470104467054600,7.2470546875,-0.214757040143013,-0.09392303228378296,0.18735338747501373
1774470104477081600,7.25708154296875,-0.25921639800071716,-0.03290468826889992,0.2051645964384079
1774470104487108600,7.267108642578125,-0.17107561230659485,0.0037771612405776978,0.1792304664850235
1774470104497134600,7.277134521484375,0.0410907119512558,0.018031731247901917,0.18764206767082214
1774470104507161600,7.28716162109375,0.20310437679290771,-0.014119015075266361,0.18766923248767853
1774470104517188600,7.297188720703125,0.2681387662887573,-0.016568856313824654,0.19191165268421173
1774470104527215400,7.30721533203125,0.20916573703289032,-0.009724798612296581,0.18619011342525482
1774470104537242600,7.31724267578125,0.11157312989234924,-0.011347196996212006,0.23609748482704163
1774470104547269600,7.32726953125,-0.013718209229409695,-0.059550680220127106,0.30393537878990173
1774470104557296600,7.337296630859375,-0.11877938359975815,-0.11227007955312729,0.36165353655815125
1774470104567322400,7.347322265625,-0.08479557931423187,-0.07241108268499374,0.28335288166999817
1774470104577349600,7.357349609375,-0.15848737955093384,-0.19699962437152863,0.38511359691619873
1774470104587376600,7.367376708984375,-0.1994135081768036,-0.2551127076148987,0.4817426800727844
1774470104597403600,7.377403564453125,-0.04542340710759163,-0.05257239565253258,0.24819409847259521
1774470104607430700,7.3874306640625,-0.059351205825805664,0.0008431567694060504,0.2175656110048294
1774470104617457700,7.397457763671875,-0.04506601020693779,0.07667214423418045,0.08622463047504425
1774470104627484700,7.407484619140625,0.038289863616228104,0.11300298571586609,0.05975867062807083
1774470104637510700,7.4175107421875,-0.0009411611245013773,0.0520634688436985,0.08066501468420029
1774470104647537400,7.427537353515625,-0.06905549764633179,-0.06856387853622437,0.13792911171913147
1774470104657564400,7.437564453125,-0.12471023947000504,-0.17755001783370972,0.10978295654058456
1774470104667591400,7.44759130859375,-0.1923081874847412,-0.22628773748874664,0.07617945969104767
1774470104677618400,7.457618408203125,-0.2381736785173416,-0.1564663052558899,0.01155758649110794
1774470104687645400,7.4676455078125,-0.24533146619796753,-0.01324150338768959,-0.060990650206804276
1774470104697672400,7.47767236328125,-0.20355844497680664,0.18393787741661072,-0.13330505788326263
1774470104707698400,7.487698486328125,-0.16472077369689941,0.3818267285823822,-0.1384979635477066
1774470104717725200,7.49772509765625,-0.14195527136325836,0.4861648380756378,-0.0740707665681839
1774470104727752400,7.50775244140625,-0.11467891186475754,0.44579052925109863,-0.040354080498218536
1774470104737779500,7.517779541015625,-0.11336890608072281,0.2996516823768616,-0.0503755547106266
1774470104747806200,7.52780615234375,-0.07807988673448563,0.197479248046875,-0.10342173278331757
1774470104757833500,7.53783349609375,-0.0035774242132902145,0.13938292860984802,-0.17812207341194153
1774470104767860500,7.547860595703125,0.039739422500133514,0.10088320076465607,-0.17762911319732666
1774470104777886500,7.557886474609375,0.04008669778704643,0.10080517083406448,-0.12387027591466904
1774470104787913200,7.567913330078125,0.0029561088886111975,0.10853978991508484,-0.07346250116825104
1774470104797940500,7.5779404296875,0.0013145363191142678,0.10885617882013321,-0.08328530192375183
1774470104807967500,7.587967529296875,0.05024346336722374,0.09333287924528122,-0.13290691375732422
1774470104817994200,7.597994140625,0.0329827181994915,0.10767373442649841,-0.10064990818500519
1774470104828021200,7.608021240234375,0.03568209707736969,0.06988400965929031,-0.07572831958532333
1774470104838048500,7.618048583984375,0.026313096284866333,0.042502451688051224,-0.06076481193304062
1774470104848074500,7.628074462890625,0.02690858021378517,-0.06432625651359558,-0.0681484267115593
1774470104858101200,7.638101318359375,0.019110843539237976,-0.12150326371192932,-0.06388816982507706
1774470104868128300,7.648128173828125,0.054969508200883865,-0.1064675897359848,-0.08693596720695496
1774470104878155500,7.658155517578125,0.11305917799472809,-0.05548882484436035,-0.10032767057418823
1774470104888182500,7.6681826171875,0.2096661478281021,0.0013323795283213258,-0.0800708681344986
1774470104898209300,7.678209228515625,0.3185127377510071,-0.024163393303751945,-0.06787198781967163
1774470104908235300,7.6882353515625,0.4096207916736603,-0.0712270438671112,-0.055393751710653305
1774470104918262500,7.698262451171875,0.4742962121963501,-0.10670061409473419,-0.045214083045721054
1774470104928289500,7.70828955078125,0.5115647315979004,-0.19748617708683014,-0.05627339333295822
1774470104938316300,7.71831640625,0.4308989346027374,-0.20648179948329926,-0.014388260431587696
1774470104948343300,7.72834326171875,0.28742271661758423,-0.1661684662103653,0.06132833659648895
1774470104958370600,7.73837060546875,0.1337338238954544,-0.03900598734617233,0.15999525785446167
1774470104968397300,7.748397216796875,0.019843213260173798,0.05654077231884003,0.21167629957199097
1774470104978423300,7.75842333984375,-0.07505746930837631,0.0646895170211792,0.22483152151107788
1774470104988450300,7.7684501953125,-0.13932301104068756,-0.023332752287387848,0.14624296128749847
1774470104998477600,7.7784775390625,-0.1679019182920456,-0.02652668207883835,0.16900207102298737
1774470105008504300,7.78850439453125,-0.07317168265581131,-0.046172287315130234,0.19394657015800476
1774470105018531300,7.79853125,0.15889696776866913,-0.08771440386772156,0.07358953356742859
1774470105028558600,7.80855859375,0.30146369338035583,-0.049608830362558365,0.0432681106030941
1774470105038585300,7.81858544921875,0.2396235167980194,0.035040806978940964,0.04072026535868645
1774470105048611300,7.828611328125,0.09727701544761658,0.06467486917972565,0.021144432947039604
1774470105058638300,7.838638427734375,0.0528152771294117,0.003753725439310074,-0.011797270737588406
1774470105068665600,7.84866552734375,-0.028011394664645195,0.0008452873444184661,0.013732856139540672
1774470105078692400,7.8586923828125,-0.08750774711370468,-0.07140707224607468,0.04743782430887222
1774470105088719400,7.86871923828125,-0.09573424607515335,-0.06528899073600769,0.06428657472133636
1774470105098746400,7.878746337890625,-0.0647377148270607,-0.03446369990706444,0.05973683297634125
1774470105108773400,7.8887734375,-0.04650997743010521,-0.008332498371601105,0.050218693912029266
1774470105118799400,7.89879931640625,-0.028115257620811462,-0.0037180392537266016,0.02768888510763645
1774470105128826400,7.908826416015625,-0.01525804866105318,-0.009356217458844185,0.002043976215645671
1774470105138853400,7.918853271484375,-0.010162089951336384,-0.024262461811304092,-0.02058517001569271
1774470105148880400,7.92888037109375,-0.010295780375599861,-0.034339599311351776,-0.028424184769392014
1774470105158907400,7.938907470703125,-0.01925891637802124,-0.03157816454768181,-0.0308681670576334
1774470105168934400,7.948934326171875,-0.021515678614377975,-0.02008928917348385,-0.026309633627533913
1774470105178961200,7.958961181640625,-0.02785426750779152,-0.008165784180164337,-0.02816612459719181
1774470105188987400,7.9689873046875,-0.03892476111650467,0.004570250865072012,-0.03197391331195831
1774470105199014400,7.979014404296875,-0.026510436087846756,0.03168975189328194,-0.013546967878937721
1774470105209041400,7.98904150390625,-0.03464533016085625,-0.0017856494523584843,-0.07343853265047073
1774470105219068400,7.999068359375,-0.035600073635578156,-0.00974690355360508,-0.06776466965675354
1774470105229095400,8.009095458984374,-0.0308668352663517,-0.017470071092247963,-0.07062996178865433
1774470105239122400,8.019122314453124,-0.032827988266944885,-0.02286909706890583,-0.07881305366754532
1774470105249148400,8.0291484375,-0.03329510614275932,-0.02110874652862549,-0.08170924335718155
1774470105259175400,8.039175537109376,-0.03713218867778778,-0.013246030546724796,-0.07143557071685791
1774470105269202400,8.049202392578126,-0.04685565456748009,-0.008700813166797161,-0.06290466338396072
1774470105279229400,8.0592294921875,-0.044864144176244736,0.00035952674807049334,-0.05217238888144493
1774470105289256400,8.06925634765625,-0.04664313420653343,0.006474144756793976,-0.04879683256149292
1774470105299283500,8.079283447265626,-0.03847096115350723,0.014239922165870667,-0.045876678079366684
1774470105309310500,8.089310546875,-0.03358938544988632,0.019172629341483116,-0.04411846026778221
1774470105319336400,8.09933642578125,-0.023363113403320312,0.014463627710938454,-0.047862064093351364
1774470105329363500,8.109363525390625,-0.019305521622300148,0.012540026567876339,-0.05308372527360916
1774470105339390200,8.11939013671875,-0.006471747532486916,0.00794341042637825,-0.06267376989126205
1774470105349417500,8.12941748046875,-0.004207528196275234,0.0007134608458727598,-0.06622083485126495
1774470105359444500,8.139444580078125,-0.009300025179982185,0.014988536946475506,-0.058043062686920166
1774470105369471200,8.14947119140625,-0.0038637141697108746,0.027475032955408096,-0.059792760759592056
1774470105379498500,8.15949853515625,-0.004671184346079826,0.03580273687839508,-0.05200913920998573
1774470105389524500,8.1695244140625,0.002912965603172779,0.041482195258140564,-0.058874234557151794
1774470105399551500,8.179551513671875,-0.004376638680696487,0.04038150981068611,-0.05248770862817764
1774470105409578200,8.189578125,-0.004963333252817392,0.03344104811549187,-0.057309363037347794
1774470105419605500,8.19960546875,-0.004344148561358452,0.018750784918665886,-0.05374285578727722
1774470105429632500,8.209632568359375,0.006338057108223438,0.01085637602955103,-0.04917580261826515
1774470105439659300,8.2196591796875,0.013919011689722538,0.004325772635638714,-0.04418397322297096
1774470105449685200,8.229685302734374,0.014121145009994507,0.0009414274245500565,-0.0315089225769043
1774470105459712500,8.23971240234375,0.01458799745887518,0.007900533266365528,-0.023554062470793724
1774470105469739500,8.249739501953124,0.012938168831169605,0.02130528911948204,-0.015995211899280548
1774470105479766300,8.259766357421874,0.01071043498814106,0.03759584575891495,-0.0121852932497859
1774470105489793300,8.269793212890624,0.006452839355915785,0.04566336050629616,-0.013768808916211128
1774470105499820500,8.279820556640624,0.0006836334359832108,0.05344298481941223,-0.01883494108915329
1774470105509847300,8.289847412109374,-0.005091431550681591,0.05078035593032837,-0.02046559378504753
1774470105519873300,8.299873291015626,-0.003528155852109194,0.04579199105501175,-0.02426033280789852
1774470105529900300,8.309900390625,-0.006428338121622801,0.031925976276397705,-0.022336997091770172
1774470105539927600,8.319927490234376,-0.006873086094856262,0.02105548419058323,-0.02105042338371277
1774470105549954300,8.329954345703126,-0.0037763623986393213,0.016277240589261055,-0.009499229490756989
1774470105559981300,8.339981201171875,-0.006985737942159176,0.021705295890569687,0.0027318706270307302
1774470105570008300,8.35000830078125,-0.005938583053648472,0.021810490638017654,0.008478173054754734
1774470105580034600,8.36003466796875,-0.008190551772713661,0.026699520647525787,0.009916014038026333
1774470105590061300,8.370061279296875,-0.009061938151717186,0.027878502383828163,0.00577905960381031
1774470105600088300,8.38008837890625,-0.014118748717010021,0.030231671407818794,0.007526093162596226
1774470105610115300,8.390115234375,-0.017105218023061752,0.021885324269533157,-0.0002282329078298062
1774470105620142300,8.400142333984375,-0.014073474332690239,0.013341904617846012,-0.0035981968976557255
1774470105630169300,8.41016943359375,-0.01338744442909956,0.003427221905440092,-0.002019474981352687
1774470105640196400,8.4201962890625,-0.013373329304158688,-0.004218979738652706,-0.0026434536557644606
1774470105650222300,8.430222412109375,-0.009629989974200726,-0.013052418828010559,-0.0037031255196779966
1774470105660249300,8.440249267578125,-0.0076209018006920815,-0.018629077821969986,-0.006688262801617384
1774470105670276000,8.450276123046875,-0.005078381858766079,-0.023563116788864136,-0.010496582835912704
1774470105680303400,8.460303466796875,-0.0027241474017500877,-0.019938021898269653,-0.009671268984675407
1774470105690330400,8.470330322265625,0.0027212179265916348,-0.01895345188677311,-0.010113620199263096
1774470105700357000,8.480357177734374,0.004780640359967947,-0.01667138747870922,-0.014445784501731396
1774470105710384000,8.490384033203124,0.0057066213339567184,-0.02009062096476555,-0.013836453668773174
1774470105720410000,8.50041015625,0.0009872338268905878,-0.022408369928598404,-0.015223427675664425
1774470105730437400,8.510437255859374,-0.0019590212032198906,-0.025552231818437576,-0.009888849221169949
1774470105740464000,8.520464111328126,-0.0017238641157746315,-0.032339565455913544,-0.0004005394293926656
1774470105750491100,8.5304912109375,-0.006512760184705257,-0.03713112324476242,0.0057194046676158905
1774470105760518400,8.540518310546876,-0.009781524538993835,-0.04508199170231819,0.009295497089624405
1774470105770545200,8.550545166015626,-0.010834005661308765,-0.042390067130327225,0.005636313930153847
1774470105780571100,8.560571044921875,-0.010205233469605446,-0.03666160628199577,-0.0009046758059412241
1774470105790598100,8.57059814453125,-0.010466222651302814,-0.02847158908843994,-0.00561021501198411
1774470105800625400,8.58062548828125,-0.012646553106606007,-0.026186596602201462,-0.009227320551872253
1774470105810652200,8.590652099609375,-0.008855276741087437,-0.03278511017560959,-0.012044412083923817
1774470105820679200,8.60067919921875,-0.003939081449061632,-0.03837375342845917,-0.007102384231984615
1774470105830706200,8.6107060546875,-0.0025843314360827208,-0.04412991181015968,-0.004737763665616512
1774470105840733200,8.620733154296875,0.0005688511882908642,-0.048660747706890106,0.0002860235108528286
1774470105850759200,8.63075927734375,0.0013315805699676275,-0.050397660583257675,0.004391552414745092
1774470105860786200,8.6407861328125,-0.004321777727454901,-0.04795234650373459,0.010446782223880291
1774470105870813200,8.650813232421875,-0.008613461628556252,-0.04713049530982971,0.0157102532684803
1774470105880840200,8.660840087890625,-0.010745322331786156,-0.04797844588756561,0.011953066103160381
1774470105890867200,8.6708671875,-0.014782141894102097,-0.04735419899225235,0.011806858703494072
1774470105900894200,8.680894287109375,-0.013858557678759098,-0.05361555889248848,0.009924535639584064
1774470105910920200,8.690920166015625,-0.00965715479105711,-0.05560467392206192,0.009750098921358585
1774470105920947200,8.700947265625,-0.006164418999105692,-0.056104548275470734,0.0037023264449089766
1774470105930974200,8.71097412109375,-0.005145493429154158,-0.051534563302993774,-0.0032775523141026497
1774470105941001200,8.721001220703124,-0.00315984059125185,-0.04057645425200462,-0.0027531760279089212
1774470105951028200,8.7310283203125,-0.0033997914288192987,-0.03068014793097973,-0.002935868687927723
1774470105961055200,8.74105517578125,-0.002430667169392109,-0.024164725095033646,0.0006013417732901871
1774470105971082200,8.751082275390624,0.0015342470724135637,-0.022707177326083183,0.00737402681261301
1774470105981108200,8.761108154296876,0.002487658755853772,-0.022354042157530785,0.01257837563753128
1774470105991135200,8.77113525390625,0.0022567627020180225,-0.025414546951651573,0.018188856542110443
1774470106001162200,8.781162353515626,-0.00472577940672636,-0.030113959684967995,0.01563781499862671
1774470106011189200,8.791189208984376,-0.003674363251775503,-0.03325995057821274,0.014336861670017242
1774470106021216300,8.80121630859375,-0.009135707281529903,-0.038899462670087814,0.00643659383058548
1774470106031243300,8.8112431640625,-0.010075004771351814,-0.03909200802445412,-0.004277302883565426
1774470106041269200,8.821269287109375,-0.005540706682950258,-0.03731008619070053,-0.016714798286557198
1774470106051296300,8.831296142578125,-0.007487210910767317,-0.028862807899713516,-0.02899543195962906
1774470106061323300,8.8413232421875,-0.00977486651390791,-0.02046665921807289,-0.03208949416875839
1774470106071350300,8.851350341796875,-0.012491556815803051,-0.012775450013577938,-0.035723377019166946
1774470106081377300,8.861377197265625,-0.009499495849013329,-0.01745702140033245,-0.03350922465324402
1774470106091404300,8.871404296875,-0.014050837606191635,-0.023435285314917564,-0.03458753973245621
1774470106101431000,8.88143115234375,-0.01967703178524971,-0.02335379272699356,-0.031063910573720932
1774470106111457000,8.89145703125,-0.01998649165034294,-0.024107733741402626,-0.03356408700346947
1774470106121484300,8.901484375,-0.022591594606637955,-0.019514579325914383,-0.03711754083633423
1774470106131511300,8.91151123046875,-0.023637153208255768,-0.009920008480548859,-0.04044755920767784
1774470106141538000,8.9215380859375,-0.022368421778082848,-0.0027177559677511454,-0.048772066831588745
1774470106151565300,8.9315654296875,-0.018546519801020622,-0.007453389000147581,-0.05734558030962944
1774470106161592300,8.94159228515625,-0.01613129861652851,-0.015854330733418465,-0.05734504759311676
1774470106171618300,8.951618408203124,-0.01780696026980877,-0.02262222208082676,-0.05853495001792908
1774470106181645000,8.96164501953125,-0.016642093658447266,-0.030355775728821754,-0.05464859679341316
1774470106191672300,8.97167236328125,-0.016658606007695198,-0.03242238983511925,-0.05139634385704994
1774470106201699300,8.98169921875,-0.021830463781952858,-0.03332759812474251,-0.045583464205265045
1774470106211726000,8.99172607421875,-0.021390775218605995,-0.03256433457136154,-0.05073561519384384
1774470106221753000,9.001753173828124,-0.01793745532631874,-0.025255288928747177,-0.053224872797727585
1774470106231779300,9.011779296875,-0.01503807120025158,-0.018996594473719597,-0.05826623737812042
1774470106241806300,9.021806396484376,-0.014393586665391922,-0.024814004078507423,-0.058334413915872574
1774470106251833000,9.0318330078125,-0.0068267472088336945,-0.031213313341140747,-0.05838208273053169
1774470106261860000,9.041860107421876,-0.004945756401866674,-0.03942383825778961,-0.06143806129693985
1774470106271887400,9.051887451171876,-0.005603823345154524,-0.04386332631111145,-0.06063858047127724
1774470106281914000,9.0619140625,-0.0031158984638750553,-0.04610704258084297,-0.052498094737529755
1774470106291941000,9.071941162109376,-0.002950516063719988,-0.04734914004802704,-0.05204455927014351
1774470106301967000,9.081967041015625,-0.006339921150356531,-0.0494767390191555,-0.049904175102710724
1774470106311994400,9.091994384765625,-0.012052934616804123,-0.04447798430919647,-0.04773822799324989
1774470106322021000,9.102021240234375,-0.016379239037632942,-0.04310059919953346,-0.04471713677048683
1774470106332048100,9.112048095703125,-0.0180588960647583,-0.04256317391991615,-0.03947550430893898
1774470106342075100,9.1220751953125,-0.02190450020134449,-0.04187288135290146,-0.030223948881030083
1774470106352102400,9.132102294921875,-0.022046180441975594,-0.04358982294797897,-0.021864019334316254
1774470106362128400,9.14212841796875,-0.014723019674420357,-0.048719603568315506,-0.014302239753305912
1774470106372155100,9.152155029296875,-0.010889398865401745,-0.05704863741993904,-0.014739531092345715
1774470106382182100,9.16218212890625,-0.00926407240331173,-0.06601922959089279,-0.013553625904023647
1774470106392209400,9.17220947265625,-0.00936101097613573,-0.061466023325920105,-0.012546684592962265
1774470106402236200,9.182236083984375,-0.005332713946700096,-0.05837755650281906,-0.007523163687437773
1774470106412263200,9.19226318359375,-0.006176136899739504,-0.055983640253543854,-0.0015568839153274894
1774470106422290400,9.20229052734375,-0.007203850895166397,-0.05824040248990059,0.003725496120750904
1774470106432316400,9.21231640625,-0.010101635940372944,-0.05380411073565483,0.010194048285484314
1774470106442343200,9.22234326171875,-0.014185859821736813,-0.05365949869155884,0.015541409142315388
1774470106452370200,9.2323701171875,-0.01242444571107626,-0.04770653694868088,0.027586087584495544
1774470106462397400,9.2423974609375,-0.012949620373547077,-0.04887672886252403,0.03542723134160042
1774470106472424200,9.252424072265624,-0.009191900491714478,-0.050689008086919785,0.04309846833348274
1774470106482451200,9.262451171875,-0.009326656349003315,-0.05451544001698494,0.050339069217443466
1774470106492477200,9.272477294921876,-0.007059241179376841,-0.051233094185590744,0.04905809089541435
1774470106502504200,9.282504150390626,-0.003677292726933956,-0.047872982919216156,0.05546645447611809
1774470106512531200,9.29253125,-0.0010077401529997587,-0.04055275395512581,0.054431814700365067
1774470106522558200,9.30255810546875,0.004852545913308859,-0.03576119244098663,0.057913102209568024
1774470106532585200,9.312585205078125,0.004810734186321497,-0.03159654140472412,0.06147534400224686
1774470106542612200,9.3226123046875,0.011180749163031578,-0.031857531517744064,0.06276218593120575
1774470106552638200,9.33263818359375,0.013411412946879864,-0.02937120385468006,0.06665386259555817
1774470106562665200,9.342665283203125,0.017582722008228302,-0.030106503516435623,0.07134901732206345
1774470106572692200,9.352692138671875,0.020658673718571663,-0.029168272390961647,0.07254210859537125
1774470106582719200,9.36271923828125,0.02076706290245056,-0.027909928932785988,0.07006244361400604
1774470106592746200,9.372746337890625,0.015366706065833569,-0.02640417590737343,0.06112487241625786
1774470106602773200,9.382773193359375,0.005629123654216528,-0.03043939918279648,0.05350210517644882
1774470106612799200,9.39279931640625,-0.0033513219095766544,-0.034700989723205566,0.04940563440322876
1774470106622826200,9.402826171875,-0.0059987702406942844,-0.03683790937066078,0.04933426156640053
1774470106632853200,9.412853271484375,-0.010896855965256691,-0.03741581365466118,0.0492895171046257
1774470106642880300,9.42288037109375,-0.006871488410979509,-0.03569408133625984,0.04543432593345642
1774470106652907000,9.432906982421875,-0.0033073797821998596,-0.03839372843503952,0.04265931248664856
1774470106662934000,9.44293408203125,-0.0038634478114545345,-0.03580513596534729,0.038606513291597366
1774470106672961300,9.452961181640624,-0.0017560884589329362,-0.034215494990348816,0.036443762481212616
1774470106682987300,9.4629873046875,0.0013494236627593637,-0.033189110457897186,0.030119020491838455
1774470106693014300,9.47301416015625,0.00018855179951060563,-0.03381708636879921,0.021332185715436935
1774470106703041000,9.483041015625,-0.0038274950347840786,-0.0400528758764267,0.0122428173199296
1774470106713068300,9.493068359375,-0.00039015308720991015,-0.04270805045962334,0.010364756919443607
1774470106723095300,9.50309521484375,0.00493244081735611,-0.038362037390470505,0.007911186665296555
1774470106733122000,9.5131220703125,0.009843842126429081,-0.03671540319919586,0.0033625070936977863
1774470106743148000,9.52314794921875,0.015994945541024208,-0.037388917058706284,0.005029113497585058
1774470106753175000,9.533175048828125,0.018915368244051933,-0.03265488147735596,0.009548497386276722
1774470106763202300,9.543202392578126,0.02238786406815052,-0.030158434063196182,0.009782856330275536
1774470106773229000,9.55322900390625,0.02430214360356331,-0.028569858521223068,0.009741577319800854
1774470106783256000,9.563256103515625,0.022468823939561844,-0.03093021921813488,0.011137872003018856
1774470106793283300,9.573283447265625,0.026856381446123123,-0.03169188275933266,0.013513145968317986
1774470106803309300,9.583309326171875,0.025736521929502487,-0.02652881294488907,0.010551177896559238
1774470106813336000,9.593336181640625,0.030254840850830078,-0.018606973811984062,0.011176222003996372
1774470106823363000,9.603363037109375,0.03062821738421917,-0.019266905263066292,0.01031761895865202
1774470106833390300,9.613390380859375,0.02437245100736618,-0.01389823853969574,0.01818193309009075
1774470106843417000,9.6234169921875,0.02738608419895172,-0.015230884775519371,0.024527180939912796
1774470106853444000,9.633444091796875,0.026205237954854965,-0.0223830696195364,0.03533828258514404
1774470106863470000,9.643469970703125,0.025014007464051247,-0.029802903532981873,0.03676999732851982
1774470106873497300,9.653497314453125,0.024863537400960922,-0.024510934948921204,0.03188496083021164
1774470106883524000,9.663524169921875,0.02064269408583641,-0.019476229324936867,0.02629152499139309
1774470106893551000,9.673551025390625,0.02112659066915512,-0.020804880186915398,0.0261668898165226
1774470106903578000,9.683578125,0.022537000477313995,-0.02864309586584568,0.03262105956673622
1774470106913605000,9.693605224609374,0.020799288526177406,-0.03131238371133804,0.03086097724735737
1774470106923631000,9.703631103515624,0.016932910308241844,-0.03435184806585312,0.03364903852343559
1774470106933658000,9.713658203125,0.01182443555444479,-0.029447637498378754,0.02557939663529396
1774470106943685000,9.72368505859375,0.006938067264854908,-0.029148563742637634,0.018977418541908264
1774470106953712000,9.733712158203126,0.00044607947347685695,-0.028959212824702263,0.009383114986121655
1774470106963739100,9.7437392578125,-0.001130778226070106,-0.027472371235489845,0.004723116289824247
1774470106973766100,9.75376611328125,-0.006509298458695412,-0.033536653965711594,0.005878928117454052
1774470106983793000,9.76379296875,-0.0009169263648800552,-0.03790397197008133,0.013259346596896648
1774470106993819100,9.773819091796875,-0.0013078784104436636,-0.04523299261927605,0.01864772103726864
1774470107003846100,9.78384619140625,0.001213868847116828,-0.05233724042773247,0.026442792266607285
1774470107013873200,9.793873046875,-0.0013440974289551377,-0.051235225051641464,0.02766997739672661
1774470107023900200,9.803900146484375,-0.001404018490575254,-0.03720356151461601,0.024471787735819817
1774470107033927200,9.81392724609375,-0.0011515507940202951,-0.019781693816184998,0.010937602259218693
1774470107043954200,9.8239541015625,-0.0020572920329868793,-0.0022743395529687405,-0.009061139076948166
1774470107053980200,9.833980224609375,-0.006804376374930143,0.004742823541164398,-0.027967453002929688
1774470107064007200,9.844007080078125,-0.007449926808476448,0.004830175079405308,-0.04238127917051315
1774470107074034200,9.8540341796875,-0.0035143073182553053,0.0009321063989773393,-0.041607897728681564
1774470107084061200,9.864061279296875,-0.003581951605156064,-0.008489890955388546,-0.0344325415790081
1774470107094088200,9.874088134765625,0.004477306269109249,-0.011027351021766663,-0.01637418009340763
1774470107104115200,9.884115234375,0.008258196525275707,-0.02195643074810505,-0.0011283813510090113
1774470107114141200,9.89414111328125,0.008863799273967743,-0.040713075548410416,0.008944226428866386
1774470107124168200,9.904168212890625,0.005583317019045353,-0.05350290611386299,0.01495285052806139
1774470107134195200,9.9141953125,-0.000984570593573153,-0.05666940286755562,0.01050377357751131
1774470107144222000,9.924221923828124,-0.0095684714615345,-0.04474722966551781,0.010983143001794815
1774470107154249200,9.934249267578124,-0.012650281190872192,-0.03652765229344368,0.004667988512665033
1774470107164276200,9.944276123046874,-0.011211109347641468,-0.03244129568338394,-0.002855707658454776
1774470107174302200,9.95430224609375,-0.0111634386703372,-0.02581295557320118,-0.018542790785431862
1774470107184329000,9.964328857421876,-0.010490723885595798,-0.012573848478496075,-0.02437644638121128
1774470107194356200,9.974356201171876,-0.014974954538047314,-0.010913101024925709,-0.01930978149175644
1774470107204383200,9.98438330078125,-0.012763199396431446,-0.005372394807636738,-0.0017925737192854285
1774470107214410000,9.994409912109376,-0.007517571095377207,-0.005997705273330212,0.016160061582922935
1774470107224437200,10.004437255859376,-0.0001776328426785767,-0.006859770510345697,0.031247934326529503
1774470107234463200,10.014463134765625,0.004984905011951923,-0.0008253136184066534,0.03712233528494835
1774470107244490200,10.024490234375,0.0016359798610210419,0.0019238675013184547,0.03247911483049393
1774470107254517000,10.03451708984375,-0.004144677426666021,0.0006239786162041128,0.023938622325658798
1774470107264544300,10.044544189453125,-0.006987335626035929,0.0009704558760859072,0.010403105989098549
1774470107274571300,10.0545712890625,-0.009647301398217678,0.001966211711987853,0.003801928833127022
1774470107284598000,10.064597900390625,-0.004595817066729069,0.002284459536895156,-0.0022535668686032295
1774470107294624000,10.0746240234375,0.0006727144937030971,-0.003871171036735177,0.0014540859265252948
1774470107304651000,10.084651123046875,-0.003606186481192708,-0.0041614556685090065,0.01558428630232811
1774470107314678300,10.09467822265625,-0.008362325839698315,-0.0026013758033514023,0.02051938883960247
1774470107324705000,10.104705078125,-0.01104253064841032,-0.0020932445768266916,0.029472671449184418
1774470107334732000,10.11473193359375,-0.017368869855999947,-0.011236941441893578,0.04206729307770729
1774470107344759300,10.12475927734375,-0.016714265570044518,-0.02455594204366207,0.04620770737528801
1774470107354785300,10.134785400390625,-0.017006680369377136,-0.03104366920888424,0.04283455014228821
1774470107364812000,10.14481201171875,-0.020612334832549095,-0.031069235876202583,0.03510632365942001
1774470107374839000,10.154839111328124,-0.022667495533823967,-0.011245996691286564,0.030736340209841728
1774470107384866300,10.1648662109375,-0.00899962056428194,0.00535348616540432,0.033004820346832275
1774470107394893000,10.17489306640625,0.0023252058308571577,0.014910772442817688,0.03615054860711098
1774470107404920000,10.184920166015624,0.010496849194169044,0.018212294206023216,0.0344059094786644
1774470107414946000,10.194946044921876,0.011766644194722176,0.020414726808667183,0.03516517952084541
1774470107424973300,10.204973388671876,0.01059059239923954,0.012972258031368256,0.02683054842054844
1774470107435000000,10.215,0.01330115832388401,0.0010287790792062879,0.017901236191391945
1774470107445027000,10.225027099609376,0.01756940595805645,-0.018329473212361336,0.015302523970603943
1774470107455054000,10.23505419921875,0.019774237647652626,-0.028957881033420563,0.003855458227917552
1774470107465081000,10.2450810546875,0.026644926518201828,-0.035051994025707245,-0.005438441410660744
1774470107475107000,10.255107177734375,0.024401480332016945,-0.042030539363622665,-0.02112259529531002
1774470107485134000,10.265134033203125,0.01452780980616808,-0.0388864129781723,-0.03242957964539528
1774470107495161000,10.2751611328125,0.008596950210630894,-0.021201426163315773,-0.03639422729611397
1774470107505188400,10.285188232421875,0.0011025486746802926,-0.009518403559923172,-0.04368409886956215
1774470107515215000,10.295215087890625,-0.003349723992869258,-0.015969645231962204,-0.054846204817295074
1774470107525242000,10.3052421875,-0.0022064289078116417,-0.02630777098238468,-0.07151386141777039
1774470107535268000,10.31526806640625,-0.0011022823164239526,-0.02432025410234928,-0.08179313689470291
1774470107545295400,10.32529541015625,0.00618172949180007,-0.03454332798719406,-0.08498386293649673
1774470107555322000,10.335322021484375,0.013819941319525242,-0.04465668275952339,-0.07526253163814545
1774470107565349000,10.34534912109375,0.025730663910508156,-0.05422915145754814,-0.061160292476415634
1774470107575376100,10.355376220703125,0.04001719132065773,-0.055271778255701065,-0.04158765822649002
1774470107585403100,10.365403076171875,0.046974699944257736,-0.04716138541698456,-0.01757446676492691
1774470107595429000,10.37542919921875,0.045705437660217285,-0.03756362199783325,0.0032716933637857437
1774470107605456100,10.3854560546875,0.03298511356115341,-0.03597264736890793,0.026511235162615776
1774470107615483100,10.395483154296874,0.019936157390475273,-0.032160066068172455,0.04457012936472893
1774470107625510100,10.40551025390625,0.008586031384766102,-0.03104713186621666,0.06064790114760399
1774470107635537200,10.415537109375,0.004735100548714399,-0.0312868170440197,0.0757104754447937
1774470107645564200,10.425564208984374,0.007420898415148258,-0.034077275544404984,0.09193764626979828
1774470107655590100,10.435590087890626,0.012890764512121677,-0.03026043437421322,0.09916333854198456
1774470107665617200,10.4456171875,0.02064775489270687,-0.027891552075743675,0.09933724254369736
1774470107675644200,10.45564404296875,0.022291457280516624,-0.0261213481426239,0.1044880598783493
1774470107685671200,10.465671142578126,0.022905848920345306,-0.020624052733182907,0.10807453840970993
1774470107695698000,10.475697998046876,0.023919980973005295,-0.0076155755668878555,0.1187780499458313
1774470107705725200,10.48572509765625,0.025358086451888084,0.018454907462000847,0.14094007015228271
1774470107715751200,10.495751220703125,0.028388231992721558,0.050157710909843445,0.1524806171655655
1774470107725778200,10.505778076171875,0.0306955948472023,0.06616650521755219,0.16385072469711304
1774470107735805000,10.515804931640625,0.03067775070667267,0.07445532828569412,0.15799842774868011
1774470107745832200,10.525832275390625,0.030551251024007797,0.07770837843418121,0.14852236211299896
1774470107755859200,10.535859130859375,0.02515994757413864,0.0793566107749939,0.13408643007278442
1774470107765886000,10.545885986328125,0.023192936554551125,0.07342761009931564,0.11735032498836517
1774470107775912000,10.555911865234375,0.02520442195236683,0.0718531534075737,0.10223022848367691
1774470107785939200,10.565939208984375,0.025241440162062645,0.07034420222043991,0.08725634217262268
1774470107795966200,10.57596630859375,0.026323216035962105,0.08116409182548523,0.0796855092048645
1774470107805993000,10.585992919921875,0.024878451600670815,0.094031423330307,0.06631377339363098
1774470107816020200,10.596020263671875,0.024027571082115173,0.1016712337732315,0.055151935666799545
1774470107826047200,10.606047119140625,0.017236776649951935,0.10209201276302338,0.03702060133218765
1774470107836073200,10.6160732421875,0.014597051776945591,0.1037767305970192,0.01840617135167122
1774470107846100000,10.626099853515624,0.004917527083307505,0.1054966002702713,0.0009241168736480176
1774470107856127000,10.636126953125,-0.003090332029387355,0.09461279213428497,-0.014209561981260777
1774470107866154200,10.646154296875,-0.010490723885595798,0.08436627686023712,-0.03008120320737362
1774470107876181200,10.65618115234375,-0.020806478336453438,0.06965657323598862,-0.04922240599989891
1774470107886208000,10.6662080078125,-0.025593243539333344,0.06645146012306213,-0.07241561263799667
1774470107896234000,10.67623388671875,-0.032586973160505295,0.06834203749895096,-0.08958607167005539
1774470107906261200,10.68626123046875,-0.034327082335948944,0.0703953355550766,-0.10570193082094193
1774470107916288300,10.696288330078126,-0.03658437728881836,0.06682057678699493,-0.11886007338762283
1774470107926315000,10.70631494140625,-0.03200613707304001,0.053528737276792526,-0.12359863519668579
1774470107936342300,10.71634228515625,-0.025166073814034462,0.04369927570223808,-0.1235504299402237
1774470107946368300,10.7263681640625,-0.019660253077745438,0.047140348702669144,-0.11558811366558075
1774470107956395300,10.736395263671875,-0.014838334172964096,0.054916512221097946,-0.10228242725133896
1774470107966422000,10.746422119140625,-0.01540745235979557,0.05694743990898132,-0.09427403658628464
1774470107976449300,10.75644921875,-0.014802115969359875,0.05164029076695442,-0.08855915814638138
1774470107986476300,10.766476318359375,-0.021013671532273293,0.05229116603732109,-0.0869721844792366
1774470107996503000,10.7765029296875,-0.026852652430534363,0.03795457258820534,-0.0886281356215477
1774470108006529000,10.786529052734375,-0.032525185495615005,0.021409684792160988,-0.08550558239221573
1774470108016556000,10.79655615234375,-0.03495665267109871,0.013353622518479824,-0.08194573223590851
1774470108026583300,10.806583251953125,-0.03355422988533974,0.012944560497999191,-0.07696641981601715
1774470108036610000,10.816610107421875,-0.02557673305273056,0.019239207729697227,-0.06308149546384811
1774470108046637000,10.826636962890625,-0.016574716195464134,0.019655460491776466,-0.0527484305202961
1774470108056664300,10.836664306640625,-0.007756723091006279,0.020531639456748962,-0.0436292365193367
1774470108066690300,10.846690185546874,-0.0007829693495295942,0.0137200728058815,-0.035838689655065536
1774470108076717000,10.856717041015624,0.0011978897964581847,0.004230963997542858,-0.02853124402463436
1774470108086744000,10.866744140625,-0.00227886694483459,0.0039292280562222,-0.02111327461898327
1774470108096771300,10.876771240234374,-0.008135956712067127,-0.0014599448768422008,-0.01531530637294054
1774470108106798000,10.886798095703124,-0.02165176533162594,0.003796069882810116,-0.0057441722601652145
1774470108116825000,10.8968251953125,-0.027650270611047745,0.015794143080711365,-0.0005313006113283336
1774470108126851000,10.90685107421875,-0.03158269450068474,0.0369630791246891,0.0031345405150204897
1774470108136878300,10.91687841796875,-0.0361686572432518,0.04133358970284462,0.006322077941149473
1774470108146905000,10.926905029296876,-0.034865837544202805,0.03658357635140419,0.002027997048571706
1774470108156932000,10.93693212890625,-0.030284402891993523,0.02791578695178032,0.000740625080652535
1774470108166959000,10.946958984375,-0.029043368995189667,0.021857095882296562,-0.003284476464614272
1774470108176986000,10.956986083984376,-0.02997547574341297,0.008897621184587479,-0.005995041690766811
1774470108187012000,10.96701220703125,-0.03670049086213112,-0.008094144985079765,-0.009338640607893467
1774470108197039000,10.9770390625,-0.03537397086620331,-0.02436446212232113,-0.016051936894655228
1774470108207066000,10.987066162109375,-0.029797310009598732,-0.03067881613969803,-0.03231852501630783
1774470108217093000,10.997093017578125,-0.02557193860411644,-0.030434871092438698,-0.03886990249156952
1774470108227120000,11.0071201171875,-0.023388946428894997,-0.022250443696975708,-0.03958762437105179
1774470108237147100,11.017147216796875,-0.026247849687933922,-0.014254836365580559,-0.030423153191804886
1774470108247173000,11.027173095703125,-0.02833629958331585,-0.0062946476973593235,-0.019704462960362434
1774470108257200000,11.0372001953125,-0.029348300769925117,-0.003257312346249819,-0.0083085298538208
1774470108267227100,11.04722705078125,-0.02460361272096634,-0.0014418354257941246,0.003460511565208435
1774470108277254100,11.057254150390625,-0.020084228366613388,0.002353701740503311,0.007546599488705397
1774470108287281200,11.06728125,-0.014138189144432545,-0.0006748450105078518,0.012719256803393364
1774470108297308200,11.07730810546875,-0.0026578346733003855,-0.009397496469318867,0.011922972276806831
1774470108307334100,11.087334228515624,0.0034764904994517565,-0.01912495866417885,0.005916744936257601
1774470108317361200,11.097361083984374,0.007395331747829914,-0.025666747242212296,0.0010343717876821756
1774470108327388200,11.10738818359375,0.005547630600631237,-0.027993284165859222,0.0034117756877094507
1774470108337415200,11.117415283203124,0.0025537051260471344,-0.027041470631957054,0.008841694332659245
1774470108347442200,11.127442138671874,-0.004282363224774599,-0.017902567982673645,0.013702495954930782
1774470108357468200,11.13746826171875,-0.010422280989587307,-0.0129323098808527,0.025611886754631996
1774470108367495200,11.1474951171875,-0.01913534477353096,-0.01275654137134552,0.03596891835331917
1774470108377522200,11.157522216796876,-0.0197454746812582,-0.010733870789408684,0.040827058255672455
1774470108387549200,11.167549072265626,-0.024164991453289986,-0.012929114513099194,0.04333069548010826
1774470108397576200,11.177576171875,-0.021455490961670876,-0.01661040261387825,0.04344281554222107
1774470108407603000,11.18760302734375,-0.01703411154448986,-0.013585849665105343,0.03946378454566002
1774470108417629200,11.197629150390625,-0.008070443756878376,-0.01401488482952118,0.03515292704105377
1774470108427656200,11.20765625,-0.011374094523489475,-0.01194214727729559,0.03444159775972366
1774470108437683200,11.21768310546875,-0.01420663297176361,-0.010240653529763222,0.038124483078718185
1774470108447710000,11.2277099609375,-0.011457451619207859,-0.005392368417233229,0.043414853513240814
1774470108457737200,11.2377373046875,-0.012586365453898907,-0.0016173376934602857,0.05350104346871376
1774470108467764200,11.24776416015625,-0.010014018043875694,-0.008364190347492695,0.05920153856277466
1774470108477790200,11.257790283203125,-0.012662798166275024,-0.010725348256528378,0.06327058374881744
1774470108487817000,11.26781689453125,-0.007931692525744438,-0.010516024194657803,0.057140249758958817
1774470108497844200,11.27784423828125,-0.013600497506558895,-0.01486390084028244,0.05113589018583298
1774470108507871200,11.287871337890625,-0.008364456705749035,-0.017737984657287598,0.04559385031461716
1774470108517898000,11.29789794921875,-0.010693124495446682,-0.013107013888657093,0.04620211571455002
1774470108527925200,11.30792529296875,-0.010779943317174911,-0.010509632527828217,0.044027380645275116
1774470108537951200,11.317951171875,-0.007911186665296555,-0.010515225119888783,0.04358822479844093
1774470108547978200,11.327978271484374,-0.006629939656704664,-0.014856976456940174,0.03909467160701752
1774470108558005000,11.3380048828125,-0.007693872321397066,-0.013377591036260128,0.03332306817173958
1774470108568032000,11.348031982421874,-0.008156463503837585,-0.014992531388998032,0.03231799229979515
1774470108578059300,11.358059326171874,-0.009730657562613487,-0.01630653440952301,0.02882765419781208
1774470108588085200,11.368085205078126,-0.013032977469265461,-0.013556288555264473,0.02978772297501564
1774470108598112000,11.378112060546876,-0.013282249681651592,-0.015399196185171604,0.021743644028902054
1774470108608139000,11.388138916015626,-0.01061882171779871,-0.013366139493882656,0.015871107578277588
1774470108618166300,11.398166259765626,-0.010500311851501465,-0.01011228933930397,0.0141728101298213
1774470108628193000,11.408193115234376,-0.013250024989247322,-0.008726113475859165,0.013263873755931854
1774470108638220000,11.418219970703126,-0.016080167144536972,-0.00999111495912075,0.009920541197061539
1774470108648246300,11.428246337890625,-0.021433653309941292,-0.009046492166817188,0.007987619377672672
1774470108658273500,11.4382734375,-0.02611282654106617,-0.01546497642993927,0.0018128136871382594
1774470108668300300,11.44830029296875,-0.027668645605444908,-0.013949637301266193,-0.002525741932913661
1774470108678327300,11.458327392578125,-0.027364779263734818,-0.014709703624248505,-0.011539476923644543
1774470108688354600,11.4683544921875,-0.026745060458779335,-0.01630067639052868,-0.024039288982748985
1774470108698381300,11.47838134765625,-0.02286510169506073,-0.014901451766490936,-0.03574228286743164
1774470108708407300,11.4884072265625,-0.02460627630352974,-0.013109143823385239,-0.032705750316381454
1774470108718434300,11.498434326171875,-0.019393404945731163,-0.012349077500402927,-0.04087499529123306
1774470108728461600,11.508461669921875,-0.01870790682733059,-0.010277404449880123,-0.038485873490571976
1774470108738488300,11.51848828125,-0.011366104707121849,-0.013943511992692947,-0.03874606266617775
1774470108748515300,11.528515380859375,-0.008352206088602543,-0.010006560944020748,-0.030972030013799667
1774470108758541300,11.538541259765625,-0.0051596080884337425,0.0002711098059080541,-0.02521187998354435
1774470108768568300,11.548568359375,-0.00780519237741828,0.005989449098706245,-0.017358217388391495
1774470108778595300,11.55859521484375,-0.007990814745426178,0.008310927078127861,-0.014297712594270706
1774470108788622300,11.568622314453124,-0.00805979035794735,0.009467803873121738,-0.006976416800171137
1774470108798649300,11.5786494140625,-0.009639311581850052,0.01284495834261179,-0.0016943031223490834
1774470108808676600,11.588676513671874,-0.007999603636562824,0.010570086538791656,0.0003126551164314151
1774470108818702300,11.598702392578126,-0.006986270658671856,0.005544435232877731,-0.007288006599992514
1774470108828729300,11.608729248046876,-0.007450459524989128,-0.005678658373653889,-0.016268985345959663
1774470108838756400,11.61875634765625,-0.0030711572617292404,-0.011682222597301006,-0.027908064424991608
1774470108848783600,11.62878369140625,-0.0031260184478014708,-0.016107063740491867,-0.03970453515648842
1774470108858810400,11.638810302734376,0.0021369203459471464,-0.009002283215522766,-0.042027343064546585
1774470108868836400,11.64883642578125,0.007316235918551683,-0.0010980212828144431,-0.037635792046785355
1774470108878863400,11.65886328125,0.010453173890709877,0.0021339908707886934,-0.03298671171069145
1774470108888890600,11.668890625,0.01683996617794037,0.005935387220233679,-0.020855214446783066
1774470108898917400,11.67891748046875,0.019158247858285904,0.007514641620218754,-0.002251968951895833
1774470108908944400,11.6889443359375,0.02148558385670185,0.007954062893986702,0.018612300977110863
1774470108918971400,11.698971435546875,0.01961577869951725,0.005826996639370918,0.03385996073484421
1774470108928997400,11.708997314453125,0.012259063310921192,-0.0003605920064728707,0.043045204132795334
1774470108939024400,11.7190244140625,-0.0009933591354638338,-0.0016708672046661377,0.04369980841875076
1774470108949051400,11.729051513671875,-0.01549613568931818,-0.009340238757431507,0.03183942288160324
1774470108959078400,11.739078369140625,-0.028306739404797554,-0.010213222354650497,0.018753979355096817
1774470108969105400,11.74910546875,-0.04032425209879875,-0.011407650075852871,0.011144796386361122
1774470108979132400,11.75913232421875,-0.03799052536487579,-0.011451592668890953,0.015279619954526424
1774470108989158400,11.769158447265625,-0.038542866706848145,-0.005083974450826645,0.029232986271381378
1774470108999185400,11.779185302734374,-0.02953578718006611,-0.004863198380917311,0.0551370233297348
1774470109009212400,11.78921240234375,-0.016351010650396347,0.0013424995122477412,0.0741938054561615
1774470109019239400,11.799239501953124,-0.005909021943807602,0.00410419749096036,0.09197546541690826
1774470109029266400,11.809266357421874,0.003573695896193385,0.005539641249924898,0.10217057913541794
1774470109039292400,11.81929248046875,0.013158945366740227,0.008531969040632248,0.10388165712356567
1774470109049319400,11.8293193359375,0.02136307954788208,0.013434848748147488,0.10035856068134308
1774470109059346400,11.839346435546876,0.025905633345246315,0.007763114292174578,0.09209131449460983
1774470109069373400,11.84937353515625,0.023735955357551575,0.0067785438150167465,0.07724125683307648
1774470109079400200,11.859400146484376,0.01630493812263012,0.005599029827862978,0.06171635910868645
1774470109089427500,11.869427490234376,0.010483266785740852,0.0070943948812782764,0.05553436651825905
1774470109099453400,11.879453369140625,-0.0031878037843853235,0.005113801918923855,0.05742041766643524
1774470109109480400,11.88948046875,-0.01587936468422413,-0.004113784991204739,0.06118479371070862
1774470109119507200,11.899507080078125,-0.0264784786850214,-0.01565619185566902,0.0732521116733551
1774470109129534500,11.909534423828125,-0.02881593629717827,-0.020497284829616547,0.07709824293851852
1774470109139561500,11.9195615234375,-0.028740834444761276,-0.021336447447538376,0.06841234862804413
1774470109149588200,11.929588134765625,-0.028018850833177567,-0.01780696026980877,0.048357944935560226
1774470109159614200,11.9396142578125,-0.01600559800863266,-0.010124805383384228,0.03038826584815979
1774470109169641500,11.949641357421875,-0.006630206014961004,-0.009255283512175083,0.01655181311070919
1774470109179668500,11.95966845703125,0.001612011343240738,-0.011569304391741753,0.009910421445965767
1774470109189695200,11.9696953125,0.004898352082818747,-0.01266865711659193,0.009127185679972172
1774470109199722200,11.97972216796875,0.006717557553201914,-0.011198059655725956,0.0083660539239645
1774470109209748200,11.989748291015625,0.0020722055342048407,-0.012973588891327381,0.013008209876716137
1774470109219775500,11.999775390625,-0.004457865376025438,-0.011028682813048363,0.02105095610022545
1774470109229802500,12.009802490234375,-0.009316536597907543,-0.008471248671412468,0.02714000828564167
1774470109239829200,12.019829345703124,-0.016453275457024574,-0.012766394764184952,0.029275862500071526
1774470109249856500,12.0298564453125,-0.020674917846918106,-0.02112552523612976,0.031918250024318695
1774470109259883500,12.039883544921874,-0.02455434575676918,-0.030523553490638733,0.02894030511379242
1774470109269909500,12.049909423828124,-0.027668112888932228,-0.03478807583451271,0.020742563530802727
1774470109279936300,12.059936279296876,-0.03346315026283264,-0.03279443085193634,0.010634801350533962
1774470109289963500,12.069963623046876,-0.027278758585453033,-0.030361101031303406,0.0021939121652394533
1774470109299990500,12.079990478515626,-0.01798246242105961,-0.031492944806814194,-0.006708502769470215
1774470109310017300,12.090017333984376,-0.009006544016301632,-0.03453081101179123,-0.015296398662030697
1774470109320043300,12.100043212890625,0.0013464941876009107,-0.03140133246779442,-0.009297095239162445
1774470109330070500,12.110070556640625,0.01088913343846798,-0.022120747715234756,-0.007028614636510611
1774470109340097500,12.12009765625,0.014908907935023308,-0.01786581613123417,-0.001493234420195222
1774470109350124300,12.130124267578125,0.01679788902401924,-0.017824536189436913,-0.000651675509288907
1774470109360151300,12.1401513671875,0.015361911617219448,-0.018803248181939125,0.0009262474486604333
1774470109370178600,12.150178466796875,0.008392419666051865,-0.025910958647727966,-0.0012974920682609081
1774470109380204500,12.16020458984375,0.00012064119800925255,-0.03724111244082451,-0.00407623453065753
1774470109390231300,12.170231201171875,-0.00794554129242897,-0.03467781841754913,-0.011039335280656815
1774470109400258300,12.18025830078125,-0.013391172513365746,-0.036664802581071854,-0.010550378821790218
1774470109410285600,12.19028564453125,-0.012281700037419796,-0.03495718538761139,-0.00606455048546195
1774470109420312300,12.200312255859375,-0.01275654137134552,-0.028790902346372604,-0.00138031633105129
1774470109430338300,12.21033837890625,-0.01158847939223051,-0.02454395964741707,-0.0028248149901628494
1774470109440365300,12.220365234375,-0.008704275824129581,-0.02508617751300335,-0.003992611076682806
1774470109450392600,12.230392578125,-0.0020812603179365396,-0.0267740897834301,-0.00830799713730812
1774470109460419300,12.24041943359375,0.0030306773260235786,-0.02690272033214569,-0.00896579772233963
1774470109470446300,12.2504462890625,0.002174204681068659,-0.02701936662197113,-0.011796738021075726
1774470109480473300,12.260473388671874,0.004750280175358057,-0.022483471781015396,-0.01170432660728693
1774470109490499600,12.27049951171875,0.00541447289288044,-0.020892765372991562,-0.006940464023500681
