time,seconds_elapsed,z,y,x
1774470626306950000,0.073949951171875,-0.4945955350458622,-0.05700140563845634,0.3333776758685708
1774470626316963000,0.083963134765625,-0.3718628893464804,-0.21140052471160886,0.504457149977237
1774470626326975700,0.093975830078125,-0.05140402402281761,-0.34207536158710716,0.6313059988237917
1774470626336989000,0.103989013671875,0.3312462167978287,-0.2844210449978709,0.2596342481352389
1774470626347001900,0.114001953125,0.6227829390197992,-0.2791068642377853,-0.22711247310638427
1774470626357014800,0.124014892578125,0.6100771867036819,-0.5017018599197268,-0.4054468867793679
1774470626367028000,0.134028076171875,0.2944189996600151,-0.7575678415626287,-0.2991499737046659
1774470626377041000,0.144041015625,-0.2450619712948799,-0.817258632415533,-0.40377515417486426
1774470626387054800,0.154054931640625,-0.7357482239425182,-0.6425707585513591,-0.6833180717423558
1774470626397067800,0.16406787109375,-0.9620803603261708,-0.5081874225467443,-0.8499898124113678
1774470626407081000,0.1740810546875,-0.2967325372993946,-0.8581462308600545,-0.5884932775355876
1774470626417094000,0.184093994140625,0.5187433033525943,-0.49324470495879646,-0.47452451465874906
1774470626427106800,0.19410693359375,0.4628682713955641,-0.18533260199725626,-0.7799410014122724
1774470626437120000,0.2041201171875,0.23343349282145498,0.014618892461061477,-0.5510435445852577
1774470626447133000,0.2141328125,-0.1223848551750183,0.1700393174059689,-0.026923516630381346
1774470626457145900,0.224145751953125,-0.44924248162508007,0.25102818622291084,0.17676570305153727
1774470626467158800,0.23415869140625,-0.8180342929631471,0.3293947437122464,0.15874080153927206
1774470626477172000,0.244171875,-1.0902888070881367,0.2757679290734231,-0.06314516909047961
1774470626487185000,0.254184814453125,-1.2731056268721819,0.3677525314182043,-0.48842561423927544
1774470626497197800,0.26419775390625,-1.9042220944732426,0.5768960709832608,-1.2235095290541649
1774470626507211000,0.2742109375,-2.4780828894138334,0.7168231587201357,-1.9836822924181818
1774470626517224000,0.284223876953125,-2.802262236565351,1.452795985198766,-2.2105942745164033
1774470626527236900,0.29423681640625,-2.6635394100517034,1.9150529928281903,-2.0411822952285408
1774470626537249800,0.304249755859375,-1.7783382912665604,2.062306916321814,-1.2091583476185799
1774470626547263000,0.314262939453125,-0.5123088863909244,1.6976555657893417,-0.46662703940719363
1774470626557276000,0.32427587890625,-0.34731998424232,1.6610986900255083,-1.3393945008158683
1774470626567288800,0.334288818359375,-0.7193284195393324,1.6814266077831386,-2.7394632505640386
1774470626577302000,0.344302001953125,-0.9669611181050538,0.42755642725676296,-3.2635484994664785
1774470626587315000,0.35431494140625,1.1813093867063522,0.05939794538617134,-1.6557082291588185
1774470626597328000,0.364327880859375,6.305233532395959,-0.07361760939657688,0.1415714939430356
1774470626607340800,0.3743408203125,7.883032884705067,-2.6323656886309386,0.5865151093304157
1774470626617354000,0.38435400390625,7.405256382513046,-2.3160738798588514,0.9430702471688389
1774470626627366700,0.39436669921875,7.3323238327711815,-0.2637681330695748,0.5270835539355874
1774470626637379800,0.4043798828125,6.1148594291001555,0.8500757371291517,0.2915236435446888
1774470626647394000,0.41439404296875,4.96664158013463,2.0109563760519027,0.36573256989791986
1774470626657406700,0.42440673828125,2.7483663957267996,1.829287264998257,0.35330212739184497
1774470626667420000,0.434419921875,-0.017260346880555152,1.0359145350828767,0.6419057918366045
1774470626677432800,0.444432861328125,-1.4096996246635913,-0.15741875915527342,1.4068958192892371
1774470626687445800,0.45444580078125,-2.7134242616832256,-1.670698293019831,3.131123019531369
1774470626697459000,0.464458984375,-5.145069225049019,-2.9642917043864725,7.532733007869124
1774470626707472000,0.474471923828125,-4.512334800857305,-2.8271429953217506,7.268368370211124
1774470626717485000,0.484485107421875,-3.399031613406539,-1.4514255736283956,2.7283126187354325
1774470626727497700,0.494497802734375,-2.6951807489842174,0.1337039754383266,-1.1211983246147632
1774470626737511000,0.504510986328125,-1.9615227753192186,0.1231847733810544,-1.6854843587413428
1774470626747523800,0.51452392578125,-2.6124457671523094,0.14930106528177856,-1.8428864590227603
1774470626757536800,0.524536865234375,-2.8663030393213034,0.16383958598300813,-2.131603593779355
1774470626767550000,0.534550048828125,-0.2070686329871416,-0.16067805321216583,-1.395610309034586
1774470626777563000,0.54456298828125,0.2880038719207048,-0.5019010357536375,-0.7840341159448028
1774470626787576000,0.554576171875,-0.023964812955260276,-0.019188830725103617,-0.3912172858968377
1774470626797588700,0.564588623046875,-0.3271715147048235,0.22470716553032397,-0.1527159152265638
1774470626807602000,0.574601806640625,-0.3611941958159208,0.08427227440178393,-0.1106530624575913
1774470626817614800,0.58461474609375,-0.4307254126816988,-0.25488208517208694,-0.08947071982771157
1774470626827627800,0.594627685546875,-0.6485831507086753,-0.17682853915467858,-0.37316651929095385
1774470626837641000,0.604640869140625,-0.5540817432373761,0.1754050822228193,-0.5461082801401614
1774470626847654000,0.61465380859375,-0.3978951562255621,0.23948548633679745,-0.5794315808102488
1774470626857667000,0.6246669921875,-0.38709669883549214,0.17997487435638904,-0.4442106249377131
1774470626867679700,0.6346796875,-0.529355882781744,0.20742562973126769,-0.17911752687469124
1774470626877693000,0.64469287109375,-0.6636123775362968,0.2776473130792379,0.010472001914680003
1774470626887705900,0.654705810546875,-0.5241565605729818,0.3213970229566097,-0.02429097616970539
1774470626897719800,0.6647197265625,-0.26365561260581016,0.5479406101338565,-0.1320366267479956
1774470626907733000,0.67473291015625,0.049931028860807414,0.3653609601065516,-0.37560119909197087
1774470626917746000,0.684745849609375,0.6841577374368906,0.17307810057997702,-0.5213156380586326
1774470626927758800,0.6947587890625,1.0720523086518048,0.17177929294109343,-0.5235363828480243
1774470626937771800,0.704771728515625,1.075078962996602,0.15391396590471268,-0.3928462022729218
1774470626947785000,0.714784912109375,0.8736983125180006,0.06595175094380974,-0.17912234918028117
1774470626957798000,0.7247978515625,0.5809218193680048,0.006538023466616869,0.20856383998095987
1774470626967810800,0.734810791015625,0.36639819419980046,0.08363529167249799,0.5916684004403651
1774470626977824000,0.744823974609375,0.3097369803011417,0.11496303461119532,0.6321411344736814
1774470626987837000,0.7548369140625,0.3643745794177055,0.2630126385271549,0.4213628333136439
1774470626997849900,0.764849853515625,0.28129706775844093,0.3675460490606725,0.31489407080337406
1774470627007862800,0.77486279296875,0.11514613609313964,0.2518329267345369,0.25494506740570066
1774470627017876000,0.7848759765625,0.0013034838140010834,0.1366845986843109,-0.008175561540573835
1774470627027889000,0.794888916015625,0.019849194329977036,0.15797040168866514,-0.1873075553320348
1774470627037901800,0.80490185546875,-0.015710779350996018,0.2338387126214802,-0.0767677439905703
1774470627047915000,0.8149150390625,-0.011464812344312666,0.303018777962029,0.2553017718888819
1774470627057928000,0.824927978515625,0.19561083490550518,0.33902138084396716,0.520532524856925
1774470627067940900,0.83494091796875,0.39825872884094715,0.29327962036654354,0.4942851539224386
1774470627077953800,0.844953857421875,0.31121991233527657,0.25187735039815307,0.350287309615314
1774470627087966700,0.854966796875,0.16319558899104594,0.15230769975185393,0.20673092546537516
1774470627097979600,0.864979736328125,0.004287468060851097,0.11650266526862978,0.3090932755701244
1774470627107992600,0.87499267578125,-0.32394144674241543,0.23611805573031305,0.3481305699728429
1774470627118005500,0.885005615234375,-0.6375064608991146,0.24275690922290086,0.3710873749293387
1774470627128018700,0.895018798828125,-0.7477022811084986,0.22176015229299664,0.20831578350402413
1774470627138031400,0.90503125,-0.5532312638878822,0.2981881429351866,-0.0827415577031672
1774470627148045600,0.915045654296875,-0.5100216522365808,0.4043560228027403,-0.09249949306435883
1774470627158058800,0.925058837890625,-0.5909376019477844,0.3794073133766651,0.22372224614620206
1774470627168071400,0.935071533203125,-0.24801848301291465,0.20897285917326808,-0.16688808683343231
1774470627178084600,0.945084716796875,-0.051425651332736015,-0.05854863508045673,-0.3257494460124522
1774470627188097800,0.955097900390625,-0.016221066960692403,-0.17722075334265827,-0.21321349241770804
1774470627198110500,0.9651103515625,-0.0362029477596283,-0.08841653459966183,-0.2125942645408213
1774470627208123600,0.97512353515625,-0.12842530438303948,0.047088937302678824,-0.331922143298015
1774470627218136600,0.985136474609375,-0.5536912826150655,0.12960136242508888,0.04948613463751971
1774470627228149800,0.995149658203125,-1.0221084203094244,0.014382891748100519,0.4339296886157244
1774470627238162400,1.005162353515625,-0.9650853873610495,0.37866657801195974,0.5230225881069899
1774470627248175600,1.015175537109375,-0.8701157778561115,0.5994276362650096,1.338565356515348
1774470627258188500,1.0251884765625,-0.5856091004014015,0.10224603024870156,0.9889094036061317
1774470627268201500,1.035201416015625,-0.29618834742009637,-0.25068112635090944,0.37169253774825484
1774470627278214700,1.045214599609375,-0.4135393000811338,-0.5336532877147198,0.44371736152805386
1774470627288227600,1.0552275390625,-0.7332166596382856,-0.26126374903321264,0.11691111820535734
1774470627298240800,1.06524072265625,-0.7771621843487024,0.33100451699644323,-0.36504367431830614
1774470627308253400,1.07525341796875,-0.1520610315144062,0.6045400108426809,-0.629553163807094
1774470627318266600,1.0852666015625,0.5254384170770645,0.019038170208036897,-0.016856076928600666
1774470627328279600,1.095279541015625,-0.12363339393138885,-0.7331362878784536,0.4621118270050734
1774470627338292500,1.10529248046875,-1.814648791053891,-1.3570195893555879,0.9100070587396621
1774470627348305700,1.1153056640625,-3.290118234223127,-1.5828686183974146,1.0281586602590977
1774470627358318600,1.125318603515625,-4.436151140365005,-1.361282799758017,0.8748283394612372
1774470627368332500,1.13533251953125,-4.409911952736974,-0.5193979678690434,-0.05651742151379585
1774470627378345500,1.145345458984375,-2.718967867285013,1.034927277611196,-0.34920828220695255
1774470627388358700,1.155358642578125,-0.6259907951503991,2.8032614767357704,0.8883703964710236
1774470627398371600,1.16537158203125,1.037422893819213,4.1907980771690605,0.8510179864153266
1774470627408384500,1.175384521484375,1.1274234827399252,4.5034483145684,-0.24055121587216852
1774470627418397700,1.185397705078125,1.1515209821641446,3.5691599242702123,-0.5794269046351314
1774470627428410600,1.19541064453125,-0.001267243456840515,1.3403998784661293,0.26625498144924636
1774470627438423600,1.205423583984375,-1.612323553201556,0.39371085627824065,0.33198943638056516
1774470627448436500,1.2154365234375,-2.347068737581372,1.5519111700758337,-0.23855858075022696
1774470627458449700,1.22544970703125,-2.2432079656124113,3.0967870346873996,-0.25284955643117424
1774470627468462600,1.235462646484375,-2.1919068174421787,3.107176326754689,0.05748363619744777
1774470627478475500,1.2454755859375,-1.6417735195696352,2.411646715953946,1.0282973380774258
1774470627488488700,1.25548876953125,0.11081132175922394,2.458838675239682,2.3868209022551774
1774470627498501600,1.265501708984375,0.33525019174218174,1.6908803725659847,3.1763936553657053
1774470627508514600,1.2755146484375,-0.8291542373925447,0.4387099816948175,3.2927211101979017
1774470627518527500,1.285527587890625,-2.0309347497195005,-0.2777875983327627,2.184796108654141
1774470627528540700,1.295540771484375,-2.5216993283003566,-0.1295166067510843,1.35115975741148
1774470627538553600,1.3055537109375,-2.1463298921376466,-0.05717091698646545,0.9438596439808606
1774470627548566500,1.31556640625,-1.9099875261321664,-1.6294050363838672,-0.06541793632805347
1774470627558579700,1.325579833984375,-1.0980059573367238,-3.0165181507080794,0.23426702103614805
1774470627568593400,1.335593505859375,2.0006798967093227,-2.9906869593590497,1.2150114575609563
1774470627578606600,1.345606689453125,4.25676487955153,-1.228220190963149,-0.25919600284844635
1774470627588619800,1.355619873046875,3.433999466413259,-0.22352467774748802,-1.3311863521799445
1774470627598632400,1.365632568359375,1.1815402728527784,0.1663005692690611,-0.9889189751520753
1774470627608645600,1.375645751953125,-0.09840484465062618,1.1568132433533669,-0.7856459350556134
1774470627618658600,1.385658447265625,-1.2634680299550294,2.3739853860795495,-0.567806609468162
1774470627628671700,1.395671630859375,-2.453860886827111,3.248909441000223,-0.6843073750406503
1774470627638684400,1.405684326171875,-2.9727722402229904,3.561814529943466,-0.6598375351727008
1774470627648697600,1.415697509765625,-3.3527520927906034,3.4597885721862314,0.7489027429394424
1774470627658710800,1.425710693359375,-2.798872301866114,1.58876147582829,4.251136518275738
1774470627668723500,1.435723388671875,0.5628244371414184,0.7569505864471197,5.434259091883898
1774470627678736600,1.445736572265625,2.7586598262041804,0.006444353833794593,2.623357037267089
1774470627688749600,1.45574951171875,0.9498365264333783,0.8296914130091667,1.015824956125766
1774470627698762800,1.4657626953125,-0.4131812804237008,0.38864451279938217,1.7626457782246172
1774470627708775400,1.475775390625,0.694705434936285,-0.9772785139799117,2.103325886061042
1774470627718788600,1.48578857421875,1.0710422548264265,-0.38486265617311,2.4992338139921424
1774470627728801500,1.495801513671875,0.6162057525865733,0.7723200050145387,2.45210118367821
1774470627738814700,1.505814697265625,-0.4623690897017717,2.5738977175712585,1.1231360146790743
1774470627748827600,1.51582763671875,-1.7213368856281042,3.9222447556495665,-0.4082698352456093
1774470627758840600,1.525840576171875,-3.0965748532414437,4.402707135924697,-2.1307050375044345
1774470627768854500,1.5358544921875,-2.7686078042447564,4.0847511933326714,-2.1125810595318675
1774470627778867500,1.545867431640625,1.210035276583582,1.765017621922493,-1.0445309722587466
1774470627788880600,1.555880615234375,2.9477047267228365,1.2128688925743103,-0.8120739232540131
1774470627798893600,1.5658935546875,2.1104513540267944,1.383832777479291,-1.4847715245217084
1774470627808906500,1.575906494140625,0.9836575474925339,1.287284958872199,-3.851274153630435
1774470627818919700,1.585919677734375,-0.636354952776432,0.7765384994924068,-5.1379550091296435
1774470627828932600,1.5959326171875,-2.135278336769342,-0.8668114756137132,-5.000506440335512
1774470627838945500,1.605945556640625,-0.9015821986131369,0.07232640054225921,-4.804288871708512
1774470627848958500,1.61595849609375,-0.5567599494706839,1.6638684469997882,-3.3986610265284773
1774470627858971600,1.6259716796875,-1.4770225178301333,3.7132577218204736,-1.7776625839620828
1774470627868984600,1.635984619140625,-1.007672556265071,4.476624605050683,2.5618027906298635
1774470627878997500,1.64599755859375,2.3128987569540738,-1.7048095291972158,17.657116832143068
1774470627889010700,1.6560107421875,3.2293074994295834,-5.020261526641249,13.088432952076197
1774470627899023600,1.666023681640625,2.887728104665875,-1.8691198014318942,5.014520352640748
1774470627909036500,1.67603662109375,1.2826467776775359,-0.1895090108990669,4.473472863021493
1774470627919049500,1.686049560546875,0.33883331092596053,0.0983253496736288,2.4608210812285543
1774470627929062700,1.696062744140625,-0.1690086226513609,0.5992243687778711,0.7649348631992936
1774470627939075600,1.70607568359375,-0.6440870083332061,1.8568319822669028,-0.11803367422819137
1774470627949088500,1.716088623046875,-0.2852145151968114,2.579224465551972,-0.9137848237127065
1774470627959101700,1.726101806640625,-2.2359762607932088,2.8322271667182446,-2.957289716669917
1774470627969114600,1.736114501953125,-3.981323552083969,3.2686493297368284,-4.547521557311714
1774470627979128600,1.746128662109375,-3.078611326527595,-0.21613632106184957,-2.369189237844199
1774470627989141800,1.756141845703125,-2.6514216867566107,-2.3866046291559933,-2.6465029350548983
1774470627999154700,1.76615478515625,-1.7151836236953735,-2.432294367185235,-3.9358018640980124
1774470628009167600,1.776167724609375,-0.3887561564803123,-1.4683493820309639,-4.070290706303715
1774470628019180500,1.7861806640625,0.2761361778639257,0.8678548471868037,-3.1767963909476995
1774470628029193700,1.79619384765625,0.9723298055313527,2.01457924272418,-1.9469024215534327
1774470628039206400,1.806206298828125,-1.1954326046049595,2.4683114369839427,-0.40609965159967537
1774470628049219600,1.816219482421875,-0.4819359599590301,2.0331202770650387,2.407910452035069
1774470628059232800,1.826232666015625,-0.3116346306160092,0.6305933205097913,5.295270307910442
1774470628069245700,1.83624560546875,1.716984243376553,0.3957932155102491,7.606643462732434
1774470628079258600,1.846258544921875,3.7665202331915495,0.14254676871597766,7.300885322934389
1774470628089271600,1.856271484375,2.9093559991061686,0.26955577656030655,3.3501857494339347
1774470628099284500,1.866284423828125,1.4585808522105217,-2.1767367208391426,-0.0035447599347680804
1774470628109297400,1.87629736328125,2.0530966049060226,-4.174488747403025,-2.4303458634659645
1774470628119310300,1.886310302734375,1.3584310635887085,-3.062701225212216,-2.8027351147741077
1774470628129323500,1.896323486328125,0.3470248006880283,-3.7771453798413273,-1.6074430876836179
1774470628139336700,1.906336669921875,-0.12441563035026192,-3.5394507224440575,-0.3572952886812389
1774470628149349400,1.916349365234375,-0.28264322167038913,-3.5866257305949922,0.03793291335739195
1774470628159363600,1.926363525390625,0.31081951484084125,-3.6865935867786406,0.0643568829677999
1774470628169376300,1.936376220703125,0.6484240876894444,-3.7374037365615367,0.0597905979655683
1774470628179389400,1.946389404296875,0.9472001135151833,-3.39330329888761,-0.06687522246427834
1774470628189402600,1.956402587890625,1.1187655445098876,-2.506060445141792,-0.129953865657188
1774470628199415600,1.96641552734375,0.6248620833814144,-1.7378922991096972,0.05737630336545407
1774470628209428500,1.976428466796875,0.04268295742869377,-1.2687082686960696,0.2712365692541003
1774470628219441400,1.98644140625,-0.07480418883264064,-0.8201508467257023,0.22785583881959318
1774470628229454600,1.99645458984375,0.09968195191435515,-0.44066579193770883,-0.0763383761299774
1774470628239467300,2.00646728515625,0.31381212078556414,-0.17728256653249264,-0.46424065572731193
1774470628249480400,2.01648046875,0.871845378127694,-0.0009983633875846863,-0.9661305124998092
1774470628259493600,2.02649365234375,1.3665584020733832,0.2705839505642652,-1.5615277242049574
1774470628269506600,2.036506591796875,1.4502156133167445,0.4247334787905216,-1.8597648208484052
1774470628279519500,2.04651953125,1.3005880925595759,0.4492103329211473,-1.415713185864687
1774470628289532400,2.056532470703125,0.6620148792117834,0.4692097493767738,-0.5913157876104116
1774470628299545600,2.066545654296875,-0.004341244074702263,0.6998597489595413,-0.0009742701259441673
1774470628309558300,2.076558349609375,-0.0945961000174284,0.8977800298511981,0.025763058016262948
1774470628319572500,2.086572509765625,-0.006428864003717899,0.9510685524463653,0.05532594670690596
1774470628329585700,2.096585693359375,-0.23400924688279628,0.9030559244275093,0.23278903917176647
1774470628339598300,2.106598388671875,-0.5552028562217951,0.9593979893743991,0.588946062804386
1774470628349611500,2.116611572265625,-0.4038691160686314,1.265382339143753,0.45660975899007167
1774470628359624400,2.12662451171875,0.06346212608516216,1.4190169035851954,0.2320802333152853
1774470628369637400,2.136637451171875,0.2389443651974201,1.6204092445015907,0.33462709140777586
1774470628379650600,2.146650634765625,0.13221242170631886,2.1285124958962203,0.43854755767472087
1774470628389663500,2.15666357421875,0.06023161973133683,2.252156995743513,0.04133011804763227
1774470628399676700,2.1666767578125,0.10109203790798783,1.9750760843753814,-0.30453442495567723
1774470628409689300,2.176689453125,0.009770356451347469,1.4097843803375958,-0.8065208191715181
1774470628419702500,2.18670263671875,-0.21470431549735366,0.46254152365922924,-0.8738898895673454
1774470628429715500,2.196715576171875,-0.5737684404820204,-0.7229518707334995,-0.07810469168275594
1774470628439728400,2.206728271484375,-0.13260755850374698,-2.0734066947460175,0.03282316912822425
1774470628449741300,2.2167412109375,-0.3738829969972372,-2.9642694925546644,-0.8209958461824804
1774470628459755500,2.226755615234375,-1.7464824328005313,-2.541177351230383,-0.6273604030031711
1774470628469768400,2.2367685546875,-2.575420981615782,-1.7207295673847198,-0.042129524797014886
1774470628479781400,2.246781494140625,-2.1545804186105726,-2.202500692170858,-0.40473088399711993
1774470628489794600,2.256794677734375,-1.097382564741373,-2.621462017300725,1.3635478220805526
1774470628499807200,2.26680712890625,1.1047099850200115,0.970017583066225,7.1075833494931455
1774470628509820400,2.2768203125,1.1725463806666434,0.26188626484572886,1.286300331749022
1774470628519833600,2.28683349609375,0.6972843455135822,-0.27913609033226966,-2.336431315971911
1774470628529846500,2.296846435546875,0.19039046990871428,-0.143555068975687,-0.24861275911163538
1774470628539859500,2.306859375,-1.1603776578366756,-0.3843056068122387,1.5678575117483735
1774470628549872400,2.316872314453125,-2.871100210469961,-0.7393436180859804,2.6554426128357647
1774470628559885600,2.326885498046875,-3.1596646388828753,-0.6445154628783464,2.2972893921509385
1774470628569899500,2.3368994140625,-2.2095886046051976,-0.31514614586830136,1.4501327573388814
1774470628579912400,2.346912353515625,-0.9823686036605387,-0.5622895996123553,0.29262554037198424
1774470628589925600,2.356925537109375,0.07745148847103119,-0.6890081000775098,-0.38846754879727957
1774470628599938300,2.366938232421875,0.10028758965730666,-0.4028314435839653,-0.7242970017321407
1774470628609951500,2.376951416015625,-0.34578554121665656,0.18339198932349682,-0.4779743628516793
1774470628619964400,2.38696435546875,-0.3614297216048464,0.5455605831295252,-1.274341890668869
1774470628629977300,2.396977294921875,-0.15904022287726402,0.5465197835505008,-1.7542276400998233
1774470628639990500,2.406990478515625,-0.3161854257881641,0.2135609176158905,-0.9599781273499131
1774470628650003500,2.41700341796875,-1.1420166562378407,0.12062778237462043,0.15865180808156729
1774470628660016600,2.4270166015625,-2.5184429568529128,0.6743477065622806,0.33008389502018687
1774470628670029300,2.437029296875,-3.2538691092342136,1.477981718251109,-0.6091606563806533
1774470628680043500,2.44704345703125,-2.3003514100700615,1.3238824589073657,-1.9783482379138468
1774470628690056400,2.457056396484375,-0.49997719155158843,0.5608867470771074,-1.611389194960892
1774470628700069400,2.4670693359375,0.26362580198943614,-0.49291035843789577,-1.206103343962133
1774470628710082600,2.47708251953125,1.879457655572891,-1.2808178086847066,-1.076869353544712
1774470628720095500,2.487095458984375,2.445779871702194,-1.2796405815988778,-1.5464023435264824
1774470628730108400,2.4971083984375,1.74471308504045,-1.085742980352044,-0.6116816992908716
1774470628740121300,2.507121337890625,0.8265660475302488,-0.7655483189225196,0.48875382328033445
1774470628750134500,2.517134521484375,-0.23557459650337695,0.10915537124574184,0.6119646078854799
1774470628760147500,2.5271474609375,-1.1173124230921267,1.0787310557633638,-0.08685264628380536
1774470628770161400,2.537161376953125,-0.3499779514051974,0.9177981510072946,-0.47084319579750294
1774470628780174600,2.547174560546875,1.2141630240380763,-0.4606137704670429,-0.3674637776046991
1774470628790187300,2.557187255859375,2.6461703420996665,-2.33610661406219,-0.3751818046361208
1774470628800200400,2.567200439453125,3.708741121178865,-3.07830386801362,-0.5852931663200259
1774470628810213600,2.577213623046875,4.098137913650274,-2.784166607904434,-1.742456538285315
1774470628820226300,2.587226318359375,3.748135850717127,-1.9927385823160408,-2.675265211419761
1774470628830239500,2.597239501953125,2.7851538653761145,-1.4299515545755623,-2.8371397809401153
1774470628840252400,2.60725244140625,2.420654198274016,-1.104331360965967,-2.816582146079838
1774470628850265600,2.617265625,3.396255718952417,-1.276854165750742,-3.01959390489161
1774470628860278300,2.6272783203125,4.163939588598907,-2.128356428551674,-2.6244687979012724
1774470628870292500,2.63729248046875,3.751750241822004,-2.7683465229600666,-1.4899445432454346
1774470628880305400,2.647305419921875,3.1122184125751255,-2.436602293512225,-1.0106973839789628
1774470628890318300,2.657318359375,2.8099960456877944,-1.518825185292959,-1.133166410306096
1774470628900331500,2.66733154296875,2.5751006636202334,-0.2777437591910362,-1.2642471976339815
1774470628910344400,2.677344482421875,2.2651626077890397,0.8657090673297643,-1.4060232742384076
1774470628920357400,2.687357421875,2.526538585025072,1.2888760274559259,-1.3251079090490936
1774470628930370600,2.69737060546875,2.95592251996994,0.8385404898971319,-1.159431316897273
1774470628940383500,2.707383544921875,2.959159602195024,0.08239128296077251,-0.7834978171110153
1774470628950396400,2.717396484375,2.740144510826468,-0.49859892546832557,-0.04057897088676691
1774470628960410600,2.72741064453125,2.069178847917914,-1.0771522621393204,0.40727322542369365
1774470628970423600,2.737423583984375,1.9469354470402,-1.6389204682260752,0.4250520432204008
1774470628980436500,2.7474365234375,1.7663082462549209,-1.8138035724014043,0.6746177556753158
1774470628990449400,2.757449462890625,1.2086071434766053,-1.3621283106714486,0.6901368118464947
1774470629000462600,2.767462646484375,0.9993716878443956,-0.7067518465608358,0.17802257124483584
1774470629010475500,2.7774755859375,0.5570522834807634,0.42290100266635416,-0.09570961421728133
1774470629020488400,2.787488525390625,0.48180151992440223,3.0215438699156043,-2.3258090919315815
1774470629030501400,2.79750146484375,-0.9073813864111899,1.7388760494500397,-3.1270234752580524
1774470629040514600,2.8075146484375,-2.5005431430250407,3.788845169985294,-3.773710436956584
1774470629050528500,2.817528564453125,-6.010889351537823,3.517119648170471,-2.092370338413119
1774470629060541400,2.82754150390625,-1.991927265933156,0.38901159254610534,0.12270195830017327
1774470629070554400,2.837554443359375,-0.1412982299596071,-0.8759177421331406,0.1690975065112114
1774470629080567300,2.8475673828125,-0.4578992508113384,-0.5799339773744344,-0.3186620450347662
1774470629090580500,2.85758056640625,-1.6982792506456375,-0.08011457020044327,0.9245268747404217
1774470629100593700,2.86759375,-2.0605244168192147,0.053288522595167157,0.8429302492886781
1774470629110606300,2.8776064453125,-1.3643056547105312,0.6076940909594297,-0.2890241548791528
1774470629120619500,2.88761962890625,-1.618640481263399,0.821316967895627,-0.002968494416773319
1774470629130632400,2.897632568359375,-2.2633231174021957,0.8769108448237181,0.2612412449404597
1774470629140645400,2.907645263671875,-2.922003883755207,0.9933148720234631,0.3060948244065046
1774470629150659600,2.91765966796875,-3.367487889629602,1.8838924231499432,0.14476678285300731
1774470629160672500,2.927672607421875,-2.0724398955404757,2.400202946397662,-1.1538713446825741
1774470629170685400,2.937685546875,-0.5340805732160806,2.034821820285916,-2.7184526112392544
1774470629180698600,2.94769873046875,0.28933541278541086,0.8736188175410031,-3.257321880036592
1774470629190711600,2.957711669921875,0.12946341525912283,-0.49434009898006914,-1.8510759029582142
1774470629200724500,2.967724365234375,-0.6805658504247665,-1.1169523576080798,-0.894093158032
1774470629210737400,2.9777373046875,-0.7658037549883127,-1.3256073830038309,-1.0251137396052479
1774470629220750600,2.98775048828125,0.5849433299690485,-1.1854209136784075,-1.0045081739500163
1774470629230763500,2.997763427734375,1.7418594491750001,-1.2223989374637603,-1.5756054955266414
1774470629240777500,3.007777587890625,1.7311697128564119,-0.8413292438328266,-1.7647886354722082
1774470629250790700,3.017790771484375,2.6459406249970194,-0.6645452744722365,-2.7480276652917266
1774470629260803600,3.027803466796875,-1.4783534741729496,0.9518249237716198,1.8075147013902664
1774470629270816500,3.03781640625,-5.378822451344132,2.755831324779987,5.776601872235537
1774470629280829400,3.047829345703125,-3.5567911488234993,1.65483816832602,3.404640977720916
1774470629290842600,3.057842529296875,0.6945370926320552,1.1290420238524674,0.8312038633987308
1774470629300855600,3.06785546875,1.0130635285884142,0.9552361935198307,-0.3128327543593943
1774470629310868500,3.077868408203125,0.14333938039839267,0.5115928470760583,0.2255376250050962
1774470629320881700,3.087881591796875,0.35665655238628385,0.04749824875593185,0.684996234087646
1774470629330895400,3.097895263671875,-0.3946095586836338,0.2485954061180353,1.0940957981556654
1774470629340908500,3.107908447265625,-1.374334296771884,-0.30430794098973274,-0.03927183381095528
1774470629350921700,3.117921630859375,-3.3084301359832287,-0.8546504976987839,0.8591280815042555
1774470629360934400,3.127934326171875,-0.1409025086402893,-1.966245712187886,-0.0513864153008908
1774470629370947600,3.137947509765625,0.017269699230790136,-0.8737070803463458,1.4397536944046616
1774470629380960500,3.14796044921875,-1.673270481595397,-0.1639244877874851,2.0073446152955294
1774470629390973400,3.157973388671875,-0.8493892161697149,0.36458676086366176,0.46619493160024283
1774470629400986400,3.167986328125,-0.6379892759799957,1.0385556972414254,-0.27647220488525925
1774470629410999600,3.17799951171875,-0.7151970188230276,1.0069032523930073,-0.27281952759660777
1774470629421013500,3.188013427734375,-1.0566448961615562,0.6214782861620187,-0.2704917422361672
1774470629431026400,3.1980263671875,0.3829822492539882,-0.36344402056932446,0.49490723134353753
1774470629441039600,3.20803955078125,1.3944997174441813,-0.9111422002494335,1.1724933353051543
1774470629451052500,3.218052490234375,-1.3397241711616514,-0.5747106897681952,0.8341801027305423
1774470629461065500,3.2280654296875,-1.5299252559781074,-0.35025486865043637,0.45963908021599054
1774470629471078700,3.23807861328125,-0.3205401138663292,0.05727087022960186,0.3619523207068443
1774470629481091600,3.248091552734375,0.7230097384005785,0.30699615716040135,0.292967193416506
1774470629491104500,3.2581044921875,1.6898019296795128,0.062466685307025906,0.22989625860601662
1774470629501117400,3.268117431640625,1.1452677669882774,-0.10210136108100414,0.07326748078465462
1774470629511131600,3.278131591796875,0.2781552626013756,-0.1680816074669361,0.04179039250314236
1774470629521144600,3.28814453125,0.027702245917916295,-0.5050117151200771,0.00404006917104125
1774470629531157500,3.298157470703125,0.011609189251065254,-1.3725795620590449,0.10352277218624949
1774470629541170700,3.308170654296875,-0.5549953509509563,-1.5781237619578838,-0.12521905568763614
1774470629551183400,3.318183349609375,-0.4490326382666826,-1.1154776088804006,-0.7706481262795627
1774470629561196500,3.328196533203125,0.4085281939208507,-1.0842466043144463,-1.1087252120107411
1774470629571209500,3.33820947265625,1.0951298173785209,-0.9012439065694808,-1.291725571668148
1774470629581222700,3.34822265625,0.27715397660434243,-0.46817163850069043,-0.8083323986381292
1774470629591235300,3.3582353515625,0.34529753850400446,-1.0509814635723829,-0.9061525752685964
1774470629601249500,3.36824951171875,0.6506096881002187,-2.2233114250093697,-1.7007105694457887
1774470629611262500,3.378262451171875,-0.5337865587055682,-2.079758109599352,-1.1193147028252481
1774470629621275400,3.388275390625,-0.56781976121068,0.9384551545888185,1.9110713758461175
1774470629631288600,3.39828857421875,0.6194657772958279,2.01027131639719,2.0873659542545675
1774470629641301500,3.408301513671875,0.4828711949825287,1.1865753444105387,-0.5688615253485739
1774470629651314400,3.418314453125,0.6326788946121931,0.9187813168257475,0.05066504222378134
1774470629661327600,3.42832763671875,-0.04160509906411171,0.10834347034096717,0.9908571036078035
1774470629671340500,3.438340576171875,0.28383389275968074,-1.1983996377170085,1.46654247873947
1774470629681353500,3.448353515625,-0.30201895326972006,-0.7655050643026828,0.3014809008702636
1774470629691367700,3.45836767578125,-0.8141320248275995,-0.021282442003488538,0.17680208953917026
1774470629701380600,3.468380615234375,-0.3992103304773569,0.8125883025169373,0.21804259307458995
1774470629711393500,3.4783935546875,0.342584772413969,2.3691718483179804,0.8882105297341942
1774470629721406500,3.488406494140625,-0.3094827132791281,2.997523527380824,0.022610183475911615
1774470629731419600,3.498419677734375,-0.05511749158799648,1.3087345741361378,0.566709023489803
1774470629741432300,3.508432373046875,0.7259563132464886,0.11197685840725898,0.9625357028782368
1774470629751445500,3.518445556640625,0.001536123526096344,-0.36129707166850566,0.9064943744435906
1774470629761458700,3.528458740234375,-0.8386573942750691,-0.461370726314187,0.6433829517170786
1774470629771471600,3.5384716796875,-0.6079653091162442,0.11181377680003643,0.030144962894916534
1774470629781484500,3.548484619140625,0.43155134211182594,-0.4860030632674694,-0.3316062822818756
1774470629791498500,3.55849853515625,-2.2032839515030385,-1.1491852326929568,-0.4501335852459073
1774470629801511400,3.568511474609375,-1.8211825767368077,-0.979898341089487,-0.7720920414775609
1774470629811524600,3.578524658203125,-0.09116904817819595,-0.24147476045787333,-1.1019675544440746
1774470629821537500,3.58853759765625,-0.699725893446803,0.27751930278539655,-1.0011682158723474
1774470629831550700,3.59855078125,-0.7109621577322482,0.542345712736249,-0.4670116548106074
1774470629841563400,3.6085634765625,-0.1444359434634447,0.7299041740894318,-0.6063777476638555
1774470629851576600,3.61857666015625,0.09879705883860587,0.010068974071741104,-0.8765408424675464
1774470629861589500,3.628589599609375,0.6944920844465494,-0.5563701464354992,-0.5918246139153838
1774470629871602400,3.6386025390625,0.1527449221253395,0.10962474232316016,-0.17426117288470266
1774470629881615400,3.648615478515625,0.011064414849877358,0.426594011965394,0.3831578980818391
1774470629891629600,3.658629638671875,1.0445903012305497,-0.5051017314910888,1.2455465888172388
1774470629901642500,3.668642578125,-0.2836345707952976,-0.30144086112082,1.193303775882721
1774470629911655400,3.678655517578125,-0.7442401579558849,-0.8468962303102016,0.05580021315515041
1774470629921668600,3.688668701171875,-0.6455033048719168,-0.8025836258530616,-0.13176701602637766
1774470629931681500,3.698681640625,-0.34562545528411864,-0.4287894761830568,0.24890228011012075
1774470629941694500,3.708694580078125,0.23619711231589316,-0.5388140314787626,0.07598550757169723
1774470629951707600,3.718707763671875,0.6469131716698407,-1.637760192275047,-0.9668000823244451
1774470629961720600,3.728720458984375,0.33989830980896946,-0.6238955764368176,-0.15124240860790014
1774470629971733500,3.7387333984375,0.9360884254574775,1.463513047915697,-0.10376637168377638
1774470629981746400,3.748746337890625,0.16442834565639494,1.7055696999147534,1.196378653283417
1774470629991760400,3.758760498046875,1.1537889270961283,1.0667398814573883,1.4575886263027786
1774470630001773600,3.768773681640625,-0.23716449604332446,0.42231852660328145,0.09029869508445262
1774470630011786500,3.778786376953125,-0.32750352313816544,-0.16946633982360362,-0.030613749450445173
1774470630021799700,3.788799560546875,0.8731997153460979,-0.30757220348268743,0.33612142161875963
1774470630031812400,3.798812255859375,0.43759763653874395,0.3097469171732664,0.18198679870069026
1774470630041825500,3.808825439453125,0.9188818545907735,0.1629927598953247,0.12027677697986364
1774470630051838700,3.818838623046875,0.8371300385773182,-0.11767127065658568,-0.023045944544672965
1774470630061851400,3.828851318359375,0.4717097494989633,0.19247399818450212,-0.34969431215822694
1774470630071864600,3.838864501953125,0.020963293051719664,0.2524953361660242,-0.35065818875432014
1774470630081877500,3.84887744140625,0.4144026389122009,-0.45887627914994955,-0.4991115511655807
1774470630091890200,3.85889013671875,0.8879898727208375,-1.4527254041805862,-1.2958686628222464
1774470630101904000,3.86890380859375,0.5094079042524099,-1.7084578225716947,-3.007501023776829
1774470630111917000,3.8789169921875,-0.06789046392142772,-1.0218956543415785,-1.3931976949349045
1774470630121930200,3.88893017578125,-0.35082594653666016,-0.7669397732809186,0.12628098583072422
1774470630131943000,3.89894287109375,-0.1734545326769352,-1.3794500323504209,0.02548749247789383
1774470630141956000,3.9089560546875,-0.5227677365630865,-1.2340806074291466,-0.015263035583496093
1774470630151969000,3.918968994140625,-0.6452928769916295,-0.3740384798198938,-0.6106158236250281
1774470630161982000,3.92898193359375,-0.5043734172165394,0.6965455098450184,-0.5161868968680501
1774470630171995000,3.938994873046875,-0.20790742189884184,0.5913046816945076,-0.2875844774648547
1774470630182008000,3.949008056640625,-0.2503238373458385,0.8373474807202815,-0.3350391793400049
1774470630192021200,3.959021240234375,-0.27989129261374474,1.5256982859328387,-0.3219803758025169
1774470630202034000,3.969033935546875,0.44571956819593905,1.165375027732551,-0.8027665812045335
1774470630212048100,3.979048095703125,1.0905687930732966,0.9037596887826919,-2.7557407238870857
1774470630222060800,3.989060791015625,0.7988824332475661,0.9016063101410865,-0.8408601650163531
1774470630232074000,3.999073974609375,0.684630615645647,0.2158177566319704,-0.4465092572689056
1774470630242087200,4.009087158203125,0.36152035903036595,-0.050852527619898315,-0.631015345314145
1774470630252100000,4.01910009765625,0.00006079027652740478,0.20127485201656817,-1.0988172737196087
1774470630262113000,4.029113037109375,-0.44839083323180673,-0.2635121124818921,-1.5945172628760338
1774470630272126000,4.0391259765625,-0.7863730802863835,-0.9469038339823483,-1.4592764332592487
1774470630282139100,4.04913916015625,-0.46073768910765645,-0.15911182680875063,0.3146913878381252
1774470630292151800,4.05915185546875,-0.5480582451641559,0.9907111192658543,0.9697904963120818
1774470630302165000,4.0691650390625,-0.42758010039329525,0.7591790761515498,0.13769582155346868
1774470630312178200,4.07917822265625,0.017709844213724135,0.9771993112638592,0.46676907822638747
1774470630322192000,4.08919189453125,-0.1524707813590765,1.6915283150807021,1.0816674014762044
1774470630332205000,4.099205078125,0.21055238344967364,1.448538766145706,1.2122373166725038
1774470630342218000,4.109218017578125,0.8369137654781341,0.5356830399766564,0.9931108738839626
1774470630352231000,4.11923095703125,0.50314124507308,0.7696955017298459,0.8103513372451067
1774470630362244000,4.129244140625,0.45023850692510603,0.947837023179233,0.4754807924702763
1774470630372257000,4.139257080078125,0.5467284578651189,0.9060296795412898,0.3561208380743861
1774470630382270200,4.149270263671875,0.41285716303586956,0.840285872259736,0.7143842411354183
1774470630392283000,4.159282958984375,0.2089560541689396,0.7378077868208289,0.9844000364229083
1774470630402296000,4.169296142578125,-0.1783563332438469,0.08945522999763489,0.8621224410146474
1774470630412309000,4.17930908203125,-0.6318582258790731,-0.4381988173022866,0.0491734884917736
1774470630422322000,4.189322021484375,-0.8589864810764789,-0.823390851560235,-0.5978142097190022
1774470630432334800,4.1993349609375,-0.3372796517431736,-1.284961484360695,-0.43867578716427086
1774470630442349000,4.20934912109375,0.07250877137184143,-1.0498355084076523,-0.68396279938668
1774470630452362000,4.219362060546875,-0.16187223143279553,-0.3941770124852657,-0.19148820201754568
1774470630462375000,4.229375,-0.05164543156325817,0.32888124123215673,0.25355828922241924
1774470630472388000,4.23938818359375,-0.07372749951183795,0.7382581609368324,0.586861438550055
1774470630482401000,4.249401123046875,-0.5316372717171907,0.7801072978898882,0.7761226121678948
1774470630492414000,4.2594140625,-0.9605167642712592,0.5955208380848169,0.3152881846874952
1774470630502427100,4.26942724609375,-1.413484403899312,0.30140842015594244,0.08688917890191078
1774470630512440000,4.279440185546875,-1.3870429716974495,-0.3067316610053181,-0.7814549131065607
1774470630522453000,4.289452880859375,-1.268194473955035,-1.3775637802124023,-1.9367381704136728
1774470630532466000,4.2994658203125,-1.07676121699512,-2.417747370916605,-2.245108830797672
1774470630542479000,4.30947900390625,-1.1200316189229487,-2.5094372280985113,-1.9094836682632563
1774470630552491800,4.31949169921875,-1.5867010361671448,-2.4013190909460187,-1.4787845590665936
1774470630562506000,4.329506103515625,-1.7873223927110433,-2.004384011924267,-1.4536793439045548
1774470630572519200,4.339519287109375,-1.0493781200289725,-0.9534519404515623,-0.4009188879609108
1774470630582531800,4.34953173828125,-1.0616945807665585,0.034140170010924335,2.120251155768335
1774470630592545000,4.359544921875,-1.6163181757956742,-0.3751841427236795,1.251974576038122
1774470630602558200,4.36955810546875,-0.4275046970695257,-0.3241615192338824,1.254475452943146
1774470630612571000,4.37957080078125,0.0020750527083873748,0.4649336794927716,0.7674471382811665
1774470630622584000,4.389583984375,0.15263795461952687,1.282448917017877,0.09154927966743708
1774470630632597000,4.399596923828125,0.9914882411181926,0.9390233098655939,-0.4240975189745426
1774470630642610200,4.409610107421875,0.5033657014787197,0.49580637214034795,-0.8967492254987358
1774470630652622800,4.419622802734375,0.22304712336361407,0.4175181405842304,-1.1737141092717647
1774470630662636000,4.429635986328125,0.7837620210051536,0.7625809935495257,-0.650534577037394
1774470630672649000,4.43964892578125,1.7078280002355575,1.085455687843263,-0.2432379707381129
1774470630682662000,4.449661865234375,1.845667614173889,1.2682745534539221,-0.31086744563579555
1774470630692676000,4.459676025390625,1.1486094786316157,1.4608113877415656,-0.788932993902266
1774470630702689000,4.46968896484375,0.7030471468240023,1.423840378218889,-0.9277318082615733
1774470630712702000,4.479701904296875,0.9264701177626847,1.283415131701529,-0.39124855781793594
1774470630722715000,4.48971484375,0.6273240895807742,1.0265557551071047,-0.17330226472467183
1774470630732728000,4.49972802734375,0.030652327895164488,0.9922776379302144,-0.0539314966738224
1774470630742741000,4.509740966796875,-0.31265023739933967,0.5887535359069704,-0.29423575204759833
1774470630752754000,4.51975390625,-0.4864069678932428,0.0195870362624526,-0.654178778758645
1774470630762767000,4.52976708984375,-0.3264128052920103,-0.1059673888593912,-0.6374994466364383
1774470630772780000,4.539780029296875,0.17763444871008396,-0.23337241028398273,-0.3648781450256705
1774470630782793000,4.54979296875,0.7242839961200952,-0.4861819269657135,-0.38262393733561034
1774470630792806000,4.559805908203125,1.016090767455101,-0.9009168665722012,-0.46400984264612194
1774470630802819000,4.569819091796875,0.7006395011603832,-1.2810375889152288,-0.2519447165459394
1774470630812832000,4.57983203125,0.3545926055938005,-1.4272320664837956,-0.09160656281262636
1774470630822845000,4.589844970703125,0.08991700229048728,-1.4193044883549213,-0.26859862196594475
1774470630832859100,4.599859130859375,0.10640519575476645,-1.6115034689903258,-0.7842138564258814
1774470630842871800,4.609871826171875,-0.11710662251114845,-1.2369547015607356,-0.3095569475591183
1774470630852885000,4.619885009765625,0.5915460892349481,-1.0216583384543656,0.08399287293851375
1774470630862898200,4.629898193359375,0.5361480271399021,-1.2403025506839156,-0.8988950053557753
1774470630872911000,4.6399111328125,0.10143442160487175,-1.057290500588715,-1.016448494851589
1774470630882924000,4.649924072265625,0.49915831291675566,-0.9706307465285062,-1.1007489724345505
1774470630892937000,4.65993701171875,0.844122089421749,-0.840267167559266,-0.7832748220100998
1774470630902950100,4.6699501953125,0.6866629982560872,-0.7227408583313226,-0.5873980296447873
1774470630912962800,4.679962890625,0.4367337131857872,-0.537306257264316,-1.0513358299680053
1774470630922976000,4.68997607421875,0.7115490177094936,0.12508914569765328,-0.3867755040571093
1774470630932989200,4.6999892578125,-0.20264087967276573,-0.17212386859506368,-1.067067944367975
1774470630943002000,4.710002197265625,-0.4008054907143116,0.4014078405216336,-0.7686996225602925
1774470630953015000,4.72001513671875,-0.12915887935459613,0.7141282205477356,-0.04247808250635862
1774470630963028000,4.730028076171875,-0.331254984626174,0.4715680029407143,-0.6169549635186791
1774470630973042000,4.7400419921875,-0.44913551411926744,-0.22416151434630155,-1.4777008554831146
1774470630983055000,4.75005517578125,-1.0393868873685599,-0.42773733678162096,-1.3032294008485972
1774470630993068000,4.760068115234375,-1.7839309967070818,-0.17465046446323393,-0.5851895598150789
1774470631003081000,4.7700810546875,-1.592664913007617,-0.09271627762019634,0.017236673744022844
1774470631013094000,4.780093994140625,-1.2016203533291816,-0.03320025881230831,0.4116761365577578
1774470631023107000,4.790107177734375,-1.21934071893692,0.2969400425702333,0.6769815621972084
1774470631033120000,4.8001201171875,-1.1943623450249432,0.9494295530676842,1.0005698115877806
1774470631043133000,4.8101328125,-0.41754093693792815,1.041384198665619,1.2301353769347072
1774470631053146000,4.82014599609375,0.2901701100438833,0.31042846969664095,1.4347024023644626
1774470631063159000,4.830158935546875,0.04703589194118976,0.18618834204375742,1.5663533907957374
1774470631073172000,4.840171875,-0.22847616267502308,0.5436129561930895,0.8659723944410681
1774470631083185000,4.850184814453125,-0.4512777868449688,0.8078150967657566,0.17352233721613883
1774470631093198000,4.860197998046875,-0.14512334120571613,0.852095260258019,0.17177008672133087
1774470631103211300,4.870211181640625,0.6661690762817859,0.8513479490220546,0.8394776246167719
1774470631113224000,4.880223876953125,0.15606208384931086,0.8688038184747099,1.0444234202310443
1774470631123238100,4.890238037109375,-0.5289975708633661,0.7741349454820156,0.7936483319863676
1774470631133251000,4.9002509765625,-0.21214812820851803,0.24767770675122736,0.028178777388483286
1774470631143264000,4.910263916015625,-0.2673556361675262,-0.20311025075018405,-0.13358414845094083
1774470631153277200,4.920277099609375,-1.5649387016922234,-0.18575111967027186,0.591720715149492
1774470631163290000,4.9302900390625,-2.295695108696818,-0.32373043434023857,0.9794966284207999
1774470631173303000,4.940302978515625,-1.3618985935688017,-0.16698066048771143,0.6394175552174448
1774470631183316000,4.95031591796875,-0.5809007765799761,0.49522944903522725,0.487247802631557
1774470631193329200,4.9603291015625,-0.8570943837195635,0.7972790897041558,0.39164559431150553
1774470631203342000,4.970342041015625,-0.8537947576522826,0.9919035439208149,0.5827423127934336
1774470631213355000,4.98035498046875,-0.45325580891966816,1.5974328580617905,0.8240423012062906
1774470631223368200,4.9903681640625,-1.0720441253453492,1.3303802964940665,0.7505101781360805
1774470631233381000,5.000381103515625,-1.9219477207779883,1.0249854370504616,0.23687895710021256
1774470631243394000,5.01039404296875,-1.6032628793895243,1.2653358696535228,0.4475304170101881
1774470631253407000,5.020406982421875,-0.8611971428632735,1.2309472778394817,0.2402040098696947
1774470631263420200,5.030420166015625,-0.5688309840798378,0.9546659924164413,0.05235825600773096
1774470631273434000,5.04043408203125,-0.08839198468029498,0.5020408826157451,-0.493890893907845
1774470631283447000,5.050447021484375,0.06734978117346763,0.051307870171964164,-1.0689978895172476
1774470631293460200,5.060460205078125,0.06189385385513305,-0.6686357586562633,-1.3520128671094775
1774470631303473000,5.070472900390625,0.738764356893301,-0.3495139871552586,-0.6994266182392835
1774470631313486000,5.080486083984375,0.8707868089854717,0.13777239392101764,-0.10978607036471366
1774470631323499300,5.090499267578125,-0.6869681186825036,-0.02197568496465683,-0.8891010488331318
1774470631333512200,5.10051220703125,-0.7707873886197805,-0.43823301183283325,-1.9078876312434672
1774470631343525000,5.110525146484375,-0.0764700762182474,0.38202041848450896,-1.6721432311311364
1774470631353538000,5.1205380859375,0.387758962136507,1.5904726636603475,-0.750996938739717
1774470631363551200,5.13055126953125,0.271632582834363,1.7056141235783695,-0.6118938807368278
1774470631373564000,5.14056396484375,0.1593985347956419,1.2339064199060201,-1.100079987131804
1774470631383577000,5.1505771484375,0.5381394932180643,1.0482032310307026,-1.1922978137105702
1774470631393590300,5.16059033203125,0.9517653025388717,0.9700129068911075,-1.3748472147300839
1774470631403603200,5.170603271484375,0.9790630593091249,0.3683864454075694,-1.710549095762521
1774470631413616000,5.1806162109375,1.5432640455007551,0.07468231601864099,-1.8357488622277973
1774470631423629000,5.190629150390625,1.855018795365095,-0.055798751850426195,-1.9019509346708654
1774470631433642200,5.200642333984375,2.101645531758666,-0.1278401979714632,-1.47833900725618
1774470631443656200,5.21065625,2.058841578298807,-0.013361293615400791,-1.0669020862817764
1774470631453669000,5.220669189453125,1.7531027277231215,0.2815311687752604,-0.25110168985053893
1774470631463682000,5.23068212890625,1.3204647594183683,0.5148620780050754,0.5599623987738043
1774470631473695000,5.240695068359375,0.6617506753176451,0.19135230067819356,0.9269499371688812
1774470631483708200,5.250708251953125,0.38699090037345885,0.3885205941587686,1.3506252121433615
1774470631493721000,5.26072119140625,-0.07075052952766418,0.719791653136909,1.7202406148239968
1774470631503734000,5.270734130859375,-0.703899964261055,0.8290648055434227,2.2396188550792635
1774470631513747200,5.280747314453125,-1.384757491108775,1.194068038253486,2.8401383782342076
1774470631523760000,5.290760009765625,-1.7627689662128685,1.3795198827162385,3.339334685073793
1774470631533773000,5.30077294921875,-1.3697288488030432,2.0870845069646835,3.8070337376266714
1774470631543786000,5.310785888671875,-1.7313994299590587,2.5836612789556384,3.938570159767568
1774470631553799200,5.320799072265625,-2.165333283293247,2.5161288346916435,3.787105925102532
1774470631563812000,5.33081201171875,-2.365262565919757,2.1401924122959373,3.832440273822844
1774470631573825000,5.340824951171875,-2.5710604483187196,2.082570244410634,4.057045148022473
1774470631583838000,5.350837890625,0.5481745650202036,1.3749778553724288,3.4345360575079917
1774470631593851100,5.36085107421875,6.303244988927244,-2.6635645444929597,1.2826884248621762
1774470631603864300,5.3708642578125,8.8438401563555,-5.330882304039597,0.8192142234627157
1774470631613878000,5.3808779296875,8.613166191375255,-3.7314305073708294,3.1318042797937986
1774470631623891200,5.39089111328125,6.880209595102071,-1.8158119896143674,4.905269704326987
1774470631633904000,5.400904052734375,5.0271162148416035,-1.1399907033681869,4.301953974582255
1774470631643917000,5.4109169921875,3.3925486811280248,-0.41525954800248144,2.615861713075638
1774470631653930200,5.42093017578125,1.7979186055272816,0.8691349501252174,1.4548416656821965
1774470631663943200,5.430943115234375,1.1178571974933147,1.3206883390411734,0.35373306615501643
1774470631673956000,5.4409560546875,0.9603729718863964,1.6965575414195655,-0.3222808200538158
1774470631683969000,5.450968994140625,0.4640770626634359,1.838923985132575,-0.17422785513699054
1774470631693982200,5.460982177734375,-0.5172293916583061,1.8630808135285972,0.20272475856393574
1774470631703995000,5.470994873046875,-1.9062585687369107,1.3949468766897917,-0.4663157815009355
1774470631714008000,5.481008056640625,-3.2799066368103027,0.8001914700195193,-1.255971536719799
1774470631724021200,5.491021240234375,-3.9887826359182594,0.8167927684694528,-1.282456223541498
1774470631734034200,5.5010341796875,-3.9965094307780262,0.5273880898401141,-1.087934352916479
1774470631744047000,5.511047119140625,-3.6337802804797885,-0.0994824107542634,-0.4781102641910314
1774470631754060000,5.52106005859375,-2.6249931140363216,-0.6527256573408842,0.26245734273195265
1774470631764073200,5.5310732421875,-1.4293997659116982,-1.1670672186031936,0.7951976072549819
1774470631774086000,5.5410859375,-1.0118342790544033,-1.1173580157995224,1.0389245305538177
1774470631784099000,5.55109912109375,-0.8499088561296463,-1.4519371764123439,0.4607967258185148
1774470631794113300,5.56111328125,-0.6638076078474521,-1.7527300950184463,-0.03110182522833347
1774470631804126000,5.5711259765625,-0.3231564338445663,-1.596736400230229,0.03173018625974655
1774470631814139100,5.58113916015625,0.3209107007443905,-1.540528190796077,0.2596317639172077
1774470631824152000,5.591152099609375,1.1944646363556384,-1.668226496078819,0.8999889380723237
1774470631834165000,5.6011650390625,1.8994202471494674,-2.0980757104478776,1.0046294622421263
1774470631844178200,5.61117822265625,2.236890453028679,-2.8595342758387328,-0.10590776762664317
1774470631854191000,5.621191162109375,1.6955121240198612,-3.28035905675292,-1.936950644120574
1774470631864204300,5.631204345703125,1.2238514743596314,-3.19121245431304,-3.3881343718171117
1774470631874217000,5.641217041015625,1.4329630113512277,-2.0825562158852815,-3.5094589042842386
1774470631884230100,5.651230224609375,1.5544102934151887,-1.3197311844468116,-3.0968022322565316
1774470631894243000,5.6612431640625,1.5464748242408037,-1.1614333043694496,-2.6891566663891076
1774470631904256000,5.671256103515625,1.5384101757287978,-1.2395175377860665,-2.700888605237007
1774470631914269200,5.681269287109375,1.7393816608846187,-1.3244165657840667,-2.1558178514510393
1774470631924282000,5.6912822265625,1.9314052849531174,-1.0322293437641112,-1.540582259070873
1774470631934295300,5.70129541015625,2.142192646202445,-0.8004908913575113,-1.3373486742019653
1774470631944308000,5.711307861328125,2.3458570237040517,-0.6536302780304104,-1.5073334849417208
1774470631954321200,5.721321044921875,2.564959793356061,-0.47121560930646955,-1.733918134781718
1774470631964334000,5.731333984375,2.65358675583601,-0.2087894654303789,-1.9176175826191901
1774470631974347000,5.741346923828125,2.6859488102585076,0.3674906656116247,-2.108656287303567
1774470631984361200,5.751361328125,2.81658769903779,0.4088763497713953,-2.8887399120569226
1774470631994374100,5.7613740234375,2.6805168483376502,0.23009623815752564,-3.493835510955751
1774470632004387000,5.771386962890625,2.0954192045897244,0.46169089817926284,-3.482590771102905
1774470632014400000,5.78139990234375,1.4532137722194194,0.653500879497081,-2.99878930953294
1774470632024413200,5.7914130859375,1.005202878215909,0.799194275675714,-2.1508438624307513
1774470632034426000,5.801426025390625,0.49876785229444504,0.8664058174222707,-1.0684246196739375
1774470632044439000,5.81143896484375,0.5171650942504405,0.8396840339090674,-0.23393409928735345
1774470632054452200,5.8214521484375,0.7592851668745279,0.6766385209131985,0.689200480844453
1774470632064465200,5.831465087890625,0.9760615394055843,0.779954372350499,1.75934396020025
1774470632074478000,5.84147802734375,0.6774065096110106,0.5747634428687394,2.4080279409348964
1774470632084491000,5.851490966796875,-0.3222206142991781,-0.012262465528026222,2.2349900262348354
1774470632094504400,5.86150439453125,-1.7450830873966217,-0.331472645964846,1.9302042386002838
1774470632104517400,5.871517333984375,-2.4274089332312343,-0.409059232057631,1.4234867424756288
1774470632114530300,5.8815302734375,-2.565388247901201,-0.5086426189683377,1.1404098055630922
1774470632124543500,5.89154345703125,-2.5052275014489886,-0.30745193810388444,1.2297685894489288
1774470632134556400,5.901556396484375,-2.6245225739151237,0.29648470001816746,1.7241181869097053
1774470632144569300,5.9115693359375,-2.8798148473232983,0.5630230284534394,2.357345216923952
1774470632154582300,5.921582275390625,-2.9105063381850718,0.39096338420100507,2.4978929207772014
1774470632164595500,5.931595458984375,-2.634665782266855,0.25334384275414046,2.387163432082534
1774470632174609400,5.941609375,-2.5322552091062067,0.2565546214941889,2.458429802177846
1774470632184622300,5.951622314453125,-2.5609675088495014,0.2653459037803113,2.464458560948074
1774470632194635300,5.96163525390625,-0.8755752123057842,-0.09119871266409754,1.656535327632725
1774470632204648200,5.971648193359375,0.7900298492282628,-0.2349402441225946,0.611945245597884
1774470632214661400,5.981661376953125,1.059485672545433,-0.26977862553074955,0.7971679574798792
1774470632224674600,5.991674560546875,0.7547136211752891,-0.11828735672831535,1.051510675078258
1774470632234687200,6.001687255859375,2.758067705529928,0.6353435837768018,-0.11847301549352705
1774470632244700400,6.011700439453125,3.34651056805253,1.2704289550088346,0.7292942254975437
1774470632254713300,6.02171337890625,3.135986826175451,1.1183647086240351,5.410599983876943
1774470632264726500,6.0317265625,2.8685663080781696,-0.23026582257077097,3.6810444282189008
1774470632274739200,6.0417392578125,1.5878402693301439,0.9219871271297335,2.692149418464303
1774470632284752400,6.05175244140625,0.5809317562401294,1.5646253979593514,3.0041213182106614
1774470632294765300,6.061765380859375,0.5229769953995943,0.813976249743998,2.408929273688793
1774470632304778200,6.0717783203125,0.9363111282974481,0.7547152286104858,2.28725256678313
1774470632314791400,6.08179150390625,1.1325433099716902,0.7178748597301542,2.5989316210627553
1774470632324804400,6.091804443359375,0.6509720916718245,0.31952056156024333,2.964546263669431
1774470632334817500,6.101817626953125,-0.06139817929267883,0.03012187428027391,3.5212755988061426
1774470632344830200,6.111830322265625,-0.8675041340529919,-0.09135726422667503,3.9727217279553413
1774470632354843400,6.121843505859375,-1.3695026388317346,-0.17844240409210324,3.869077229085564
1774470632364856300,6.131856201171875,-1.0342945326656103,-0.053776598373055456,3.1997412132054563
1774470632374869200,6.141869140625,-0.3041173868536949,0.5282818238094449,1.873273706240952
1774470632384883500,6.151883544921875,-0.6481114415436983,1.1447734076000748,0.44076190925594416
1774470632394896400,6.161896484375,-1.385837687560916,1.4459220077760517,-0.27643625678904354
1774470632404909300,6.171909423828125,-1.7465139969825743,2.171662632445246,-0.9042497373219579
1774470632414922200,6.181922119140625,-2.3941344401389357,2.6819302222669124,-1.1146608126047999
1774470632424935400,6.191935302734375,-2.707686594814062,2.784854590168595,-1.4506525434292852
1774470632434948400,6.2019482421875,-2.635251473200321,2.642131880363822,-1.6404557149693368
1774470632444961300,6.211961181640625,-2.611881119006872,3.05870368000865,-1.449898656322062
1774470632454974500,6.221974365234375,-2.8764813189864156,3.028754239685833,-1.2884975495323538
1774470632464987400,6.2319873046875,-3.2023779914498327,2.9267174682736394,-1.6322843912124634
1774470632475000300,6.242000244140625,-3.237033125245571,3.0020936117753383,-2.5635019957631826
1774470632485013200,6.25201318359375,-2.927897033447027,3.250765005739033,-3.1748812049761415
1774470632495026400,6.2620263671875,-3.250701585114002,3.6407653170615433,-3.681873572519421
1774470632505039400,6.272039306640625,-3.3411090012699365,4.291219522339105,-4.3704199003040785
1774470632515052300,6.28205224609375,-2.6710774043411014,4.932724112963676,-3.66822381735146
1774470632525065500,6.2920654296875,-2.3527970521003008,5.106665552374721,-3.805200092458725
1774470632535078400,6.302078369140625,0.887640328630805,4.253827072533965,-5.021869546359778
1774470632545091300,6.31209130859375,3.7147029521927237,2.8398195215433835,-6.628389381718635
1774470632555104300,6.322104248046875,5.373704377678036,1.5959902580380438,-7.492982012239098
1774470632565117400,6.332117431640625,6.453167254847288,1.2870868059515952,-6.044551967164874
1774470632575130400,6.34213037109375,5.083359495589137,0.8645166426748037,-3.926572555720806
1774470632585143300,6.352143310546875,3.223763309305906,0.9380904129296541,-1.35563544152081
1774470632595156500,6.362156494140625,1.4192501278191805,1.3335802615791559,1.1396692163288593
1774470632605170200,6.372170166015625,0.21239655001163482,1.4798182860285043,2.550574125128984
1774470632615183400,6.382183349609375,-1.82393859744668,1.2358335885763168,3.5163469102323055
1774470632625196500,6.392196533203125,-3.670762395918369,0.7838087827563285,3.9546003803312777
1774470632635209200,6.402209228515625,-4.6249558023869985,0.7628133410006761,4.2110353940337895
1774470632645222400,6.412222412109375,-5.055827930063009,0.9237380624502897,4.545215910717845
1774470632655235300,6.4222353515625,-4.662724684289097,1.3655208757191895,4.734314587250352
1774470632665248500,6.43224853515625,-3.545195988097787,1.187473754554987,3.5842940727770327
1774470632675261200,6.44226123046875,-2.617090378087759,0.61064008128345,1.6713444819688796
1774470632685274400,6.4522744140625,-1.6020803916066884,0.1783382130652666,0.6849725609511137
1774470632695287600,6.46228759765625,-0.8012880330845713,-0.036550153762102126,0.4818967969924211
1774470632705300200,6.47230029296875,-0.35864451133310793,-0.057716275909543036,0.44388943015933036
1774470632715313400,6.4823134765625,-0.28116262772381306,-0.32360008595883843,0.44259997487068176
1774470632725326300,6.492326416015625,-0.3749848207592964,-0.8542097681939601,0.48833822821676726
1774470632735339500,6.502339599609375,-0.25368659177720543,-1.4118565104365348,0.7240127779632807
1774470632745352200,6.512352294921875,0.42559857118725775,-1.944412650564313,0.22951894972622394
1774470632755365400,6.522365478515625,1.0551529040381311,-2.262634550616145,0.08363865267336368
1774470632765378300,6.53237841796875,1.8762825326681136,-2.0271260050863025,0.16682313183844089
1774470632775391200,6.54239111328125,1.5317431190550326,-1.9954583626687525,-0.0467073906391859
1774470632785404400,6.552404296875,0.27477351120859383,-1.5769301682591437,-0.38974984369277954
1774470632795417300,6.562417236328125,0.42451369855999943,-1.3918731683328747,1.796194850474596
1774470632805430500,6.572430419921875,0.3925450273692608,-0.61886488879323,1.010070191991329
1774470632815443200,6.582443115234375,1.3462287307500838,-0.44494449217021464,0.2707236512959003
1774470632825457400,6.59245751953125,2.0604186183571813,-0.9334849649608135,0.8339064003556966
1774470632835470300,6.60247021484375,2.5881612207233906,-1.0355454095095395,0.8968383650869131
1774470632845483300,6.612483154296875,3.7977404241025448,-0.5954676465928554,2.6265911968827247
1774470632855496400,6.622496337890625,4.4921974372357125,-0.8318287172988057,4.05870022175312
1774470632865509400,6.63250927734375,4.421512958681583,-2.4850334392040967,3.213698426887393
1774470632875522300,6.642522216796875,3.596699380841851,-2.1864313086405396,2.1169471457868814
1774470632885535200,6.65253515625,1.8464558419421313,-2.4280557067021724,1.256974576282501
1774470632895548400,6.66254833984375,1.3687994589984416,-0.32391075934320684,2.490685765877366
1774470632905561300,6.672561279296875,-1.1633996360063552,0.7069479536548257,2.591903329861164
1774470632915574300,6.68257421875,-3.30202056120187,0.5208592725932598,1.4567144738167523
1774470632925587500,6.69258740234375,-2.742069341409206,0.23103140011578796,-0.027663082951307295
1774470632935600400,6.702600341796875,-1.5487071133375168,0.1337403619259596,-1.080196452140808
1774470632945613300,6.71261328125,-0.8604486625835299,-0.5764610405668616,-2.0308640225708485
1774470632955626200,6.722626220703125,-0.5553945794016123,-1.0697793952837586,-2.4798791251808403
1774470632965639400,6.732639404296875,0.011918401330709457,-1.0122332152441142,-2.8069454259455204
1774470632975652400,6.74265234375,0.6181073484241962,-0.9456377595692872,-3.2976451225966215
1774470632985665300,6.752665283203125,0.6402405620381235,-0.858744927405566,-3.603870295384526
1774470632995678500,6.762678466796875,1.060248765872419,-0.6847834681198001,-4.001504170325398
1774470633005691400,6.77269140625,1.7042863821059464,-0.41196372132748366,-4.639938267463445
1774470633015704300,6.782704345703125,2.4859540611803532,-0.5422780543275177,-5.07453263053298
1774470633025717200,6.79271728515625,2.3935861586064098,-0.9345794091340154,-5.527582687747478
1774470633035730400,6.80273046875,2.1155510152533648,-0.7571857103772461,-5.718399858635664
1774470633045743400,6.812743408203125,3.21717282499969,-0.33043132021836935,-5.559165574491024
1774470633055756300,6.82275634765625,4.473660202287137,-0.2560407536879182,-5.631689543431997
1774470633065770500,6.8327705078125,5.244067943939566,0.7780294687025249,-4.480270852598547
1774470633075783200,6.842783203125,5.892186399745941,2.8331612326979636,-1.9815344667345285
1774470633085796400,6.85279638671875,5.1197909914076325,4.364928024889529,-0.6855027223050594
1774470633095809800,6.862809814453125,3.7330420342206954,5.407887802308798,0.7991033825218677
1774470633105822500,6.872822509765625,2.4067322020359336,5.822728248116373,1.6772230186134576
1774470633115835600,6.882835693359375,1.3323410751730203,6.271398482811451,2.844500957357883
1774470633125848600,6.8928486328125,-0.060644072989746924,6.453157902497053,3.62864817828834
1774470633135861800,6.90286181640625,-1.6891951959580183,6.086047760635614,4.001317123320699
1774470633145874400,6.91287451171875,-3.4458816273868083,5.359599279958009,4.524982685506344
1774470633155887600,6.9228876953125,-5.393133300769329,4.59212963758409,5.31038136780262
1774470633165900800,6.93290087890625,-7.137421438395976,3.5603199074715373,5.562109226727485
1774470633175913500,6.94291357421875,-8.451581544712186,2.550207629904151,6.040830316293239
1774470633185926700,6.9529267578125,-9.292441417467593,1.825890900558233,6.946897112974524
1774470633195939600,6.962939697265625,-9.61727659817934,0.518792403191328,6.858980344590544
1774470633205952800,6.972952880859375,-9.391844040983914,-1.1218103190332651,5.208659361428022
1774470633215965400,6.98296533203125,-8.807951681372522,-2.065604496562481,4.5109880624234675
1774470633225978600,6.992978515625,-7.677606173706054,-2.4747125361979005,3.4014199698477983
1774470633235991800,7.00299169921875,-6.544676494765281,-2.708210910949111,3.1177482819125055
1774470633246004500,7.01300439453125,-5.402575082853436,-2.6649410935431717,3.389853742955625
1774470633256017700,7.023017578125,-4.210574498523772,-2.5231021808356044,3.85893080586344
1774470633266030600,7.033030517578125,-3.037358109641075,-1.6651000346213578,5.434433279407024
1774470633276043800,7.043043701171875,-2.137645650422573,-0.6579653115600347,7.186942132890224
1774470633286056400,7.053056396484375,-1.804369096840918,-0.7059674181848764,7.394557293844223
1774470633296069600,7.063069580078125,-1.6642393261387942,-1.2153034262448548,6.3727113238632676
1774470633306083600,7.07308349609375,-1.122196688002348,-1.105081302550435,5.872168863111734
1774470633316096500,7.083096435546875,-0.46727059800773857,-0.4961930333703756,5.728646527361869
1774470633326109700,7.093109619140625,0.06321501945629715,0.002450315761566162,5.30454257864654
1774470633336122600,7.10312255859375,0.8863479507327079,0.0607154577255249,4.920711603608727
1774470633346135600,7.113135498046875,1.3679764521777629,0.3252718185633421,4.983876792573929
1774470633356148700,7.123148681640625,1.7890642679423092,0.5725082112878561,5.208914797493815
1774470633366161700,7.13316162109375,2.4894980173975227,1.2011790393024682,5.922901271483302
1774470633376174600,7.143174560546875,3.057089230549335,2.1516227378487587,6.564032352620363
1774470633386187500,7.1531875,3.4979596051484343,2.788032635682821,6.600470862701535
1774470633396200700,7.16320068359375,3.912974823001027,2.9312492664843797,6.168798524558544
1774470633406213600,7.173213623046875,4.497729352399706,3.1895471514493225,5.725702875125408
1774470633416226600,7.1832265625,5.051706466218829,3.5074084014952183,5.2166363316565745
1774470633426239500,7.193239501953125,5.497513712698221,3.629230362090468,4.380270263189077
1774470633436252700,7.203252685546875,5.867284598201513,3.7007664890378713,3.2939743251293896
1774470633446265600,7.213265625,6.063068451586365,3.667230714660883,2.201798096859455
1774470633456278500,7.223278564453125,5.938473519146442,3.4123353316158056,0.9058657211512327
1774470633466291700,7.233291748046875,5.231140073305368,2.777281816826761,-1.4172235904276371
1774470633476304600,7.2433046875,5.733565863585472,3.2868054564133287,-0.7580208460271358
1774470633486317600,7.253317626953125,6.13387451069355,4.324095663763583,-0.05478489863276481
1774470633496330500,7.26333056640625,6.203902571165561,4.7535596782073375,-0.3404384080350399
1774470633506343700,7.27334375,5.974667114555835,4.360728527373075,-1.4856716882318257
1774470633516356600,7.283356689453125,5.847172369021177,3.7380516790762544,-2.684286430004239
1774470633526369500,7.29336962890625,5.793544239208102,3.532746840891242,-3.578585047480464
1774470633536382700,7.3033828125,5.924276651489734,3.6585777448669075,-3.7394741130948064
1774470633546395600,7.313395751953125,6.200021930339932,4.115163282731175,-3.510605151709914
1774470633556409600,7.32340966796875,6.369332202818989,4.621256947869062,-3.254432003813982
1774470633566422800,7.3334228515625,6.4216708773434155,4.660276998876035,-3.046466714248061
1774470633576435500,7.343435546875,6.0596945912390945,4.119589282479882,-3.2019027751535174
1774470633586448600,7.35344873046875,5.5198196525305505,3.393413773524761,-3.715905605980754
1774470633596461600,7.363461669921875,5.247438881677389,2.722160818107426,-4.31847753162086
1774470633606474800,7.373474853515625,4.984230428317189,1.8162948046952485,-4.9218268713742495
1774470633616487400,7.3834873046875,4.749232754918933,1.1440703738972544,-5.399385346901417
1774470633626500600,7.39350048828125,4.567029683119058,0.3625368425965309,-5.869886305132508
1774470633636513800,7.403513671875,4.409738934257626,-0.28532383905649183,-6.1375517379015685
1774470633646526500,7.4135263671875,4.05371161968559,-0.3966220675498247,-6.198324478772283
1774470633656539600,7.42353955078125,3.533445929071307,-0.8567425015419721,-6.458734825846553
1774470633666552600,7.433552490234375,2.8909742469802495,-1.5396487776130436,-6.898532602778077
1774470633676565800,7.443565673828125,2.418933365830779,-1.9610633411139249,-7.067103455066681
1774470633686578400,7.453578369140625,2.0772990260094404,-2.5193980656206607,-7.177509118634462
1774470633696591600,7.463591552734375,1.7204133410423994,-3.27923969733417,-7.257813073927164
1774470633706604800,7.473604736328125,1.444877905550599,-4.018268842643499,-7.20931061656475
1774470633716617500,7.483617431640625,1.3058365146070718,-4.4869075141340495,-6.971826387047767
1774470633726630700,7.493630615234375,1.0781786825776098,-4.959169636818766,-6.726096307232975
1774470633736643600,7.5036435546875,0.7207686814755201,-5.293995465669036,-6.50547728779912
1774470633746656800,7.51365673828125,0.13330723120570181,-5.645601164406537,-6.161231888696551
1774470633756669400,7.52366943359375,-0.10640293073244392,-6.162148419019579,-5.68017329609394
1774470633766682600,7.5336826171875,-0.77846515670605,-6.661078768399357,-5.157069459444284
1774470633776695600,7.543695556640625,-2.209925289213657,-6.505619326618313,-4.442619751857221
1774470633786708500,7.55370849609375,-3.3349452179431913,-5.291698879164457,-3.7129701370507475
1774470633796721700,7.5637216796875,-2.2060943327486515,-5.580968825498223,-3.5314024405449627
1774470633806734600,7.573734619140625,-1.5642026425026356,-6.040028352260589,-3.1355928584218025
1774470633816747800,7.583747802734375,-1.6364578775048255,-6.883783946457505,-2.325379176081717
1774470633826760400,7.593760498046875,-2.0010246184937657,-7.398433843016624,-1.5188713625222443
1774470633836774700,7.603774658203125,-2.20190097271204,-7.380373870190978,-0.879157308576256
1774470633846787600,7.61378759765625,-2.4115593299314377,-7.308173726376891,-0.23900270778853444
1774470633856800500,7.623800537109375,-2.6429174777835605,-7.217317397409677,0.40462490287199615
1774470633866813700,7.633813720703125,-2.8526559145018457,-7.065140630561113,1.0362985659644006
1774470633876826600,7.64382666015625,-3.1151538815051314,-6.861372208163142,1.6532948844067752
1774470633886839600,7.653839599609375,-3.395084337085485,-6.6277376398116346,2.266040267406404
1774470633896852500,7.6638525390625,-3.6449288664817807,-6.321424788740277,2.855680523020029
1774470633906865700,7.67386572265625,-3.8400437345638867,-5.974876373392343,3.4310692581802607
1774470633916878600,7.683878662109375,-3.9702708276718854,-5.596328891715407,3.9972041350439187
1774470633926891500,7.6938916015625,-4.126923570890725,-5.169653046685457,4.5235810020148755
1774470633936904700,7.70390478515625,-4.266991674533486,-4.693588024586439,5.01971909032762
1774470633946917600,7.713917724609375,-2.520549573743343,0.8853139315098524,2.8854502228617664
1774470633956930600,7.7239306640625,3.4602433302164077,89.2309512866497,-49.68128370013237
1774470633966943500,7.733943603515625,-11.094966640007495,93.24316565155982,-67.6726196274042
1774470633976956700,7.743956787109375,-2.202401907971501,27.630001350438594,-13.191044600766896
1774470633986969600,7.753969482421875,-5.290913281744718,11.439299132871627,6.944381915283203
1774470633996982500,7.763982421875,-6.564793400120735,13.636390659475326,5.14881542584002
1774470634006995700,7.77399560546875,-6.040445116367936,15.420162081706524,4.99579051772952
1774470634017008600,7.784008544921875,-5.894262036976218,16.74788484942913,4.640412314715981
1774470634027021600,7.794021484375,-5.48718404186368,18.059107733249665,3.9820290700048204
1774470634037034500,7.804034423828125,-4.99903695230484,19.12583913913965,3.1360984698563814
1774470634047047700,7.814047607421875,-4.473225025740265,19.999210703921317,2.0788488857999443
1774470634057060600,7.824060546875,-3.939658831787109,20.63444571275711,0.8629717513203621
1774470634067073500,7.834073486328125,-3.527140399186313,21.004111384320257,-0.5291610908620059
1774470634077086700,7.844086669921875,-3.2583398249074813,21.15263605840206,-2.0268036412641406
1774470634087099600,7.854099609375,-3.114856652124226,21.048221744203566,-3.5546254952222105
1774470634097112000,7.864112060546875,-3.1792616120174526,20.717415087866783,-5.034297650778293
1774470634107125800,7.874125732421875,-3.3822643107399344,20.138920787906645,-6.427957994788884
1774470634117139000,7.884138916015625,-3.7221959382966157,19.37916274282336,-7.6582047231435775
1774470634127151900,7.89415185546875,-4.6408042366430164,18.153430861544607,-8.533717391607166
1774470634137164800,7.904164794921875,-32.36752554738521,-28.423714272093772,4.652448789468408
1774470634147178000,7.914177978515625,-34.42361168949604,-28.342358177399635,2.7199299903154373
1774470634157191000,7.92419091796875,9.60731400709152,90.76480219163894,-21.867445539212227
1774470634167203800,7.934203857421875,185.05525337486267,69.59865198714732,15.118684395706653
1774470634177216800,7.944216796875,79.6596531803131,26.20047825040817,-11.560430773115158
1774470634187230000,7.95422998046875,-21.377810256922245,22.90139461944103,7.335373283469677
1774470634197242600,7.96424267578125,-3.4426503903806207,18.3648267100811,4.3626016277685755
1774470634207255800,7.974255859375,-8.530341777694225,9.11970935384631,3.6916605147793886
1774470634217269000,7.98426904296875,-8.397204057836532,5.821675524193048,2.450524728141725
1774470634227282000,7.994281982421875,-8.639819220501185,5.687062471085786,1.6684570899643003
1774470634237294800,8.004294921875,-8.52173527739048,5.580902774524688,0.7471988616310059
1774470634247307800,8.014307861328126,-8.436492112129926,5.934278405544162,0.11802315283417701
1774470634257321000,8.024321044921875,-8.284106670966745,6.228779822790623,-0.4770130070062354
1774470634267333600,8.034333740234375,-8.287251398733257,6.5075722142517565,-1.0177483254037796
1774470634277346800,8.044346923828124,-8.846664566126465,6.560557954508066,-1.4353873158887027
1774470634287360000,8.054360107421875,-9.32725086504221,6.222805424556136,-1.6285365829862652
1774470634297373000,8.064373046875,-9.444843809765576,5.7287581710427995,-1.6952803610906004
1774470634307385900,8.0743857421875,-10.31420789247155,5.767148399713635,-1.7170330509543419
1774470634317398800,8.084398681640625,-29.020754282569882,3.7944957430928943,0.08647592192590237
1774470634327412000,8.094411865234376,-16.087025569993255,8.563170865106581,-1.6401748522013424
1774470634337424600,8.104424560546875,-7.031760923528671,8.247562946945429,-0.977111925241351
1774470634347437800,8.114437744140625,-9.06932122886777,7.051144253912567,0.33011224433183667
1774470634357451000,8.124450927734374,-8.684582491335272,6.619657209208607,1.582076883497834
1774470634367464000,8.1344638671875,-8.965501957952975,7.827370034193992,3.564505376462638
1774470634377476900,8.144476806640625,15.701196699136494,10.691094747459887,-4.125024167010188
1774470634387490800,8.15449072265625,91.92945036640167,6.0970747660845515,-34.123125352621074
1774470634397503700,8.164503662109375,42.45225832927227,6.382672745907306,-9.81973978319764
1774470634407517000,8.174516845703126,-5.1257379171133035,7.735314850831031,-1.5610528001695871
1774470634417529900,8.18452978515625,-16.965764214766025,5.67105475461483,0.9137984138466417
1774470634427543000,8.19454296875,-12.071257311993836,6.960491338562965,3.086401542012393
1774470634437555700,8.2045556640625,-9.017271892678737,3.8091575979128476,1.7224986228838561
1774470634447569000,8.21456884765625,-9.590524200332164,2.087388750608265,0.5881340888343751
1774470634457581800,8.224581787109376,-9.84719477635622,2.153536608646065,0.8095680779129266
1774470634467594800,8.2345947265625,-10.064351672637462,2.2392495833754538,0.6681215985890477
1774470634477608000,8.24460791015625,-1.9870938544273375,3.9617885382696985,-0.36439649898856874
1774470634487620900,8.254620849609376,13.08154494612813,5.346452213615179,0.14374270050227642
1774470634497634000,8.264634033203125,12.611887452983856,4.397501383975148,1.7893593053661285
1774470634507646700,8.274646728515625,3.272650966593623,2.4155899006217716,2.668547593602538
1774470634517660000,8.284659912109374,-6.601010376405716,1.7820491284832358,1.6232697484992444
1774470634527672800,8.2946728515625,-2.369928219643235,2.40766670640707,-0.6356852368213236
1774470634537685800,8.304685791015626,17.36499149637818,6.5407958539396525,-9.100265817707777
1774470634547698700,8.31469873046875,9.990870256841182,7.111665650370717,-7.029454984673857
1774470634557712000,8.3247119140625,-9.618072716993092,2.590627610836923,-0.34645722993314265
1774470634567725000,8.33472509765625,-10.722544363212585,0.4915477648478001,0.9635352353096007
1774470634577737700,8.34473779296875,-5.315404164400697,0.6706574006769805,0.6440152582712471
1774470634587751000,8.3547509765625,4.331078069996834,3.1794965898171066,-1.4424015785649418
1774470634597763800,8.364763916015624,14.07628079086542,7.471646378743648,-5.8067146864265204
1774470634607776800,8.37477685546875,-0.7181564531505108,6.192089383774995,-3.8988261784002183
1774470634617789700,8.384789794921875,-4.400049314892292,4.140711273224651,-1.3923632899373768
1774470634627803000,8.394802978515624,-1.8977157813191412,4.639410151936113,-1.7860208085931837
1774470634637816000,8.404816162109375,-2.7497528816491363,3.8572731017842887,-1.8794466957874596
1774470634647828700,8.414828857421876,-2.445578796172142,2.9220363247200845,-1.5728896606966851
1774470634657842000,8.424842041015625,-1.3466992708712815,1.9753746289305387,-1.221043723462522
1774470634667854800,8.434854736328125,-0.6804664817035198,1.1940562016852199,-0.7237025429703294
1774470634677867800,8.44486767578125,0.30539164457321166,0.26592472658157346,0.1478295314244926
1774470634687880700,8.454880615234375,1.3189257132828234,-1.0025458609011024,0.7607692679524422
1774470634697894000,8.464893798828125,3.087789489239454,-2.111780995195359,0.9884851137794554
1774470634707907000,8.474906982421874,0.6370867741823196,-2.4738623491093517,0.5606507463641465
1774470634717920800,8.484920654296875,-0.5248533106654882,-1.730264872971177,-0.4853022215217352
1774470634727934000,8.494933837890626,0.36310499787330625,-0.17193667545989155,-0.6577956540815532
1774470634737946600,8.504946533203125,-0.093293200725317,0.7894408703591674,0.06710632780641317
1774470634747959800,8.514959716796875,-0.17171382648944855,0.533284271739237,0.09462342641577123
1774470634757973000,8.524972900390624,0.03060907327532768,-0.24696948541663585,-0.08007014653682708
1774470634767986000,8.53498583984375,-0.02506663671731949,-0.09664408205579966,-0.005950578967481851
1774470634777998800,8.544998779296876,-0.08045476194024086,0.20396102236062288,-0.027074615538865327
1774470634788011800,8.55501171875,-0.01717208407521248,-0.10070767823290079,-0.031826340110599996
1774470634798025000,8.56502490234375,-0.0448690692961216,0.054060018424317235,-0.003537088084965944
1774470634808037600,8.57503759765625,-0.03216097889244556,0.01973656426835805,-0.029232670355588197
1774470634818050800,8.58505078125,-0.040994273689389224,0.00009008943624794483,-0.005638152017444372
1774470634828064000,8.59506396484375,-0.04952420162558555,0.03769084822982549,-0.0291726107314229
1774470634838077000,8.605076904296874,-0.035466450178623196,-0.005989230477437377,-0.027133798380196094
1774470634848089900,8.61508984375,-0.03358195160627365,0.04161657030619681,-0.017961188626289367
1774470634858102800,8.625102783203126,-0.028191490739583967,0.004441526111401617,-0.016072160009294748
1774470634868116000,8.635115966796874,-0.039271687680482864,0.027128208889625964,-0.019381430687755344
1774470634878128600,8.645128662109375,-0.03593172960281372,0.0015787936240434645,-0.02309519051387906
1774470634888141800,8.655141845703126,-0.04466097950339317,0.007938793642632664,-0.021729455118626353
1774470634898154800,8.66515478515625,-0.05166939696073532,-0.001807597411237657,-0.01933393828421831
1774470634908168000,8.67516796875,-0.04840659577250481,-0.0026034604966640473,0.00555807251855731
1774470634918180900,8.685180908203124,-0.04854162032902241,-0.00032254648525267837,-0.00376841262280941
1774470634928193800,8.69519384765625,-0.04166121316552162,0.0027281463222578167,0.007173691021651029
1774470634938207000,8.70520703125,-0.041243280014395714,0.004216448651254177,0.015061960053443908
1774470634948220000,8.715219970703124,-0.027935470151901242,-0.0021236776230856777,0.014170564171671866
1774470634958232800,8.72523291015625,-0.030718963390588758,-0.002500657709315419,0.010055676198750734
1774470634968245800,8.735245849609376,-0.038996962392330164,-0.0032637875689193606,0.0041340310648083686
1774470634978259000,8.745259033203125,-0.03868365865945816,-0.012107494162023067,0.021034312461316585
1774470634988271900,8.75527197265625,-0.03807692493796348,-0.00007850859630852937,0.01354322605356574
1774470634998284800,8.765284912109376,-0.035353637453913685,0.00865044904332608,0.013980302296578883
1774470635008298000,8.775298095703125,-0.03990472488701343,0.003573474572598934,0.005083733005076647
1774470635018311000,8.785310791015625,-0.03347498410046101,-0.008505816408246755,-0.002110416282713413
1774470635028323800,8.79532373046875,-0.026730186015367505,-0.004866802318766713,-0.0007088789217174052
1774470635038336800,8.805336669921875,-0.033224224209785456,-0.010087167315557598,0.0017393910132348536
1774470635048350000,8.815349853515626,-0.030197569864988325,0.00038004882615059614,0.008127338484674692
1774470635058364000,8.825364013671875,-0.03932312560677528,-0.0002776113649830222,0.007674041759222746
1774470635068376800,8.835376953125,-0.0435574021756649,-0.006410597694665193,-0.0005922668047249317
1774470635078389800,8.8453896484375,-0.030555297261476516,0.0105995738171041,-0.008355740413069725
1774470635088402700,8.855402587890625,-0.033787703311443325,-0.004062463665939867,0.0006773147396743297
1774470635098417000,8.8654169921875,-0.022981062614917752,0.007999547386541963,-0.0025846096657216548
1774470635108429800,8.875429931640625,-0.033439328265190124,0.009392864908464253,0.003438450016081333
1774470635118442800,8.88544287109375,-0.03674070789813995,0.005930084168724715,-0.00008928571864962577
1774470635128456000,8.8954560546875,-0.04154781591892242,-0.0010853840839117764,0.019480945539474485
1774470635138468900,8.90546875,-0.03707739250659942,0.003033997401036322,0.01667144107669592
1774470635148481800,8.915481689453125,-0.039458150163292884,-0.0022408377293497324,0.0065343702048063276
1774470635158495000,8.925494873046874,-0.04879413378536701,-0.00794836518857628,0.0021381810724735257
1774470635168508000,8.9355078125,-0.039077626413106914,-0.0028631343461573123,0.009290683175623416
1774470635178520800,8.945520751953126,-0.029635844328999517,-0.004210420769266784,0.009305296222865581
1774470635188533800,8.95553369140625,-0.047882279637455935,-0.005937098431400954,0.013891747230291365
1774470635198547000,8.965546875,-0.03542787173390388,0.0013614976115524768,-0.00026449615508317945
1774470635208559900,8.975559814453124,-0.037459085300564764,0.003267148569785058,-0.0028304011203348634
1774470635218572800,8.98557275390625,-0.04036883526742458,0.0004594707379117608,0.0053033671051263805
1774470635228586000,8.9955859375,-0.04322656278610229,0.014164938148483634,0.003125876935571432
1774470635238599000,9.005598876953124,-0.028857845693826673,0.005475070410221815,0.011025836405158041
1774470635248611800,9.01561181640625,-0.050581017202138895,-0.010013517557457089,0.005317395630478858
1774470635258624800,9.025624755859376,-0.05000175600945949,-0.002418897709995508,0.004008212728053331
1774470635268638000,9.035637939453125,-0.027881694138050077,-0.009430712700821459,0.005957008708268404
1774470635278651000,9.04565087890625,-0.041778117543458934,0.0010655834048986434,0.004575491221994161
1774470635288663800,9.055663818359376,-0.027076807495951653,-0.0068658306488767265,0.007349924371391535
1774470635298677000,9.065677001953125,-0.04758241990804672,0.009064948128350079,-0.004839402855187654
1774470635308690000,9.07568994140625,-0.036188919234275814,0.0006460062859579921,0.0018023732468485831
1774470635318702800,9.085702880859374,-0.02857961327433586,0.00575027062240988,0.005175941333174706
1774470635328715800,9.0957158203125,-0.04130816194415092,-0.007346015381254256,-0.0008063479468226432
1774470635338729000,9.10572900390625,-0.03202829242348671,0.006019516017846763,0.00835091810747981
1774470635348742000,9.115741943359374,-0.043427638316154475,0.0034772841891273854,0.0064484454870223995
1774470635358754800,9.1257548828125,-0.03594342004060745,0.0082489190377295,0.010954086343199014
1774470635368767700,9.135767822265626,-0.04136252247989178,0.004472067380137741,0.01782134176418185
1774470635378781000,9.145781005859375,-0.054932198148965834,-0.0028825331663712857,0.006157499716430902
1774470635388793900,9.1557939453125,-0.03532733396887779,-0.00174395759049803,0.003962327759712934
1774470635398806800,9.165806884765624,-0.03653320262730121,0.003872822845354676,0.005217588517814875
1774470635408820000,9.175820068359375,-0.029043723654747007,-0.006724851275607943,0.009823182617127895
1774470635418833700,9.185833740234376,-0.03640168520212173,-0.0087322821078822,0.007658259668201208
1774470635428845800,9.195845703125,-0.042534488868713374,-0.003553564295731485,0.012895721930265426
1774470635438860000,9.205860107421875,-0.03565583527088165,-0.007905731623247265,0.028520430433005093
1774470635448872700,9.215872802734374,-0.034332477712631225,0.005945281737856567,0.006322773280739784
1774470635458886000,9.225885986328125,-0.03807224876284599,0.00846230606008321,0.005622369926422834
1774470635468898800,9.23589892578125,-0.027892215532064436,-0.008677958104759454,0.00672989277690649
1774470635478912000,9.245912109375,-0.0362637380361557,-0.003421389283426106,0.006598959873616695
1774470635488924700,9.255924560546875,-0.053497781431674954,-0.005928622864000499,0.00047653147056698797
1774470635498937900,9.265937744140626,-0.04857610712051391,0.0023723551545292137,0.004168225595355034
1774470635508951000,9.275950927734375,-0.043670799422264095,0.0023135011067613957,0.012625965078175067
1774470635518963700,9.285963623046875,-0.03776595929265022,-0.0055010816343128675,0.008159341058135032
1774470635528977000,9.295976806640626,-0.0340285263299942,0.009717128426767885,0.00028758476972579955
1774470635538989800,9.30598974609375,-0.043154082071781154,-0.004206804040074348,0.009231646464765072
1774470635549003000,9.3160029296875,-0.03569441371560097,0.005291786265186965,-0.0020867431461811066
1774470635559015700,9.326015625,-0.0406382998585701,0.0013225173080340027,0.0002836392469704151
1774470635569028900,9.33602880859375,-0.03239537217020988,0.004614361927658319,-0.0010651450134813785
1774470635579042000,9.3460419921875,-0.03315057445168495,0.004214548955112696,-0.003046235828101635
1774470635589054700,9.3560546875,-0.04290566026866436,0.007892360685020685,0.002697568520903587
1774470635599068000,9.36606787109375,-0.048314241313934324,0.0016434198254719375,0.0033345512501895425
1774470635609080800,9.376080810546876,-0.04966097974777221,-0.0007523892698809504,-0.002395370703935623
1774470635619094000,9.386093994140625,-0.04295008393228054,-0.0042595571406185626,0.009576075988262892
1774470635629106700,9.396106689453125,-0.029017420169711112,0.012056640757620333,0.012047726798802614
1774470635639120000,9.406119873046874,-0.03588321428596973,0.01954699651300907,0.003508154251426458
1774470635649133000,9.416133056640625,-0.041401685446500774,0.001957965667359531,0.014991379035264252
1774470635659145700,9.426145751953126,-0.024023849666118622,-0.0005170461440458893,-0.0017928747661411762
1774470635669159000,9.436158935546874,-0.0415226814776659,0.007071838082373142,0.007489478972554206
1774470635679171800,9.446171875,-0.04376549196839332,-0.008036226135119796,0.005109890359640121
1774470635689185000,9.45618505859375,-0.056633156847953794,-0.000650974722020328,0.001248246495425701
1774470635699197700,9.46619775390625,-0.037955344384908676,-0.009204393131658434,0.0028283552937209606
1774470635709211000,9.4762109375,-0.03977203841805458,0.0010214520022273064,-0.004141775979846715
1774470635719223800,9.486223876953124,-0.020163667106628418,-0.011330335777066648,-0.000035217443853616714
1774470635729236700,9.49623681640625,-0.036660043877363206,-0.0047200873244553805,0.0016413374662399291
1774470635739250000,9.50625,-0.06343699164390564,0.00833181154821068,0.010096738861501217
1774470635749262800,9.516262939453124,-0.027231705796718596,0.004066847580112516,-0.000006575871258974075
1774470635759276000,9.526276123046875,-0.035927637949585915,0.007935176913440227,-0.0004969897367060184
1774470635769288700,9.536288818359376,-0.038897009149193765,0.010176343436352908,-0.0012158055305480956
1774470635779302000,9.546302001953125,-0.03380933062136173,0.0027472894141450524,0.00004617722928524017
1774470635789314800,9.556314697265625,-0.025403905847668645,0.011072963482514023,-0.0032182313941419125
1774470635799327700,9.56632763671875,-0.04410977536141872,-0.000668108519911766,-0.0030513503946363926
1774470635809341000,9.5763408203125,-0.03229834153652191,-0.004484744198620319,0.003480097200721502
1774470635819353900,9.586353759765625,-0.032443302965164185,0.004875606679730117,0.005094546660035848
1774470635829367800,9.596367919921875,-0.034383915638923644,0.0003612710604444146,0.008562661162018776
1774470635839380700,9.606380615234375,-0.043348143339157104,-0.0009221198135986923,0.009088584732264279
1774470635849394000,9.616393798828126,-0.03524666994810104,0.005462503189593553,-0.007871025636047125
1774470635859406800,9.62640673828125,-0.03374678677916527,0.00544047402087599,0.0018739771783351897
1774470635869419800,9.636419677734375,-0.0320808993935585,-0.00035885990764945744,0.0007430734522640705
1774470635879433000,9.646432861328124,-0.04581131858229637,0.012112864456884562,0.005925298395752907
1774470635889446000,9.65644580078125,-0.03907528832554817,-0.009447773433476686,0.002848082907497883
1774470635899458800,9.666458740234376,-0.03190788091421127,-0.001970934746786952,0.0012308569692075252
1774470635909471700,9.6764716796875,-0.042397710746526714,0.007649784100800752,-0.004849193596839905
1774470635919485000,9.68648486328125,-0.044648120021820066,0.0030306364001706242,0.016657120290398595
1774470635929497900,9.696497802734376,-0.03652911097407341,-0.001884462039731443,0.006285510010272264
1774470635939510800,9.7065107421875,-0.0413093309879303,-0.0010493263898417352,0.010965630650520324
1774470635949524000,9.71652392578125,-0.040563481056690213,-0.003178447373025119,0.0036500469401478763
1774470635959537000,9.726536865234374,-0.05192892467975616,0.003663527476228773,0.0025960078425705433
1774470635969549800,9.7365498046875,-0.03711713999509811,-0.01025514429360628,0.004875350951403379
1774470635979562800,9.746562744140626,-0.03501636832356453,-0.010700549973547458,-0.0009198913238942623
1774470635989576000,9.756575927734374,-0.05250058708786964,0.0042304771766066545,0.01131955865472555
1774470635999588900,9.7665888671875,-0.036225159591436386,-0.014428119129315018,-0.001197831482440233
1774470636009601800,9.776601806640626,-0.03712766138911247,0.00526109886597842,0.003582242400944233
1774470636019615000,9.786614990234375,-0.03010755349397659,0.0015683818278834222,0.005288315666466951
1774470636029628000,9.7966279296875,-0.03923544732332229,0.00271068373080343,-0.0023117840737104413
1774470636039640800,9.806640869140624,-0.029042554610967636,0.005571005065366626,-0.0020624854877591132
1774470636049653800,9.81665380859375,-0.04236263943314552,0.0005681187441572546,0.009466332003474236
1774470636059667000,9.8266669921875,-0.04460486540198326,0.001903933925181627,0.008034984026104211
1774470636069679600,9.8366796875,-0.03412847957313061,-0.002821048770099878,-0.0018617022186517714
1774470636079692800,9.84669287109375,-0.0413134226411581,0.003479622276686132,-0.003872019127756357
1774470636089706000,9.8567060546875,-0.03083645229041576,-0.004390051652491092,0.001054185228049755
1774470636099718100,9.86671826171875,-0.043409518137574196,-0.006116327455826103,0.00968421253785491
1774470636109731000,9.87673095703125,-0.03965630308389664,-0.002587641873024404,-0.0017640870630741118
1774470636119744000,9.886743896484376,-0.037844285225868225,0.0019599018961191177,-0.010201368279755115
1774470636129757000,9.8967568359375,-0.03485737836956978,0.007863244188390671,-0.003834901987761259
1774470636139770000,9.90677001953125,-0.041748891448974604,-0.006807049666345119,-0.006193593943119049
1774470636149782800,9.91678271484375,-0.046524435287714,-0.0029832901271060106,-0.0026281565465033053
1774470636159796000,9.9267958984375,-0.03499649457931518,0.003910597572475672,-0.0024320494525134563
1774470636169809000,9.936808837890625,-0.042483050942420955,-0.0015801818635314702,-0.0021015023238956927
1774470636179822000,9.946822021484374,-0.0508686019718647,0.0029775910386815665,0.004910860656201839
1774470636189835000,9.9568349609375,-0.031247955700755118,0.007578691625967622,-0.010032733714580536
1774470636199848000,9.966847900390626,-0.03344692704975605,0.007113010342977941,0.00287891643717885
1774470636209861000,9.976861083984375,-0.03401508232653141,0.0029284911999478934,0.01084536527171731
1774470636219873800,9.986873779296875,-0.04523439547717571,0.006275280877202749,-0.001478694250434637
1774470636229887000,9.996886962890626,-0.042375498914718625,0.0039951705833896995,0.002418459318578243
1774470636239900000,10.00689990234375,-0.03684007661938667,-0.007319748428836465,0.008810498443245888
1774470636249913000,10.0169130859375,-0.025474632996320724,0.0021938933150842783,-0.005477700758725405
1774470636259926000,10.026926025390624,-0.05033201087713241,-0.0030078765790909527,0.009961129783093929
1774470636269939000,10.03693896484375,-0.04057809410393238,0.007254610770754516,-0.00765489866733551
1774470636279953000,10.046952880859376,-0.047913259297609326,0.009164207251742482,0.014905454317480325
1774470636289965800,10.0569658203125,-0.037763621205091476,-0.008111958252452313,0.00032937808483839034
1774470636299979000,10.06697900390625,-0.05122106867134571,-0.0015755056884139776,0.0038280338555574415
1774470636309992200,10.0769921875,-0.035651159095764155,-0.0013679273523390292,0.0059549628816545006
1774470636320004900,10.0870048828125,-0.026090719068050383,-0.007320625211670994,0.004685381337255239
1774470636330018000,10.09701806640625,-0.044643443846702574,-0.0020078326910734174,0.007427081260830163
1774470636340031000,10.107031005859374,-0.05019640179872512,-0.003226122439652681,-0.0016350538559257984
1774470636350044000,10.1170439453125,-0.03984627269804478,0.00655902972202748,-0.004769260228425264
1774470636360056800,10.127056884765626,-0.03761690621078014,-0.012479396214336157,-0.005693389336019754
1774470636370070000,10.137070068359375,-0.039864392876625056,0.04468520062919706,0.02081716257929802
1774470636380083200,10.147083251953125,-0.02609656428694725,-0.04747161647733301,-0.0007123860530555248
1774470636390096000,10.157095947265624,-0.047804538226127624,0.018905410673841834,-0.001113660330325365
1774470636400109000,10.167109130859375,-0.0448164623260498,0.017937259761430322,0.02072407746836543
1774470636410122000,10.1771220703125,-0.03914659999608993,-0.012827369401790202,-0.0043674014292657375
1774470636420135000,10.187135009765624,-0.028217209702730176,0.001453559809178114,0.01409808345735073
1774470636430147800,10.19714794921875,-0.046912557822465895,-0.004912175830453634,0.002778232541680336
1774470636440161000,10.2071611328125,-0.03672843293845653,-0.002069390152581036,0.0036386487632989882
1774470636450174200,10.21717431640625,-0.026844752305746077,0.006292122414149344,0.008181699020415545
1774470636460187000,10.227186767578125,-0.04286766634583473,-0.00022193565499037502,-0.0043054421089589595
1774470636470200000,10.237199951171876,-0.03641922085881233,-0.008893938942998647,-0.0024517770662903786
1774470636480213000,10.247212890625,-0.02806289592385292,0.00035359921064227816,0.011229250022768974
1774470636490226000,10.257225830078125,-0.03434767528176307,-0.006900244375132024,0.01235270109474659
1774470636500238800,10.26723876953125,-0.05066986452937126,0.010516315980441868,0.000009936872124671935
1774470636510252000,10.277251953125,-0.040047932749986644,-0.00419182566665113,0.00885609115064144
1774470636520265000,10.287264892578126,-0.03780687582492828,0.0010578019572421908,0.00673705317005515
1774470636530278000,10.29727783203125,-0.04410685275197029,0.0009921528425067662,0.01587619904577732
1774470636540291000,10.307291015625,-0.034058336946368215,0.005725574572570622,0.01214329612776637
1774470636550304000,10.317303955078126,-0.040780923199653624,0.001286678809672594,0.009750117380917071
1774470636560317000,10.32731689453125,-0.03302607128918171,0.00026117168683558703,-0.010347937143594025
1774470636570329900,10.337329833984375,-0.04262450523972511,0.004385667738318443,0.0037292496562004087
1774470636580343000,10.347343017578124,-0.046641924187541005,-0.0014527926241979002,0.01223828093484044
1774470636590356000,10.35735595703125,-0.03960895681083202,-0.0042010684190317985,0.00403743882253766
1774470636600369000,10.367368896484376,-0.03782090435028076,0.0017343129793182014,0.008001520147919654
1774470636610382000,10.377382080078124,-0.026776947766542433,0.008865516566112636,0.0041736324228346345
1774470636620395000,10.38739501953125,-0.04579612101316452,-0.0017125395389273762,0.004920943658798933
1774470636630408000,10.397407958984376,-0.03623451194167137,0.006381371600180864,-0.005667085850983858
1774470636640420900,10.4074208984375,-0.030810148805379866,0.012986505486257374,-0.0009347966320812701
1774470636650434000,10.41743408203125,-0.028709377133846282,0.010499949367530643,-0.0025632746167480944
1774470636660447000,10.427447021484374,-0.039060675278306006,0.0022564736898988483,0.0020657003581523894
1774470636670460000,10.4374599609375,-0.03278758635818958,0.0012879574513062833,0.001853665042668581
1774470636680473000,10.44747314453125,-0.03982932156324386,0.009340111807920038,0.0004312310241162777
1774470636690486000,10.457486083984374,-0.02995850041210651,0.011847893377766013,-0.004756693007797003
1774470636700499000,10.4674990234375,-0.035654081705212594,0.01703512328993529,0.00223623461946845
1774470636710511900,10.477511962890626,-0.04789221650958061,0.0037044440085068344,0.007717004118114709
1774470636720525000,10.487525146484375,-0.03245382435917854,0.006210764273628592,0.009796733001619576
1774470636730538000,10.4975380859375,-0.03153729403614998,-0.005505100222304463,-0.0007492109321057797
1774470636740551000,10.507551025390624,-0.043052959784865376,-0.007695413340814411,-0.006966770272701978
1774470636750563800,10.517563720703125,-0.04125204784274101,-0.0004699921319261193,-0.0017174714423716067
1774470636760577000,10.527576904296875,-0.03839256675839424,-0.004467135476693511,0.0047526013545691964
1774470636770590000,10.53758984375,-0.038221886366605756,0.004634747128561139,0.0006697159551084041
1774470636780603000,10.547602783203125,-0.03162497231960296,-0.0000098272742703557,-0.0071168462678790085
1774470636790617000,10.5576171875,-0.04091185610294342,-0.004732691077701747,0.005354512770473957
1774470636800629000,10.56762890625,-0.03598725918233395,0.0020571151928976176,-0.0016613573409616947
1774470636810642000,10.577641845703125,-0.029550504133105275,0.00885905029270798,0.012644962039589881
1774470636820656000,10.58765625,-0.041054479444026945,0.007680909891426562,0.010739128418266772
1774470636830668800,10.597668701171875,-0.03474515016674995,-0.007086451129615306,0.009847148014605045
1774470636840682000,10.607681884765626,-0.03744564129710197,-0.004986519708298147,0.002011924344301224
1774470636850695000,10.61769482421875,-0.04042202675938606,-0.011584529733844101,-0.00045651159584522244
1774470636860708000,10.6277080078125,-0.04592296226322651,0.0012974559320136905,0.006404021823406219
1774470636870720800,10.637720703125,-0.03769581666588783,0.006479315549321472,0.007308861708641052
1774470636880734000,10.64773388671875,-0.05565349816083908,-0.0026601956525817514,0.002057663182169199
1774470636890747100,10.6577470703125,-0.06150631584227085,-0.02167535031121224,-0.011738953110575675
1774470636900759800,10.667759765625,-0.03009235592484474,0.003760777305625379,0.025695728401094672
1774470636910773000,10.67777294921875,-0.046428573697805404,0.02239789243210107,0.0008332359537482261
1774470636920786000,10.687785888671876,-0.034625907701253886,-0.0010782967559993266,0.0073282970614731305
1774470636930799000,10.697799072265624,-0.033138884013891215,-0.013199673312902449,-0.005414718525111675
1774470636940811800,10.707811767578125,-0.037163901746273036,-0.013443345875665544,-0.010560995372384786
1774470636950825000,10.717824951171876,-0.04478840527534485,0.028121019319258627,0.016667057162523268
1774470636960838100,10.727838134765625,-0.030710780084133145,-0.014574103471264243,-0.00281944133490324
1774470636970851000,10.73785107421875,-0.025284078860282895,0.005112411110289395,-0.003184621385484934
1774470636980864000,10.747864013671874,-0.034445290437340736,0.0027485680557787417,0.009687135147303343
1774470636990877000,10.757876953125,-0.0443067592382431,0.006305858678556978,0.013136837209761143
1774470637000890000,10.76789013671875,-0.04879588735103607,-0.007323036364465951,0.009392243853956461
1774470637010902800,10.77790283203125,-0.028869536131620407,-0.009656776541657745,0.012484218519926071
1774470637020916000,10.787916015625,-0.04410100753307342,0.0014979104075580835,-0.007246025605499744
1774470637030929200,10.79792919921875,-0.02539630706310272,-0.004259484075382351,0.00310439575612545
1774470637040942000,10.807942138671875,-0.044701311513781546,-0.014911810993030666,-0.003853898949176073
1774470637050955000,10.817955078125,-0.04377367527484893,0.0016336290838196872,0.02179302187412977
1774470637060968000,10.827968017578126,-0.045721302211284634,-0.014136954163014888,0.011580255417525767
1774470637070981000,10.837981201171875,-0.04841945525407791,-0.0005478796737268567,0.011333294919133185
1774470637080993800,10.847993896484375,-0.03376139982640743,0.00386299557108432,0.0005387830518186092
1774470637091007000,10.858007080078124,-0.03527238891124725,0.0066524436265230176,-0.0032797523230314253
1774470637101020200,10.868020263671875,-0.04452303233742714,-0.003969963076896965,-0.00352875864803791
1774470637111033000,10.878033203125,-0.04857201546728611,-0.006492649954929947,0.02204948085322976
1774470637121046000,10.8880458984375,-0.035111060869693754,-0.006554828470945358,0.005018266553431749
1774470637131059200,10.89805908203125,-0.04398410315513611,-0.005240056077949702,0.007063362514972686
1774470637141072100,10.908072021484376,-0.04220131139159202,-0.0028308395117521284,0.003428220883011818
1774470637151085000,10.9180849609375,-0.04566401906609535,0.004790814473107457,0.006556874297559261
1774470637161098000,10.928097900390625,-0.03114332628250122,-0.006779613670147955,-0.0019445581965148449
1774470637171111200,10.938111083984374,-0.03904956936240196,-0.0055728682288900015,0.0076245035290718076
1774470637181124000,10.9481240234375,-0.04503039733767509,0.014969934388436376,0.009471446570008993
1774470637191137000,10.958136962890626,-0.03129179484248161,0.006642251026071608,-0.0010473170958459376
1774470637201150200,10.968150146484374,-0.02829670467972755,0.01220182138197124,0.010194938538968563
1774470637211163100,10.9781630859375,-0.04625380165278911,-0.009589885317906737,0.005721300256252289
1774470637221176000,10.988176025390626,-0.046402854734659195,0.001780271012894809,0.015301467897742985
1774470637231189000,10.99818896484375,-0.04520692294836044,0.004137611261382699,0.010494213746488094
1774470637241202200,11.0082021484375,-0.052534489357471466,0.011259352900087833,-0.00755012311860919
1774470637251215000,11.018215087890624,-0.04416647398471832,-0.011066643339581787,0.027710721485316753
1774470637261228000,11.02822802734375,-0.03356558499336242,-0.004106777731701731,-0.01662906323969364
1774470637271241200,11.0382412109375,-0.04912205056548118,0.011572218241542576,0.004358487470448017
1774470637281254100,11.048254150390624,-0.044350013858079906,-0.003545454054512083,0.01061097199395299
1774470637291267000,11.05826708984375,-0.04884148005843162,-0.0015336758406832814,-0.0030004969902336595
1774470637301280000,11.068280029296876,-0.0391220500767231,0.0018542495645582674,-0.008761252474039792
1774470637311293200,11.078293212890625,-0.03599076631367206,-0.014423041095398366,0.012369506099075079
1774470637321306000,11.08830615234375,-0.02773088749051094,0.00041113808415830133,-0.005102583836019039
1774470637331319000,11.098319091796874,-0.05829027640521526,0.007441255916655063,0.010701280625909566
1774470637341332200,11.108332275390625,-0.027439211067557333,-0.00748180712275207,0.011806757649779318
1774470637351345200,11.11834521484375,-0.05016834474802017,-0.026613573898375032,0.01173661502301693
1774470637361358000,11.128358154296874,-0.01755494591295719,0.011448043872602284,0.007507306890189647
1774470637371371000,11.13837109375,-0.05926818152666091,0.012755436676740646,0.03459975034669041
1774470637381384200,11.14838427734375,-0.05535305390954017,-0.035774420149251814,-0.025228841541707514
1774470637391397000,11.158397216796875,0.012272621595859528,0.03525821425542235,0.01153510110154748
1774470637401410000,11.16841015625,-0.061035191199183464,0.008376089081354439,0.01165872748121619
1774470637411423200,11.17842333984375,-0.031573534393310544,0.015859868965484202,-0.011063099675625562
1774470637421436200,11.188436279296875,-0.038169279396533966,-0.008939166324213146,0.01489975522905588
1774470637431450000,11.1984501953125,-0.06495674855709076,0.010911197049543261,0.008028115893900394
1774470637441463000,11.208463134765625,-0.03607902911901474,0.00544350622817874,0.010524316623806953
1774470637451476200,11.218476318359375,-0.03683598496615886,0.00989113328680396,0.0053594812065362925
1774470637461489200,11.2284892578125,-0.04550152198076248,0.006742204269208013,-0.00182429281771183
1774470637471502000,11.238502197265625,-0.0365337871491909,0.007123823997937142,0.009895955592393875
1774470637481515300,11.248515380859375,-0.04640986899733543,-0.005389328355528414,0.002681494168937206
1774470637491528000,11.25852783203125,-0.03397708840370178,0.008939604715630411,0.0023249358162283898
1774470637501541000,11.268541015625,-0.027396540969610212,-0.001486402632854879,0.005153875631839036
1774470637511554000,11.278553955078126,-0.04596037166416645,0.00504142823331058,0.009404518813639878
1774470637521567200,11.288567138671874,-0.04012508963942527,-0.005574621794559061,0.010102876341342925
1774470637531580200,11.298580078125,-0.041321021425724025,-0.004876739190891385,0.010995733527839183
1774470637541593000,11.308593017578126,-0.038624621948599815,-0.006949599942192435,0.01012728013023734
1774470637551606300,11.318606201171875,-0.038792379730939866,0.0017060732655227184,0.0017535656690597532
1774470637561619000,11.328618896484375,-0.036844752794504165,-0.0006732230864465236,0.005666501329094171
1774470637571632000,11.338632080078124,-0.04177577945590019,-0.003931055838614702,0.000891103620827198
1774470637581645000,11.34864501953125,-0.029492636466026304,0.001449139362387359,0.0065253101155161855
1774470637591658200,11.358658203125,-0.05134907896518707,0.0001971300072968006,0.008533581198006868
1774470637601671200,11.368671142578124,-0.038190906706452366,0.006446947649680078,0.007442278829962015
1774470637611684000,11.37868408203125,-0.04628419679105281,0.0017298194672912357,0.001382540399581194
1774470637621697300,11.388697265625,-0.0320808993935585,0.007444726515375077,0.005336977113783359
1774470637631710000,11.3987099609375,-0.032066870868206025,-0.0057878626864403485,-0.0068473816767334935
1774470637641723100,11.40872314453125,-0.04209551292955875,-0.003676715751364827,-0.0008748831383883953
1774470637651736000,11.418736083984374,-0.04269581691026687,-0.0035887817395851016,0.0004819382980465889
1774470637661749200,11.428749267578125,-0.03850596400499344,0.00837623521182686,-0.0032560791864991185
1774470637671762000,11.438761962890625,-0.04479308145046234,0.002424925591982901,0.006909048736095428
1774470637681775000,11.448775146484374,-0.04553893138170242,-0.0003073854487389326,0.007966156573593616
1774470637691788300,11.458788330078125,-0.039833997738361354,0.002251468721218407,0.013304302731156348
1774470637701801000,11.468801025390626,-0.03475391799509525,0.0008277195284143089,0.010377017107605933
1774470637711814100,11.478814208984375,-0.03728489777743816,0.0061236339794471855,0.00420431982204318
1774470637721827000,11.4888271484375,-0.03982464538812637,-0.0046388753144070505,0.002897475007176399
1774470637731840300,11.49884033203125,-0.049698389148712156,-0.0033435017416253683,0.0031926585614681243
1774470637741853000,11.50885302734375,-0.03606850772500038,-0.0027647885382175445,0.010918284377455711
1774470637751866000,11.5188662109375,-0.07138532029986382,-0.0015842004515230655,0.016430764188617466
1774470637761879300,11.52887939453125,-0.014365794482827186,0.010406462397798895,-0.0020600012697279454
1774470637771892000,11.53889208984375,-0.06449146913290023,-0.019385741536691783,0.05198080099746585
1774470637781905200,11.5489052734375,-0.025424364113807676,0.042075748783163724,-0.02291413485854864
1774470637791918000,11.55891796875,-0.052739072018861764,-0.014289441310986875,0.032941607876122
1774470637801931300,11.56893115234375,-0.07049684702754021,-0.044152080133184786,0.0047118309527635575
1774470637811944000,11.57894384765625,-0.010143792873620987,-0.00006334755979478358,-0.007948913177847862
1774470637821957000,11.58895703125,-0.05530161598324775,0.018845825973711906,-0.003241466139256954
1774470637831970300,11.59897021484375,0.008017302238941192,0.023552578892558813,-0.00803936794027686
1774470637841983000,11.60898291015625,-0.0868318957567215,-0.022475706908665596,-0.0014708032049238681
1774470637851996200,11.61899609375,-0.012781155639886856,0.00010590805988758802,-0.014647387903183698
1774470637862009000,11.629009033203126,-0.03418050202131271,0.019116459608636796,-0.014953092851489781
1774470637872022300,11.639022216796874,-0.04152326599955559,-0.018232918239757416,0.014269056110084055
1774470637882035000,11.649034912109375,-0.026247370934486387,0.0006069163845852017,-0.0028498364731669424
1774470637892048100,11.659048095703126,-0.05618658212423324,0.013223748308233916,-0.009056143767386674
1774470637902061000,11.66906103515625,-0.02207096203267574,-0.012269041399285197,0.0003375613912940025
1774470637912074000,11.679073974609375,-0.04257306731343269,-0.0232635693507269,-0.0032902737170457837
1774470637922087200,11.689087158203124,-0.026564181798696518,0.02248849332500249,0.023063626331835983
1774470637932100000,11.69910009765625,-0.03703355336487293,0.007533975701406598,-0.0009818506442010402
1774470637942113300,11.70911328125,-0.034469255834817886,0.00670194532405585,0.008872311633080244
1774470637952126000,11.7191259765625,-0.02713350611925125,0.0011554536454379558,-0.0032242227435111998
1774470637962139100,11.72913916015625,-0.028479660031199453,0.004488762786611915,-0.00565130375996232
1774470637972152000,11.739152099609376,-0.036406361377239224,0.007674553215876221,-0.002012947257608175
1774470637982165000,11.7491650390625,-0.047024201503396035,0.007497114289738238,-0.002424304537475109
1774470637992178200,11.75917822265625,-0.031468320453166956,-0.0048726475376635785,0.0014339783258736133
1774470638002191000,11.769191162109376,-0.032523382464051245,0.008712591026723384,-0.0025736498802900313
1774470638012204300,11.779204345703125,-0.03474398112297058,-0.00036941783428192136,0.015085487059503792
1774470638022217000,11.789217041015625,-0.036680502143502235,-0.011572693165577947,0.008225392031669616
1774470638032230100,11.799230224609374,-0.023199673801660537,0.012196122293546795,-0.013828326605260371
1774470638042243000,11.8092431640625,-0.03396481344401836,0.001004829660989344,-0.010502981574833392
1774470638052256000,11.819256103515626,-0.04801496610641479,-0.013628602782078086,0.012768442288786172
1774470638062269200,11.829269287109375,-0.04364975663423538,-0.0018409151589497922,0.016949235104769467
1774470638072282000,11.8392822265625,-0.037818566262722016,0.01056614647153765,0.017355770079046488
1774470638082295300,11.84929541015625,-0.04334463620781898,-0.004715886073373258,0.008446633566915988
1774470638092308200,11.85930810546875,-0.05067921687960624,-0.014945311403833329,0.006617664574086666
1774470638102321200,11.869321044921875,-0.02613923438489437,0.0005302709518000483,0.005290507623553276
1774470638112334300,11.879334228515624,-0.03987959044575691,-0.006086188045889139,0.013954875594377516
1774470638122347000,11.889346923828125,-0.03402268111109733,0.007436397078447043,-0.003419453054666519
1774470638132360200,11.899360107421876,-0.029084640187025067,-0.007992971515282988,0.005254851788282394
1774470638142373400,11.909373291015624,-0.03912906433939933,-0.011973382920958101,0.0010899871937930584
1774470638152386300,11.91938623046875,-0.030012860947847365,-0.008313435641303659,-0.004710223517566919
1774470638162399200,11.929399169921876,-0.031515082204341884,0.00995411552041769,-0.0016084581099450588
1774470638172412200,11.939412109375,-0.02972293809056282,-0.00958444195780903,0.0009276362389326095
1774470638182425300,11.94942529296875,-0.024183424142003057,-0.01675725619662553,0.008287351351976394
1774470638192438000,11.95943798828125,-0.042596448189020156,-0.0015908128554001449,-0.0007303601011633872
1774470638202451200,11.969451171875,-0.03151332863867283,-0.0019920871326699853,0.008290858483314513
1774470638212464400,11.97946435546875,-0.03629179508686065,-0.0017482319068163631,-0.001681815607100725
1774470638222477300,11.989477294921874,-0.030005846685171124,0.0011757292484864592,0.009279869520664214
1774470638232490200,11.999490234375,-0.08189385483264923,-0.008712773689813911,0.01897182697355747
1774470638242503200,12.009503173828126,-0.9814882406294345,-0.06473119617290794,0.11030147254094481
1774470638252516400,12.019516357421875,0.8440671443641186,0.20730704485289753,-0.07939253953620791
1774470638262529000,12.029529052734375,-0.2932838581502437,-0.06943751070033759,-0.03997296781763434
1774470638272543200,12.039543212890624,0.3889624927073717,-0.061011006605997675,-0.03256926743239164
1774470638282555400,12.049555419921875,-0.08887889141440392,0.04027202382944524,0.17821239472851155
1774470638292569000,12.059569091796876,-0.014521861827373504,0.0423800289593637,-0.011997311785817146
1774470638302582300,12.069582275390625,0.23854922839999199,-0.02942866785172373,-0.3507705630876124
1774470638312595200,12.07959521484375,0.34371173061728477,-0.05849610117562115,0.28471637468263505
1774470638322608000,12.089608154296876,-1.2864619520515204,-0.004496617299504578,0.19698533812910318
1774470638332621300,12.099621337890625,0.7974047619104385,0.15963340299744158,-0.27413024486899373
1774470638342634200,12.10963427734375,-0.5420668957948684,-0.18507508357223124,0.055643707419186825
1774470638352647400,12.1196474609375,0.24677286686599254,0.14952278174106032,0.01342339906617999
1774470638362660000,12.12966015625,-0.3587292670071125,0.25491730261594053,-0.2986648936014622
1774470638372673300,12.13967333984375,0.5099474179565906,-0.01702317712381482,-0.15017404872402548
1774470638382686200,12.149686279296875,-0.1924994248867035,-0.5348318665074184,-0.0360321943026036
1774470638392699100,12.15969921875,0.12808628168702124,0.016090937775000928,-0.2981334170732647
1774470638402712000,12.169712158203126,-0.1357879421055317,0.29859621227942407,0.046816550102084874
1774470638412725200,12.179725341796875,-0.34964112066626546,0.14616357097364963,0.2240681369744241
1774470638422738400,12.189738525390625,-0.16515081471204757,0.09799692143686115,0.21728088798709214
1774470638432751000,12.199751220703124,-0.27993396271169185,0.4530602132823318,-0.15795615396760404
1774470638442764300,12.209764404296875,0.049508419534564016,0.3697872155835852,-0.17125088515281675
1774470638452777200,12.219777099609376,0.13169862696528434,-0.39689072842337186,0.19365502466261386
1774470638462790100,12.2297900390625,-0.3815723824560642,-0.6368675784736871,0.4439005360752344
1774470638472803000,12.239802978515625,-0.29813714340031144,-0.356185610406287,-0.15330745137892662
1774470638482816300,12.249816162109376,0.6198614986151456,0.225677581465058,-0.7898183253694325
1774470638492829400,12.259829345703125,0.09731938750147819,0.25151355858705937,-0.10074169010035693
1774470638502842000,12.269842041015625,-0.2521943073928356,-0.05715389278642833,0.5339313009385019
1774470638512855300,12.279855224609374,0.11690671602487564,-0.08351619533747434,0.33959991138428447
1774470638522868200,12.2898681640625,-0.04678980822563171,-0.2746922626659274,0.12874123846441507
1774470638532881200,12.299881103515625,0.03403846320211887,0.00023055735286325215,0.0783116854969412
1774470638542894000,12.30989404296875,-0.0996498762756586,0.11015651111230254,-0.24846871099844572
1774470638552907300,12.3199072265625,-0.029309096592664716,-0.04401018744446337,0.05057509891800582
1774470638562920400,12.32992041015625,-0.12560615530908106,0.027647227795049547,0.25384105168655513
1774470638572933000,12.33993310546875,0.09258359115123749,0.035866847673058505,0.49870750040933487
1774470638582946300,12.3499462890625,0.15886486631035804,-0.9404173945724964,0.5449105217229575
1774470638592959200,12.359959228515624,0.2330535535931587,-0.9915987157553434,-0.044954555622488256
1774470638602972200,12.36997216796875,-0.3465641974389553,-0.28632088726982474,-0.3913828517220914
1774470638612985000,12.379985107421875,-0.30617139677405353,0.2776784388698637,-0.01498933320865035
1774470638622998300,12.389998291015624,0.1446411106467247,0.5169359616696835,0.2605982708618045
1774470638633011500,12.400011474609375,-0.5135866512417793,0.3335663303084671,0.11945464694201946
