time,seconds_elapsed,z,y,x
1774470626306950000,0.073949951171875,0.3478288948535919,0.05718943849205971,-0.11735814064741135
1774470626316963000,0.083963134765625,0.45444613695144653,0.061686981469392776,-0.16609159111976624
1774470626326975700,0.093975830078125,0.4730397164821625,0.03327666223049164,-0.26732754707336426
1774470626336989000,0.103989013671875,0.4540194272994995,0.04802524670958519,-0.39042550325393677
1774470626347001900,0.114001953125,0.4218597114086151,0.007331029046326876,-0.5157839059829712
1774470626357014800,0.124014892578125,0.4180700480937958,-0.17337296903133392,-0.6123980283737183
1774470626367028000,0.134028076171875,0.4098755717277527,-0.3697534501552582,-0.646384060382843
1774470626377041000,0.144041015625,0.3841451406478882,-0.44120046496391296,-0.5889421105384827
1774470626387054800,0.154054931640625,0.3661026656627655,-0.45870691537857056,-0.48979324102401733
1774470626397067800,0.16406787109375,0.49437299370765686,-0.9783221483230591,-0.5736162662506104
1774470626407081000,0.1740810546875,0.518620491027832,-1.0310783386230469,-0.6585695743560791
1774470626417094000,0.184093994140625,0.48611557483673096,-0.8355363607406616,-0.7241435647010803
1774470626427106800,0.19410693359375,0.4999755918979645,-0.6660240888595581,-0.7475934624671936
1774470626437120000,0.2041201171875,0.5858582854270935,-0.37074023485183716,-0.7153409719467163
1774470626447133000,0.2141328125,0.6979280710220337,0.09288294613361359,-0.6296159029006958
1774470626457145900,0.224145751953125,0.8189147114753723,0.6290190815925598,-0.49146443605422974
1774470626467158800,0.23415869140625,0.9585037231445312,1.1720495223999023,-0.32843732833862305
1774470626477172000,0.244171875,1.057152509689331,1.7030041217803955,-0.1633804589509964
1774470626487185000,0.254184814453125,1.0888925790786743,2.1441285610198975,0.0669441893696785
1774470626497197800,0.26419775390625,1.0622422695159912,2.5759520530700684,0.3713759779930115
1774470626507211000,0.2742109375,1.0299938917160034,2.973966121673584,0.7805410623550415
1774470626517224000,0.284223876953125,0.9957970380783081,3.275442600250244,1.2011466026306152
1774470626527236900,0.29423681640625,0.8912026286125183,3.042905330657959,1.5234644412994385
1774470626537249800,0.304249755859375,0.6191314458847046,1.8851133584976196,1.7865618467330933
1774470626547263000,0.314262939453125,0.2603048086166382,0.9291790723800659,2.1431500911712646
1774470626557276000,0.32427587890625,-0.07677894085645676,0.6156813502311707,2.667363166809082
1774470626567288800,0.334288818359375,-0.5196753740310669,0.49169814586639404,3.189666509628296
1774470626577302000,0.344302001953125,-0.9885081052780151,-0.5374801754951477,3.353440999984741
1774470626587315000,0.35431494140625,-1.3712313175201416,-3.1332597732543945,2.628046751022339
1774470626597328000,0.364327880859375,-1.619722843170166,-5.527297496795654,1.4356803894042969
1774470626607340800,0.3743408203125,-1.7218198776245117,-6.919044494628906,0.4832499325275421
1774470626617354000,0.38435400390625,-1.6838464736938477,-7.301279544830322,-0.36720821261405945
1774470626627366700,0.39436669921875,-1.709932565689087,-5.97702693939209,-1.4998048543930054
1774470626637379800,0.4043798828125,-1.6964935064315796,-4.092545032501221,-2.3869848251342773
1774470626647394000,0.41439404296875,-1.685248613357544,-1.5249265432357788,-3.0675816535949707
1774470626657406700,0.42440673828125,-1.6208901405334473,1.123072862625122,-3.3909780979156494
1774470626667420000,0.434419921875,-1.4455816745758057,2.5647528171539307,-3.4251787662506104
1774470626677432800,0.444432861328125,-1.1739660501480103,2.223191022872925,-3.4352285861968994
1774470626687445800,0.45444580078125,-0.495561808347702,0.7914680242538452,-3.0107452869415283
1774470626697459000,0.464458984375,0.294752299785614,0.7508257627487183,-2.0937814712524414
1774470626707472000,0.474471923828125,0.5821295976638794,0.43893060088157654,-1.1208728551864624
1774470626717485000,0.484485107421875,0.4152407646179199,-0.6503147482872009,-0.26357200741767883
1774470626727497700,0.494497802734375,0.18904034793376923,-1.6827962398529053,0.48586028814315796
1774470626737511000,0.504510986328125,-0.04118992015719414,-1.883512258529663,1.09238862991333
1774470626747523800,0.51452392578125,-0.2955740690231323,-1.755531668663025,1.3757352828979492
1774470626757536800,0.524536865234375,-0.5732306838035583,-1.7348146438598633,1.040355920791626
1774470626767550000,0.534550048828125,-0.7267098426818848,-1.077250599861145,0.5584237575531006
1774470626777563000,0.54456298828125,-0.6572409868240356,-0.5169472694396973,0.15209436416625977
1774470626787576000,0.554576171875,-0.475430965423584,0.015054522082209587,-0.14019182324409485
1774470626797588700,0.564588623046875,-0.3401338756084442,0.514736533164978,-0.3565281331539154
1774470626807602000,0.574601806640625,-0.27076250314712524,0.9054621458053589,-0.502967894077301
1774470626817614800,0.58461474609375,-0.2562043070793152,1.0449105501174927,-0.5501311421394348
1774470626827627800,0.594627685546875,-0.26184648275375366,1.00556480884552,-0.5280207991600037
1774470626837641000,0.604640869140625,-0.2692181169986725,0.8460065722465515,-0.43833857774734497
1774470626847654000,0.61465380859375,-0.30061689019203186,0.5650059580802917,-0.2878999710083008
1774470626857667000,0.6246669921875,-0.3429105579853058,0.255124568939209,-0.08226132392883301
1774470626867679700,0.6346796875,-0.3712599277496338,0.02291181869804859,0.13286802172660828
1774470626877693000,0.64469287109375,-0.3183434307575226,-0.0688852071762085,0.30736419558525085
1774470626887705900,0.654705810546875,-0.23891310393810272,-0.04963241145014763,0.4063813388347626
1774470626897719800,0.6647197265625,-0.22100333869457245,0.026145707815885544,0.38617539405822754
1774470626907733000,0.67473291015625,-0.25379252433776855,0.09973021596670151,0.256955087184906
1774470626917746000,0.684745849609375,-0.31783995032310486,0.1711396723985672,0.09500425308942795
1774470626927758800,0.6947587890625,-0.3762737214565277,0.23947946727275848,-0.04905415698885918
1774470626937771800,0.704771728515625,-0.40771472454071045,0.21121054887771606,-0.1343647837638855
1774470626947785000,0.714784912109375,-0.4149320125579834,0.11269322037696838,-0.1458626389503479
1774470626957798000,0.7247978515625,-0.3706468343734741,-0.0124423298984766,-0.11938042938709259
1774470626967810800,0.734810791015625,-0.3172438442707062,-0.12504073977470398,-0.08054109662771225
1774470626977824000,0.744823974609375,-0.30840641260147095,-0.17249825596809387,-0.0694277286529541
1774470626987837000,0.7548369140625,-0.32032540440559387,-0.1635054051876068,-0.0873698741197586
1774470626997849900,0.764849853515625,-0.31888172030448914,-0.1235065832734108,-0.10310196876525879
1774470627007862800,0.77486279296875,-0.32475876808166504,-0.048321716487407684,-0.11706661432981491
1774470627017876000,0.7848759765625,-0.35307615995407104,0.03889095038175583,-0.13749918341636658
1774470627027889000,0.794888916015625,-0.36965397000312805,0.1108420342206955,-0.1484123319387436
1774470627037901800,0.80490185546875,-0.33972403407096863,0.15084752440452576,-0.1475830227136612
1774470627047915000,0.8149150390625,-0.28003060817718506,0.12655428051948547,-0.1580459028482437
1774470627057928000,0.824927978515625,-0.2420845627784729,0.00781138613820076,-0.17123493552207947
1774470627067940900,0.83494091796875,-0.23033617436885834,-0.16427414119243622,-0.14444884657859802
1774470627077953800,0.844953857421875,-0.2526409327983856,-0.3152271509170532,-0.09251774102449417
1774470627087966700,0.854966796875,-0.25520792603492737,-0.5564732551574707,-0.03238179162144661
1774470627097979600,0.864979736328125,-0.24340800940990448,-0.8335434794425964,0.07772713154554367
1774470627107992600,0.87499267578125,-0.23885421454906464,-0.926969051361084,0.22914676368236542
1774470627118005500,0.885005615234375,-0.261670857667923,-0.7974669337272644,0.33506518602371216
1774470627128018700,0.895018798828125,-0.26578325033187866,-0.6443525552749634,0.3328916132450104
1774470627138031400,0.90503125,-0.23143218457698822,-0.5025192499160767,0.316257506608963
1774470627148045600,0.915045654296875,-0.17197205126285553,-0.31348249316215515,0.3150790333747864
1774470627158058800,0.925058837890625,-0.1736873984336853,-0.255144864320755,0.2940342128276825
1774470627168071400,0.935071533203125,-0.20264574885368347,-0.32875946164131165,0.2659878134727478
1774470627178084600,0.945084716796875,-0.2415446788072586,-0.4014491140842438,0.23268550634384155
1774470627188097800,0.955097900390625,-0.2765457332134247,-0.42887985706329346,0.19858044385910034
1774470627198110500,0.9651103515625,-0.29873546957969666,-0.5019670724868774,0.19501447677612305
1774470627208123600,0.97512353515625,-0.303125262260437,-0.5593245029449463,0.2701157033443451
1774470627218136600,0.985136474609375,-0.2917892336845398,-0.5916616916656494,0.4191683232784271
1774470627228149800,0.995149658203125,-0.26736220717430115,-0.7589684724807739,0.614014744758606
1774470627238162400,1.005162353515625,-0.21316848695278168,-1.0229816436767578,0.8185047507286072
1774470627248175600,1.015175537109375,-0.23845767974853516,-1.4331852197647095,1.0072214603424072
1774470627258188500,1.0251884765625,-0.33621034026145935,-1.9886574745178223,1.1831823587417603
1774470627268201500,1.035201416015625,-0.41712236404418945,-2.377044916152954,1.2945209741592407
1774470627278214700,1.045214599609375,-0.46355459094047546,-2.445878267288208,1.3428192138671875
1774470627288227600,1.0552275390625,-0.5102375745773315,-2.0296223163604736,1.2853243350982666
1774470627298240800,1.06524072265625,-0.543972909450531,-1.571012258529663,1.1173335313796997
1774470627308253400,1.07525341796875,-0.5657445788383484,-1.6305755376815796,0.9285446405410767
1774470627318266600,1.0852666015625,-0.5460571646690369,-2.145244598388672,0.8975158929824829
1774470627328279600,1.095279541015625,-0.2917734682559967,-2.5458977222442627,1.125855565071106
1774470627338292500,1.10529248046875,0.17173881828784943,-2.841027021408081,1.5142254829406738
1774470627348305700,1.1153056640625,0.45079904794692993,-3.322901487350464,1.792604684829712
1774470627358318600,1.125318603515625,0.12266375869512558,-4.157235622406006,1.7126315832138062
1774470627368332500,1.13533251953125,-0.3019712567329407,-4.97222375869751,1.3907455205917358
1774470627378345500,1.145345458984375,-0.5905101299285889,-5.834460735321045,0.9435707330703735
1774470627388358700,1.155358642578125,-1.1915684938430786,-6.200869560241699,0.4539385735988617
1774470627398371600,1.16537158203125,-2.362002372741699,-5.518343925476074,0.04470153898000717
1774470627408384500,1.175384521484375,-3.6804449558258057,-4.919527053833008,-0.21845722198486328
1774470627418397700,1.185397705078125,-4.553717136383057,-5.734285831451416,-0.30252256989479065
1774470627428410600,1.19541064453125,-5.127584457397461,-6.973881244659424,-0.3325217366218567
1774470627438423600,1.205423583984375,-5.464779853820801,-7.430253982543945,-0.4160645604133606
1774470627448436500,1.2154365234375,-5.429782390594482,-7.24703311920166,-0.452048659324646
1774470627458449700,1.22544970703125,-5.0938239097595215,-6.470161437988281,-0.3658549189567566
1774470627468462600,1.235462646484375,-4.490859508514404,-5.142720699310303,-0.22832968831062317
1774470627478475500,1.2454755859375,-3.594912052154541,-4.1787495613098145,-0.04656468704342842
1774470627488488700,1.25548876953125,-2.863355875015259,-3.39143443107605,0.12028093636035919
1774470627498501600,1.265501708984375,-2.6209912300109863,-2.7946879863739014,0.23121437430381775
1774470627508514600,1.2755146484375,-2.8137242794036865,-2.444817066192627,0.4778304100036621
1774470627518527500,1.285527587890625,-3.202152967453003,-2.343693733215332,0.9390819072723389
1774470627528540700,1.295540771484375,-3.5620384216308594,-2.4389071464538574,1.5203856229782104
1774470627538553600,1.3055537109375,-3.6841185092926025,-2.628591775894165,2.2326154708862305
1774470627548566500,1.31556640625,-3.496582508087158,-2.154325485229492,2.714877128601074
1774470627558579700,1.325579833984375,-3.3141257762908936,-1.9858092069625854,2.4092254638671875
1774470627568593400,1.335593505859375,-3.4435458183288574,-2.1948587894439697,1.6384954452514648
1774470627578606600,1.345606689453125,-3.772369623184204,-2.477660655975342,0.8946806788444519
1774470627588619800,1.355619873046875,-4.082437992095947,-2.5149431228637695,0.4865567088127136
1774470627598632400,1.365632568359375,-4.517154216766357,-2.3944292068481445,0.5418274402618408
1774470627608645600,1.375645751953125,-4.999502658843994,-2.243912935256958,0.7831615209579468
1774470627618658600,1.385658447265625,-5.26866340637207,-2.556990146636963,1.3171387910842896
1774470627628671700,1.395671630859375,-5.638503074645996,-2.511561393737793,1.8747848272323608
1774470627638684400,1.405684326171875,-5.329564094543457,-2.0146145820617676,2.4799156188964844
1774470627648697600,1.415697509765625,-3.404881715774536,-0.6259388327598572,2.6375033855438232
1774470627658710800,1.425710693359375,-0.6155630350112915,1.1503287553787231,1.8418298959732056
1774470627668723500,1.435723388671875,0.7870030999183655,2.173860788345337,0.8701294660568237
1774470627678736600,1.445736572265625,1.0653767585754395,1.9968299865722656,0.7368824481964111
1774470627688749600,1.45574951171875,1.028873085975647,1.401968002319336,0.9203205704689026
1774470627698762800,1.4657626953125,0.8464840650558472,0.9790148735046387,1.2151249647140503
1774470627708775400,1.475775390625,0.8380270600318909,0.868878960609436,1.354090929031372
1774470627718788600,1.48578857421875,0.9281414747238159,0.8717285394668579,1.3868789672851562
1774470627728801500,1.495801513671875,1.0235432386398315,0.8362501263618469,1.3403868675231934
1774470627738814700,1.505814697265625,1.0009554624557495,0.7674838304519653,1.3676728010177612
1774470627748827600,1.51582763671875,0.8026636838912964,0.9377378225326538,1.6320711374282837
1774470627758840600,1.525840576171875,0.6321660280227661,1.1494394540786743,1.593660831451416
1774470627768854500,1.5358544921875,0.5426337122917175,1.0039937496185303,1.3591642379760742
1774470627778867500,1.545867431640625,0.20263461768627167,1.0533101558685303,0.9724609851837158
1774470627788880600,1.555880615234375,-0.4848036766052246,0.032813660800457,1.1086153984069824
1774470627798893600,1.5658935546875,-1.48944091796875,-0.9063313603401184,1.130732774734497
1774470627808906500,1.575906494140625,-2.487776279449463,-0.9906354546546936,1.0902702808380127
1774470627818919700,1.585919677734375,-3.227694511413574,-0.6049210429191589,0.9118465185165405
1774470627828932600,1.5959326171875,-3.649693012237549,-0.35364648699760437,0.5936717391014099
1774470627838945500,1.605945556640625,-3.8195207118988037,-0.02154284156858921,0.44617417454719543
1774470627848958500,1.61595849609375,-3.892974376678467,0.33359894156455994,0.44653964042663574
1774470627858971600,1.6259716796875,-3.556992769241333,0.5966606736183167,0.470653772354126
1774470627868984600,1.635984619140625,-1.669610619544983,1.268676519393921,0.3563597798347473
1774470627878997500,1.64599755859375,0.08149895817041397,0.6387300491333008,0.06489250063896179
1774470627889010700,1.6560107421875,1.1591840982437134,0.08575591444969177,-0.006483048666268587
1774470627899023600,1.666023681640625,1.8627153635025024,0.20125161111354828,0.15795809030532837
1774470627909036500,1.67603662109375,2.0625340938568115,0.2871030271053314,0.511228621006012
1774470627919049500,1.686049560546875,2.171280860900879,0.16377419233322144,0.8103135824203491
1774470627929062700,1.696062744140625,2.340350389480591,0.2460649609565735,1.1010208129882812
1774470627939075600,1.70607568359375,2.4556450843811035,0.1742592304944992,1.4039825201034546
1774470627949088500,1.716088623046875,2.3020641803741455,0.6083632111549377,1.8167630434036255
1774470627959101700,1.726101806640625,1.7282017469406128,0.940613865852356,2.186931610107422
1774470627969114600,1.736114501953125,1.2561039924621582,1.1591764688491821,2.4226346015930176
1774470627979128600,1.746128662109375,0.7453805804252625,1.5598375797271729,2.5479447841644287
1774470627989141800,1.756141845703125,0.02444235235452652,1.4948444366455078,2.6434905529022217
1774470627999154700,1.76615478515625,-0.8112940788269043,0.8247818946838379,2.651614189147949
1774470628009167600,1.776167724609375,-1.6288913488388062,-0.0045134397223591805,2.626981019973755
1774470628019180500,1.7861806640625,-2.394343852996826,-0.5355280637741089,2.4663143157958984
1774470628029193700,1.79619384765625,-2.883791446685791,0.25506433844566345,2.2920548915863037
1774470628039206400,1.806206298828125,-2.8016231060028076,0.6344274282455444,2.138791084289551
1774470628049219600,1.816219482421875,-2.0672929286956787,0.971682071685791,1.9914790391921997
1774470628059232800,1.826232666015625,-1.0149054527282715,0.6551230549812317,1.4993908405303955
1774470628069245700,1.83624560546875,-0.009940424002707005,0.36471420526504517,0.721189022064209
1774470628079258600,1.846258544921875,0.510961651802063,0.7197026610374451,-0.030304454267024994
1774470628089271600,1.856271484375,0.5522394180297852,0.6914145946502686,-0.618161678314209
1774470628099284500,1.866284423828125,0.20438210666179657,0.2597622871398926,-1.2317136526107788
1774470628109297400,1.87629736328125,-0.2550525963306427,-0.04434632882475853,-1.628562092781067
1774470628119310300,1.886310302734375,-0.5396979451179504,-0.5096263885498047,-1.8747597932815552
1774470628129323500,1.896323486328125,-0.6254993677139282,-0.7802038192749023,-2.02601957321167
1774470628139336700,1.906336669921875,-0.6535762548446655,-0.8962758183479309,-2.141507148742676
1774470628149349400,1.916349365234375,-0.68263840675354,-0.820806622505188,-2.309983491897583
1774470628159363600,1.926363525390625,-0.7054968476295471,-0.6614978909492493,-2.4898767471313477
1774470628169376300,1.936376220703125,-0.7556724548339844,-0.6084247827529907,-2.6631202697753906
1774470628179389400,1.946389404296875,-0.8155102133750916,-0.6859808564186096,-2.804189920425415
1774470628189402600,1.956402587890625,-0.8332648873329163,-0.7301495671272278,-2.834711790084839
1774470628199415600,1.96641552734375,-0.7854070663452148,-0.7025077939033508,-2.7549238204956055
1774470628209428500,1.976428466796875,-0.7124432921409607,-0.6245852112770081,-2.610959529876709
1774470628219441400,1.98644140625,-0.6457348465919495,-0.594042181968689,-2.436838150024414
1774470628229454600,1.99645458984375,-0.5977452397346497,-0.651189386844635,-2.2456531524658203
1774470628239467300,2.00646728515625,-0.6155353784561157,-0.8268224596977234,-2.0792441368103027
1774470628249480400,2.01648046875,-0.7297168374061584,-1.183623194694519,-1.9374061822891235
1774470628259493600,2.02649365234375,-0.881129264831543,-1.4839345216751099,-1.8153926134109497
1774470628269506600,2.036506591796875,-0.9899007678031921,-1.768396019935608,-1.6618129014968872
1774470628279519500,2.04651953125,-0.9945746660232544,-1.8980411291122437,-1.4191690683364868
1774470628289532400,2.056532470703125,-0.901770293712616,-1.8902994394302368,-1.0900460481643677
1774470628299545600,2.066545654296875,-0.7753457427024841,-1.8898605108261108,-0.7424589991569519
1774470628309558300,2.076558349609375,-0.6217194199562073,-1.8483752012252808,-0.40400704741477966
1774470628319572500,2.086572509765625,-0.4168597161769867,-1.7251909971237183,-0.056055452674627304
1774470628329585700,2.096585693359375,-0.15480835735797882,-1.5898443460464478,0.32711219787597656
1774470628339598300,2.106598388671875,0.09757409244775772,-1.4730088710784912,0.676074743270874
1774470628349611500,2.116611572265625,0.29081159830093384,-1.437106728553772,0.9484378695487976
1774470628359624400,2.12662451171875,0.45332035422325134,-1.5117199420928955,1.180503249168396
1774470628369637400,2.136637451171875,0.5747149586677551,-1.5610789060592651,1.405717134475708
1774470628379650600,2.146650634765625,0.5985257625579834,-1.5446969270706177,1.6066653728485107
1774470628389663500,2.15666357421875,0.5623070597648621,-1.4161823987960815,1.7486965656280518
1774470628399676700,2.1666767578125,0.46946606040000916,-1.2597941160202026,1.8475126028060913
1774470628409689300,2.176689453125,0.3506740629673004,-1.1569091081619263,1.93929922580719
1774470628419702500,2.18670263671875,0.3141392171382904,-0.8746340274810791,2.0067946910858154
1774470628429715500,2.196715576171875,0.30907511711120605,-0.595257580280304,1.9606999158859253
1774470628439728400,2.206728271484375,0.19105182588100433,-0.604825496673584,1.9433963298797607
1774470628449741300,2.2167412109375,0.07614873349666595,-0.90013188123703,2.094057559967041
1774470628459755500,2.226755615234375,-0.008263617753982544,-1.2729600667953491,2.329129219055176
1774470628469768400,2.2367685546875,-0.1974695920944214,-1.4408679008483887,2.4400975704193115
1774470628479781400,2.246781494140625,-0.20948444306850433,-1.534916877746582,2.3507895469665527
1774470628489794600,2.256794677734375,0.3064877986907959,-0.31498798727989197,1.6731199026107788
1774470628499807200,2.26680712890625,-0.1576140969991684,0.39377719163894653,1.0520334243774414
1774470628509820400,2.2768203125,-1.0962437391281128,-0.7629192471504211,0.6889141798019409
1774470628519833600,2.28683349609375,-1.8203904628753662,-1.9208965301513672,0.3743554651737213
1774470628529846500,2.296846435546875,-2.22078275680542,-1.9130395650863647,0.10355661064386368
1774470628539859500,2.306859375,-2.399116277694702,-1.5034819841384888,0.02951940707862377
1774470628549872400,2.316872314453125,-2.5469837188720703,-1.0831795930862427,0.011271515861153603
1774470628559885600,2.326885498046875,-2.748429536819458,-0.8768937587738037,-0.08709420263767242
1774470628569899500,2.3368994140625,-3.042707681655884,-1.0738976001739502,-0.27953967452049255
1774470628579912400,2.346912353515625,-3.3035082817077637,-1.4917476177215576,-0.5721172094345093
1774470628589925600,2.356925537109375,-3.5177371501922607,-1.9173884391784668,-0.8555777072906494
1774470628599938300,2.366938232421875,-3.545257568359375,-2.1194512844085693,-1.062402367591858
1774470628609951500,2.376951416015625,-3.5117170810699463,-2.351877212524414,-1.2137800455093384
1774470628619964400,2.38696435546875,-3.385737419128418,-2.6761550903320312,-1.3151705265045166
1774470628629977300,2.396977294921875,-3.0367438793182373,-2.8341469764709473,-1.3614542484283447
1774470628639990500,2.406990478515625,-2.4399993419647217,-2.3901584148406982,-1.2782559394836426
1774470628650003500,2.41700341796875,-1.7843403816223145,-1.3671844005584717,-0.9755767583847046
1774470628660016600,2.4270166015625,-1.2693289518356323,-0.6039925813674927,-0.46683627367019653
1774470628670029300,2.437029296875,-1.0048725605010986,-0.5900586247444153,-0.006865545175969601
1774470628680043500,2.44704345703125,-0.7817034125328064,-0.6090003848075867,0.14519242942333221
1774470628690056400,2.457056396484375,-0.6075554490089417,-0.6545053124427795,0.10342013090848923
1774470628700069400,2.4670693359375,-0.47788190841674805,-0.85030597448349,-0.18478983640670776
1774470628710082600,2.47708251953125,-0.5051580667495728,-1.169327735900879,-0.5687986016273499
1774470628720095500,2.487095458984375,-0.46741387248039246,-1.2576690912246704,-0.894178569316864
1774470628730108400,2.4971083984375,-0.3291613757610321,-0.9424097537994385,-1.1227569580078125
1774470628740121300,2.507121337890625,-0.2285202592611313,-0.5033053755760193,-1.1663169860839844
1774470628750134500,2.517134521484375,-0.35834044218063354,-0.3574581742286682,-1.040270447731018
1774470628760147500,2.5271474609375,-0.6634792685508728,-0.5578464269638062,-1.0100752115249634
1774470628770161400,2.537161376953125,-0.9838610291481018,-0.9513010382652283,-1.2337721586227417
1774470628780174600,2.547174560546875,-1.1973663568496704,-1.291422724723816,-1.679745078086853
1774470628790187300,2.557187255859375,-1.250274658203125,-1.5809556245803833,-2.2394471168518066
1774470628800200400,2.567200439453125,-1.2424979209899902,-2.0034613609313965,-2.717799186706543
1774470628810213600,2.577213623046875,-1.1824158430099487,-2.49790620803833,-2.9992904663085938
1774470628820226300,2.587226318359375,-1.0195438861846924,-2.7679765224456787,-3.0302515029907227
1774470628830239500,2.597239501953125,-0.8172928690910339,-2.7930119037628174,-2.9282102584838867
1774470628840252400,2.60725244140625,-0.6522485613822937,-2.756080389022827,-2.879791498184204
1774470628850265600,2.617265625,-0.44068849086761475,-2.6989500522613525,-2.8618671894073486
1774470628860278300,2.6272783203125,-0.11963698267936707,-2.5255825519561768,-2.72603178024292
1774470628870292500,2.63729248046875,0.15748366713523865,-2.1370949745178223,-2.454345464706421
1774470628880305400,2.647305419921875,0.29831695556640625,-1.8238801956176758,-2.05304217338562
1774470628890318300,2.657318359375,0.27663400769233704,-1.7769321203231812,-1.5256205797195435
1774470628900331500,2.66733154296875,0.056201234459877014,-1.8123338222503662,-0.930404543876648
1774470628910344400,2.677344482421875,-0.3160855174064636,-1.7800266742706299,-0.42714035511016846
1774470628920357400,2.687357421875,-0.7155327796936035,-1.8902016878128052,-0.018211986869573593
1774470628930370600,2.69737060546875,-1.0425852537155151,-1.9609363079071045,0.3229426443576813
1774470628940383500,2.707383544921875,-1.2152905464172363,-1.9132617712020874,0.6225442290306091
1774470628950396400,2.717396484375,-1.262742042541504,-1.748237133026123,0.9553341865539551
1774470628960410600,2.72741064453125,-1.2400388717651367,-1.4916503429412842,1.262222170829773
1774470628970423600,2.737423583984375,-1.1590412855148315,-1.118686556816101,1.538509488105774
1774470628980436500,2.7474365234375,-1.0836647748947144,-0.7944725155830383,1.8626782894134521
1774470628990449400,2.757449462890625,-1.092399001121521,-0.739274263381958,2.1991360187530518
1774470629000462600,2.767462646484375,-1.166605830192566,-0.781108558177948,2.5282676219940186
1774470629010475500,2.7774755859375,-1.3981108665466309,-2.18951153755188,0.7438092231750488
1774470629020488400,2.787488525390625,-1.5038570165634155,-3.6999661922454834,-0.15736587345600128
1774470629030501400,2.79750146484375,-1.453018307685852,-3.9742283821105957,-1.6282325983047485
1774470629040514600,2.8075146484375,-1.053206443786621,-2.9740216732025146,-2.439497470855713
1774470629050528500,2.817528564453125,-0.5832855701446533,-3.0412991046905518,-2.7115542888641357
1774470629060541400,2.82754150390625,-0.30291542410850525,-3.16913104057312,-2.7002313137054443
1774470629070554400,2.837554443359375,-0.30805978178977966,-2.60056734085083,-2.4514167308807373
1774470629080567300,2.8475673828125,-0.2528519332408905,-2.0419349670410156,-1.9465231895446777
1774470629090580500,2.85758056640625,-0.3087988793849945,-1.9830727577209473,-1.3590806722640991
1774470629100593700,2.86759375,-0.6315915584564209,-1.993320107460022,-0.9072480797767639
1774470629110606300,2.8776064453125,-0.8996893763542175,-1.9592161178588867,-0.42668816447257996
1774470629120619500,2.88761962890625,-1.0403258800506592,-1.8184415102005005,0.15602560341358185
1774470629130632400,2.897632568359375,-1.065546989440918,-1.5022896528244019,0.8932886719703674
1774470629140645400,2.907645263671875,-1.0165783166885376,-1.220945119857788,1.6684749126434326
1774470629150659600,2.91765966796875,-1.0645363330841064,-1.3371083736419678,2.1342685222625732
1774470629160672500,2.927672607421875,-1.1882998943328857,-1.8280173540115356,2.177680730819702
1774470629170685400,2.937685546875,-1.2864657640457153,-2.187819480895996,1.87375807762146
1774470629180698600,2.94769873046875,-1.063246488571167,-2.302468776702881,1.402746558189392
1774470629190711600,2.957711669921875,-0.6569756269454956,-1.6728676557540894,0.9721624255180359
1774470629200724500,2.967724365234375,-0.3227553069591522,-0.9059075713157654,0.6500704288482666
1774470629210737400,2.9777373046875,-0.11844663321971893,-0.5233184695243835,0.20445726811885834
1774470629220750600,2.98775048828125,-0.07856659591197968,-0.23366425931453705,-0.3107791841030121
1774470629230763500,2.997763427734375,-0.14797914028167725,-0.16701826453208923,-0.7321075797080994
1774470629240777500,3.007777587890625,-0.4198862910270691,-0.5115559101104736,-1.1541194915771484
1774470629250790700,3.017790771484375,-0.11828106641769409,-1.2781246900558472,-0.7462940812110901
1774470629260803600,3.027803466796875,0.5062110424041748,-1.5745898485183716,0.0998888686299324
1774470629270816500,3.03781640625,0.6886966228485107,-1.8259624242782593,0.6590529680252075
1774470629280829400,3.047829345703125,0.5162779688835144,-1.7907803058624268,0.6043726801872253
1774470629290842600,3.057842529296875,0.2996548116207123,-1.5921486616134644,0.470258504152298
1774470629300855600,3.06785546875,0.19141489267349243,-1.511768102645874,0.3512876331806183
1774470629310868500,3.077868408203125,0.18031243979930878,-1.4243175983428955,0.14740309119224548
1774470629320881700,3.087881591796875,0.25279250741004944,-1.147000789642334,0.0017212475650012493
1774470629330895400,3.097895263671875,0.12140394002199173,-0.8109444379806519,0.04756974056363106
1774470629340908500,3.107908447265625,0.11733037233352661,-0.9727133512496948,0.4062589108943939
1774470629350921700,3.117921630859375,-0.18673475086688995,-1.460824728012085,0.3680477738380432
1774470629360934400,3.127934326171875,-0.14724673330783844,-1.4978604316711426,0.295518696308136
1774470629370947600,3.137947509765625,-0.15103061497211456,-0.8182651996612549,0.3436107039451599
1774470629380960500,3.14796044921875,-0.29824188351631165,-0.28243905305862427,0.31214356422424316
1774470629390973400,3.157973388671875,-0.44952529668807983,-0.041550539433956146,0.3133183717727661
1774470629400986400,3.167986328125,-0.5526505708694458,0.15930159389972687,0.37183576822280884
1774470629410999600,3.17799951171875,-0.6307754516601562,0.11892169713973999,0.5406801700592041
1774470629421013500,3.188013427734375,-0.6267011165618896,-0.11646712571382523,0.510653555393219
1774470629431026400,3.1980263671875,-0.569115161895752,-0.05475162714719772,0.26328280568122864
1774470629441039600,3.20803955078125,-0.5957204103469849,0.14118805527687073,0.2980378568172455
1774470629451052500,3.218052490234375,-0.6960915923118591,-0.12233416736125946,0.3514331877231598
1774470629461065500,3.2280654296875,-0.8467303514480591,-0.48515868186950684,0.27033141255378723
1774470629471078700,3.23807861328125,-0.9738437533378601,-0.6948796510696411,0.005986484698951244
1774470629481091600,3.248091552734375,-1.030334234237671,-0.5375595688819885,-0.410829097032547
1774470629491104500,3.2581044921875,-1.0406252145767212,-0.17290063202381134,-0.7174405455589294
1774470629501117400,3.268117431640625,-0.9886529445648193,-0.025072554126381874,-0.8235155940055847
1774470629511131600,3.278131591796875,-0.8171950578689575,-0.2917480766773224,-0.7915965914726257
1774470629521144600,3.28814453125,-0.48286423087120056,-0.7196397185325623,-0.712066650390625
1774470629531157500,3.298157470703125,-0.0905362069606781,-0.9570516347885132,-0.5657527446746826
1774470629541170700,3.308170654296875,0.1392892599105835,-0.9074167013168335,-0.4563588500022888
1774470629551183400,3.318183349609375,0.14843973517417908,-0.7106386423110962,-0.44119054079055786
1774470629561196500,3.328196533203125,-0.01916949637234211,-0.21246644854545593,-0.5458474159240723
1774470629571209500,3.33820947265625,-0.2127542495727539,0.25203919410705566,-0.5796462893486023
1774470629581222700,3.34822265625,-0.44569697976112366,0.5610992908477783,-0.6448615193367004
1774470629591235300,3.3582353515625,-0.7414862513542175,1.004753828048706,-0.7721933722496033
1774470629601249500,3.36824951171875,-0.9067356586456299,1.0665982961654663,-0.6594093441963196
1774470629611262500,3.378262451171875,-0.5411414504051208,0.5411434769630432,-0.3801862299442291
1774470629621275400,3.388275390625,-0.10302244126796722,0.12083674222230911,-0.2053438276052475
1774470629631288600,3.39828857421875,-0.06622917205095291,-0.0760781392455101,-0.13848260045051575
1774470629641301500,3.408301513671875,-0.047744978219270706,-0.019954146817326546,-0.2063862830400467
1774470629651314400,3.418314453125,0.019885070621967316,0.4746067523956299,-0.2531295120716095
1774470629661327600,3.42832763671875,0.19772669672966003,1.0400097370147705,-0.32866793870925903
1774470629671340500,3.438340576171875,0.22743920981884003,1.1078380346298218,-0.2912231385707855
1774470629681353500,3.448353515625,0.22043323516845703,1.1420010328292847,-0.23542697727680206
1774470629691367700,3.45836767578125,0.18954476714134216,1.3387466669082642,-0.30275681614875793
1774470629701380600,3.468380615234375,0.25304409861564636,1.4045190811157227,-0.5385860800743103
1774470629711393500,3.4783935546875,0.13366788625717163,1.0982142686843872,-0.6909251809120178
1774470629721406500,3.488406494140625,0.048494935035705566,0.9179316163063049,-0.7974982261657715
1774470629731419600,3.498419677734375,-0.06298486143350601,0.7728567719459534,-0.9027577638626099
1774470629741432300,3.508432373046875,-0.19860580563545227,0.452546089887619,-0.9058917164802551
1774470629751445500,3.518445556640625,-0.3857348561286926,0.3344557285308838,-0.8464397192001343
1774470629761458700,3.528458740234375,-0.5957950949668884,0.2864066958427429,-0.7748805284500122
1774470629771471600,3.5384716796875,-0.8174574971199036,0.19434291124343872,-0.7330843806266785
1774470629781484500,3.548484619140625,-0.9922407269477844,0.1299532651901245,-0.2943911552429199
1774470629791498500,3.55849853515625,-1.0994318723678589,-0.20193645358085632,0.10601715743541718
1774470629801511400,3.568511474609375,-1.186334490776062,-0.38336166739463806,0.262955904006958
1774470629811524600,3.578524658203125,-1.2281707525253296,-0.4883075952529907,0.345694899559021
1774470629821537500,3.58853759765625,-1.1436843872070312,-0.5749889612197876,0.3488350510597229
1774470629831550700,3.59855078125,-0.9934231042861938,-0.511465847492218,0.20752248167991638
1774470629841563400,3.6085634765625,-0.829485297203064,-0.24274545907974243,0.016639344394207
1774470629851576600,3.61857666015625,-0.6525716781616211,0.20891395211219788,-0.24962584674358368
1774470629861589500,3.628589599609375,-0.548715353012085,0.546438992023468,-0.42306607961654663
1774470629871602400,3.6386025390625,-0.6021413207054138,0.8659899234771729,-0.5596402287483215
1774470629881615400,3.648615478515625,-0.6645767092704773,1.000112771987915,-0.7722680568695068
1774470629891629600,3.658629638671875,-0.7725555896759033,0.8960232138633728,-0.7736627459526062
1774470629901642500,3.668642578125,-0.9068853855133057,0.8207271695137024,-0.686648964881897
1774470629911655400,3.678655517578125,-1.0006335973739624,0.6466990113258362,-0.5400114059448242
1774470629921668600,3.688668701171875,-1.0246050357818604,0.4245911240577698,-0.3953855633735657
1774470629931681500,3.698681640625,-1.1045808792114258,0.25742480158805847,-0.3128068447113037
1774470629941694500,3.708694580078125,-1.3491376638412476,0.14469078183174133,-0.27235981822013855
1774470629951707600,3.718707763671875,-1.4398736953735352,0.2020086646080017,-0.20697137713432312
1774470629961720600,3.728720458984375,-1.5414341688156128,0.2833932936191559,-0.2578047215938568
1774470629971733500,3.7387333984375,-1.3908065557479858,0.2878550589084625,-0.19560149312019348
1774470629981746400,3.748746337890625,-1.0443127155303955,0.16484735906124115,-0.30064669251441956
1774470629991760400,3.758760498046875,-0.7301878333091736,0.20554116368293762,-0.3764066994190216
1774470630001773600,3.768773681640625,-0.4419986605644226,0.2568826377391815,-0.5304995775222778
1774470630011786500,3.778786376953125,-0.18396329879760742,0.1378016322851181,-0.8134600520133972
1774470630021799700,3.788799560546875,0.037454042583703995,-0.026101283729076385,-1.0534579753875732
1774470630031812400,3.798812255859375,0.15797831118106842,-0.0200987346470356,-1.237364411354065
1774470630041825500,3.808825439453125,0.17907428741455078,-0.1325528472661972,-1.245875358581543
1774470630051838700,3.818838623046875,0.174940824508667,-0.2188260406255722,-1.087904691696167
1774470630061851400,3.828851318359375,0.1432742327451706,-0.17510786652565002,-0.737356424331665
1774470630071864600,3.838864501953125,0.02934235706925392,-0.11594605445861816,-0.3535512685775757
1774470630081877500,3.84887744140625,-0.19490937888622284,0.12397999316453934,-0.10729676485061646
1774470630091890200,3.85889013671875,-0.6285910606384277,0.6854903697967529,-0.01971924677491188
1774470630101904000,3.86890380859375,-0.7466942071914673,0.7917267680168152,0.0635301023721695
1774470630111917000,3.8789169921875,-0.6376882195472717,0.5298353433609009,0.10771691799163818
1774470630121930200,3.88893017578125,-0.3837960958480835,0.2402501106262207,0.06511805206537247
1774470630131943000,3.89894287109375,-0.07292056083679199,0.21528634428977966,-0.025057774037122726
1774470630141956000,3.9089560546875,0.13295404613018036,0.21526610851287842,-0.08438554406166077
1774470630151969000,3.918968994140625,0.21235419809818268,0.02834174409508705,-0.11690158396959305
1774470630161982000,3.92898193359375,0.1811656504869461,-0.08979421854019165,-0.19631119072437286
1774470630171995000,3.938994873046875,0.22038649022579193,-0.0581170879304409,-0.2902008295059204
1774470630182008000,3.949008056640625,0.2623853385448456,0.002367827109992504,-0.3112659156322479
1774470630192021200,3.959021240234375,0.2417096644639969,0.010641880333423615,-0.3425461947917938
1774470630202034000,3.969033935546875,-0.0679219663143158,0.6347307562828064,-0.5357271432876587
1774470630212048100,3.979048095703125,-0.2002999186515808,0.5828661322593689,-0.5977409482002258
1774470630222060800,3.989060791015625,-0.2699069380760193,0.32460132241249084,-0.5693777203559875
1774470630232074000,3.999073974609375,-0.23986563086509705,0.3376511335372925,-0.5065193772315979
1774470630242087200,4.009087158203125,-0.18626125156879425,0.3691190481185913,-0.41148823499679565
1774470630252100000,4.01910009765625,-0.1642407476902008,0.46448731422424316,-0.27463653683662415
1774470630262113000,4.029113037109375,-0.233619824051857,0.5531061887741089,-0.17524176836013794
1774470630272126000,4.0391259765625,-0.1280052810907364,0.19888795912265778,-0.1745942234992981
1774470630282139100,4.04913916015625,0.07182155549526215,-0.031004365533590317,-0.20944541692733765
1774470630292151800,4.05915185546875,0.14825217425823212,-0.07192814350128174,-0.25479212403297424
1774470630302165000,4.0691650390625,0.20261900126934052,-0.12856772541999817,-0.2596401274204254
1774470630312178200,4.07917822265625,0.24467211961746216,-0.1661389023065567,-0.11830388009548187
1774470630322192000,4.08919189453125,0.16457514464855194,-0.2944888770580292,0.1024431437253952
1774470630332205000,4.099205078125,-0.04247356206178665,-0.4197188913822174,0.2363969087600708
1774470630342218000,4.109218017578125,-0.23283684253692627,-0.3911343812942505,0.2859199643135071
1774470630352231000,4.11923095703125,-0.3715862035751343,-0.28773608803749084,0.28356921672821045
1774470630362244000,4.129244140625,-0.4490954875946045,-0.2471574991941452,0.2735256850719452
1774470630372257000,4.139257080078125,-0.4253678321838379,-0.23693545162677765,0.33440452814102173
1774470630382270200,4.149270263671875,-0.30691441893577576,-0.3556027114391327,0.4654477834701538
1774470630392283000,4.159282958984375,-0.1515628695487976,-0.5193440318107605,0.6510856747627258
1774470630402296000,4.169296142578125,-0.03215259313583374,-0.5909050703048706,0.8556351065635681
1774470630412309000,4.17930908203125,0.038264356553554535,-0.6009982824325562,1.0420043468475342
1774470630422322000,4.189322021484375,0.14701560139656067,-0.762047290802002,1.0863478183746338
1774470630432334800,4.1993349609375,0.2390933334827423,-0.9715526103973389,0.9346920847892761
1774470630442349000,4.20934912109375,0.3621252477169037,-1.0830823183059692,0.6813192367553711
1774470630452362000,4.219362060546875,0.5348260402679443,-1.13387930393219,0.3881208002567291
1774470630462375000,4.229375,0.7414668202400208,-1.186309814453125,0.19079867005348206
1774470630472388000,4.23938818359375,0.9289972186088562,-1.3524470329284668,0.18789270520210266
1774470630482401000,4.249401123046875,1.022977590560913,-1.4951919317245483,0.3468887507915497
1774470630492414000,4.2594140625,1.0605441331863403,-1.4966732263565063,0.6232600808143616
1774470630502427100,4.26942724609375,0.9149619936943054,-1.3672555685043335,0.8845305442810059
1774470630512440000,4.279440185546875,0.4919600486755371,-1.006582260131836,1.010789394378662
1774470630522453000,4.289452880859375,-0.04924118146300316,-0.6285598874092102,0.9628849029541016
1774470630532466000,4.2994658203125,-0.5608561635017395,-0.3010936379432678,0.7495648860931396
1774470630542479000,4.30947900390625,-0.9365730285644531,-0.13666501641273499,0.5070785284042358
1774470630552491800,4.31949169921875,-1.1701874732971191,-0.21085819602012634,0.2776111960411072
1774470630562506000,4.329506103515625,-1.1093391180038452,-0.4688063859939575,-0.08335872739553452
1774470630572519200,4.339519287109375,-0.5925488471984863,-0.7354241013526917,-0.5063062906265259
1774470630582531800,4.34953173828125,-0.10138282179832458,-0.8042111992835999,-0.7151015996932983
1774470630592545000,4.359544921875,0.4156176447868347,-0.9439685940742493,-0.7503791451454163
1774470630602558200,4.36955810546875,0.7429640293121338,-0.869275689125061,-0.5095942616462708
1774470630612571000,4.37957080078125,0.8073793053627014,-0.7391795516014099,-0.15424075722694397
1774470630622584000,4.389583984375,0.6045433878898621,-0.7533838152885437,0.06433979421854019
1774470630632597000,4.399596923828125,0.22810041904449463,-0.8110888004302979,0.19238537549972534
1774470630642610200,4.409610107421875,-0.17304247617721558,-0.7576900124549866,0.1838102638721466
1774470630652622800,4.419622802734375,-0.4484458863735199,-0.5529369711875916,-0.0032000569626688957
1774470630662636000,4.429635986328125,-0.5726051330566406,-0.3225993514060974,-0.33264774084091187
1774470630672649000,4.43964892578125,-0.5788196325302124,-0.0608481802046299,-0.6657924056053162
1774470630682662000,4.449661865234375,-0.5289180874824524,0.1929129809141159,-0.8432140350341797
1774470630692676000,4.459676025390625,-0.3977217972278595,0.4356090724468231,-0.7986624240875244
1774470630702689000,4.46968896484375,-0.15164917707443237,0.5557578206062317,-0.619365930557251
1774470630712702000,4.479701904296875,0.049927543848752975,0.5156012177467346,-0.3472590744495392
1774470630722715000,4.48971484375,0.19993993639945984,0.28266841173171997,-0.007817624136805534
1774470630732728000,4.49972802734375,0.26756903529167175,-0.08145670592784882,0.3311026096343994
1774470630742741000,4.509740966796875,0.25982800126075745,-0.4282836318016052,0.5972006320953369
1774470630752754000,4.51975390625,0.28089475631713867,-0.6435630917549133,0.7195876836776733
1774470630762767000,4.52976708984375,0.3235415518283844,-0.6758083701133728,0.6846967935562134
1774470630772780000,4.539780029296875,0.35592418909072876,-0.5465126633644104,0.49020376801490784
1774470630782793000,4.54979296875,0.35302695631980896,-0.38283658027648926,0.2398889809846878
1774470630792806000,4.559805908203125,0.32036882638931274,-0.17815737426280975,0.04323086887598038
1774470630802819000,4.569819091796875,0.238739475607872,-0.004933128599077463,-0.04893501102924347
1774470630812832000,4.57983203125,0.16192111372947693,0.06442978233098984,-0.034445326775312424
1774470630822845000,4.589844970703125,0.11414241045713425,-0.13187049329280853,0.09644371271133423
1774470630832859100,4.599859130859375,0.12728990614414215,-0.16716431081295013,0.2653140723705292
1774470630842871800,4.609871826171875,0.11752437055110931,-0.3227565884590149,0.2904979884624481
1774470630852885000,4.619885009765625,0.10448096692562103,-0.38604819774627686,0.2776906490325928
1774470630862898200,4.629898193359375,0.12120694667100906,-0.30759918689727783,0.23299001157283783
1774470630872911000,4.6399111328125,0.10716638714075089,-0.16572275757789612,0.12000399082899094
1774470630882924000,4.649924072265625,0.11657427251338959,-0.05266944319009781,-0.014165799133479595
1774470630892937000,4.65993701171875,0.14157997071743011,0.044311828911304474,-0.07563173025846481
1774470630902950100,4.6699501953125,0.11147639155387878,0.14871467649936676,-0.054296351969242096
1774470630912962800,4.679962890625,0.16812576353549957,0.0992966741323471,0.03854965791106224
1774470630922976000,4.68997607421875,0.0699525848031044,0.11859473586082458,0.23853175342082977
1774470630932989200,4.6999892578125,0.0593876913189888,-0.021332578733563423,0.40761327743530273
1774470630943002000,4.710002197265625,0.10287391394376755,-0.2022317796945572,0.46883243322372437
1774470630953015000,4.72001513671875,0.2102060317993164,-0.07208885252475739,0.35213860869407654
1774470630963028000,4.730028076171875,0.2911432385444641,0.05346374958753586,0.1316688060760498
1774470630973042000,4.7400419921875,0.40993764996528625,-0.07722101360559464,0.05983678624033928
1774470630983055000,4.75005517578125,0.518720805644989,-0.23132137954235077,0.08053754270076752
1774470630993068000,4.760068115234375,0.6174188256263733,-0.46074819564819336,0.08301898092031479
1774470631003081000,4.7700810546875,0.6841243505477905,-0.7554802298545837,0.09942751377820969
1774470631013094000,4.780093994140625,0.6338744163513184,-0.9355676770210266,0.1694517433643341
1774470631023107000,4.790107177734375,0.5468266010284424,-1.014081358909607,0.23845770955085754
1774470631033120000,4.8001201171875,0.5003540515899658,-0.9706214070320129,0.1416894942522049
1774470631043133000,4.8101328125,0.4628591239452362,-0.9782137870788574,0.006783605553209782
1774470631053146000,4.82014599609375,0.37538886070251465,-0.8324434757232666,-0.030453916639089584
1774470631063159000,4.830158935546875,0.20359714329242706,-0.5557389259338379,0.0006733783520758152
1774470631073172000,4.840171875,0.0309030469506979,-0.09713910520076752,-0.06532502919435501
1774470631083185000,4.850184814453125,-0.07281375676393509,0.4422588646411896,-0.3445987403392792
1774470631093198000,4.860197998046875,-0.13799993693828583,0.5053691267967224,-0.6288377642631531
1774470631103211300,4.870211181640625,-0.17250652611255646,0.6371577382087708,-0.7848724126815796
1774470631113224000,4.880223876953125,-0.16674071550369263,0.9556519389152527,-0.9045708179473877
1774470631123238100,4.890238037109375,-0.2490542232990265,1.148547887802124,-1.0319061279296875
1774470631133251000,4.9002509765625,-0.3750898540019989,0.9527745842933655,-1.057952880859375
1774470631143264000,4.910263916015625,-0.36384573578834534,0.6056027412414551,-0.8470636606216431
1774470631153277200,4.920277099609375,-0.29489803314208984,0.36789870262145996,-0.5631269812583923
1774470631163290000,4.9302900390625,-0.24965783953666687,0.20988616347312927,-0.40735065937042236
1774470631173303000,4.940302978515625,-0.20296163856983185,0.3023984432220459,-0.42650681734085083
1774470631183316000,4.95031591796875,-0.2410094141960144,0.6662535667419434,-0.5734592080116272
1774470631193329200,4.9603291015625,-0.3006884455680847,0.9594955444335938,-0.793554425239563
1774470631203342000,4.970342041015625,-0.3737757205963135,0.8080556988716125,-0.9943343997001648
1774470631213355000,4.98035498046875,-0.41321441531181335,0.5357710719108582,-1.0110270977020264
1774470631223368200,4.9903681640625,-0.4917108118534088,0.23744645714759827,-0.8299102783203125
1774470631233381000,5.000381103515625,-0.5188949108123779,0.09525742381811142,-0.5549538731575012
1774470631243394000,5.01039404296875,-0.5507245063781738,0.08936064690351486,-0.29411619901657104
1774470631253407000,5.020406982421875,-0.6185281276702881,0.20851491391658783,-0.08249012380838394
1774470631263420200,5.030420166015625,-0.757737934589386,0.13553178310394287,0.08086205273866653
1774470631273434000,5.04043408203125,-0.9612454175949097,-0.015546899288892746,0.18588384985923767
1774470631283447000,5.050447021484375,-1.1980446577072144,0.04681208357214928,0.16283845901489258
1774470631293460200,5.060460205078125,-1.3731701374053955,-0.01680980809032917,0.052494775503873825
1774470631303473000,5.070472900390625,-1.519363284111023,0.10839284956455231,-0.10599153488874435
1774470631313486000,5.080486083984375,-1.695892333984375,0.2751685082912445,-0.17175835371017456
1774470631323499300,5.090499267578125,-1.9270837306976318,-0.2605726718902588,-0.16649594902992249
1774470631333512200,5.10051220703125,-2.107529640197754,-1.0681111812591553,-0.15796148777008057
1774470631343525000,5.110525146484375,-2.1504297256469727,-1.9037219285964966,-0.1637144535779953
1774470631353538000,5.1205380859375,-2.2211461067199707,-2.4572010040283203,-0.14780770242214203
1774470631363551200,5.13055126953125,-2.3696417808532715,-2.6184988021850586,-0.10323970019817352
1774470631373564000,5.14056396484375,-2.510329484939575,-2.648223876953125,-0.017443740740418434
1774470631383577000,5.1505771484375,-2.671799421310425,-2.6083850860595703,0.12927673757076263
1774470631393590300,5.16059033203125,-2.901155948638916,-2.4023995399475098,0.3008604049682617
1774470631403603200,5.170603271484375,-3.153379201889038,-2.345155954360962,0.4509391188621521
1774470631413616000,5.1806162109375,-3.3897604942321777,-2.374042510986328,0.5920299887657166
1774470631423629000,5.190629150390625,-3.5302207469940186,-2.6017045974731445,0.6960248351097107
1774470631433642200,5.200642333984375,-3.588538408279419,-2.82389497756958,0.7597545385360718
1774470631443656200,5.21065625,-3.5138280391693115,-3.0229930877685547,0.8090997338294983
1774470631453669000,5.220669189453125,-3.359623670578003,-3.2077460289001465,0.9653369784355164
1774470631463682000,5.23068212890625,-3.2182745933532715,-3.1967554092407227,1.143049716949463
1774470631473695000,5.240695068359375,-2.9951894283294678,-3.0667011737823486,1.3208619356155396
1774470631483708200,5.250708251953125,-2.7631521224975586,-3.00716495513916,1.5648325681686401
1774470631493721000,5.26072119140625,-2.615363597869873,-2.934291362762451,1.8860152959823608
1774470631503734000,5.270734130859375,-2.513357162475586,-2.6996257305145264,2.3721845149993896
1774470631513747200,5.280747314453125,-2.4138855934143066,-2.7110676765441895,2.8723766803741455
1774470631523760000,5.290760009765625,-2.221250295639038,-3.051054000854492,3.335798740386963
1774470631533773000,5.30077294921875,-2.0089662075042725,-3.164212465286255,3.7395689487457275
1774470631543786000,5.310785888671875,-1.9172180891036987,-3.1227970123291016,4.124382019042969
1774470631553799200,5.320799072265625,-2.0216450691223145,-3.0941739082336426,4.514580726623535
1774470631563812000,5.33081201171875,-2.0817573070526123,-2.455510377883911,4.673203945159912
1774470631573825000,5.340824951171875,-1.6565808057785034,-1.0778918266296387,3.7981836795806885
1774470631583838000,5.350837890625,-1.2283951044082642,-1.208848237991333,2.3322770595550537
1774470631593851100,5.36085107421875,-0.9607039093971252,-1.9854120016098022,0.6724671125411987
1774470631603864300,5.3708642578125,-0.5587841868400574,-2.4318394660949707,-0.944884181022644
1774470631613878000,5.3808779296875,-0.13573667407035828,-2.590064764022827,-2.204195737838745
1774470631623891200,5.39089111328125,0.2288932204246521,-2.729522943496704,-3.082150459289551
1774470631633904000,5.400904052734375,0.5710779428482056,-3.0550954341888428,-3.621584892272949
1774470631643917000,5.4109169921875,0.7863844037055969,-3.6101603507995605,-3.833022117614746
1774470631653930200,5.42093017578125,0.7306169867515564,-4.534158229827881,-3.7766659259796143
1774470631663943200,5.430943115234375,0.6355085968971252,-5.30698299407959,-3.6888427734375
1774470631673956000,5.4409560546875,0.5664001107215881,-5.510559558868408,-3.6559815406799316
1774470631683969000,5.450968994140625,0.5257861018180847,-5.1701226234436035,-3.622077465057373
1774470631693982200,5.460982177734375,0.4256376624107361,-4.607860565185547,-3.472287654876709
1774470631703995000,5.470994873046875,0.21886156499385834,-4.25260066986084,-3.074225664138794
1774470631714008000,5.481008056640625,0.06486259400844574,-4.192553997039795,-2.4349777698516846
1774470631724021200,5.491021240234375,0.0008852072060108185,-4.274843215942383,-1.7068440914154053
1774470631734034200,5.5010341796875,0.044018615037202835,-4.285762310028076,-1.0733730792999268
1774470631744047000,5.511047119140625,0.16117507219314575,-4.2962846755981445,-0.659497857093811
1774470631754060000,5.52106005859375,0.3243015706539154,-4.210050582885742,-0.5003889799118042
1774470631764073200,5.5310732421875,0.5329083204269409,-3.930161237716675,-0.4961143434047699
1774470631774086000,5.5410859375,0.6613452434539795,-3.6881039142608643,-0.4901358187198639
1774470631784099000,5.55109912109375,0.7449666857719421,-3.597585439682007,-0.42605775594711304
1774470631794113300,5.56111328125,0.8163973689079285,-3.5547492504119873,-0.32349640130996704
1774470631804126000,5.5711259765625,0.8704758286476135,-3.5787312984466553,-0.24699175357818604
1774470631814139100,5.58113916015625,0.9770417809486389,-3.5746312141418457,-0.2526074945926666
1774470631824152000,5.591152099609375,1.1807692050933838,-3.4568185806274414,-0.3579549789428711
1774470631834165000,5.6011650390625,1.4214749336242676,-3.1171317100524902,-0.5325328707695007
1774470631844178200,5.61117822265625,1.577965497970581,-2.4434831142425537,-0.6540915369987488
1774470631854191000,5.621191162109375,1.5548871755599976,-1.7317826747894287,-0.6482208371162415
1774470631864204300,5.631204345703125,1.4697139263153076,-1.0372469425201416,-0.6103227138519287
1774470631874217000,5.641217041015625,1.3553334474563599,-0.2834129333496094,-0.5776491761207581
1774470631884230100,5.651230224609375,1.2552711963653564,0.4718526005744934,-0.5022012591362
1774470631894243000,5.6612431640625,1.1415032148361206,1.2890609502792358,-0.4041553735733032
1774470631904256000,5.671256103515625,1.0582377910614014,2.0778274536132812,-0.2740226686000824
1774470631914269200,5.681269287109375,1.010659098625183,2.9793930053710938,-0.15584303438663483
1774470631924282000,5.6912822265625,0.9813622236251831,3.9397542476654053,-0.03821892663836479
1774470631934295300,5.70129541015625,0.9572771787643433,4.92138671875,0.06015611067414284
1774470631944308000,5.711307861328125,0.889528751373291,5.89453649520874,0.13111364841461182
1774470631954321200,5.721321044921875,0.8160749077796936,6.9076385498046875,0.15993814170360565
1774470631964334000,5.731333984375,0.7915080189704895,7.883733749389648,0.12194576114416122
1774470631974347000,5.741346923828125,0.6789559721946716,8.599087715148926,0.05734523385763168
1774470631984361200,5.751361328125,0.4355928301811218,9.100372314453125,0.018859628587961197
1774470631994374100,5.7613740234375,0.12800127267837524,9.587703704833984,0.02297315187752247
1774470632004387000,5.771386962890625,-0.20495085418224335,9.91275691986084,0.10059230774641037
1774470632014400000,5.78139990234375,-0.5286521315574646,9.901449203491211,0.2516481876373291
1774470632024413200,5.7914130859375,-0.7891908288002014,9.569197654724121,0.40002915263175964
1774470632034426000,5.801426025390625,-0.9793556332588196,8.746021270751953,0.48420798778533936
1774470632044439000,5.81143896484375,-1.089764952659607,7.456832408905029,0.5027790069580078
1774470632054452200,5.8214521484375,-1.0637054443359375,5.772453308105469,0.39939093589782715
1774470632064465200,5.831465087890625,-0.9654321670532227,3.9631590843200684,0.23031216859817505
1774470632074478000,5.84147802734375,-0.8932676315307617,2.28016996383667,0.030458370223641396
1774470632084491000,5.851490966796875,-0.8461491465568542,1.0614657402038574,-0.15387126803398132
1774470632094504400,5.86150439453125,-0.8296573758125305,-0.0036473041400313377,-0.2774251699447632
1774470632104517400,5.871517333984375,-0.9177001714706421,-1.125218391418457,-0.29742175340652466
1774470632114530300,5.8815302734375,-1.0455392599105835,-2.212981700897217,-0.20231150090694427
1774470632124543500,5.89154345703125,-1.1373720169067383,-3.0175909996032715,-0.04666624963283539
1774470632134556400,5.901556396484375,-1.2158842086791992,-3.4225480556488037,0.1518927812576294
1774470632144569300,5.9115693359375,-1.2768574953079224,-3.6727466583251953,0.38325488567352295
1774470632154582300,5.921582275390625,-1.3061691522598267,-3.7776331901550293,0.6095779538154602
1774470632164595500,5.931595458984375,-1.2648736238479614,-3.783282518386841,0.8150381445884705
1774470632174609400,5.941609375,-1.1367874145507812,-3.367142677307129,0.9671714305877686
1774470632184622300,5.951622314453125,-1.025572419166565,-2.379295587539673,0.9855616092681885
1774470632194635300,5.96163525390625,-0.9538306593894958,-1.7999533414840698,0.9593337178230286
1774470632204648200,5.971648193359375,-0.8243411183357239,-1.3457560539245605,0.9545873999595642
1774470632214661400,5.981661376953125,-0.6744110584259033,-0.8880571722984314,1.0202891826629639
1774470632224674600,5.991674560546875,-0.7772181630134583,-0.5307134389877319,0.840515673160553
1774470632234687200,6.001687255859375,-0.9053705334663391,-0.5194159746170044,0.5604110360145569
1774470632244700400,6.011700439453125,-0.5551866888999939,-0.6400039196014404,0.24986937642097473
1774470632254713300,6.02171337890625,-0.462239146232605,-0.798462986946106,0.053337980061769485
1774470632264726500,6.0317265625,-0.3258839547634125,-0.9033420085906982,0.011314095929265022
1774470632274739200,6.0417392578125,-0.19678325951099396,-0.9496569633483887,0.07789378613233566
1774470632284752400,6.05175244140625,-0.16090115904808044,-0.9599540829658508,0.1578642576932907
1774470632294765300,6.061765380859375,-0.13896362483501434,-0.820141613483429,0.1568668931722641
1774470632304778200,6.0717783203125,-0.11627829819917679,-0.5520411729812622,0.08423477411270142
1774470632314791400,6.08179150390625,-0.09262493997812271,-0.3082602024078369,0.048728443682193756
1774470632324804400,6.091804443359375,0.002437399234622717,0.1163342297077179,0.01829596981406212
1774470632334817500,6.101817626953125,0.14472699165344238,0.7037920951843262,0.05203143507242203
1774470632344830200,6.111830322265625,0.29170286655426025,1.328068494796753,0.18912510573863983
1774470632354843400,6.121843505859375,0.47766807675361633,2.0090506076812744,0.3875899016857147
1774470632364856300,6.131856201171875,0.5566909909248352,3.021545648574829,0.605099081993103
1774470632374869200,6.141869140625,0.5404674410820007,3.9312620162963867,0.9654927849769592
1774470632384883500,6.151883544921875,0.5030979514122009,4.477585315704346,1.397020697593689
1774470632394896400,6.161896484375,0.40286603569984436,4.829144477844238,1.7645151615142822
1774470632404909300,6.171909423828125,0.31760093569755554,5.441381931304932,2.0871312618255615
1774470632414922200,6.181922119140625,0.2446824312210083,5.78955078125,2.441147565841675
1774470632424935400,6.191935302734375,0.14845842123031616,5.850308418273926,2.8373465538024902
1774470632434948400,6.2019482421875,0.09625222533941269,5.8418049812316895,3.2310826778411865
1774470632444961300,6.211961181640625,0.004722047597169876,5.842800617218018,3.682248830795288
1774470632454974500,6.221974365234375,-0.09486833214759827,5.902185440063477,4.080694198608398
1774470632464987400,6.2319873046875,-0.16253551840782166,5.876219749450684,4.419149875640869
1774470632475000300,6.242000244140625,-0.21557116508483887,5.639964580535889,4.776286602020264
1774470632485013200,6.25201318359375,-0.24818876385688782,5.686773300170898,5.111759185791016
1774470632495026400,6.2620263671875,-0.2605365812778473,5.72756290435791,5.575799465179443
1774470632505039400,6.272039306640625,-0.2548443377017975,5.879687786102295,6.059920310974121
1774470632515052300,6.28205224609375,-0.26196715235710144,6.396627902984619,6.48514986038208
1774470632525065500,6.2920654296875,-0.4168001413345337,6.548350811004639,6.462840557098389
1774470632535078400,6.302078369140625,-0.7676566243171692,6.232144832611084,6.039130687713623
1774470632545091300,6.31209130859375,-1.2342027425765991,5.654026508331299,5.288585662841797
1774470632555104300,6.322104248046875,-1.690271019935608,5.157617092132568,4.2668232917785645
1774470632565117400,6.332117431640625,-2.170497417449951,5.245729923248291,3.1665945053100586
1774470632575130400,6.34213037109375,-2.555971622467041,5.743805885314941,2.084423542022705
1774470632585143300,6.352143310546875,-2.727617025375366,6.106389045715332,1.166873812675476
1774470632595156500,6.362156494140625,-2.6356167793273926,5.570253849029541,0.5033020377159119
1774470632605170200,6.372170166015625,-2.3054168224334717,4.249241828918457,0.10815204679965973
1774470632615183400,6.382183349609375,-1.8928186893463135,2.267059326171875,0.06616314500570297
1774470632625196500,6.392196533203125,-1.4132821559906006,-0.22567710280418396,0.2264856994152069
1774470632635209200,6.402209228515625,-0.9723954796791077,-2.6608872413635254,0.4347963035106659
1774470632645222400,6.412222412109375,-0.617387056350708,-4.520206928253174,0.5793098211288452
1774470632655235300,6.4222353515625,-0.4125286340713501,-6.067812442779541,0.7026522755622864
1774470632665248500,6.43224853515625,-0.382464200258255,-7.303216934204102,0.7835173010826111
1774470632675261200,6.44226123046875,-0.5603256821632385,-7.917971134185791,0.832883358001709
1774470632685274400,6.4522744140625,-0.8424791097640991,-8.013511657714844,0.859490156173706
1774470632695287600,6.46228759765625,-1.1502548456192017,-7.631750583648682,0.8347273468971252
1774470632705300200,6.47230029296875,-1.4527907371520996,-6.9498820304870605,0.8153560757637024
1774470632715313400,6.4823134765625,-1.718234896659851,-5.854942798614502,0.8199079632759094
1774470632725326300,6.492326416015625,-1.8647342920303345,-4.563453674316406,0.8628706336021423
1774470632735339500,6.502339599609375,-1.9582417011260986,-3.5642576217651367,0.9396281242370605
1774470632745352200,6.512352294921875,-1.949700951576233,-2.9314260482788086,0.9713596701622009
1774470632755365400,6.522365478515625,-1.888845682144165,-2.7116708755493164,0.9677101969718933
1774470632765378300,6.53237841796875,-1.804702877998352,-2.4252941608428955,0.9579502940177917
1774470632775391200,6.54239111328125,-1.7994086742401123,-2.1531286239624023,1.0164411067962646
1774470632785404400,6.552404296875,-1.692068099975586,-2.159144163131714,1.0080177783966064
1774470632795417300,6.562417236328125,-1.851873517036438,-1.943547010421753,1.0137289762496948
1774470632805430500,6.572430419921875,-1.8061150312423706,-1.515408992767334,1.1395024061203003
1774470632815443200,6.582443115234375,-1.71567964553833,-0.9579079151153564,1.2354408502578735
1774470632825457400,6.59245751953125,-1.616629958152771,-0.18651852011680603,1.2242470979690552
1774470632835470300,6.60247021484375,-1.3835766315460205,0.5382079482078552,1.0397231578826904
1774470632845483300,6.612483154296875,-1.0469152927398682,1.7690978050231934,0.6470745205879211
1774470632855496400,6.622496337890625,-0.8564406633377075,2.5155975818634033,0.174146831035614
1774470632865509400,6.63250927734375,-0.6968286633491516,2.7015600204467773,-0.038967303931713104
1774470632875522300,6.642522216796875,-0.6899014115333557,2.7989118099212646,-0.03302428498864174
1774470632885535200,6.65253515625,-0.5714466571807861,2.839292526245117,-0.036263756453990936
1774470632895548400,6.66254833984375,-0.6041552424430847,3.135605812072754,0.11111126095056534
1774470632905561300,6.672561279296875,-0.8356204628944397,3.3520190715789795,0.42767268419265747
1774470632915574300,6.68257421875,-1.1221787929534912,2.8042359352111816,0.6897749304771423
1774470632925587500,6.69258740234375,-1.3524055480957031,1.8750226497650146,0.7082546353340149
1774470632935600400,6.702600341796875,-1.6527409553527832,0.9981377720832825,0.5585270524024963
1774470632945613300,6.71261328125,-1.966558575630188,0.4502326250076294,0.36303848028182983
1774470632955626200,6.722626220703125,-2.272683620452881,0.15475262701511383,0.15772177278995514
1774470632965639400,6.732639404296875,-2.5429270267486572,0.06956744194030762,-0.03983869403600693
1774470632975652400,6.74265234375,-2.866771936416626,0.09548664093017578,-0.22503478825092316
1774470632985665300,6.752665283203125,-3.1640844345092773,0.19467128813266754,-0.42425867915153503
1774470632995678500,6.762678466796875,-3.43308424949646,0.044707879424095154,-0.6237884163856506
1774470633005691400,6.77269140625,-3.741952657699585,-0.4730745553970337,-0.8185800313949585
1774470633015704300,6.782704345703125,-4.119358539581299,-0.43887612223625183,-1.208645224571228
1774470633025717200,6.79271728515625,-4.5721354484558105,0.14741986989974976,-1.7441595792770386
1774470633035730400,6.80273046875,-5.0464768409729,0.5207011103630066,-2.3542978763580322
1774470633045743400,6.812743408203125,-5.567671298980713,0.44860774278640747,-2.9770596027374268
1774470633055756300,6.82275634765625,-5.891469955444336,0.30436351895332336,-3.724574089050293
1774470633065770500,6.8327705078125,-5.8885016441345215,0.05826052650809288,-4.528604030609131
1774470633075783200,6.842783203125,-5.799302101135254,0.1376258283853531,-5.28920316696167
1774470633085796400,6.85279638671875,-5.6376824378967285,0.5693053007125854,-5.918739318847656
1774470633095809800,6.862809814453125,-5.469524383544922,1.2993907928466797,-6.378115653991699
1774470633105822500,6.872822509765625,-5.266693115234375,2.000720500946045,-6.624511241912842
1774470633115835600,6.882835693359375,-5.014088153839111,2.697277545928955,-6.663009166717529
1774470633125848600,6.8928486328125,-4.751519680023193,3.3879504203796387,-6.491393089294434
1774470633135861800,6.90286181640625,-4.439390182495117,4.112081527709961,-6.076239109039307
1774470633145874400,6.91287451171875,-4.058283805847168,4.9715094566345215,-5.348996162414551
1774470633155887600,6.9228876953125,-3.6619699001312256,5.78557014465332,-4.318290710449219
1774470633165900800,6.93290087890625,-3.2370123863220215,6.39946985244751,-3.030724287033081
1774470633175913500,6.94291357421875,-2.8076772689819336,6.724552631378174,-1.6092087030410767
1774470633185926700,6.9529267578125,-2.4242806434631348,6.837818145751953,-0.18640372157096863
1774470633195939600,6.962939697265625,-2.1445791721343994,6.691962242126465,1.1800481081008911
1774470633205952800,6.972952880859375,-1.798819661140442,6.456841468811035,2.3251681327819824
1774470633215965400,6.98296533203125,-1.3679922819137573,6.14361047744751,3.2252912521362305
1774470633225978600,6.992978515625,-0.8637166023254395,5.729923248291016,3.8620731830596924
1774470633235991800,7.00299169921875,-0.31340834498405457,5.107095718383789,4.299381256103516
1774470633246004500,7.01300439453125,0.166217640042305,4.253432750701904,4.585103988647461
1774470633256017700,7.023017578125,0.646675705909729,3.2810451984405518,4.740034103393555
1774470633266030600,7.033030517578125,1.1672297716140747,2.4050040245056152,4.744656085968018
1774470633276043800,7.043043701171875,1.5882341861724854,1.9325435161590576,4.602932929992676
1774470633286056400,7.053056396484375,1.8797829151153564,1.6735889911651611,4.428443431854248
1774470633296069600,7.063069580078125,2.129563808441162,1.1433943510055542,4.344964504241943
1774470633306083600,7.07308349609375,2.4012041091918945,0.343681663274765,4.362020492553711
1774470633316096500,7.083096435546875,2.6167829036712646,-0.5901755690574646,4.462979793548584
1774470633326109700,7.093109619140625,2.677783727645874,-1.5142402648925781,4.508470058441162
1774470633336122600,7.10312255859375,2.7589895725250244,-2.142138719558716,4.480247974395752
1774470633346135600,7.113135498046875,2.7631452083587646,-2.7267978191375732,4.498986721038818
1774470633356148700,7.123148681640625,2.7899038791656494,-3.2820820808410645,4.502851963043213
1774470633366161700,7.13316162109375,2.9262888431549072,-3.56915283203125,4.394270420074463
1774470633376174600,7.143174560546875,3.1187851428985596,-3.535898447036743,4.176246643066406
1774470633386187500,7.1531875,3.270569324493408,-3.37984037399292,3.9276490211486816
1774470633396200700,7.16320068359375,3.405954122543335,-3.2444491386413574,3.6682615280151367
1774470633406213600,7.173213623046875,3.5947821140289307,-3.145340919494629,3.3925304412841797
1774470633416226600,7.1832265625,3.7762298583984375,-3.098489761352539,3.1014344692230225
1774470633426239500,7.193239501953125,3.908823013305664,-3.046304702758789,2.767583131790161
1774470633436252700,7.203252685546875,4.016741752624512,-2.901468515396118,2.389971971511841
1774470633446265600,7.213265625,4.155109405517578,-2.6284239292144775,1.9856021404266357
1774470633456278500,7.223278564453125,4.028312683105469,-2.237330913543701,1.6055281162261963
1774470633466291700,7.233291748046875,3.780233383178711,-2.154600143432617,1.215993881225586
1774470633476304600,7.2433046875,3.6663730144500732,-2.118773937225342,0.8045934438705444
1774470633486317600,7.253317626953125,3.6465070247650146,-2.0737111568450928,0.3749765455722809
1774470633496330500,7.26333056640625,3.527672529220581,-1.9482725858688354,-0.017010774463415146
1774470633506343700,7.27334375,3.2858734130859375,-1.7956517934799194,-0.35417547821998596
1774470633516356600,7.283356689453125,2.989076852798462,-1.6445647478103638,-0.6193358898162842
1774470633526369500,7.29336962890625,2.702120780944824,-1.6252470016479492,-0.8006289601325989
1774470633536382700,7.3033828125,2.458177089691162,-1.656033992767334,-0.9694705009460449
1774470633546395600,7.313395751953125,2.152456760406494,-1.6336649656295776,-1.1453770399093628
1774470633556409600,7.32340966796875,1.7185719013214111,-1.401155948638916,-1.3810617923736572
1774470633566422800,7.3334228515625,1.1659421920776367,-0.7460867762565613,-1.7111291885375977
1774470633576435500,7.343435546875,0.5300613045692444,0.2526260018348694,-2.0928468704223633
1774470633586448600,7.35344873046875,-0.09242836385965347,1.3229906558990479,-2.4683754444122314
1774470633596461600,7.363461669921875,-0.6658047437667847,2.251643657684326,-2.7623605728149414
1774470633606474800,7.373474853515625,-1.17685067653656,2.918896198272705,-2.9522757530212402
1774470633616487400,7.3834873046875,-1.6619911193847656,3.318852663040161,-3.0427699089050293
1774470633626500600,7.39350048828125,-2.0894644260406494,3.462327241897583,-3.1090548038482666
1774470633636513800,7.403513671875,-2.432534694671631,3.471198081970215,-3.123039722442627
1774470633646526500,7.4135263671875,-2.777336359024048,3.427673816680908,-3.076331853866577
1774470633656539600,7.42353955078125,-3.180692672729492,3.369762897491455,-2.94286847114563
1774470633666552600,7.433552490234375,-3.5948643684387207,3.3105194568634033,-2.761354446411133
1774470633676565800,7.443565673828125,-4.023026943206787,3.28983473777771,-2.5904693603515625
1774470633686578400,7.453578369140625,-4.439944267272949,3.3715670108795166,-2.4458210468292236
1774470633696591600,7.463591552734375,-4.812546253204346,3.527632474899292,-2.3367505073547363
1774470633706604800,7.473604736328125,-5.118989944458008,3.6922049522399902,-2.2860829830169678
1774470633716617500,7.483617431640625,-5.392054080963135,3.8884685039520264,-2.2448277473449707
1774470633726630700,7.493630615234375,-5.64552116394043,4.144179344177246,-2.160722494125366
1774470633736643600,7.5036435546875,-5.877634525299072,4.305874824523926,-2.0134212970733643
1774470633746656800,7.51365673828125,-6.0597758293151855,4.35034704208374,-1.8544574975967407
1774470633756669400,7.52366943359375,-6.197231769561768,4.401963710784912,-1.5549873113632202
1774470633766682600,7.5336826171875,-6.327399730682373,3.598510503768921,-1.166613221168518
1774470633776695600,7.543695556640625,-6.592015266418457,1.3030507564544678,-1.0892627239227295
1774470633786708500,7.55370849609375,-6.834421157836914,-0.5407376289367676,-1.3576213121414185
1774470633796721700,7.5637216796875,-6.987855434417725,-1.46074640750885,-1.755391240119934
1774470633806734600,7.573734619140625,-7.020392894744873,-1.6288288831710815,-2.00785493850708
1774470633816747800,7.583747802734375,-7.006331443786621,-1.4950462579727173,-2.116027355194092
1774470633826760400,7.593760498046875,-6.986243724822998,-1.3516193628311157,-2.214369535446167
1774470633836774700,7.603774658203125,-6.971018314361572,-1.203573226928711,-2.3004555702209473
1774470633846787600,7.61378759765625,-6.955074787139893,-1.0551347732543945,-2.3785271644592285
1774470633856800500,7.623800537109375,-6.942221641540527,-0.904726505279541,-2.445559501647949
1774470633866813700,7.633813720703125,-6.930007457733154,-0.7527944445610046,-2.4980719089508057
1774470633876826600,7.64382666015625,-6.921324729919434,-0.5933704376220703,-2.5327868461608887
1774470633886839600,7.653839599609375,-6.916624546051025,-0.42681264877319336,-2.555201292037964
1774470633896852500,7.6638525390625,-6.912034034729004,-0.2582608461380005,-2.573179244995117
1774470633906865700,7.67386572265625,-6.90977144241333,-0.09215309470891953,-2.5921413898468018
1774470633916878600,7.683878662109375,-6.910797595977783,0.06072525307536125,-2.6000330448150635
1774470633926891500,7.6938916015625,-6.913631439208984,0.20231673121452332,-2.601200819015503
1774470633936904700,7.70390478515625,-6.995116233825684,-0.09669385105371475,-2.890138626098633
1774470633946917600,7.713917724609375,-10.306323051452637,-2.405024766921997,-4.5652971267700195
1774470633956930600,7.7239306640625,-15.32628345489502,-2.411674737930298,-4.6514506340026855
1774470633966943500,7.733943603515625,-16.71944808959961,-3.095426559448242,-5.668107986450195
1774470633976956700,7.743956787109375,-16.67887306213379,-2.354520559310913,-6.146734714508057
1774470633986969600,7.753969482421875,-16.610727310180664,-1.4229886531829834,-6.398789882659912
1774470633996982500,7.763982421875,-16.57834243774414,-0.45335477590560913,-6.492335319519043
1774470634006995700,7.77399560546875,-16.581621170043945,0.5270134210586548,-6.435126781463623
1774470634017008600,7.784008544921875,-16.620189666748047,1.4988863468170166,-6.219030380249023
1774470634027021600,7.794021484375,-16.69704246520996,2.433250665664673,-5.851068496704102
1774470634037034500,7.804034423828125,-16.79869270324707,3.307368755340576,-5.341662406921387
1774470634047047700,7.814047607421875,-16.91520118713379,4.103299140930176,-4.6930251121521
1774470634057060600,7.824060546875,-17.0395450592041,4.785184383392334,-3.9180662631988525
1774470634067073500,7.834073486328125,-17.151548385620117,5.335971355438232,-3.034982681274414
1774470634077086700,7.844086669921875,-17.24658966064453,5.73788595199585,-2.067713975906372
1774470634087099600,7.854099609375,-17.308988571166992,5.986948013305664,-1.038985252380371
1774470634097112000,7.864112060546875,-17.331907272338867,6.071573734283447,0.023674020543694496
1774470634107125800,7.874125732421875,-17.318737030029297,6.007969379425049,1.0864005088806152
1774470634117139000,7.884138916015625,-17.275667190551758,5.843207359313965,2.1386115550994873
1774470634127151900,7.89415185546875,-23.091947555541992,25.1180477142334,14.685659408569336
1774470634137164800,7.904164794921875,-25.45746612548828,29.174440383911133,29.03353500366211
1774470634147178000,7.914177978515625,-20.338214874267578,24.019474029541016,34.194488525390625
1774470634157191000,7.92419091796875,-13.409894943237305,47.578514099121094,-8.551003456115723
1774470634167203800,7.934203857421875,-15.050252914428711,15.297958374023438,-16.043176651000977
1774470634177216800,7.944216796875,-10.768068313598633,1.5044329166412354,-8.128077507019043
1774470634187230000,7.95422998046875,-5.442017078399658,-3.268545150756836,-5.621356010437012
1774470634197242600,7.96424267578125,-2.3828158378601074,-5.788987159729004,-4.416453838348389
1774470634207255800,7.974255859375,-1.453322410583496,-6.509329319000244,-4.107402324676514
1774470634217269000,7.98426904296875,-0.8734616041183472,-6.845851421356201,-3.948610544204712
1774470634227282000,7.994281982421875,-0.6367303133010864,-6.89971923828125,-3.9271345138549805
1774470634237294800,8.004294921875,-0.4499874413013458,-6.913389682769775,-3.9016337394714355
1774470634247307800,8.014307861328126,-0.2702759802341461,-6.920754909515381,-3.871572494506836
1774470634257321000,8.024321044921875,-0.07853036373853683,-6.915982246398926,-3.6971964836120605
1774470634267333600,8.034333740234375,0.15302804112434387,-6.69837760925293,-3.1736247539520264
1774470634277346800,8.044346923828124,0.4212213158607483,-6.24910306930542,-2.4647533893585205
1774470634287360000,8.054360107421875,0.702102541923523,-5.677320957183838,-1.5295530557632446
1774470634297373000,8.064373046875,0.7734792828559875,-4.481812000274658,-0.6427016258239746
1774470634307385900,8.0743857421875,1.424981951713562,7.782259941101074,6.978653907775879
1774470634317398800,8.084398681640625,2.0562241077423096,10.972593307495117,8.700779914855957
1774470634327412000,8.094411865234376,2.6337027549743652,11.226691246032715,8.51039981842041
1774470634337424600,8.104424560546875,3.22524094581604,11.34288501739502,8.220115661621094
1774470634347437800,8.114437744140625,4.022641181945801,10.681049346923828,8.294722557067871
1774470634357451000,8.124450927734374,5.832633972167969,6.927986145019531,10.153264999389648
1774470634367464000,8.1344638671875,7.647727966308594,-3.5646471977233887,9.902077674865723
1774470634377476900,8.144476806640625,4.380623817443848,-24.672771453857422,0.4823572635650635
1774470634387490800,8.15449072265625,3.305680751800537,-8.39612102508545,-8.288304328918457
1774470634397503700,8.164503662109375,3.020683765411377,-0.036066994071006775,-7.767276287078857
1774470634407517000,8.174516845703126,2.754387140274048,5.958624839782715,-4.6357879638671875
1774470634417529900,8.18452978515625,4.0620527267456055,0.45881935954093933,0.687934160232544
1774470634427543000,8.19454296875,4.523314476013184,-1.5729891061782837,1.9058818817138672
1774470634437555700,8.2045556640625,4.533324718475342,-1.6248356103897095,2.075934648513794
1774470634447569000,8.21456884765625,4.514570236206055,-1.4109745025634766,2.2978949546813965
1774470634457581800,8.224581787109376,4.442732810974121,-0.10951103270053864,2.851848840713501
1774470634467594800,8.2345947265625,4.156619548797607,4.356125354766846,2.7620997428894043
1774470634477608000,8.24460791015625,4.470972537994385,3.008474588394165,2.477766752243042
1774470634487620900,8.254620849609376,4.731174945831299,2.002969980239868,1.5398476123809814
1774470634497634000,8.264634033203125,5.0383806228637695,1.1465721130371094,1.0197653770446777
1774470634507646700,8.274646728515625,5.132282257080078,-0.18025150895118713,1.2407304048538208
1774470634517660000,8.284659912109374,4.83104133605957,-0.24983397126197815,0.5707924365997314
1774470634527672800,8.2946728515625,3.2986090183258057,-1.867205262184143,-2.0168874263763428
1774470634537685800,8.304685791015626,2.2847702503204346,-3.904632806777954,-2.4335601329803467
1774470634547698700,8.31469873046875,1.933487057685852,-0.8889000415802002,-0.3589136004447937
1774470634557712000,8.3247119140625,1.8374805450439453,0.8795849680900574,0.4686311185359955
1774470634567725000,8.33472509765625,1.7890739440917969,0.921455442905426,0.6039844155311584
1774470634577737700,8.34473779296875,1.5243115425109863,-0.33203545212745667,0.5119472742080688
1774470634587751000,8.3547509765625,0.6467645764350891,-0.8590995073318481,-0.8796723484992981
1774470634597763800,8.364763916015624,0.009781462140381336,-0.34179940819740295,-0.7004203200340271
1774470634607776800,8.37477685546875,-0.3151630759239197,-0.0739956647157669,-0.514009952545166
1774470634617789700,8.384789794921875,-0.5129648447036743,-0.2652955651283264,-0.1982438862323761
1774470634627803000,8.394802978515624,-0.7117711901664734,-0.10466648638248444,0.037815775722265244
1774470634637816000,8.404816162109375,-0.825984537601471,-0.08539202809333801,0.27308693528175354
1774470634647828700,8.414828857421876,-0.8463031053543091,-0.08890792727470398,0.42814069986343384
1774470634657842000,8.424842041015625,-0.7750828862190247,-0.12366485595703125,0.48384976387023926
1774470634667854800,8.434854736328125,-0.5710557103157043,-0.028029417619109154,0.45508310198783875
1774470634677867800,8.44486767578125,-0.2708454728126526,0.05972795933485031,0.3663960099220276
1774470634687880700,8.454880615234375,0.010659166611731052,-0.0032768426463007927,0.054149169474840164
1774470634697894000,8.464893798828125,0.13852740824222565,-0.0008703111670911312,0.006011104676872492
1774470634707907000,8.474906982421874,0.06274449825286865,-0.017381643876433372,0.007622051052749157
1774470634717920800,8.484920654296875,-0.01947689801454544,-0.005196449346840382,-0.01351456344127655
1774470634727934000,8.494933837890626,-0.002120012417435646,-0.006197531241923571,-0.004339441657066345
1774470634737946600,8.504946533203125,0.0012134514981880784,0.0005044224672019482,0.0025724265724420547
1774470634747959800,8.514959716796875,-0.0015498445136472583,0.0006266613490879536,0.0009593497961759567
1774470634757973000,8.524972900390624,0.0016043735668063164,0.0007029930129647255,-0.0008834623731672764
1774470634767986000,8.53498583984375,-0.0029589529149234295,-0.0024264873936772346,0.0025299107655882835
1774470634777998800,8.544998779296876,-0.0008115724194794893,0.00022078584879636765,-0.0021778494119644165
1774470634788011800,8.55501171875,0.0006294639897532761,-0.0019307818729430437,0.0009937093127518892
1774470634798025000,8.56502490234375,0.0017896555364131927,-0.0007716913241893053,0.00036431849002838135
1774470634808037600,8.57503759765625,0.0000713840126991272,-0.001113374950364232,0.00048229657113552094
1774470634818050800,8.58505078125,0.0011689243838191032,0.0008582593873143196,0.00024078832939267159
1774470634828064000,8.59506396484375,0.0012466886546462774,0.00003481004387140274,-0.0005192775279283524
1774470634838077000,8.605076904296874,-0.0006611327407881618,-0.0005087531171739101,-0.0010536336340010166
1774470634848089900,8.61508984375,0.001962347188964486,-0.0008826607372611761,-0.00044217146933078766
1774470634858102800,8.625102783203126,-0.000629049725830555,0.000004624947905540466,-0.002055032178759575
1774470634868116000,8.635115966796874,-0.0012980358442291617,-0.001523497048765421,-0.00022650603204965591
1774470634878128600,8.645128662109375,0.0009497633436694741,0.0001580086536705494,0.0001599285751581192
1774470634888141800,8.655141845703126,-0.0022942330688238144,-0.0003956626169383526,-0.00031411414965987206
1774470634898154800,8.66515478515625,0.0002159492578357458,-0.0020702395122498274,-0.000621322076767683
1774470634908168000,8.67516796875,-0.0006160222692415118,0.0008139638230204582,-0.0009270529262721539
1774470634918180900,8.685180908203124,0.0002760568750090897,-0.0025354218669235706,-0.00024096760898828506
1774470634928193800,8.69519384765625,-0.00041157135274261236,0.0006137662567198277,0.0011183100286871195
1774470634938207000,8.70520703125,0.0004634239594452083,0.00044563598930835724,-0.0003109234385192394
1774470634948220000,8.715219970703124,0.0025739790871739388,0.00003444403409957886,-0.0008318377658724785
1774470634958232800,8.72523291015625,0.0008849353180266917,-0.0001943088136613369,0.0006167816463857889
1774470634968245800,8.735245849609376,0.00034564518136903644,0.00035616662353277206,0.0008327639661729336
1774470634978259000,8.745259033203125,-0.0002222586190328002,-0.0010005300864577293,-0.0005903434939682484
1774470634988271900,8.75527197265625,0.0004930663853883743,-0.0004756208509206772,-0.0003735623322427273
1774470634998284800,8.765284912109376,0.0018072840757668018,0.0008470742031931877,-0.002045269124209881
1774470635008298000,8.775298095703125,-0.0004217816749587655,-0.000315928366035223,-0.0015150336548686028
1774470635018311000,8.785310791015625,0.00034692499320954084,-0.0016162667889147997,-0.00021416554227471352
1774470635028323800,8.79532373046875,-0.00014176510740071535,-0.0014479549136012793,-0.00012628128752112389
1774470635038336800,8.805336669921875,-0.00036922702565789223,-0.0011772096622735262,-0.001091581303626299
1774470635048350000,8.815349853515626,-0.00009252462768927217,0.00011788541451096535,-0.00004362734034657478
1774470635058364000,8.825364013671875,0.0004693059890996665,-0.0013749038334935904,0.00015260186046361923
1774470635068376800,8.835376953125,-0.00037118769250810146,-0.0008119114208966494,-0.0003723069094121456
1774470635078389800,8.8453896484375,-0.000274027930572629,-0.000030001159757375717,0.0001723049208521843
1774470635088402700,8.855402587890625,0.000036230310797691345,-0.0002201506868004799,0.0004838947206735611
1774470635098417000,8.8654169921875,0.000667709216941148,-0.0011001627426594496,-0.00046262284740805626
1774470635108429800,8.875429931640625,0.0007404135540127754,0.0004703034646809101,-0.0011127004399895668
1774470635118442800,8.88544287109375,-0.0005842405371367931,-0.0010233663488179445,0.00014221575111150742
1774470635128456000,8.8954560546875,-0.00015067786443978548,0.000795306172221899,-0.0003997376188635826
1774470635138468900,8.90546875,-0.0012082691537216306,-0.0008104066364467144,0.00008491799235343933
1774470635148481800,8.915481689453125,-0.0008998751873150468,0.0012636631727218628,-0.0003065667115151882
1774470635158495000,8.925494873046874,-0.0000026795314624905586,-0.00045673688873648643,-0.001321899238973856
1774470635168508000,8.9355078125,0.00030411663465201855,-0.002289524534717202,-0.0006763492710888386
1774470635178520800,8.945520751953126,-0.0006444866303354502,-0.0024107550270855427,0.0009506475180387497
1774470635188533800,8.95553369140625,-0.001164601999334991,0.00011605210602283478,0.0006161544006317854
1774470635198547000,8.965546875,-0.0007277617696672678,0.0007044891826808453,-0.0013045435771346092
1774470635208559900,8.975559814453124,0.000416864815633744,-0.0019850372336804867,-0.0008747093379497528
1774470635218572800,8.98557275390625,-0.0012464142637327313,-0.00037193717435002327,0.00020891614258289337
1774470635228586000,8.9955859375,-0.0013175207423046231,-0.0003916444256901741,-0.00037671299651265144
1774470635238599000,9.005598876953124,-0.00002967403270304203,-0.0005977055989205837,0.00026609841734170914
1774470635248611800,9.01561181640625,0.0018462566658854485,-0.0006128856912255287,0.00009459070861339569
1774470635258624800,9.025624755859376,0.0000942363403737545,0.00042131030932068825,0.0002686707302927971
1774470635268638000,9.035637939453125,0.001012227963656187,-0.00022423965856432915,-0.0007894029840826988
1774470635278651000,9.04565087890625,0.0006665496621280909,-0.0007653941866010427,-0.0011995299719274044
1774470635288663800,9.055663818359376,-0.00044079276267439127,-0.0003888229839503765,-0.000790734775364399
1774470635298677000,9.065677001953125,-0.002095748670399189,-0.0005720369517803192,-0.0002217572182416916
1774470635308690000,9.07568994140625,0.00006434117676690221,0.0002841693349182606,-0.0008220337331295013
1774470635318702800,9.085702880859374,-0.0011832602322101593,-0.000680272001773119,0.0006482722237706184
1774470635328715800,9.0957158203125,0.001179496175609529,0.00009603938087821007,-0.0008598756976425648
1774470635338729000,9.10572900390625,-0.00041944091208279133,-0.0007712582591921091,-0.0007153619080781937
1774470635348742000,9.115741943359374,0.0008929648320190609,-0.0008596749976277351,-0.0007933927699923515
1774470635358754800,9.1257548828125,0.0005365366814658046,0.0011020922102034092,-0.0009338208474218845
1774470635368767700,9.135767822265626,-0.0009918514406308532,-0.0007698435802012682,0.0001815110445022583
1774470635378781000,9.145781005859375,-0.000564486370421946,-0.0014148566406220198,-0.0009273043833673
1774470635388793900,9.1557939453125,-0.0005032336339354515,0.000664805993437767,-0.00047723017632961273
1774470635398806800,9.165806884765624,0.00022577011259272695,-0.0007939857896417379,-0.0007925028912723064
1774470635408820000,9.175820068359375,-0.0011233872501179576,-0.0011135651730000973,-0.0005866405554115772
1774470635418833700,9.185833740234376,0.00021739921066910028,-0.0008815876208245754,-0.0007590930908918381
1774470635428845800,9.195845703125,-0.0002214896958321333,-0.0004048817791044712,-0.0012717517092823982
1774470635438860000,9.205860107421875,-0.0011727995006367564,0.001549059059470892,-0.0005007400177419186
1774470635448872700,9.215872802734374,-0.0014172777300700545,0.0008233473636209965,-0.0012275166809558868
1774470635458886000,9.225885986328125,0.0002552109071984887,0.00027678534388542175,-0.0001130453310906887
1774470635468898800,9.23589892578125,-0.0011187138734385371,0.00030821096152067184,0.00002410728484392166
1774470635478912000,9.245912109375,-0.0013895573792979121,0.000805156771093607,0.0009751222096383572
1774470635488924700,9.255924560546875,-0.0012148522073403,0.0003407825715839863,0.0006946229841560125
1774470635498937900,9.265937744140626,-0.0011936684604734182,0.0004271692596375942,-0.0005981880240142345
1774470635508951000,9.275950927734375,0.0001440374762751162,-0.00019174907356500626,-0.0002711517736315727
1774470635518963700,9.285963623046875,0.00023167720064520836,-0.00010209949687123299,0.00025625480338931084
1774470635528977000,9.295976806640626,-0.0007086850237101316,-0.0017647112254053354,0.0008168504573404789
1774470635538989800,9.30598974609375,0.0002488468890078366,-0.00075509212911129,-0.0013413908891379833
1774470635549003000,9.3160029296875,-0.0022465349175035954,-0.0009242028463631868,0.00014598481357097626
1774470635559015700,9.326015625,0.0006077648140490055,-0.0005614957772195339,-0.0006422898732125759
1774470635569028900,9.33602880859375,0.0008679556776769459,-0.0014105115551501513,-0.0013331137597560883
1774470635579042000,9.3460419921875,-0.0018438452389091253,0.0001944899559020996,-0.0006355522200465202
1774470635589054700,9.3560546875,0.00019640254322439432,-0.0016502819489687681,-0.0006613852456212044
1774470635599068000,9.36606787109375,-0.0005780685460194945,-0.00012082653120160103,-0.0010450161062180996
1774470635609080800,9.376080810546876,0.0005732160061597824,-0.001746153924614191,-0.00021650688722729683
1774470635619094000,9.386093994140625,-0.00015948223881423473,-0.0004325699992477894,-0.0007657557725906372
1774470635629106700,9.396106689453125,0.00006289168959483504,-0.00012390967458486557,0.0009756854269653559
1774470635639120000,9.406119873046874,-0.0004719052230939269,-0.000651415903121233,-0.0007577063515782356
1774470635649133000,9.416133056640625,-0.0001275584800168872,-0.0007009506225585938,-0.001464509405195713
1774470635659145700,9.426145751953126,0.00044896939652971923,-0.0006474163383245468,-0.0010746275074779987
1774470635669159000,9.436158935546874,-0.0001347954967059195,0.00012490060180425644,-0.0009244251996278763
1774470635679171800,9.446171875,-0.0010995154734700918,-0.0002341046929359436,-0.00017606094479560852
1774470635689185000,9.45618505859375,0.00091383425751701,-0.001518813893198967,-0.0013073715381324291
1774470635699197700,9.46619775390625,-0.0008895288920029998,-0.0015173670835793018,0.0013318404089659452
1774470635709211000,9.4762109375,0.00027560407761484385,-0.0014563808217644691,-0.000584303867071867
1774470635719223800,9.486223876953124,0.00039241116610355675,-0.002111008856445551,-0.0015713870525360107
1774470635729236700,9.49623681640625,0.00027762894751504064,-0.001563729252666235,-0.0001322152093052864
1774470635739250000,9.50625,0.0006656541372649372,0.0008268221281468868,-0.0015772110782563686
1774470635749262800,9.516262939453124,-0.00006804673466831446,-0.0012054359540343285,-0.0026648459024727345
1774470635759276000,9.526276123046875,0.0013602802064269781,-0.001995505066588521,-0.0010164398699998856
1774470635769288700,9.536288818359376,0.002080665435642004,-0.00019520800560712814,-0.0004427949897944927
1774470635779302000,9.546302001953125,-0.00021212641149759293,0.00040461309254169464,0.00013729697093367577
1774470635789314800,9.556314697265625,0.0001322203315794468,-0.0012707815039902925,0.0006382374558597803
1774470635799327700,9.56632763671875,0.00007506064139306545,-0.0006457408890128136,0.0009197448380291462
1774470635809341000,9.5763408203125,-0.0006804781733080745,-0.0016659980174154043,0.0001551513560116291
1774470635819353900,9.586353759765625,0.001639668713323772,0.0012543471530079842,-0.0011047213338315487
1774470635829367800,9.596367919921875,0.00031155027681961656,-0.0007795088458806276,-0.0014767651446163654
1774470635839380700,9.606380615234375,0.0002680177567526698,-0.0007722359150648117,-0.00018481537699699402
1774470635849394000,9.616393798828126,0.0008911974728107452,-0.0006209681741893291,-0.000930233858525753
1774470635859406800,9.62640673828125,-0.0017008308786898851,-0.0014365983661264181,-0.0002054166980087757
1774470635869419800,9.636419677734375,0.0005689813988283277,-0.000060809310525655746,0.00037461984902620316
1774470635879433000,9.646432861328124,0.0005563012091442943,0.0005593658424913883,0.0013454225845634937
1774470635889446000,9.65644580078125,0.0007477825274690986,-0.000691254623234272,0.0005837585777044296
1774470635899458800,9.666458740234376,-0.0011902563273906708,-0.001989476615563035,-0.00020461296662688255
1774470635909471700,9.6764716796875,0.00018207047833129764,0.000532803125679493,-0.0007239296101033688
1774470635919485000,9.68648486328125,0.0008409137954004109,-0.00009535439312458038,-0.0002990933135151863
1774470635929497900,9.696497802734376,-0.0018699179636314511,0.00044260406866669655,0.0003853393718600273
1774470635939510800,9.7065107421875,0.0004489911370910704,-0.00016255350783467293,-0.00044229207560420036
1774470635949524000,9.71652392578125,0.0012111878022551537,-0.0012653684243559837,-0.002152574248611927
1774470635959537000,9.726536865234374,0.00025255640503019094,0.0014019687660038471,-0.000589586328715086
1774470635969549800,9.7365498046875,-0.0009029891807585955,0.0002663969062268734,-0.00040183356031775475
1774470635979562800,9.746562744140626,0.0004157016228418797,-0.00030929362401366234,0.00032576359808444977
1774470635989576000,9.756575927734374,-0.00002079049590975046,-0.0012086431961506605,-0.0011560195125639439
1774470635999588900,9.7665888671875,-0.0003954486455768347,-0.0014162780717015266,-0.0015812860801815987
1774470636009601800,9.776601806640626,0.0010631646728143096,0.0001512584276497364,-0.0006638271734118462
1774470636019615000,9.786614990234375,0.0008106728782877326,-0.00018998514860868454,-0.0006078043952584267
1774470636029628000,9.7966279296875,0.00015766581054776907,0.0003335927613079548,-0.0013689356856048107
1774470636039640800,9.806640869140624,0.0009475841652601957,-0.0006531085819005966,0.000708465464413166
1774470636049653800,9.81665380859375,0.0003686129639390856,-0.0009378006216138601,-0.00025053881108760834
1774470636059667000,9.8266669921875,-0.002184123732149601,-0.00009366776794195175,-0.0007733628153800964
1774470636069679600,9.8366796875,-0.0007590664317831397,-0.0005866191349923611,0.00021919747814536095
1774470636079692800,9.84669287109375,-0.001104259048588574,-0.00014169374480843544,-0.00010468252003192902
1774470636089706000,9.8567060546875,-0.0006035848055034876,-0.0004357066936790943,-0.00045249098911881447
1774470636099718100,9.86671826171875,-0.00023088906891644,-0.00018403120338916779,-0.00039418507367372513
1774470636109731000,9.87673095703125,0.0008000205270946026,-0.00008602673187851906,-0.0012248246930539608
1774470636119744000,9.886743896484376,0.00000453402753919363,0.000244376715272665,0.0007970130536705256
1774470636129757000,9.8967568359375,0.0017702097538858652,-0.0008336708415299654,-0.0005537420511245728
1774470636139770000,9.90677001953125,-0.0017642405582591891,-0.0008846211712807417,0.000028770416975021362
1774470636149782800,9.91678271484375,-0.001888077356852591,-0.00048674503341317177,-0.00038268789649009705
1774470636159796000,9.9267958984375,0.0005725632654502988,-0.0010434314608573914,-0.00029312027618288994
1774470636169809000,9.936808837890625,-0.002059438731521368,-0.0002516736276447773,-0.000844128429889679
1774470636179822000,9.946822021484374,0.000308062182739377,0.0005457568913698196,-0.0013470076955854893
1774470636189835000,9.9568349609375,-0.0012677301419898868,0.00029408838599920273,-0.0010199714452028275
1774470636199848000,9.966847900390626,-0.002042249543592334,0.0007009310647845268,0.0002816063351929188
1774470636209861000,9.976861083984375,0.00028934795409440994,0.0008966731838881969,0.00020810309797525406
1774470636219873800,9.986873779296875,-0.0006721504032611847,-0.0007138287182897329,-0.0006010108627378941
1774470636229887000,9.996886962890626,-0.000518486020155251,0.0005200137384235859,-0.000621783547103405
1774470636239900000,10.00689990234375,0.0014158166013658047,-0.0014228438958525658,0.0009040157310664654
1774470636249913000,10.0169130859375,0.00013616762589663267,-0.0018401611596345901,-0.0012595364823937416
1774470636259926000,10.026926025390624,0.00056670285994187,-0.0010600388050079346,0.000060779042541980743
1774470636269939000,10.03693896484375,-0.0009579568868502975,-0.0008563068695366383,-0.00006359070539474487
1774470636279953000,10.046952880859376,-0.0007047379622235894,-0.00004919292405247688,-0.00007481547072529793
1774470636289965800,10.0569658203125,-0.0007654580986127257,-0.0008425486739724874,-0.0005786856636404991
1774470636299979000,10.06697900390625,-0.001140068517997861,-0.00021173013374209404,-0.0004047015681862831
1774470636309992200,10.0769921875,-0.0013999929651618004,0.00034433789551258087,-0.0002925824373960495
1774470636320004900,10.0870048828125,-0.00025940733030438423,-0.0017919652163982391,-0.0009616422466933727
1774470636330018000,10.09701806640625,-0.00005168077768757939,-0.0006241691298782825,-0.001475899014621973
1774470636340031000,10.107031005859374,-0.0010612860787659883,0.0005640527233481407,-0.0017549293115735054
1774470636350044000,10.1170439453125,-0.0008415752090513706,0.0007174508646130562,-0.0006419941782951355
1774470636360056800,10.127056884765626,0.0001688991324044764,-0.0005315779708325863,-0.0011566425673663616
1774470636370070000,10.137070068359375,0.0002669034874998033,0.00078615453094244,-0.000317214522510767
1774470636380083200,10.147083251953125,-0.0003032792592421174,-0.0010370458476245403,-0.000013081356883049011
1774470636390096000,10.157095947265624,-0.0030023930594325066,-0.0011542248539626598,0.00007240613922476768
1774470636400109000,10.167109130859375,0.00036853941855952144,-0.0003966432996094227,-0.0020621628500521183
1774470636410122000,10.1771220703125,-0.0005188258364796638,0.00027074478566646576,-0.00043869949877262115
1774470636420135000,10.187135009765624,0.00047794714919291437,-0.0002318848855793476,-0.00038840528577566147
1774470636430147800,10.19714794921875,-0.0009353924542665482,0.0004988862201571465,-0.0012249043211340904
1774470636440161000,10.2071611328125,-0.001351111801341176,-0.00003055017441511154,0.0005178684368729591
1774470636450174200,10.21717431640625,-0.0021647075191140175,0.0011289902031421661,0.0000020139850676059723
1774470636460187000,10.227186767578125,0.00017384311649948359,0.00046364450827240944,-0.0010703383013606071
1774470636470200000,10.237199951171876,-0.00011484354035928845,-0.0003595384769141674,-0.0002988209016621113
1774470636480213000,10.247212890625,-0.00036218296736478806,-0.00040454091504216194,0.00013498542830348015
1774470636490226000,10.257225830078125,-0.0001462006475776434,0.00046285055577754974,-0.0004559704102575779
1774470636500238800,10.26723876953125,-0.002598533406853676,0.001548349391669035,-0.0018979189917445183
1774470636510252000,10.277251953125,-0.0012187495594844222,-0.001566750230267644,0.00009066332131624222
1774470636520265000,10.287264892578126,0.00016756937839090824,0.00033918488770723343,0.000047338660806417465
1774470636530278000,10.29727783203125,-0.0005980894202366471,-0.0003974456340074539,-0.000392349436879158
1774470636540291000,10.307291015625,0.0001544948318041861,0.0005288021638989449,0.0008794402237981558
1774470636550304000,10.317303955078126,-0.0007954547181725502,-0.00015563005581498146,-0.001151486299932003
1774470636560317000,10.32731689453125,-0.001768523477949202,-0.0003729443997144699,0.001282649114727974
1774470636570329900,10.337329833984375,-0.0013567988062277436,0.00020789122208952904,-0.0010585356503725052
1774470636580343000,10.347343017578124,-0.00045342871453613043,-0.00045310473069548607,-0.0011036735959351063
1774470636590356000,10.35735595703125,-0.0006281321402639151,0.0008124294690787792,0.0001456150785088539
1774470636600369000,10.367368896484376,0.0001342798350378871,-0.00008292635902762413,-0.0008541415445506573
1774470636610382000,10.377382080078124,-0.00063031364697963,-0.00025416770949959755,-0.00037929974496364594
1774470636620395000,10.38739501953125,-0.001062570489011705,-0.00031053368002176285,-0.0016899430193006992
1774470636630408000,10.397407958984376,-0.0004998445510864258,0.00003194902092218399,-0.00017194123938679695
1774470636640420900,10.4074208984375,-0.0001447423710487783,-0.0004405863583087921,-0.00016850139945745468
1774470636650434000,10.41743408203125,0.0012728582369163632,-0.0008922584820538759,-0.00044413842260837555
1774470636660447000,10.427447021484374,-0.0009155633160844445,0.000014013145118951797,-0.0004018065519630909
1774470636670460000,10.4374599609375,0.00045889412285760045,0.00031814631074666977,-0.0005112625658512115
1774470636680473000,10.44747314453125,-0.000005028501618653536,-0.00018891971558332443,-0.0007735835388302803
1774470636690486000,10.457486083984374,-0.000014083285350352526,-0.0020454092882573605,0.0006759748794138432
1774470636700499000,10.4674990234375,-0.002122629666700959,0.00034522218629717827,-0.001339952927082777
1774470636710511900,10.477511962890626,0.000635872595012188,-0.0001972639001905918,-0.0015117269940674305
1774470636720525000,10.487525146484375,-0.000021950399968773127,0.0009427457116544247,-0.0006943061016499996
1774470636730538000,10.4975380859375,0.0012206805404275656,-0.0011323895305395126,-0.00009616045281291008
1774470636740551000,10.507551025390624,-0.0024040290154516697,0.00007286900654435158,-0.0006397622637450695
1774470636750563800,10.517563720703125,-0.0013376992428675294,-0.0013545851688832045,0.0026204795576632023
1774470636760577000,10.527576904296875,0.0008043061243370175,-0.00014311308041214943,-0.0012878403067588806
1774470636770590000,10.53758984375,-0.000720619922503829,0.00032906513661146164,0.0006658548954874277
1774470636780603000,10.547602783203125,-0.00030679209157824516,-0.0019274554215371609,-0.0008539906702935696
1774470636790617000,10.5576171875,0.0003310349420644343,-0.0008824309334158897,0.0005228635855019093
1774470636800629000,10.56762890625,0.0005749828997068107,0.00016330042853951454,-0.001591225154697895
1774470636810642000,10.577641845703125,0.0011504919966682792,0.0010288278572261333,-0.00024419836699962616
1774470636820656000,10.58765625,-0.00012567860540002584,-0.001030096784234047,0.00027199508622288704
1774470636830668800,10.597668701171875,0.002069565001875162,-0.00044473400339484215,0.0007034270092844963
1774470636840682000,10.607681884765626,-0.0005127639742568135,-0.00024743424728512764,-0.0006408845074474812
1774470636850695000,10.61769482421875,0.00037460133899003267,-0.00000828225165605545,0.0003676549531519413
1774470636860708000,10.6277080078125,0.0018688761629164219,0.0011549959890544415,-0.0009674462489783764
1774470636870720800,10.637720703125,-0.0012507507344707847,-0.0005057509988546371,0.0005446965806186199
1774470636880734000,10.64773388671875,-0.0008906528819352388,-0.0016559248324483633,0.000862909248098731
1774470636890747100,10.6577470703125,-0.0012294069165363908,0.0003390493802726269,-0.0007544285617768764
1774470636900759800,10.667759765625,0.002527505625039339,-0.0009091501124203205,0.001335154753178358
1774470636910773000,10.67777294921875,-0.0004424516810104251,-0.0011238008737564087,-0.0014406582340598106
1774470636920786000,10.687785888671876,0.0009042356396093965,-0.0004433230496942997,-0.0010754624381661415
1774470636930799000,10.697799072265624,0.0020611127838492393,0.0008669518865644932,-0.0003217877820134163
1774470636940811800,10.707811767578125,-0.0011254425626248121,0.001757174264639616,0.0009964830242097378
1774470636950825000,10.717824951171876,-0.0012713838368654251,-0.00013819755986332893,-0.00024215318262577057
1774470636960838100,10.727838134765625,0.000054645934142172337,0.00018234271556138992,-0.0010780850425362587
1774470636970851000,10.73785107421875,0.0006479981821030378,-0.00025122007355093956,0.0007435171864926815
1774470636980864000,10.747864013671874,0.0017494512721896172,-0.000508368480950594,0.0008383975364267826
1774470636990877000,10.757876953125,0.0008516996167600155,-0.000013020820915699005,-0.0002878531813621521
1774470637000890000,10.76789013671875,-0.0018898675916716456,-0.00018920563161373138,-0.000058488454669713974
1774470637010902800,10.77790283203125,-0.0005785271059721708,0.001561290118843317,-0.0012678299099206924
1774470637020916000,10.787916015625,0.0004252915969118476,0.0020165815949440002,-0.0008899420499801636
1774470637030929200,10.79792919921875,0.000038866885006427765,-0.00039863912388682365,-0.0013828934170305729
1774470637040942000,10.807942138671875,-0.000443850876763463,0.0013478086329996586,0.00011875992640852928
1774470637050955000,10.817955078125,-0.0018161778571084142,0.001188018824905157,0.0009315568022429943
1774470637060968000,10.827968017578126,0.0018822941929101944,0.000627520028501749,0.00010517612099647522
1774470637070981000,10.837981201171875,0.0007611034088768065,0.0005428316071629524,-0.00005274917930364609
1774470637080993800,10.847993896484375,0.00010173744522035122,0.001405349001288414,-0.00011162413284182549
1774470637091007000,10.858007080078124,0.00048203684855252504,0.0006663217209279537,-0.0008365362882614136
1774470637101020200,10.868020263671875,0.0010555583285167813,-0.0005948625039309263,-0.0007916111499071121
1774470637111033000,10.878033203125,0.0010566236451268196,-0.00033307401463389397,-0.00032981904223561287
1774470637121046000,10.8880458984375,-0.0001076405169442296,-0.0003839484415948391,-0.0009984062053263187
1774470637131059200,10.89805908203125,-0.00110259756911546,0.00023070909082889557,-0.0005765617825090885
1774470637141072100,10.908072021484376,-0.00038298347499221563,0.00035420339554548264,-0.0005535203963518143
1774470637151085000,10.9180849609375,-0.0018431947100907564,-0.0014769863337278366,-0.0003481907770037651
1774470637161098000,10.928097900390625,-0.000422115670517087,0.0007757055573165417,0.0006098407320678234
1774470637171111200,10.938111083984374,0.001223185216076672,0.00043961498886346817,0.000005569774657487869
1774470637181124000,10.9481240234375,-0.0005714753642678261,0.00027866894379258156,-0.0014176634140312672
1774470637191137000,10.958136962890626,-0.000499569927342236,0.0004126257263123989,0.0007592048496007919
1774470637201150200,10.968150146484374,0.001188009511679411,-0.00020687468349933624,-0.00008714152500033379
1774470637211163100,10.9781630859375,-0.0002855175407603383,0.00045891571789979935,-0.000822972971946001
1774470637221176000,10.988176025390626,-0.0006348607130348682,0.0003376239910721779,-0.0005096932873129845
1774470637231189000,10.99818896484375,0.000010156887583434582,-0.0008677227888256311,-0.0001759990118443966
1774470637241202200,11.0082021484375,-0.0017699748277664185,0.0006311312317848206,-0.0003750543110072613
1774470637251215000,11.018215087890624,-0.001200324622914195,-0.0020277686417102814,-0.0007388424128293991
1774470637261228000,11.02822802734375,-0.0013074720045551658,0.0001720041036605835,-0.0008066501468420029
1774470637271241200,11.0382412109375,-0.00043688470032066107,-0.00102189090102911,-0.00016988813877105713
1774470637281254100,11.048254150390624,0.00016184733249247074,0.000016979407519102097,-0.000304369255900383
1774470637291267000,11.05826708984375,-0.00005999405402690172,0.0005187192000448704,0.000249302014708519
1774470637301280000,11.068280029296876,-0.0015622024657204747,0.0011596470139920712,0.0005181585438549519
1774470637311293200,11.078293212890625,0.001358486246317625,-0.0002723345533013344,-0.0010951845906674862
1774470637321306000,11.08830615234375,-0.0008498001843690872,-0.0018504641484469175,-0.00025144778192043304
1774470637331319000,11.098319091796874,0.0006964312633499503,0.001848400104790926,-0.001118839718401432
1774470637341332200,11.108332275390625,-0.0013181350659579039,0.0009415354579687119,0.00010650651529431343
1774470637351345200,11.11834521484375,-0.000030230381526052952,0.00035510724410414696,-0.0011494406498968601
1774470637361358000,11.128358154296874,-0.0009201363427564502,-0.0009208398405462503,-0.0005086101591587067
1774470637371371000,11.13837109375,0.0006481991149485111,-0.00013041356578469276,-0.00011872313916683197
1774470637381384200,11.14838427734375,0.0006600235938094556,0.004702687729150057,0.0018158529419451952
1774470637391397000,11.158397216796875,-0.00035330920945852995,-0.0013743794988840818,-0.0024260301142930984
1774470637401410000,11.16841015625,0.001857902854681015,-0.0027024918235838413,-0.0005886247381567955
1774470637411423200,11.17842333984375,0.0002400325029157102,0.0035245115868747234,7.329508662223816e-7
1774470637421436200,11.188436279296875,-0.0017284592613577843,-0.00027724867686629295,-0.0012148339301347733
1774470637431450000,11.1984501953125,0.0011829084251075983,-0.0012636836618185043,0.00014044856652617455
1774470637441463000,11.208463134765625,0.0005254559800960124,-0.0009430681820958853,0.00011888798326253891
1774470637451476200,11.218476318359375,-0.002888450399041176,-0.0005638338625431061,-0.00034716539084911346
1774470637461489200,11.2284892578125,-0.0009970944374799728,-0.0006385103333741426,-0.001428323332220316
1774470637471502000,11.238502197265625,0.0008194476831704378,-0.0013570310547947884,-0.00005892571061849594
1774470637481515300,11.248515380859375,0.0005770211573690176,-0.00030590128153562546,0.0011637909337878227
1774470637491528000,11.25852783203125,-0.0002964957384392619,0.0010224836878478527,-0.0006551481783390045
1774470637501541000,11.268541015625,0.000729501189198345,-0.0011384855024516582,0.00000884663313627243
1774470637511554000,11.278553955078126,-0.0007834406569600105,-0.00031157396733760834,0.001473851501941681
1774470637521567200,11.288567138671874,0.001194158336147666,-0.0010875542648136616,0.00011348724365234375
1774470637531580200,11.298580078125,-0.0015733985928818583,0.0004171319305896759,-0.0006340621039271355
1774470637541593000,11.308593017578126,-0.00008444581180810928,-0.0016249960754066706,-0.0011438317596912384
1774470637551606300,11.318606201171875,-0.0004085525870323181,-0.0005661232862621546,0.00022796262055635452
1774470637561619000,11.328618896484375,0.00045579427387565374,5.94649463891983e-7,0.00018128613010048866
1774470637571632000,11.338632080078124,-0.000929582049138844,0.0005582608282566071,0.0009040683507919312
1774470637581645000,11.34864501953125,0.0002980529679916799,-0.0004084431566298008,-0.0005255956202745438
1774470637591658200,11.358658203125,-0.001230335095897317,-0.002455614972859621,-0.000011605676263570786
1774470637601671200,11.368671142578124,0.00048557750415056944,0.0002655000425875187,0.00030490150675177574
1774470637611684000,11.37868408203125,-0.0024620092008262873,-0.0010218718089163303,0.00034964270889759064
1774470637621697300,11.388697265625,0.0006387687753885984,0.0009898971766233444,0.0003697234205901623
1774470637631710000,11.3987099609375,0.00005393859464675188,-0.00015206588432192802,-0.00011763488873839378
1774470637641723100,11.40872314453125,0.00029978237580507994,-0.0006363915745168924,-0.0003802599385380745
1774470637651736000,11.418736083984374,0.0006105732754804194,0.0011764224618673325,-0.00003910902887582779
1774470637661749200,11.428749267578125,-0.0003118374152109027,0.0012616650201380253,0.0003203880041837692
1774470637671762000,11.438761962890625,-0.000303847948089242,0.00047123897820711136,0.00002823956310749054
1774470637681775000,11.448775146484374,0.00026573979994282126,0.0002138577401638031,-0.0005886689759790897
1774470637691788300,11.458788330078125,0.0007973067695274949,-0.0007004055660218,-1.103617250919342e-7
1774470637701801000,11.468801025390626,-0.0007164262933656573,-0.0014411958400160074,-0.0008931481279432774
1774470637711814100,11.478814208984375,0.0007174196070991457,-0.00006061326712369919,-0.00027396297082304955
1774470637721827000,11.4888271484375,0.0001584716374054551,-0.0013499937485903502,0.000980262877419591
1774470637731840300,11.49884033203125,0.000565668975468725,-0.0005188211798667908,0.0004622777923941612
1774470637741853000,11.50885302734375,-0.0004780218005180359,-0.0004532746970653534,-0.0004701465368270874
1774470637751866000,11.5188662109375,-0.0007352831307798624,-0.0034522605128586292,0.0009298771619796753
1774470637761879300,11.52887939453125,0.0017159898998215795,-0.0009016715921461582,0.0000739353708922863
1774470637771892000,11.53889208984375,-0.00009842170402407646,0.005493910051882267,0.0006787390448153019
1774470637781905200,11.5489052734375,-0.0010944963432848454,0.002002699300646782,0.000692407600581646
1774470637791918000,11.55891796875,0.00014573766384273767,0.001687913667410612,-0.000980590470135212
1774470637801931300,11.56893115234375,-0.00016000110190361738,0.008652504533529282,0.0015125470235943794
1774470637811944000,11.57894384765625,0.00046451023081317544,0.0004891161806881428,0.0007551442831754684
1774470637821957000,11.58895703125,0.0006917365826666355,0.0022466559894382954,0.00036408333107829094
1774470637831970300,11.59897021484375,-0.000497098546475172,0.0009414409287273884,0.00145651213824749
1774470637841983000,11.60898291015625,-0.000026810099370777607,0.000019004568457603455,0.0007530869916081429
1774470637851996200,11.61899609375,0.0011172839440405369,0.0005947803147137165,-0.0003145742230117321
1774470637862009000,11.629009033203126,-0.0014366781106218696,-0.0013196603395044804,-0.00033288029953837395
1774470637872022300,11.639022216796874,0.0013255525846034288,-0.0005942152347415686,0.00239845784381032
1774470637882035000,11.649034912109375,-0.00035512458998709917,-0.0003965063951909542,0.000861163716763258
1774470637892048100,11.659048095703126,0.0017226736526936293,0.0012453324161469936,-0.0008097034879028797
1774470637902061000,11.66906103515625,-0.0001675155945122242,-0.0017730856779962778,0.00196477142162621
1774470637912074000,11.679073974609375,-0.0009174615843221545,-0.00009502796456217766,-0.00010317331179976463
1774470637922087200,11.689087158203124,0.0015285040717571974,0.0010230238549411297,-0.0005136728286743164
1774470637932100000,11.69910009765625,-0.0008475682698190212,-0.00038871774449944496,0.0011231061071157455
1774470637942113300,11.70911328125,-0.0019202091498300433,-0.0003469265066087246,-0.0006289673037827015
1774470637952126000,11.7191259765625,0.0008859635563567281,0.0002506868913769722,0.001253887778148055
1774470637962139100,11.72913916015625,0.00171585101634264,0.0002836119383573532,0.0003992561250925064
1774470637972152000,11.739152099609376,0.0007800161838531494,-0.0011712731793522835,0.00016223499551415443
1774470637982165000,11.7491650390625,0.0006110596586950123,-0.00017523113638162613,0.0017184112221002579
1774470637992178200,11.75917822265625,-0.0004283720627427101,-0.001527317799627781,0.00087365647777915
1774470638002191000,11.769191162109376,0.0003858500858768821,0.002610632684081793,-0.000723536591976881
1774470638012204300,11.779204345703125,0.00035309320082888007,0.0013040858320891857,0.0021904942113906145
1774470638022217000,11.789217041015625,-0.0006717982469126582,0.00053773308172822,-0.0004013669677078724
1774470638032230100,11.799230224609374,-0.0005785876419395208,-0.0007752052042633295,0.0011254230048507452
1774470638042243000,11.8092431640625,0.0009420773712918162,-0.0003000972792506218,-0.0005052303895354271
1774470638052256000,11.819256103515626,-0.0014046162832528353,0.000021369196474552155,0.0018529449589550495
1774470638062269200,11.829269287109375,0.0019509614212438464,-0.00006496673449873924,-0.000052683986723423004
1774470638072282000,11.8392822265625,-0.00030473596416413784,-0.0007571221794933081,0.0006953980773687363
1774470638082295300,11.84929541015625,-0.0002779836067929864,0.000966076273471117,-0.00015993136912584305
1774470638092308200,11.85930810546875,0.0023167342878878117,0.00031360192224383354,0.0006012003868818283
1774470638102321200,11.869321044921875,0.0012722596293315291,-0.0009902515448629856,-0.0012045647017657757
1774470638112334300,11.879334228515624,-0.000760264927521348,0.000018553808331489563,0.002114000031724572
1774470638122347000,11.889346923828125,-0.0010716677643358707,-0.0008631334640085697,0.0008393996395170689
1774470638132360200,11.899360107421876,-0.002374752424657345,0.00010865414515137672,0.0005653603002429008
1774470638142373400,11.909373291015624,-0.000978906755335629,-0.000015945639461278915,0.00033125700429081917
1774470638152386300,11.91938623046875,-0.0014084746362641454,-0.00008465535938739777,-0.0002783406525850296
1774470638162399200,11.929399169921876,0.0014229982625693083,-0.0005548095796257257,-0.00042528705671429634
1774470638172412200,11.939412109375,0.003031813772395253,0.0001924736425280571,0.00023038312792778015
1774470638182425300,11.94942529296875,0.001133667421527207,0.0008083945140242577,-0.000555667094886303
1774470638192438000,11.95943798828125,0.00014590093633159995,0.0005434099584817886,0.0009253169409930706
1774470638202451200,11.969451171875,0.000272484146989882,0.0005155419930815697,0.0006635133177042007
1774470638212464400,11.97946435546875,0.000558241328690201,0.00026973243802785873,0.0008134492672979832
1774470638222477300,11.989477294921874,0.0005865396233275533,0.001329407561570406,0.00015553878620266914
1774470638232490200,11.999490234375,-0.01915254443883896,0.27552688121795654,0.06265752762556076
1774470638242503200,12.009503173828126,-0.006338511127978563,0.15147346258163452,-0.008648410439491272
1774470638252516400,12.019516357421875,-0.016395939514040947,0.08051354438066483,0.029790857806801796
1774470638262529000,12.029529052734375,0.00805622711777687,-0.03624299541115761,0.010519502684473991
1774470638272543200,12.039543212890624,0.0005639560404233634,-0.009691014885902405,-0.005146542098373175
1774470638282555400,12.049555419921875,0.0002993798116222024,-0.03907136619091034,-0.001011899672448635
1774470638292569000,12.059569091796876,0.0004905947716906667,-0.16653825342655182,-0.02346048317849636
1774470638302582300,12.069582275390625,0.026747651398181915,-0.1999288648366928,-0.0544138178229332
1774470638312595200,12.07959521484375,-0.009611689485609531,0.13192176818847656,0.03767669200897217
1774470638322608000,12.089608154296876,0.00044446205720305443,-0.09257177263498306,-0.021186618134379387
1774470638332621300,12.099621337890625,0.0006668359856121242,0.05163760110735893,0.012688258662819862
1774470638342634200,12.10963427734375,0.0005492379423230886,-0.028863729909062386,-0.005953122396022081
1774470638352647400,12.1196474609375,-0.02973782829940319,-0.8534356355667114,-0.11294561624526978
1774470638362660000,12.12966015625,0.0293431393802166,-0.4051145017147064,-0.08331724256277084
1774470638372673300,12.13967333984375,0.03886421024799347,-0.2877061367034912,-0.08334307372570038
1774470638382686200,12.149686279296875,-0.000022427644580602646,-0.2991025149822235,-0.04915018007159233
1774470638392699100,12.15969921875,0.011660859920084476,-0.21841618418693542,-0.044303227216005325
1774470638402712000,12.169712158203126,0.013214086182415485,-0.07152625173330307,-0.01838250458240509
1774470638412725200,12.179725341796875,-0.0013443495845422149,0.06559965014457703,0.013862250372767448
1774470638422738400,12.189738525390625,0.008304515853524208,0.17046117782592773,0.04803852364420891
1774470638432751000,12.199751220703124,0.04008481651544571,0.07349176704883575,0.027124455198645592
1774470638442764300,12.209764404296875,0.13164256513118744,0.08999315649271011,0.04374346137046814
1774470638452777200,12.219777099609376,0.156424880027771,0.3639722466468811,0.09257039427757263
1774470638462790100,12.2297900390625,0.1130891740322113,0.43220624327659607,0.10592246055603027
