time,seconds_elapsed,z,y,x
1774472498556899800,0.07589990234375,0.1721685845196247,-0.08518515146300196,0.25776516632772983
1774472498566928000,0.085927978515625,0.043915714094042775,-0.1965845022432506,0.2905349065019749
1774472498576956000,0.095955810546875,-0.13927987587451934,-0.35355376406535505,0.35742888846565035
1774472498586984000,0.10598388671875,-0.2532394325315952,-0.3842864637203514,0.4219397564187646
1774472498597011700,0.11601171875,-0.2032470288723707,-0.4154498098775744,0.5434761780709028
1774472498607040000,0.1260400390625,-0.06166998197138309,-0.4159067598648369,0.5397037103274837
1774472498617067800,0.13606787109375,-0.023325346007943153,-0.37295609141066666,0.5428960035627708
1774472498627096000,0.146095947265625,0.046859366330504415,-0.3552288576707244,0.5482900080934167
1774472498637123300,0.156123291015625,0.050340778705477714,-0.313665113530308,0.5033111217472702
1774472498647151000,0.166151123046875,-0.014723521879315376,-0.2804926195077598,0.5472306717662141
1774472498657179400,0.176179443359375,-0.09188625653684139,-0.2978010433137417,0.560330355303362
1774472498667207200,0.186207275390625,-0.19954934339821337,-0.20984861909449098,0.5641812585778534
1774472498677235500,0.1962353515625,-0.10204524697959423,-0.17632058963254094,0.6148703392643481
1774472498687263200,0.20626318359375,0.10016600910425186,-0.2749808703489601,0.4406619925454259
1774472498697291300,0.216291259765625,0.14115794470608234,-0.39651889943629504,0.33282866368368264
1774472498707319300,0.2263193359375,0.1537304260313511,-0.5049212603576481,0.4706408781584352
1774472498717347300,0.236347412109375,0.17965221827328204,-0.49703562167435883,0.6311331995401531
1774472498727375400,0.246375244140625,0.30638416274189945,-0.47684857369214295,0.7529787602066993
1774472498737403400,0.2564033203125,0.5456868398576975,-0.474628121163696,0.9314295668009668
1774472498747431200,0.26643115234375,0.841684633141756,-0.4641089191064238,1.030629434286803
1774472498757460500,0.27646044921875,1.133804123687744,-0.505737399046123,0.9012526743978262
1774472498767488300,0.28648828125,1.305190617918968,-0.6797070416383445,0.13063830425739287
1774472498777516300,0.296516357421875,0.9631377604246139,-0.8749901058942079,-1.175324028686434
1774472498787544300,0.30654443359375,0.16037059469819068,-0.7298093354128301,-1.5754238553494213
1774472498797572400,0.316572265625,-0.8138017699599266,-0.0956358183287084,-0.8593686122618616
1774472498807600400,0.326600341796875,-1.5636778879761695,1.1601346428610384,0.2570940621331334
1774472498817628400,0.33662841796875,-1.9434896905004977,1.5501549740582703,0.16250848350971936
1774472498827656200,0.34665625,-1.9636153636842966,1.7973121640667318,0.35084231314957137
1774472498837684500,0.3566845703125,-1.7571096252769232,1.2297324952222406,0.5823632503479719
1774472498847712300,0.366712158203125,-1.1740092928260564,0.5578937027409673,0.8996575141608715
1774472498857740300,0.376740234375,-0.7229688218683004,-0.20911387507915496,0.7000554176621139
1774472498867768300,0.386768310546875,-0.437051108571887,-0.5291059996739029,0.056299248718470335
1774472498877796400,0.39679638671875,-0.06277823547422885,-0.25694924683496356,-0.3147833039052784
1774472498887824400,0.406824462890625,0.27066636815071105,0.5382030599735677,-0.19219547350406646
1774472498897852400,0.416852294921875,0.36829379868805406,0.9633540335237979,0.14351926700994372
1774472498907880200,0.426880126953125,0.2789677480280399,0.8390550152905285,0.27298765070512887
1774472498917908500,0.436908447265625,-0.3470078495532274,0.5284406676329672,0.2583639359384775
1774472498927936300,0.446936279296875,-0.9171130913525819,0.008827449578046799,0.23760288746058938
1774472498937964500,0.456964599609375,-1.069262385672331,-0.014114450070261955,0.6013695641130209
1774472498947992300,0.466992431640625,-1.1151438468813895,-0.009489128357172012,1.0684612984225152
1774472498958020400,0.477020263671875,-0.4852402622014284,-0.24586685793697832,1.0626713168442248
1774472498968048400,0.48704833984375,0.3536638003110885,-0.5054527368858456,0.7096288633018731
1774472498978076200,0.497076171875,0.8086936331659555,-0.6095981710150837,0.34631022267788647
1774472498988104400,0.5071044921875,0.5853402203321456,-0.6117243693888187,0.17465747872591017
1774472498998132200,0.51713232421875,0.1534814197063446,-0.6105632166549563,0.17477146049439907
1774472499008160300,0.52716015625,-0.18705109635293482,-0.563759672164917,0.006271627615392208
1774472499018188300,0.537188232421875,-0.14208032024800776,-0.6217340144887566,-0.3027542818069458
1774472499028216300,0.54721630859375,0.17568273012042043,-0.3596542728975415,-0.6018453649312258
1774472499038244400,0.557244384765625,0.4666308387994766,0.17531155872046947,-0.8766045553535222
1774472499048272400,0.5672724609375,0.6935428208976984,0.5923480532675981,-1.086203583601117
1774472499058300200,0.577300048828125,-0.03806640354394913,0.9621414428636431,-1.01566348195374
1774472499068328400,0.587328369140625,-0.04484218128919601,0.745870097245276,-0.5435679480075836
1774472499078356200,0.597356201171875,-0.3645195408463478,0.4386477301135659,-0.3715437403947115
1774472499088384500,0.607384521484375,-0.19872692109942436,0.3200488232180476,-0.11979074702858925
1774472499098412300,0.617412353515625,0.055906011617183685,0.1904769791483879,0.041560675400495524
1774472499108440300,0.6274404296875,0.27234745310544967,0.012668050654232502,0.11394202100038528
1774472499118468400,0.63746826171875,0.2827420058697462,0.33628274966031313,0.4444491098687052
1774472499128496400,0.647496337890625,0.001004208606481552,0.658781596378982,0.6729577135086059
1774472499138524400,0.6575244140625,-0.029127310284972188,0.2864408603876829,0.602486585444212
1774472499148552400,0.667552490234375,0.7218903789818286,-0.5999582360103726,0.6092194008305668
1774472499158580200,0.677580322265625,1.090890864634514,-1.1895666351810097,0.9886483415171503
1774472499168608500,0.6876083984375,1.1489262894958256,-1.511369024068117,0.6909025355219841
1774472499178636300,0.69763623046875,0.7171060673147439,-1.3927774236962198,0.34659780744761226
1774472499188664300,0.707664306640625,0.09155600166916847,-0.8442401628434657,-0.1440951672017574
1774472499198692400,0.7176923828125,0.11657178498208522,0.5535661949306726,-0.630636867390573
1774472499208720400,0.727720458984375,0.450052044442296,1.5853005217194556,-0.310903978253901
1774472499218749200,0.737749267578125,0.2944195841819048,1.2728215492337942,-0.14055880976915358
1774472499228777500,0.747777587890625,0.7401397368997334,0.46686347851157184,-0.5419494068950415
1774472499238805200,0.75780517578125,0.7903168494760989,-0.2767436422377825,-1.0521575216144323
1774472499248833500,0.76783349609375,0.2504576928585768,-0.7090326509743928,-0.923077260453999
1774472499258861300,0.777861328125,-0.25079437746703626,-0.7417679226234555,-0.7104892795234918
1774472499268889300,0.787889404296875,-0.5153717810928822,-0.23682079717218874,-0.3006558482229709
1774472499278917400,0.79791748046875,-0.3438414944767952,0.1997480808407068,0.27417203818410635
1774472499288945400,0.8079453125,-0.1013011506140232,0.13853782533556222,0.43111967269629237
1774472499298973400,0.817973388671875,0.0835246709048748,-0.24378712905347347,0.2575046887606382
1774472499309001500,0.82800146484375,0.21975509608089921,-0.3885501125141978,0.1012295466825366
1774472499319029200,0.838029296875,0.1424742880016565,-0.2046107184410095,0.2459086512520909
1774472499329057500,0.8480576171875,0.15254910729229448,-0.013776011896133422,0.3587736906707287
1774472499339085300,0.858085205078125,0.0927916809439659,0.014411971712112425,0.5190478392571211
1774472499349113300,0.86811328125,-0.253635153850913,-0.23177286613285542,0.6681818774089217
1774472499359141400,0.878141357421875,-0.5210615171670914,-0.32893677081167694,0.596320756290853
1774472499369169200,0.888169189453125,-0.05848316862881183,-0.12906184872090815,0.6954302420794963
1774472499379197400,0.898197509765625,0.024099837511777876,-0.18183833014070985,0.574526273111999
1774472499389225200,0.90822509765625,-0.1149649343073368,-0.08565905258506536,0.17569763542860745
1774472499399253200,0.918253173828125,0.14090601577162742,-0.04797463409602642,0.2694327347025275
1774472499409281300,0.92828125,-0.260882640761137,-0.14244126251488923,0.3121566086634993
1774472499419309300,0.938309326171875,-0.5606874251127243,0.04519435572773218,0.21681524323672055
1774472499429337300,0.94833740234375,-0.5209773460149765,0.341254985114932,0.20593319921642542
1774472499439365400,0.958365478515625,-0.685745883411169,0.9817679343536495,0.3158618929222226
1774472499449393200,0.96839306640625,-0.5240507621109486,1.0029705891191958,0.3920706878557801
1774472499459421400,0.97842138671875,-0.12944471055865286,0.5519307026833296,0.23563334095329044
1774472499469449200,0.98844921875,0.10258768329322338,0.13730536093115805,-0.059764732871949666
1774472499479477500,0.9984775390625,0.3431055814176798,-0.3240338012009859,-0.22273323510885237
1774472499489505300,1.00850537109375,0.6751876645177602,-0.44642508611679077,-0.23265432514250278
1774472499499533300,1.018533203125,0.653130731010437,-0.06300035379230975,0.02332505374699831
1774472499509561300,1.028561279296875,0.5762134955465793,-0.026523265266418454,0.3019286446377635
1774472499519589400,1.03858935546875,0.2693371653735637,-0.2411369068056345,0.3441170965477824
1774472499529617400,1.048617431640625,-0.1082201362222433,-0.3198813576966524,0.4366641550809145
1774472499539645400,1.0586455078125,-0.6036340019136667,-0.19876082336902617,0.5089581146582961
1774472499549673200,1.068673095703125,-0.7772884410768747,-0.14880056841373443,0.5506871323630214
1774472499559701500,1.078701416015625,-0.4564227485179901,-0.04652794241905212,0.5420718642309308
1774472499569729300,1.088729248046875,0.016425065100193023,0.0031289456754922864,0.35071985581368204
1774472499579757600,1.098757568359375,0.5261638087421655,-0.165545366987586,-0.13515841203033924
1774472499589785300,1.108785400390625,0.70689330085814,-0.3139554747790098,-0.5417325492739677
1774472499599813000,1.118813232421875,0.3595604571342468,-0.36687224145233627,-0.7275418288722634
1774472499609841400,1.12884130859375,0.2559539521872997,-0.017115969973802565,-0.8222446041345596
1774472499619869200,1.138869140625,0.04687514842152595,0.8398731998056173,-0.3720812082722783
1774472499629898200,1.148898193359375,-0.21741993113160132,1.2541408141613006,-0.08874211329221725
1774472499639929000,1.15892919921875,-0.5031079273253679,1.1225146679103373,0.000013444003462791442
1774472499649958100,1.168958251953125,0.023225977286696432,0.8332938214153051,0.26508330732136964
1774472499659986000,1.17898583984375,0.3365945920884609,0.9169698834896087,-0.030781799493730066
1774472499670014200,1.18901416015625,-0.6129805069297551,0.23606676393449305,-0.5753153776630759
1774472499680042000,1.1990419921875,0.24614918200969696,0.0738695383310318,-0.46158027741163965
1774472499690070300,1.2090703125,0.24939035588800906,0.33776948108673094,-0.2951993363827467
1774472499700098000,1.21909814453125,-0.008865443500876426,0.5446592503756285,0.2612465056374669
1774472499710126000,1.2291259765625,-0.5104302330374717,0.8842115232259035,-0.008117693873494864
1774472499720154000,1.239154052734375,-0.552229977890849,0.7312497434794902,0.052861383224278684
1774472499730182000,1.249181884765625,-2.0986270607203243,0.2416203064084053,0.0764382197752595
1774472499740210200,1.259210205078125,-0.8808937769800425,0.05999065058231354,0.47487405874878164
1774472499750238000,1.269238037109375,-0.19743688128888606,0.3188181123793125,0.8242921843141316
1774472499760266000,1.279265869140625,-0.18711831637024878,0.21415654542148113,0.04662614209651947
1774472499770294000,1.2892939453125,-1.2243980023264884,0.14526596454679966,-0.12355126860588789
1774472499780322000,1.299322021484375,-1.7503607355386017,0.5286188006788491,0.3040226943075657
1774472499790350000,1.30935009765625,-1.1306050353854893,0.6479577122867107,1.0310022131219505
1774472499800378000,1.319378173828125,-0.2244657579898834,0.3454232107102871,1.0479498407915233
1774472499810406000,1.329406005859375,0.7279927875101566,-0.034436522608995435,0.7655158779576421
1774472499820434200,1.33943408203125,1.4591203659147023,-0.13360767545700072,0.4618728306174278
1774472499830462000,1.3494619140625,1.5901006154775619,-0.1791302402257919,0.1581719156101346
1774472499840490000,1.359489990234375,1.1293448061913252,-0.1777589518725872,0.32463352065980433
1774472499850518000,1.36951806640625,0.49873161193728444,-0.23603519975244996,0.8807403399839997
1774472499860546000,1.379546142578125,0.041966333591938014,-0.34078678308129307,1.2419441804111002
1774472499870574000,1.389573974609375,-0.4209346710294485,-0.6348509779542684,1.3126596386253833
1774472499880602000,1.39960205078125,-0.4162859684407711,-0.9815443547308444,1.1474588472917675
1774472499890630000,1.4096298828125,-0.31903204739093777,-0.921605726596713,0.9861635389640927
1774472499900658200,1.419658203125,-0.24969839892387388,-0.5941670853883028,0.9598118308722973
1774472499910686000,1.42968603515625,0.09307166692912577,-0.42434477173388,0.800574331857264
1774472499920714200,1.43971435546875,0.49280572901964187,-0.39755671805143356,0.567004645435512
1774472499930742000,1.449741943359375,0.8179705800771713,-0.2503893037974834,0.5083247851908207
1774472499940770000,1.45977001953125,0.3851064018011093,0.12661620913445948,0.6007508476927876
1774472499950798000,1.469798095703125,-0.17015666017532347,0.6113280635476112,0.41140287257432934
1774472499960826000,1.479826171875,-0.47148237048387526,1.0438929666161536,0.29866788927614685
1774472499970854100,1.489854248046875,-0.5924380696386099,0.9893716873556375,0.2195598657697439
1774472499980882000,1.4998818359375,-0.453045381039381,0.6577168897569179,-0.02192161668986082
1774472499990910000,1.509909912109375,-0.06220072784721851,0.5639508108228445,0.020877660594880578
1774472500000939000,1.51993896484375,0.050590369552373886,0.5341816955029964,0.13054039684087038
1774472500010967000,1.529967041015625,0.06540741493403911,0.40038288138806816,0.034926351952552795
1774472500020995000,1.5399951171875,-0.09626315644681453,0.2944014640033245,-0.0017205401822924613
1774472500031023000,1.550023193359375,-0.6019669454842805,-0.1609580391973257,-0.27403350649625063
1774472500041051100,1.560051025390625,-0.3701262748122215,-0.519447067707777,-0.2858826419830322
1774472500051079000,1.570078857421875,0.20807576420307158,-0.3126940765410661,-0.20227569962218403
1774472500061107200,1.580107177734375,0.4432470406025648,-0.2614233235090971,-0.23284882480129598
1774472500071135000,1.590135009765625,0.7386153038114309,-0.1960878047674894,-0.07001373968571424
1774472500081163000,1.6001630859375,0.8459265084952116,-0.11088730960488319,0.24515301057919858
1774472500091191000,1.61019091796875,0.49693537617027755,-0.21461130345165727,0.6306053032085299
1774472500101218800,1.62021875,0.12551204728484153,-0.15510405247211456,0.6314851547829806
1774472500111247000,1.6302470703125,-0.11263210744559764,-0.011492284873127936,0.5771816099263727
1774472500121275000,1.64027490234375,0.25936405289173126,0.0872977597028017,0.3598189619399607
1774472500131303200,1.65030322265625,1.0494535233527422,-0.037681203618645666,-0.16153569295480846
1774472500141331000,1.6603310546875,1.5323983680933713,-0.46104514762163157,-0.7139382509335875
1774472500151359000,1.67035888671875,1.0886305184870957,-0.19346213243901728,-0.5426788902133703
1774472500161387000,1.680386962890625,0.3277145355403423,-0.1394517253100872,-0.4433015472687781
1774472500171415000,1.6904150390625,-0.07752572275102138,0.058878305426239966,-0.29802959137260915
1774472500181443000,1.700443115234375,0.2469219199478626,-0.20120704747736454,-0.3452390863150358
1774472500191471000,1.71047119140625,-0.02494505616426468,-0.0550292287826538,-0.27811551511287685
1774472500201499000,1.720498779296875,-0.31106384499073025,-0.09496785593926906,-0.03237403712123632
1774472500211527200,1.730527099609375,0.02215513318479061,0.15533844574987887,0.04641059964969754
1774472500221555000,1.740554931640625,0.446491721612215,0.4510065686881542,0.1176720013089478
1774472500231583200,1.750583251953125,0.956540846377611,0.5834393551468848,0.12139219087585806
1774472500241611000,1.760611083984375,1.0585685577005148,0.06317395679354668,-0.15088935738652945
1774472500251639000,1.77063916015625,1.092622802993655,-0.4767565114945173,-0.4121884699940681
1774472500261667000,1.7806669921875,1.2201140413969755,-0.7252478727161884,-0.36408290299475193
1774472500271695000,1.790695068359375,1.5580349136531353,-1.1927408813029527,-0.49610155569463965
1774472500281723100,1.80072314453125,1.8211247090697287,-1.4569588039666412,-0.5154961381249129
1774472500291751200,1.810751220703125,1.944095255178213,-1.1107079102605582,-0.11486147393286228
1774472500301780000,1.820780029296875,2.0214245785742997,-0.6874304754972458,0.19109481878578663
1774472500311808000,1.83080810546875,1.9072113394170997,-0.44290158816576003,0.3279937178079039
1774472500321836000,1.8408359375,1.505423851928115,-0.37723406099081036,0.4654603337153792
1774472500331864000,1.850864013671875,0.7473854702442884,-0.41380759562849995,0.48658904646188017
1774472500341892000,1.86089208984375,0.477618681281805,-0.14240852928906678,0.7852638769354671
1774472500351920000,1.870920166015625,0.6305296076238155,0.15078063631504773,1.4724062562063336
1774472500361948000,1.880947998046875,1.3409732944399118,0.2578366971939802,1.8748323338598012
1774472500371976200,1.89097607421875,0.7098258471786976,0.25022271505892274,1.3277373807698487
1774472500382004000,1.90100390625,-0.23620003492534158,0.2061640853628516,0.6640149669878185
1774472500392032300,1.9110322265625,-0.7122264785796404,0.26619185308516025,0.14030644244328142
1774472500402060000,1.92106005859375,-0.9802069686472415,0.4185834317281842,-0.041301111148856574
1774472500412088000,1.931088134765625,-1.3948153592646122,0.6180372057974338,0.0936226153427735
1774472500422116000,1.9411162109375,-1.8715385530114172,0.6225102595582604,0.2458978375971317
1774472500432144000,1.951143798828125,-1.5447288573563098,0.425303387632966,0.02332370204012841
1774472500442172200,1.961172119140625,-0.983204981419444,-0.00999678561836481,-0.30364056312218307
1774472500452200000,1.971199951171875,-0.8827940576434135,-0.07560527608245611,-0.1388948951449245
1774472500462228000,1.98122802734375,-0.8086153072327374,-0.12473667899817227,0.060085562324151395
1774472500472256000,1.991256103515625,-0.6647036799043416,-0.33993133529573677,-0.07416705997288227
1774472500482284000,2.001283935546875,-0.5132733475089073,-0.6625029549896717,-0.372211775849387
1774472500492312000,2.01131201171875,-0.46905485107600686,-0.8926236700013279,-0.5100510975267738
1774472500502340000,2.021340087890625,-0.36580315091609955,-0.8100237127259373,-0.30089294491447505
1774472500512367900,2.031367919921875,0.01886778207719326,-0.6626619449436664,0.032929479046911
1774472500522396200,2.041396240234375,0.2621417009115219,-0.5504398796036839,0.30143903448991477
1774472500532424000,2.051423828125,0.20291326687335967,-0.6336813496530056,0.27169191180616614
1774472500542452200,2.0614521484375,0.5607230809479952,-0.8408106267862021,0.20765563909485935
1774472500552480000,2.07147998046875,0.501641946426034,-1.192397474692762,0.07320289111584424
1774472500562508000,2.081508056640625,0.34706688626408577,-1.4578585292853414,0.09912906727194785
1774472500572536800,2.091536865234375,0.1961924341857433,-1.3344409700617192,0.48393831275738775
1774472500582565000,2.101565185546875,-0.3259206378608942,-1.3251733755007384,0.8053599586986004
1774472500592593000,2.111593017578125,-0.22228139968812463,-1.5605248307727277,0.9818275555863976
1774472500602621200,2.12162109375,0.09642799161970615,-1.7509131087243557,1.1133025298636405
1774472500612649000,2.13164892578125,-0.06982873850762844,-1.6660884611368179,1.2218217220976948
1774472500622677000,2.141677001953125,-0.473109094902873,-1.2965639516100287,1.232086218741536
1774472500632705000,2.151705078125,-0.8064104906648397,-0.651053047953546,1.3911466076239942
1774472500642730200,2.161730224609375,-1.1184037254601715,-0.24436069115772843,1.4915410186566411
1774472500652758300,2.17175830078125,-1.261044602200389,0.20043284823447466,1.7231380898311732
1774472500662786300,2.181786376953125,-1.310440793532133,0.5025777659714221,1.9014938385531306
1774472500672814300,2.191814453125,-1.5225304695516824,0.5901712937504052,1.7802327267110347
1774472500682842400,2.20184228515625,-1.4617249954551457,0.5911050674691796,1.4577918937899172
1774472500692870400,2.211870361328125,-1.076218780681491,0.5412285452745854,1.2410057305172084
1774472500702898200,2.221898193359375,-1.0984405493617058,0.3713026251152158,1.197453662103787
1774472500712926500,2.231926513671875,-1.3097048804730176,0.299427621602267,0.856245146479085
1774472500722954200,2.241954345703125,-1.1887965275913477,0.4353260383449495,0.50089616956003
1774472500732982300,2.251982177734375,-1.24194476493299,0.713797381158173,0.1430734960038215
1774472500743010300,2.26201025390625,-1.3603443498641252,0.9356779449604451,0.008970145984366535
1774472500753038300,2.272038330078125,-1.0888058750540017,1.507587605833262,0.11326748273968695
1774472500763066400,2.28206640625,-0.35224633472859856,1.697420295728743,-0.12986249757930635
1774472500773094400,2.292094482421875,0.37851708653867244,1.461191326969862,-0.8951146100342273
1774472500783122200,2.3021220703125,1.190194703951478,1.1361401654198766,-1.6078605824433265
1774472500793150500,2.312150390625,1.7475526923805473,0.8484840840235353,-2.051661019144952
1774472500803178200,2.32217822265625,1.8129226979136466,0.813517400060594,-2.17724101709947
1774472500813207300,2.332207275390625,1.7287515457987783,0.9300945918701589,-1.824784546751529
1774472500823235300,2.3422353515625,1.3830401657968758,0.8518861475519836,-1.2048305475473404
1774472500833263400,2.352263427734375,1.1199345882892608,0.7267449794061481,-0.9589655893065034
1774472500843291400,2.36229150390625,0.8435901745021342,0.7148826921768486,-1.0682025744210928
1774472500853319400,2.3723193359375,0.42621874891221523,0.7401308229409158,-1.1971225304532795
1774472500863347200,2.38234716796875,-0.03631517596244812,0.9546871813349426,-1.160635651185736
1774472500873375500,2.39237548828125,-0.25434943960011,1.0156632627580315,-0.88784308466129
1774472500883403300,2.4024033203125,-0.602754880991578,0.9619176440451294,-0.8219024396333843
1774472500893431600,2.412431640625,-0.4417337134301662,0.7339560798287391,-0.6896700711175799
1774472500903459300,2.422459228515625,0.4490642024487257,0.1831097748486325,-0.5042850082807243
1774472500913487400,2.4324873046875,0.5978256078958512,-0.43328127117697146,-0.7732469106011092
1774472500923515400,2.442515380859375,0.4499135127544403,-0.6372928181484341,-0.8777156584005802
1774472500933543400,2.45254345703125,0.422300698685646,-0.3135342171596363,-0.3197607269916683
1774472500943571500,2.462571533203125,0.09695464584231377,0.2380188843829557,0.13327347506657242
1774472500953599500,2.472599609375,-0.632695845746994,0.45288975208625193,0.07515636327117681
1774472500963627300,2.482627197265625,-1.567904565760493,0.24465587471202013,0.0564968171171844
1774472500973655300,2.4926552734375,-2.151371977958083,0.03643799862451851,0.5128675431869923
1774472500983683300,2.502683349609375,-2.730444954589009,0.0250856336787343,0.781010384209454
1774472500993711400,2.51271142578125,-2.7559149114102124,-0.05814100412763655,0.3673293375700712
1774472501003739400,2.522739501953125,-2.1057792705625293,-0.4547026467271149,-0.11028744401559233
1774472501013767200,2.53276708984375,-1.1112596989244221,-1.0452560716629027,0.060264060696214435
1774472501023795500,2.54279541015625,-0.6510001487225294,-1.4569567581400273,1.105849656574428
1774472501033823200,2.5528232421875,-1.0827186640948057,-1.4846617805369198,0.9135527685225009
1774472501043852300,2.562852294921875,-1.5945575948864221,-1.1109763519383966,0.2781631536468863
1774472501053880600,2.572880615234375,-1.8211323078542947,-0.4500919380612671,0.34698709902614355
1774472501063908400,2.582908447265625,-1.7528735951423644,0.1418151665057987,0.9586281740456819
1774472501073936100,2.59293603515625,-1.5512164658099412,0.3404803109480068,1.4699264220893382
1774472501083964400,2.60296435546875,-1.4991823271900415,0.34992790171839294,1.6719319264680146
1774472501093992200,2.6129921875,-1.4149246658354997,0.49167431383691723,1.5801540987417102
1774472501104020500,2.6230205078125,-0.9634662617266178,0.4384857444848865,1.4674845818951725
1774472501114048300,2.63304833984375,-0.33458851296305653,0.4023577251249924,1.491436243107915
1774472501124076300,2.643076171875,-0.06853519156575202,0.42369142239168284,1.6448498582750557
1774472501134104300,2.653104248046875,0.010918284377455711,0.40462409915439784,1.4803200980708002
1774472501144132400,2.66313232421875,0.13555939404666423,0.3196571204867214,1.2767273245006798
1774472501154160400,2.673160400390625,0.17937340133190155,0.27464418574050065,1.1118296077668666
1774472501164188400,2.6831884765625,-0.12457564321756362,0.3761366211429238,1.2088666711956262
1774472501174216200,2.69321630859375,-0.3939776905208826,0.6351230728939176,1.4493097505182027
1774472501184244500,2.703244384765625,-0.16385609872639179,0.6787568282414227,1.4751649072647093
1774472501194272300,2.713272216796875,0.48031683432459826,0.24173414204642174,1.1336048017233609
1774472501204300300,2.72330029296875,1.067038864403963,-0.4887732586331665,0.4440957663863897
1774472501214328300,2.733328369140625,1.7861521798878908,-1.1362325929436832,-0.19137246668338775
1774472501224356400,2.7433564453125,2.5001743097126483,-1.4822124876886604,-0.3642091597229242
1774472501234384400,2.75338427734375,2.9921733985245225,-1.9117589197188614,-0.4500602277487516
1774472501244412400,2.763412353515625,3.538352405813336,-1.8971838663995264,-0.7622007620602845
1774472501254441200,2.773441162109375,3.754866328015923,-1.2904805400431156,-0.510106992432475
1774472501264469500,2.783469482421875,3.5379508392751213,-0.6847847832940518,-0.364330740275979
1774472501274497300,2.793497314453125,3.2061165934562683,0.05380743190273642,0.07581541170179844
1774472501284525300,2.803525390625,2.2131676321357485,0.3946685953944921,0.7737842323482036
1774472501294553300,2.81355322265625,0.3637783670902252,0.46674438217654823,1.276013038751483
1774472501304581400,2.823581298828125,-0.48511400547325606,0.08183116485998033,1.3971961169213056
1774472501314609400,2.833609375,-0.28476562065184113,-0.3503285914737731,1.178417172396183
1774472501324637400,2.843637451171875,-0.12066168464422225,-0.9097963385984301,0.6426905855387449
1774472501334665200,2.853665283203125,0.23732582408487796,-1.2130011406518517,0.5446726943790913
1774472501344693500,2.863693603515625,0.5429132834911347,-1.2509528317749499,0.685775694027543
1774472501354721300,2.87372119140625,0.8347709082305431,-1.4063406696245073,0.2592652686923742
1774472501364749300,2.883749267578125,1.6183955665916203,-1.687258090415597,-0.3028907676681876
1774472501374777300,2.89377734375,3.4544191541075704,-1.496163563890755,-0.9476061370328068
1774472501384805400,2.903805419921875,4.9328649827390905,-0.6904997268747538,-1.372997202949226
1774472501394833400,2.91383349609375,4.810120062080025,-0.200545953220129,-1.2726137517020106
1774472501404861400,2.923861328125,3.2831513178199527,0.43693719986863433,-0.3812105634063482
1774472501414889200,2.93388916015625,1.5775164437144993,0.6172226745441556,0.262428701159358
1774472501424917200,2.943917236328125,0.7894792296081781,0.701710345262289,0.4151470275387168
1774472501434945300,2.9539453125,0.6459276677638291,1.058165895183757,0.5748877999007701
1774472501444974300,2.963974365234375,1.3719418486773967,0.8598601221058517,0.46378567850142716
1774472501455002400,2.97400244140625,2.556049926191568,1.8432848106905817,0.5232477751649915
1774472501465030400,2.984030517578125,3.4191204617112874,2.648638193517923,1.2489907379217444
1774472501475058400,2.994058349609375,3.827622352147102,1.2223458921022712,0.7976262957066297
1774472501485086500,3.00408642578125,4.488157221934199,0.7981549957558512,-0.3615405250355601
1774472501495114200,3.0141142578125,4.687700720113516,0.29332649171557273,-1.2695470576077699
1774472501505142500,3.024142578125,4.865037647181749,-0.5198788467211648,-1.8281898251503705
1774472501515170300,3.03417041015625,2.829814260357618,-2.1490642855376003,-1.4851580396212636
1774472501525198300,3.0441982421875,1.7304127570092678,-3.0205756094053386,-0.8292918922975658
1774472501535226400,3.054226318359375,-0.46212359050810337,-4.38586852158755,-0.021386998356506228
1774472501545254100,3.064254150390625,-4.660028284811974,-4.228017508494854,0.2631671715017408
1774472501555282400,3.074282470703125,-4.730422840508818,-3.1044638529255986,1.1452473087221384
1774472501565310200,3.084310302734375,-3.4474440543979403,-1.1853059089966118,3.7537317710280416
1774472501575338200,3.094338134765625,-4.379305217549205,0.7331723821051418,5.862057218942046
1774472501585366300,3.1043662109375,-13.677730385601519,-0.32062618471458554,5.516249392828345
1774472501595394300,3.114394287109375,-10.31917282140255,0.06806538209691643,1.6362912887662648
1774472501605422300,3.12442236328125,-0.6301689576178788,0.67424146970883,-2.2166082741089164
1774472501615450400,3.134450439453125,1.7178367685526608,-1.3815920128151773,-2.717289997200668
1774472501625478100,3.14447802734375,-0.5169961674243212,-1.3084597027175127,-0.8096959420762956
1774472501635507500,3.154507568359375,1.767771889066696,-0.7123685173988342,1.2694504653654992
1774472501645535000,3.164534912109375,1.6588345444858072,1.1001990104015915,1.503112360115349
1774472501655562800,3.174562744140625,0.13963935683667658,1.32255997813195,-0.12228431740999221
1774472501665591000,3.184591064453125,-0.5016951379179955,0.57215815574117,-0.45504590720683336
1774472501675618800,3.194618896484375,-1.971574213734269,0.39133316736146806,0.451341645861417
1774472501685647000,3.204647216796875,-2.2363076847046615,0.2355762039385736,1.5481234682306646
1774472501695675000,3.2146748046875,0.8229442768365144,-1.3812012599319219,3.7584658138126135
1774472501705703000,3.224702880859375,0.9302221637725829,-0.8963731587279588,5.155166256171465
1774472501715731000,3.23473095703125,-0.34727906771004197,0.4019109677381813,2.9983541329860683
1774472501725759000,3.244759033203125,-0.2877127800196409,1.5444921259909867,-0.16309393698116764
1774472501735787000,3.254787109375,0.21676059044003484,1.9616551695272326,-1.7245782056368886
1774472501745815000,3.26481494140625,0.22453473157286644,1.5390955276444553,-1.9687680702723562
1774472501755842800,3.2748427734375,-0.7870218995839356,1.1766072003647685,-2.8525103685513136
1774472501765870800,3.284870849609375,-1.6383394534677267,-0.12305873584859073,-2.2134330050736666
1774472501775899000,3.29489892578125,-1.4159107542634009,-1.021831064672768,-0.3911402020726353
1774472501785927000,3.304927001953125,-0.41483986128568645,-1.3352312436565756,0.7769992488719523
1774472501795955000,3.314954833984375,0.18958616778850554,-1.4535874278374015,1.399769912932068
1774472501805984000,3.32498388671875,0.28266426445841786,-1.2205385504193604,1.1755441742431372
1774472501816012000,3.335011962890625,-0.07778992664515971,-1.0316616999439894,-0.5264584077745675
1774472501826040000,3.3450400390625,-0.7008873384416103,-1.262001172272861,-2.5804975542277098
1774472501836067800,3.35506787109375,-1.228915772011876,-1.659785415469855,-2.5228262865036726
1774472501846096100,3.36509619140625,-1.7504297091215848,-1.8315574018873273,-1.2070296650268137
1774472501856124000,3.3751240234375,-2.2195307374268767,-1.579669237834215,-0.37429128553718327
1774472501866152000,3.38515185546875,-1.4504291099369524,-1.664957995802164,0.44384953654035925
1774472501876180000,3.395179931640625,0.13268120826184748,-2.580835992401838,0.250877817966789
1774472501886207700,3.405207763671875,0.39701252817213534,-2.4147527191452682,-0.11743994611874221
1774472501896236000,3.415236083984375,-0.5128583369672298,-2.5694778553023934,-0.30569676499962806
1774472501906263800,3.425263916015625,-0.48408758503496646,-3.0271853829339146,-0.3893151055373251
1774472501916291800,3.435291748046875,-0.5780237598389387,-2.642454536446929,-0.7520174408938736
1774472501926319900,3.44531982421875,0.011691022315621375,-2.3225521359622476,-1.7121240899942813
1774472501936348000,3.455347900390625,1.6142103898614644,-0.6735246266763657,-0.07569171225689351
1774472501946376000,3.4653759765625,2.9106577293545004,0.018189955880865454,0.8437498951084912
1774472501956404000,3.475404052734375,3.388115082594752,0.5225993942588567,1.1322966417342424
1774472501966431700,3.485431640625,2.7851526963323354,1.0638262590330094,1.9740496639370917
1774472501976460000,3.4954599609375,2.350106497842073,1.1982685586832462,1.6706825109288095
1774472501986487800,3.50548779296875,0.619323738476634,1.2558964256569742,1.1277015690289438
1774472501996516900,3.515516845703125,-0.2827531117856502,1.2942007296100257,1.5670760059818625
1774472502006545000,3.525544921875,0.4759036940574646,1.65187347330153,2.1686047061793503
1774472502016573000,3.535572998046875,0.4448924697220325,1.8878670258693395,1.9747854308657347
1774472502026601000,3.54560107421875,-0.5514367816865444,1.7452862087532877,1.552098801602423
1774472502036629000,3.55562890625,-0.5327466942638158,1.155898685791716,1.5365993269145488
1774472502046656800,3.56565673828125,0.575850507453084,1.3326245682895184,2.281277584026754
1774472502056685000,3.57568505859375,0.9015320758610963,1.7177067124322056,2.395903057246655
1774472502066712800,3.585712890625,0.5810755486249923,1.6814320146106183,1.9018451362088322
1774472502076740900,3.595740966796875,0.03601239362359047,1.448403887719661,1.4242897294215857
1774472502086769000,3.605768798828125,-0.11723229471743106,1.1487882692646234,1.121580894191563
1774472502096797000,3.615796875,0.051557168757915495,0.5990208090297877,1.1717960006907582
1774472502106825000,3.625824951171875,-0.4088613713979721,0.26223610119670626,1.1656785407237709
1774472502116853000,3.63585302734375,-1.2600351328969002,0.39580096042528745,0.6309475407749414
1774472502126880800,3.645880859375,-0.7018138056367635,-0.36059838534723965,0.8559760472141206
1774472502136909000,3.655908935546875,-0.3701601770818233,-0.7597535150386393,0.3834409528069198
1774472502146936800,3.665936767578125,0.8356120352298021,0.5317100812250748,-4.4681189347729084
1774472502156965000,3.675965087890625,1.750660595268011,1.115283986004442,-5.988693301820755
1774472502166994000,3.685993896484375,-0.3055629094868898,-0.484362967910245,-4.966313078832626
1774472502177022000,3.69602197265625,-2.2040777322292326,-1.9546943906038998,-3.9948531880035993
1774472502187050000,3.706050048828125,-1.9652917724639176,-1.5064105248779058,-1.2128304602600632
1774472502197078000,3.716078125,-0.947919148504734,-0.7828632455345242,0.5856178682297468
1774472502207105800,3.726105712890625,-0.6391647495001554,-0.10380188138857484,1.0080239269860087
1774472502217134000,3.736134033203125,-1.336384797605872,0.20655724939890205,1.0080753649123013
1774472502227161900,3.746161865234375,-0.9170137226313352,-0.17646642784401773,1.526861484493315
1774472502237190000,3.75618994140625,-0.3315098361700773,-0.7990916920840739,2.2770696109429
1774472502247218000,3.766218017578125,-0.03902385039925575,-1.1582770322956144,2.4264186070196327
1774472502257246000,3.776245849609375,-0.06855506531000137,-1.439529968651384,2.166018489078432
1774472502267274000,3.78627392578125,-0.031710897037386894,-1.7939118541039525,1.7263905157558619
1774472502277302000,3.796302001953125,0.44614334656596183,-1.242692660690844,0.8417977381274103
1774472502287329800,3.806329833984375,0.5471528207570314,-0.6518986319322139,0.36049306180924173
1774472502297358000,3.816358154296875,0.1888134298503399,-0.034095655015762893,0.2623300630904734
1774472502307385900,3.8263857421875,-0.06366378613710404,1.066719350126013,0.4521254897154867
1774472502317414000,3.836413818359375,-0.3690536771446466,1.0150937923070043,1.257508244767785
1774472502327442000,3.84644189453125,0.08839081563651562,0.4924546505596488,1.8025366207167506
1774472502337469700,3.8564697265625,-0.013495441389083861,-0.6308276407223194,1.9554032695256172
1774472502347499000,3.8664990234375,-0.30915538102090356,-1.780995235516131,1.6274259913958609
1774472502357527000,3.876527099609375,0.19306582659780977,-1.706165619981289,0.37400267785415053
1774472502367554800,3.886554931640625,-1.3713210864305496,-2.6669351899698377,-0.3290259103998542
1774472502377583000,3.8965830078125,-0.526550762233138,-1.8146989138059317,0.07402443663179874
1774472502387611000,3.90661083984375,0.6668453681081533,-0.23581205852106213,-0.00658171647787094
1774472502397639000,3.916638916015625,0.9941799644201993,0.4665919680938124,-0.1571113737065345
1774472502407667000,3.9266669921875,1.2463660885065793,0.5000441558405757,-0.2524272393658757
1774472502417694700,3.93669482421875,1.4825544329941271,0.14137611750140786,-0.23513317287880925
1774472502427723000,3.946722900390625,1.392933783301711,-0.4541200245335698,-0.05680918013514019
1774472502437750800,3.956750732421875,1.4589198749065397,-0.6228615572139621,0.16331256643421946
1774472502447778800,3.96677880859375,1.4524492175877093,0.22004297311156987,0.03853424938456155
1774472502457806800,3.976806884765625,1.3485849384874105,3.4833956577450036,-6.032607262349129
1774472502467835000,3.9868349609375,-1.3343570911705493,4.346263948690891,-10.14057800322771
1774472502477863000,3.99686279296875,-3.401217140752077,-0.19166691958531737,-5.0205911969870325
1774472502487891000,4.006890869140625,-3.9500054537564515,-2.0501716573700306,-1.2335980846092105
1774472502497918700,4.016918701171875,-2.5266256787866355,-2.037716226553172,-0.871266263065487
1774472502507948000,4.026947998046875,-1.031204749956727,-1.2653934450596571,-0.021371727722138165
1774472502517975800,4.036975830078125,0.689431293925643,-0.8364212327208369,2.354580720646679
1774472502528003800,4.04700390625,3.324835911861062,-0.8400692338343709,5.674725552082061
1774472502538031900,4.057031982421875,4.8288387910753485,-0.15988562419284133,6.68910483944416
1774472502548060000,4.067059814453125,3.5921383565366267,2.972845305459201,3.320552243192494
1774472502558088000,4.077087890625,0.07354629772603512,2.9915169804424044,1.4774410355031489
1774472502568116000,4.087115966796875,-1.7146107922434806,1.3778985651247202,1.9197990183115003
1774472502578143700,4.097143798828125,-2.1163591167658566,0.2134333822460845,1.211261018986255
1774472502588172000,4.107172119140625,-1.8380647379547357,-0.8856862719535827,0.07226604865714907
1774472502598199800,4.11719970703125,-0.2967576717406511,-0.5860830745887011,-1.386516025213897
1774472502608228000,4.12722802734375,0.6504834313720465,0.09483122394755482,-3.106478407618403
1774472502618256000,4.137255859375,-1.5557798282027244,0.35298882365897294,-1.9396131413280964
1774472502628284000,4.147283935546875,-2.127954862013459,-0.06735146167390048,-0.7456260593563317
1774472502638312000,4.15731201171875,-1.6472691943764686,-0.04175175925949588,-0.3230921364367008
1774472502648339200,4.167339111328125,-0.7154898642897606,0.05988896203981712,-0.16238807200044392
1774472502658367200,4.1773671875,-0.36151918998658655,-0.7467820975236594,-1.4188570368483662
1774472502668395300,4.187395263671875,0.6351514222055673,-1.6334358993351459,-0.8476502635478973
1774472502678424000,4.197424072265625,-0.006709726771712303,-1.8283225116193293,1.2292317060932516
1774472502688452400,4.207452392578125,-0.33458851296305653,-1.9642592145457862,1.3497311859130858
1774472502698480000,4.217480224609375,0.33563013097047806,-1.6869933019995689,0.7725844281043857
1774472502708508200,4.227508056640625,0.27431027761101723,-1.3834243428088724,0.6158947869412601
1774472502718536200,4.2375361328125,0.0030219781696796417,-0.4768619446303695,0.41785080660469825
1774472502728564200,4.247564208984375,-0.043477322676777834,0.5740834247153253,2.2746720482818783
1774472502738592300,4.25759228515625,0.2678063025444746,0.7286036128848791,4.1280201339557765
1774472502748620300,4.267620361328125,0.7855009736269712,0.6227062205217778,1.3864721860721707
1774472502758648000,4.27764794921875,1.0300812988847494,0.36281945893019435,-1.371518800959736
1774472502768676400,4.28767626953125,0.42386897091567516,-0.6139235599335283,-1.2524499384649097
1774472502778704100,4.2977041015625,0.005693827727437019,-2.1685180508092046,-2.578706871418655
1774472502788732200,4.307732177734375,-0.5564063867926597,-2.9835458554327485,-3.3940286905527115
1774472502798760200,4.31776025390625,-1.8721084618538617,-3.286054345785081,-2.7798046133026477
1774472502808788000,4.3277880859375,1.3477929113268852,-3.8298923429057,-0.7649772410362958
1774472502818816300,4.337816162109375,5.030568401122093,-2.7176144068494437,0.7209376083016396
1774472502828844000,4.347843994140625,3.164974435728788,-0.8100592224307358,0.7516770299583673
1774472502838873000,4.357873046875,2.029850461614132,-0.1839457690150477,1.212576339368522
1774472502848901400,4.3679013671875,0.2783516619563103,0.5039513193469495,0.8271912667565047
1774472502858929200,4.37792919921875,-4.573803707298636,-0.03573447173135355,0.9816213654898106
1774472502868957200,4.387957275390625,-2.5107056405991313,-0.5272402423346415,0.20282500406801698
1774472502878985200,4.397985107421875,-0.2506277887284756,-0.10494772695545107,-2.627668762986362
1774472502889013000,4.408012939453125,-0.20758418129384518,0.8882366870887577,-4.577777287104726
1774472502899041300,4.418041259765625,-0.33818156901895996,1.9025611755236982,-2.5577599449798463
1774472502909069000,4.428069091796875,-0.4814484687030315,2.0913595539353786,0.7418111772432923
1774472502919097000,4.43809716796875,-0.7192460019528866,1.3239618077538906,2.3906337385416028
1774472502929125000,4.448125,-0.6911492037594318,0.27355827193362636,2.895233073468506
1774472502939153200,4.458153076171875,0.6635667848289013,-0.6210396755490452,3.3659640410631892
1774472502949181200,4.46818115234375,2.2630524837672708,-1.1815568586613983,2.9197374001279472
1774472502959209200,4.478209228515625,2.2638924417227506,-0.7488035934139042,2.073232214961946
1774472502969237000,4.488237060546875,2.052069892206788,0.21522899695858358,1.8191478560388088
1774472502979265300,4.498265380859375,1.46057933255136,0.7273653763268143,1.5714488142386078
1774472502989293000,4.50829296875,0.4885743750602007,1.0185246435385196,1.0274547497734428
1774472502999321300,4.5183212890625,-0.025614333727955817,1.090261188428849,0.5924719719082117
1774472503009350100,4.52835009765625,0.08620178115963935,1.131634889889881,0.2232087436661124
1774472503019378200,4.538378173828125,-0.05024316354990005,1.2807095260046422,-0.18374021823927758
1774472503029406000,4.548406005859375,-0.30964813297390936,1.1679960969511418,-0.5389907032199204
1774472503039434200,4.558434326171875,-0.589468698439002,0.8410255116458982,-0.9406479884579777
1774472503049462000,4.5684619140625,-1.0795242519676684,0.17420681234896182,-1.352641374271363
1774472503059490300,4.578490234375,-1.2978566217690706,-0.4767900849705562,-1.3501847748994826
1774472503069518000,4.58851806640625,-1.1470312695294618,-0.713169750779122,-1.1799084338672459
1774472503079546000,4.598546142578125,-0.8141881389290094,-0.6384672687552869,-0.8002318020299076
1774472503089574100,4.60857421875,-0.46362172011137004,-0.5002782933900133,-0.25097294890433547
1774472503099602200,4.618602294921875,-0.36343116108775136,-0.5721741935605182,0.32230858484357594
1774472503109630200,4.628630126953125,-0.026838322564959525,-0.5552916304837912,0.46339434109628197
1774472503119658200,4.638658203125,0.5840355674743652,-0.738132561795786,0.5987177344299852
1774472503129686000,4.64868603515625,0.7788724953979254,-0.8396386603973806,0.5697459069676697
1774472503139714300,4.65871435546875,0.6678145054012536,-0.9147440241336822,0.3628339258469641
1774472503149743000,4.6687431640625,0.29868133327960966,-0.9473393027901649,0.11903612926900387
1774472503159771100,4.678771240234375,0.18805179782807827,-0.7519882878646255,0.10389029032438993
1774472503169799200,4.688799072265625,-0.0544108046233654,-0.5821488404123112,0.2629898421734571
1774472503179827200,4.6988271484375,-0.4504612097650766,-0.5039311898743734,-0.15951047073751687
1774472503189855000,4.70885498046875,-0.5244447298645973,-0.864975273162499,-0.40813904847279187
1774472503199883300,4.71888330078125,-0.3578694353073835,-1.054258658612147,-0.2144960065089166
1774472503209911000,4.7289111328125,-0.1483534091681242,-0.8598081727229058,0.030236732831597328
1774472503219939300,4.738939208984375,-0.07696165912747382,-0.6262343946479261,0.3049482847198844
1774472503229967000,4.748967041015625,0.11420622489452362,-0.3335167920783162,0.5892164772436023
1774472503239995100,4.7589951171875,0.24966683474183082,-0.16815708385594189,1.0160483896180987
1774472503250023200,4.769023193359375,0.17705226490795611,0.2567801738783717,1.3223372752919793
1774472503260051200,4.77905126953125,-0.075098203343153,0.9770900787357241,0.6594409370705485
1774472503270079200,4.789079345703125,-0.24700667562186718,0.7706687306761741,0.35949732877016066
1774472503280107300,4.799107177734375,-0.46889469207823276,0.027353286349773406,0.42869215328842397
1774472503290135000,4.809135009765625,-0.8270242396265268,-0.3309598010718822,0.1287704645588994
1774472503300163300,4.819163330078125,0.08859247568845749,-0.11918240587189793,-0.14546324068456887
1774472503310192000,4.829192138671875,0.9641606737315654,0.1663378325395286,0.5488263069272041
1774472503320220200,4.83922021484375,1.182210719460249,0.8341720655545591,1.1779025008723139
1774472503330248200,4.849248291015625,0.06000351006388664,3.898632409393787,-1.3655807892128824
1774472503340276200,4.859276123046875,-1.089533020284772,0.5414819355137646,-0.6952583926439285
1774472503350304000,4.869303955078125,0.18036124332547188,-1.0203398032017053,0.546298395884782
1774472503360332300,4.879332275390625,1.2351911990195512,0.33089448075070976,1.052200776234269
1774472503370360000,4.889360107421875,2.642761994960904,0.6456425672121345,1.294364688000083
1774472503380388400,4.899388427734375,1.7724504022717475,0.08247647702619433,0.8912871607005596
1774472503390416100,4.909416015625,0.7939145817071199,-1.1127844973389058,0.5867420499540865
1774472503400444200,4.919444091796875,0.05889467203915119,-1.4860409599356352,0.15908011649623513
1774472503410472200,4.92947216796875,-0.06702303343713283,-1.3751666559427975,-0.08094502967521548
1774472503420500200,4.939500244140625,-0.03474631921052933,-1.3669656677000224,-0.4241792059086263
1774472503430528300,4.9495283203125,-0.1393640470266342,-1.2036658876821398,-0.8773577118083834
1774472503440556300,4.959556396484375,-0.1320791507154703,-1.1282764463074504,-1.1012740192219614
1774472503450585000,4.969585205078125,-0.27242460999488827,-1.2079857967078684,-1.0839631111979484
1774472503460613400,4.97961328125,-0.4262140727370977,-1.5568518413484096,-0.9029691229268908
1774472503470641200,4.98964111328125,-0.34842239252626894,-1.7815958317577838,-0.5073674844659865
1774472503480669200,4.999669189453125,-0.38095980351567266,-1.622226815317571,-0.1135182426303625
1774472503490697200,5.009697265625,0.3556780627429485,-1.423818166387081,0.1760105007700622
1774472503500725200,5.019725341796875,0.33461481644809243,-0.6870803468853235,-0.018916151263564825
1774472503510753300,5.029753173828125,0.09260112680792808,0.17139372768960892,-0.22206658789366482
1774472503520781300,5.03978125,-0.1819371143400669,0.429708636854589,-0.2354961244396865
1774472503530809000,5.04980908203125,-0.3056815674304962,0.2583746765282005,-0.4004417719684541
1774472503540837400,5.05983740234375,-0.32563013048171996,0.11403298721946775,-0.5474281305670738
1774472503550865200,5.069865234375,-0.3959206412822008,0.13644238742627202,-0.4875441552296281
1774472503560893200,5.07989306640625,-0.4303875590294599,0.1014941889680922,-0.1941601977057755
1774472503570921200,5.089921142578125,-0.40820378427207465,0.027628669225051996,0.14812223076075315
1774472503580949000,5.099948974609375,-0.3128641724109649,0.09027326838225126,0.481438239569962
1774472503590977300,5.109977294921875,-0.15391104329526423,1.0227655690439046,0.5368547141045331
1774472503601006300,5.12000634765625,0.8187421489715576,1.291695030399412,0.3581115735001862
1774472503611034000,5.1300341796875,0.9246165988504886,1.0594568117771297,0.8048438258700072
1774472503621062400,5.1400625,0.5498392833620309,0.6560479336313902,1.3002955393537878
1774472503631090200,5.150090087890625,0.27771453309655186,0.42890221584253013,1.5764330323919653
1774472503641118200,5.1601181640625,0.21617665307223796,0.11986118191629648,1.5840695186197757
1774472503651151600,5.170151611328125,0.21349135951101778,-0.11883096208572387,1.0453037832621483
1774472503661179600,5.1801796875,-0.28789982702434064,-0.7094681928474456,0.7177900309909134
1774472503671207700,5.190207763671875,-1.3585995520234107,-0.4867897566657513,-0.30890549791306254
1774472503681235500,5.2002353515625,-0.27921967696249483,-0.4205105273332447,-1.0408806330576539
1774472503691263700,5.210263671875,-0.12350596815943717,0.03181596484705806,-0.26304186462163925
1774472503701291500,5.22029150390625,-0.28182606006860733,0.3248473095409572,-0.09685264677256346
1774472503711319800,5.23031982421875,0.1523135449707508,0.21775690800100564,0.07187105799019336
1774472503721347600,5.24034765625,0.6005576632082462,0.0700857089433819,0.345052696897462
1774472503731375600,5.250375732421875,0.9246978473931551,-0.1276829615831375,0.6304506971687078
1774472503741404400,5.260404296875,1.0099497804820536,-0.19921046683266758,-0.6791195240739732
1774472503751432700,5.2704326171875,1.3905495185136794,-0.22168672173060475,-0.5593040809955447
1774472503761460500,5.28046044921875,1.7178946362197398,-0.48455812515616414,0.5866549561925232
1774472503771488800,5.29048876953125,0.7530553325742483,-0.357013914456591,0.9114989777978509
1774472503781516500,5.3005166015625,-1.142099658346176,0.42115803145654496,0.8724927361205219
1774472503791544600,5.310544677734375,-2.1459680730879307,0.2762714946813881,0.7627280008047819
1774472503801572600,5.320572509765625,-1.5416653781324625,-0.162538513321802,0.36027927292808887
1774472503811600600,5.3306005859375,-0.2570136903733015,-0.15384762267023325,-0.3517139083523303
1774472503821628700,5.340628662109375,0.08710486747920512,0.004581628701835871,0.17801760280877352
1774472503831656700,5.35065673828125,0.016298223850131036,-0.28058453557491303,0.8521101655662059
1774472503841684500,5.3606845703125,0.8292255490630864,-1.3577594479374586,1.2187247789956628
1774472503851712800,5.370712646484375,1.8632798432320354,-1.8072395377106965,1.036919766602665
1774472503861740500,5.380740478515625,2.058608938586712,-1.9424530409291385,0.5622530304616317
1774472503871768600,5.3907685546875,1.6113789658278226,-2.0347369184814394,0.14169004228878765
1774472503881797600,5.400797607421875,1.3751216477572916,-1.6266167208395896,-0.3810733834253624
1774472503891825700,5.41082568359375,0.4112222553104162,-0.9950346815533936,-1.4947402530893683
1774472503901853400,5.420853515625,-0.6908639570772648,0.4207368834350258,-1.484960325092077
1774472503911881700,5.4308818359375,-1.2158949623972177,2.1724128662906588,1.2209555337224154
1774472503921909500,5.440909423828125,-0.8148848890215158,2.64968857935369,1.2441812918134032
1774472503931937800,5.450937744140625,-0.8649415900886058,2.598146900425851,-0.22135091390497982
1774472503941965600,5.460965576171875,-3.4482781671345233,1.6386020499266682,-2.161740665628761
1774472503951993600,5.47099365234375,-1.3327414726674556,0.8192427189048379,-0.5496951987162232
1774472503962021600,5.481021728515625,-0.7857786215245723,-0.13939999512284992,0.41189284804835913
1774472503972049400,5.49104931640625,-0.031547230908274645,-0.9102500006500631,0.43148003044128413
1774472503982077700,5.50107763671875,0.4828875615954399,-1.313359311327338,0.7955358262334018
1774472503992105500,5.51110546875,0.7146978371292352,-1.6167226649433373,0.9154330293111502
1774472504002133500,5.521133544921875,0.6259212370455265,-1.6759586977660654,0.66512387807779
1774472504012161500,5.53116162109375,0.4335398855805397,-1.4257994033321737,0.7400302121106535
1774472504022190600,5.541190673828125,0.8306137885510921,-0.9653580668225884,0.34018845186196267
1774472504032218600,5.551218505859375,1.1985691490650177,-0.6348056775078177,-0.11882833173722028
1774472504042246700,5.56124658203125,0.9180401430696249,-0.6975795290678739,0.06924545872695743
1774472504052274700,5.571274658203125,0.35597090820968147,-0.54997061812412,0.5016880505900829
1774472504062302500,5.581302490234375,-0.05227963781356811,-0.2038519359629601,0.3598858166310936
1774472504072330500,5.59133056640625,-0.4003554088592529,-0.06298340265750885,-0.20999255760982632
1774472504082358500,5.601358642578125,-0.5299532641530037,0.06681191143710166,-0.922764687373489
1774472504092386600,5.611386474609375,-0.3678600834459066,-0.12404391096103935,-1.4071215908691286
1774472504102414600,5.62141455078125,-0.172050511097908,-0.2593879452239722,-1.7517708945974706
1774472504112442400,5.6314423828125,-0.3273930485010147,-0.25180640405379234,-1.991542942790687
1774472504122470700,5.641470703125,-0.5646259336054325,-0.36260939637608824,-1.6806803194604814
1774472504132498400,5.65149853515625,-1.0855307989060878,-0.5412723113510758,-1.235481560268253
1774472504142526700,5.661526611328125,-0.893158799791336,-0.509546582070738,-1.1472761842012404
1774472504152555800,5.6715556640625,-0.3136445091336965,-0.28941375698493793,-1.1877369355358183
1774472504162583600,5.68158349609375,0.18044599899947641,0.05690716975005343,-1.4231782610483468
1774472504172611600,5.691611572265625,0.48967386073470115,0.518702277222462,-1.7120524860627948
1774472504182639600,5.7016396484375,0.4203951573252678,0.30644272452872245,-1.6564456035226582
1774472504192667400,5.71166748046875,0.5719938320249319,0.5643404677275567,-1.0424681945100427
1774472504202695700,5.72169580078125,0.6438274806141853,0.7286223906505852,0.17470073334574698
1774472504212723500,5.731723388671875,0.7587322091668843,0.5288420515080914,2.0410196520127353
1774472504222751700,5.741751708984375,0.019596096351742743,0.5201229576753452,4.099995816476643
1774472504232779500,5.751779541015625,0.10450725317895412,1.5843798997431993,6.0394648731589315
1774472504242807600,5.7618076171875,-0.9320476256340742,1.8461556899517773,6.659162705644965
1774472504252835600,5.771835693359375,-0.7506324893414974,1.0243795801118016,2.8377263486564157
1774472504262863600,5.781863525390625,-1.0568535704761743,0.9534855504602193,0.35220695256628093
1774472504272891600,5.7918916015625,-1.980515060558915,0.1738373214494437,0.1976700324576348
1774472504282919700,5.801919677734375,-2.2140181114852426,-1.6491034240663052,-0.39978944553956386
1774472504292948500,5.811948486328125,-1.1248679530382155,-2.152725730654597,-1.5928405618354677
1774472504302976500,5.8219765625,-0.7580588399499655,-1.387586138663441,-2.2043787610024212
1774472504313004500,5.832004638671875,-0.7635223660528659,-1.5409101758509873,-2.7398569260567425
1774472504323032600,5.842032470703125,-0.049099254211783405,-2.068081261939555,-1.596085242845118
1774472504333060600,5.852060546875,0.07179799275398253,-1.6184493426054716,-0.2310951130017638
1774472504343088600,5.862088623046875,0.3412812885999679,-0.4616527581259608,0.3818875858850777
1774472504353116400,5.872116455078125,0.587348053023219,0.12990502154678105,0.5434916679009795
1774472504363144700,5.882144775390625,0.31702187661230563,0.6403557128503918,1.124258881229162
1774472504373172500,5.89217236328125,-0.727173287820816,0.8078300020739436,1.7341488747976719
1774472504383200800,5.90220068359375,-1.1969319032520056,1.0472412541307508,0.4826034839570522
1774472504393228500,5.912228515625,0.9247714971512555,1.0596427628032863,-0.6144555479183793
1774472504403256600,5.922256591796875,1.2320710211724042,0.9856190568238496,-0.58826261058487
1774472504413284600,5.93228466796875,0.6502537142693996,1.1391862551175058,-0.28148659898117184
1774472504423312600,5.942312744140625,0.4105068005174398,0.822609345793724,0.36723128402307625
1774472504433341400,5.952341552734375,1.0289362205028534,0.2355161443144083,0.8025139216177165
1774472504443369700,5.96236962890625,1.6392548147469759,-0.7432803730130195,1.2473545150220393
1774472504453397500,5.9723974609375,1.7890788809895515,-1.160531387093663,1.4693240722820162
1774472504463425500,5.982425537109375,0.9806003518790006,-1.1101128669768572,1.2049907065451144
1774472504473453600,5.99245361328125,1.339630063137412,-0.805665809777379,0.9861460033074021
1774472504483481600,6.002481689453125,0.9485516011893749,-1.1607546744555235,0.7195096213251352
1774472504493509600,6.012509521484375,0.5989321078330277,-1.20982937874794,0.621638152898848
1774472504503537700,6.02253759765625,-0.48725043298006054,-0.24846944165080784,0.0826454221186228
1774472504513565400,6.0325654296875,2.040290607085824,0.22069091562628745,0.6031999213453382
1774472504523593700,6.04259375,2.0571189922899005,0.8490417179062962,-0.23347842794172463
1774472504533621500,6.05262158203125,0.7049567798376083,0.9896128026351332,-1.7004142168477177
1774472504543649800,6.06264990234375,0.7050754377812146,0.8815347052320838,-1.6323346600949764
1774472504553677600,6.072677490234375,0.40376083338856694,1.007149920630455,-0.22010566308423876
1774472504563705600,6.08270556640625,0.2429009938687086,1.1905103457719086,0.24025698216594754
1774472504573734400,6.092734375,-0.03290390621423721,0.8096379282787441,0.39104806680977344
1774472504583762700,6.1027626953125,-0.21974925086200237,-0.07692220389991998,1.3263164080560206
1774472504593790500,6.11279052734375,-0.43779345137178893,-0.881359787056595,1.5450624732248484
1774472504603818800,6.12281884765625,-0.5907207443267106,-1.3325474114000797,1.035742101125419
1774472504613846500,6.132846435546875,-0.7854723320543766,-1.2858705620296298,0.7109728983219713
1774472504623874600,6.14287451171875,-0.8636258313149213,-0.5265082382656634,-0.1243986061502248
1774472504633902600,6.152902587890625,-0.6169803902208805,-1.120613218203187,0.1196534574497491
1774472504643925500,6.162925537109375,-0.43593291819691654,-1.8595567310556769,1.4552745041415094
1774472504653953500,6.17295361328125,0.5236135397374629,-1.7018932033590972,0.9455690051820128
1774472504663981300,6.182981201171875,0.7489490662992,-1.662830774515122,-0.008022124544531106
1774472504674009600,6.193009521484375,-0.11437924337387084,-2.03671742477417,0.00803922180980444
1774472504684037400,6.203037353515625,0.607788783505559,-2.4034619481936095,0.08080415989980101
1774472504694065700,6.213065673828125,3.2311294541597366,-1.3452373816251755,-0.16976751472726465
1774472504704093400,6.223093505859375,1.3630167839437721,-2.0519168936021623,1.3877216016113758
1774472504714122500,6.23312255859375,-3.100001905080676,-0.6971636417433619,3.404689785298705
1774472504724150500,6.243150634765625,0.2209071887254715,1.6848149350471793,1.068677425391227
1774472504734178600,6.253178466796875,0.27991233540177346,2.893117981010675,-1.7891333876557647
1774472504744206300,6.263206298828125,1.3061217612892388,2.8559856434464455,-2.85368262720108
1774472504754234600,6.273234619140625,0.8670446998476982,1.6789739539340138,-2.4014279581479725
1774472504764262400,6.283262451171875,-0.3681394849091768,-0.9762019707895815,-1.4608474819682538
1774472504774290700,6.293290771484375,-1.6502940951555967,-2.2621523200571536,-1.0567471874922514
1774472504784318500,6.303318359375,-3.006100801590085,-1.088107663656771,-4.196433744968473
1774472504794346500,6.313346435546875,-3.5481542533814907,-0.665299892231822,-6.873127527886629
1774472504804374500,6.32337451171875,-3.258936329495907,-3.1496026790738103,-6.5222600802958
1774472504814402600,6.333402587890625,-2.574389300480485,-5.052904151570797,-8.03897806417644
1774472504824430600,6.3434306640625,-2.794351317310333,-4.367662126028537,-5.994243337163328
1774472504834458400,6.353458251953125,-3.583593815553188,-3.2498002523601053,-0.8270543425038457
1774472504844486400,6.363486328125,-1.7727473393917084,-2.1564827451005577,1.4898331918254495
1774472504854515500,6.373515380859375,0.14800269603431224,-1.0141010549426077,3.4203754302084444
1774472504864543500,6.38354345703125,-0.028962475112080572,1.3686704257912934,4.122915504293143
1774472504874571500,6.393571533203125,0.9946107570528984,2.3520405346445736,4.323228817801177
1774472504884599600,6.403599609375,2.480045713919401,0.9151196525130421,4.14228977458775
1774472504894627600,6.413627685546875,3.413605497682094,-0.6305516733251512,3.2648014221370216
1774472504904655400,6.4236552734375,2.8170418725460764,-1.0178016630262137,3.6557968819767233
1774472504914683600,6.43368359375,3.271207782047987,0.6517599541138858,5.028249602785706
1774472504924711400,6.44371142578125,3.6214801863551136,3.014366817893088,5.919348547437787
1774472504934739500,6.453739501953125,1.0110773232072592,3.2341751054659484,4.599848833659291
1774472504944767500,6.463767578125,-0.3114239104747772,0.8578260589949787,2.5541847168415783
1774472504954795300,6.473795166015625,0.7845031947612762,-1.5953884927526116,0.2661801626473665
1774472504964823600,6.483823486328125,1.3805875119477509,-2.9046155265808102,-1.9860498983323573
1774472504974851300,6.493851318359375,1.4629261879384516,-3.52851724049747,-2.95947495175451
1774472504984880400,6.50388037109375,1.0474427680522203,-3.6382787609428164,-1.8605425272226332
1774472504994908700,6.51390869140625,-0.27633564595878124,-3.210931884783506,-0.03761778299361467
1774472505004936400,6.5239365234375,-2.130949952176213,-2.5042431665867566,0.9572525017783046
1774472505014964500,6.533964599609375,-2.837916318270564,-2.318443239338696,1.3106883385524153
1774472505024992500,6.543992431640625,-2.816951856175065,-2.9740421140283346,0.7411831084728241
1774472505035020300,6.554020263671875,-2.877193266648054,-3.0084216457530855,0.3839206991478801
1774472505045048600,6.564048583984375,-2.6215672312408684,-2.5266113580003378,0.72079703078717
1774472505055076400,6.574076416015625,-2.2892238668560982,-2.000295281305909,1.346634973463416
1774472505065104400,6.5841044921875,-1.6485282545268534,-1.4761637090437114,1.6986434077829122
1774472505075132400,6.59413232421875,-0.9629635729014873,-0.9686157534442842,1.9747008213222026
1774472505085160400,6.604160400390625,0.6468021125108003,-1.4385859657995401,3.161487178134918
1774472505095188500,6.6141884765625,0.7366641697436571,-0.9594646248698234,2.100136296239495
1774472505105216500,6.624216552734375,0.14978373423218727,-1.0297168494865299,0.6726695442169904
1774472505115244300,6.634244384765625,0.8087322116106748,-1.2235586288928986,0.07648293569982051
1774472505125273300,6.6442734375,1.482934956744313,-1.3815002428784966,-0.16940496502518654
1774472505135301400,6.65430126953125,1.5822417186707258,-1.5871736221149564,-0.5364198298186064
1774472505145329400,6.664329345703125,0.8917670531719922,-1.8543404577121136,-1.4755805023282766
1774472505155357400,6.674357421875,-0.7367740598589182,-2.251138466350734,-2.4293688351273537
1774472505165385500,6.684385498046875,-2.343409630551934,-2.2065043748542665,-2.9542034410923717
1774472505175413200,6.694413330078125,-2.6664263636648653,-1.5083084674537182,-1.3751187251478434
1774472505185441500,6.704441650390625,-3.2152000636219977,0.15914923620969057,-0.17793255487382412
1774472505195469300,6.71446923828125,-3.211546217289567,0.3761715463258326,0.8742939403235912
1774472505205497600,6.72449755859375,-2.379845218023658,0.4049119031198323,1.5825141058713197
1774472505215525400,6.734525390625,-1.644696713539958,0.1473239199899137,1.0036579868614672
1774472505225553400,6.744553466796875,-0.9520984800159931,-0.1577189111456275,0.3325122912108898
1774472505235581400,6.75458154296875,0.1456692846506834,-0.3022189328212291,0.24377719218134877
1774472505245609500,6.764609375,1.4176537985384463,-0.4585167251225561,0.14315642504692078
1774472505255638300,6.77463818359375,3.25904212795794,-0.7610907549917697,0.7072416759043931
1774472505265666600,6.78466650390625,4.84940636280775,-0.9357951415993273,0.5242939232170581
1774472505275694300,6.7946943359375,5.558233262076974,-0.6721149790741503,0.34258009623885155
1774472505285722400,6.804722412109375,5.173317998933792,-0.1354125694544986,0.44491760416328907
1774472505295750400,6.81475048828125,4.541698257985711,0.5364831773784011,0.8329571368068456
1774472505305778400,6.8247783203125,3.9627351714700456,1.3374597333610057,1.3172095570147038
1774472505315806500,6.834806396484375,3.2817227463215586,2.0350974223569036,1.7711913421213625
1774472505325834500,6.84483447265625,2.8555577734231945,2.5447660233721137,2.1282997299283744
1774472505335862300,6.8548623046875,2.563897132560611,3.0067376381888984,2.2137632599413393
1774472505345890600,6.864890625,2.203689025172591,3.3860593191087243,2.0005600697219372
1774472505355918300,6.87491845703125,1.7537275816231965,3.5036139776483175,1.5414841763466596
1774472505365946600,6.884946533203125,0.4666086269676685,3.632393502296507,0.6270107858479023
1774472505375974400,6.894974365234375,-0.7945587248295545,3.675993866831064,-0.0006505728632211685
1774472505386002400,6.90500244140625,-1.6137176379084586,3.596396890763938,-0.21560557518601417
1774472505396031500,6.915031494140625,-2.2563480176925657,3.4298023069843646,0.05917991872131824
1774472505406059500,6.9250595703125,-2.863494411641359,3.3977170236766336,0.21527356675267217
1774472505416087300,6.93508740234375,-3.152520612347126,3.471343693162501,0.26673662748634813
1774472505426115600,6.945115478515625,-3.1624469630777834,3.481673656257987,0.2684486921012401
1774472505436143400,6.955143310546875,-3.282248231500387,3.1669395983219144,0.22010522469282148
1774472505446171600,6.965171630859375,-3.3672213476479054,2.619541278371215,0.27966449812054633
1774472505456199400,6.975199462890625,-3.1857506817758083,1.8079595225483178,0.2894026328027248
1774472505466227500,6.9852275390625,-3.0213696823924776,0.8535033734902739,0.17447101624310016
1774472505476255500,6.99525537109375,-3.00694894285202,0.40579423891231414,-0.30238194136321545
1774472505486283500,7.005283447265625,-2.915748915013671,-0.00434898898974061,-0.6152303316831589
1774472505496311600,7.0153115234375,-2.6540736625701187,-0.19117314471900462,-0.641481794270873
1774472505506339600,7.025339599609375,-2.6780373064815994,-0.21989275098592043,-0.3633487435013056
1774472505516367400,7.035367431640625,3.094042704415321,-4.133406795430183,4.988215698561072
1774472505526396400,7.045396484375,5.2516363333672285,-6.742393362039327,9.8711017216444
1774472505536424400,7.055424560546875,1.1910633034795521,-3.0989214163675904,-5.2534050966054195
1774472505546452500,7.065452392578125,2.4284417834103107,-3.0826766762703657,-3.983430753496289
1774472505556480500,7.07548046875,1.6811317164897919,-2.151514309038222,0.6215992821931838
1774472505566508500,7.085508544921875,-1.4014812468945979,-0.932506767578423,-0.30740356891751286
1774472505576536300,7.095536376953125,-6.4343947498381135,0.21941461208015678,0.16614917809963226
1774472505586564600,7.105564697265625,-2.3706495196551085,0.7013567095190286,-0.337056948903203
1774472505596592400,7.11559228515625,-0.5034691618531942,0.3897276318609714,-2.262882972419262
1774472505606620700,7.12562060546875,-1.0655442419320345,-0.429723542162776,-1.4529425540626049
1774472505616648400,7.1356484375,-0.45453766542375085,-1.4659072495758532,-0.8377700900465249
1774472505626676500,7.145676513671875,0.011941489945352077,-1.6866747375696896,0.2237432889342308
1774472505636704500,7.15570458984375,0.03076630966365337,-1.8144471310019492,0.47946752401888365
1774472505646732300,7.165732177734375,-0.15719313370585442,-1.0553279683440924,0.0322118322968483
1774472505656760300,7.17576025390625,-0.20369477263987062,-0.2881301286488771,0.2190069080621004
1774472505666789400,7.185789306640625,0.06603957535773515,-0.5664461347699165,-0.049128480306267736
1774472505676817200,7.195817138671875,0.12490180643200874,-0.7126613628655671,-0.039810616862773894
1774472505686845200,7.20584521484375,0.3552224279299378,-0.728208476087451,-0.41631694810092446
1774472505696873200,7.215873291015625,0.37984775062054393,-0.9161614897161722,-0.698032533532381
1774472505706901200,7.2259013671875,0.25307342831492424,-0.777806327471137,-0.9548153377592563
1774472505716929300,7.23592919921875,0.3608884908676147,-0.45534839728474613,-1.2341793916285038
1774472505726957300,7.245957275390625,0.39920390073657036,-0.12496376575231552,-1.3423346459209917
1774472505736985000,7.255985107421875,0.5088616685464978,0.32908991554677486,-1.5004162528991698
1774472505747013400,7.266013427734375,0.6386696594595909,0.7525196182623505,-1.5063304453790187
1774472505757041200,7.276041259765625,0.3891527545824647,0.8789289066478609,-1.023043655332923
1774472505767069200,7.286069091796875,-0.14858575661927462,0.9415092814624308,-0.16310498809814453
1774472505777097200,7.29609716796875,-0.3211228821903467,1.39533236887604,0.7432756968379021
1774472505787125000,7.306125,-0.09203501735776662,1.5277560952454805,1.3102736202716827
1774472505797153300,7.3161533203125,-0.4996218387752771,1.2686676444247365,1.958222564730048
1774472505807181000,7.32618115234375,-1.3325667006224393,1.6164035159915684,2.6085025824844834
1774472505817210000,7.336210205078125,-1.4792926547192036,1.8592834670722485,2.7659534903436898
1774472505827238400,7.34623828125,-1.1578656750157474,1.4934721328496932,3.274734202608466
1774472505837266200,7.35626611328125,-0.7547190280027687,1.6915408823013305,3.257156460341811
1774472505847294200,7.366294189453125,-0.16190262657105922,1.206414601868391,2.534527830213308
1774472505857322200,7.376322265625,-0.2916162171989679,1.0440402661323547,2.3900334345608947
1774472505867350000,7.38635009765625,-0.6144745448797941,1.1727461410224438,2.060633722412586
1774472505877378300,7.39637841796875,-0.6657879680097103,0.47945700262486934,1.4406851300358772
1774472505887406000,7.406406005859375,-0.5186924499481916,-0.10965922911465167,0.4584492859095335
1774472505897434000,7.41643408203125,0.07729542112648487,-0.15575930151045322,-0.637833793157339
1774472505907462100,7.426462158203125,1.566734791328758,-0.67893678791821,-2.5779806029707193
1774472505917490200,7.436490234375,2.5225217505991457,-2.5377199042528864,-2.875481202033162
1774472505927518200,7.446518310546875,2.5185382339209315,-2.8364725492030383,-2.0824311282008887
1774472505937546200,7.456546142578125,2.712080445858836,-2.577283852878213,-1.7881541673600672
1774472505947574000,7.466573974609375,2.755497562780976,-3.0299159769415853,-1.4588649298489094
1774472505957603300,7.476603271484375,2.7477593697443603,-3.5265205137223004,-0.8164233506351709
1774472505967631000,7.486631103515625,2.158693699148297,-2.1975427775025365,-0.5802449430197477
1774472505977659100,7.4966591796875,0.9934434668391943,-0.5500426969796419,-0.05407996523380279
1774472505987687200,7.506687255859375,0.7755567949786781,-0.5101952552378177,0.46898178583979605
1774472505997715200,7.516715087890625,0.6004635551840066,-0.16680325809419155,0.672933163589239
1774472506007743200,7.5267431640625,0.368536375272274,0.4715244560599327,0.6608616175234318
1774472506017771300,7.536771240234375,0.27031740858256814,0.728143009635806,1.2997943118333817
1774472506027799000,7.546799072265625,0.4056166903883219,0.8028811474949121,1.5675865858525038
1774472506037827300,7.556827392578125,0.5165750194028019,0.8409171559005976,1.33842127186954
1774472506047855000,7.566855224609375,0.3535083174884319,0.9947200626462698,1.275427347818017
1774472506057883100,7.576883056640625,0.3399146764218807,1.0018348630875349,1.3725813156247137
1774472506067911200,7.5869111328125,0.6307835823848843,1.2682388976186514,1.1274807658851147
1774472506077939200,7.596939208984375,1.0888318862780928,2.2398867122352124,1.225933541330695
1774472506087967200,7.60696728515625,1.4465104751884936,3.203393890494108,1.4359890811741352
1774472506097996300,7.616996337890625,1.6628490408241747,4.778380523470044,1.5669249070733784
1774472506108024000,7.627024169921875,1.379020993283391,3.7094752806723115,1.9858371323645114
1774472506118052400,7.63705224609375,1.9283795073911547,3.4242212919816373,1.58588913526237
1774472506128080100,7.647080078125,2.3483272132098674,3.8867961333885788,0.8988269085556269
1774472506138108200,7.657108154296875,1.6982672679468989,3.3271886124670504,0.4655249233841896
1774472506148136200,7.66713623046875,0.6896823460772633,2.154048503690958,0.38111703990399837
1774472506158164200,7.677164306640625,-0.01757511191815138,1.8430477870643138,0.2405488777846098
1774472506168192300,7.687192138671875,-1.9088249120935796,1.8782354203015565,-0.7760825724184512
1774472506178220300,7.69722021484375,-2.1932529713541267,0.40829964586198325,-0.19926175862848758
1774472506188248000,7.707248046875,-1.3860773415356873,0.5156614116892219,-0.486969862473011
1774472506198276400,7.7172763671875,-1.4956132365316153,0.7935822810128331,-0.5077811798334121
1774472506208304000,7.72730419921875,-1.2705728935241698,-0.4004281818345189,-0.8438543783962726
1774472506218332400,7.73733251953125,-0.9597495792910457,-1.1341630201280117,-1.2106494629591702
1774472506228360200,7.747360107421875,-0.7180100304171443,-1.5412965448200702,-1.1168857221126556
1774472506238389200,7.75738916015625,-0.5516042472079395,-2.0305749764963985,-0.797909204301238
1774472506248417000,7.7674169921875,-0.6297112769782542,-2.7572575581908225,-0.2717354586869478
1774472506258445300,7.7774453125,-0.6754661891981959,-3.30080884732455,0.22234277448654174
1774472506268473000,7.78747314453125,-0.446316365045309,-3.5610686800122258,0.9164508280515671
1774472506278501400,7.79750146484375,-0.32878421059846874,-3.5254961391106248,1.6710510519802568
1774472506288529200,7.807529052734375,-0.5859048684775829,-3.3994086300253867,2.236733216640353
1774472506298557200,7.81755712890625,-1.0050959107100963,-2.716653452862799,2.1141355954974888
1774472506308585200,7.827585205078125,-1.49359020627141,-2.187742975760996,2.274997773104906
1774472506318613200,7.83761328125,-1.104519869275391,-1.1945929389104246,1.9782196430981158
1774472506328641300,7.847641357421875,-0.7882914811283349,-1.0640285766720772,3.3293308851927517
1774472506338669300,7.85766943359375,-0.7769909194350242,0.6166854989275335,3.1970985897421835
1774472506348697000,7.867697021484375,-0.31010230648219583,0.48515229165703055,3.137236533975601
1774472506358725400,7.877725341796875,-0.3036328182071447,0.2750029360502958,3.068578008291125
1774472506368754200,7.887754150390625,0.11391396394968033,0.4861930328816175,2.7514462415635585
1774472506378782200,7.8977822265625,0.9033025926649569,0.8196110407605767,1.5335376012563704
1774472506388810200,7.907810302734375,2.475619714170694,1.3402838508710264,-1.594181162789464
1774472506398838300,7.91783837890625,4.289837712591886,1.2223314251855015,-4.070232838636636
1774472506408866000,7.927865966796875,3.466940197506547,1.3514859206259249,-3.9988200458079572
1774472506418894300,7.937894287109375,0.6619599341541529,1.7497820588678121,-1.4781395391613243
1774472506428922000,7.947922119140625,-1.146372513359785,2.0362132746443153,-0.19038696277737616
1774472506438950400,7.957950439453125,-1.7352882540911434,1.2379635863423346,-0.23686872796714303
1774472506448978200,7.967978271484375,-1.7986983577281235,-1.8922189374685285,-0.023941432079672812
1774472506459006200,7.978006103515625,-1.171647239869833,-1.3189523090288042,-1.0736772795051335
1774472506469034200,7.9880341796875,-0.2454541854828596,0.72162675960958,-0.9057283585071563
1774472506479062300,7.998062255859375,-0.31232933488190173,0.4101879438266158,-0.18539514583945274
1774472506489090300,8.00809033203125,-1.1636638399004935,-0.5942080019205809,-0.3606815701186657
1774472506499118300,8.018118408203126,-2.151163303643465,-0.7603957584649323,-0.6682692634314298
1774472506509146000,8.02814599609375,-1.644478686875105,-0.43185880062580106,-1.023110875350237
1774472506519175200,8.038175048828125,0.8551327282577753,0.6493317771188915,-1.114579783257842
1774472506529203200,8.048203125,2.6516701085597276,0.7273537589542567,-2.0628806245565414
1774472506539231200,8.058231201171875,2.6110616193175313,0.7096338317379355,-2.7705525085717437
1774472506549259300,8.06825927734375,1.5593383974671362,0.9919375923208892,-2.599409759968519
1774472506559287300,8.078287353515625,1.7905986379027365,-0.006840221283584832,-0.30404432161748407
1774472506569315000,8.088315185546875,1.323611825272441,-2.084894741835445,1.846385991576314
1774472506579343400,8.09834326171875,-2.2915262985795737,-3.7470270126923917,2.521001409164071
1774472506589371100,8.10837109375,-4.840046413788199,-4.828873570127785,3.610174363964796
1774472506599399400,8.1183994140625,-6.911707726171612,-4.844374506120383,5.523659961345792
1774472506609427200,8.12842724609375,-9.948922627949715,-3.9052337073549626,6.055351593598723
1774472506619455000,8.138455078125,-7.649148725506663,-2.4700591574341058,3.9544507427275177
1774472506629483300,8.148483154296875,-5.016323018148541,-1.0063422575093806,1.5389368299514055
1774472506639511000,8.158510986328125,-3.007498977950215,-0.3155318572502583,-0.1020464160233736
1774472506649539600,8.16853955078125,0.1924772130548954,-0.6279873757950961,-0.6057938102960586
1774472506659569000,8.17856884765625,2.385950549161434,-0.7873496702335775,-0.7347796711713075
1774472506669597000,8.188596923828126,3.4201404524087904,-0.6568287818107753,-1.1138128905385731
1774472506679624700,8.198624755859376,3.4927485925018784,-0.23661760275028645,-1.8300246393620967
1774472506689652700,8.20865283203125,3.327718773820996,-0.16416728356741367,-2.175072587019205
1774472506699680800,8.2186806640625,3.1686142535358663,-0.3412745665982365,-1.5324948142051695
1774472506709708800,8.228708740234374,2.4304414327949284,-0.08513495564572512,-0.6604635581165552
1774472506719736800,8.23873681640625,1.928231331092119,0.8020702695034444,-0.2695037541121244
1774472506729764600,8.2487646484375,1.806467238163948,1.8559255349464714,-0.159480367860198
1774472506739793000,8.25879296875,1.8058827162742614,2.523685533681512,0.19868074387013912
1774472506749820700,8.268820556640625,1.7986393210172653,2.880207061511278,0.4656809907287359
1774472506759849000,8.278848876953125,2.063524767678976,2.920715305249393,0.7374106041967868
1774472506769876700,8.288876708984375,2.2515905940324066,2.779744115287065,0.8526350662231444
1774472506779904800,8.29890478515625,2.3575603209793567,2.493486794772744,0.858451059025526
1774472506789933600,8.30893359375,2.66278070063889,2.085004924211651,0.9441074812620878
1774472506799961900,8.3189619140625,2.441695232737064,1.7723370050251483,0.7109744326919317
1774472506809989600,8.32898974609375,2.2487965793997047,1.4110770504966377,0.4234083676666021
1774472506820018000,8.339017822265625,2.134253085374832,1.1981666326787321,0.31549685900211333
1774472506830045700,8.349045654296875,2.143775531479716,0.9806741477675736,0.4422878401815891
1774472506840073700,8.35907373046875,2.2312954095005986,0.6120723060436546,0.6366758552938699
1774472506850101800,8.369101806640625,1.9115122514814138,0.28091398672498763,0.40415129401087757
1774472506860129800,8.3791298828125,1.4218214396119118,-0.00963372445963323,0.043998131680488585
1774472506870157800,8.38915771484375,1.3411848913639783,-0.2859633790690452,0.14689911870658398
1774472506880185900,8.399185791015626,1.5119804339647291,-0.46614568563103675,0.2866641477495432
1774472506890213600,8.409213623046876,1.6963287010997532,-0.5772117858689279,0.42610359809994697
1774472506900242000,8.419241943359374,1.6603689144462346,-0.7561443115655332,0.6058534315288067
1774472506910269700,8.429269775390624,1.261357905933261,-0.9121376410275697,0.44636488036215305
1774472506920298000,8.439298095703125,0.6415671344667673,-1.0417164993599057,0.016743045008182526
1774472506930326800,8.449326904296875,0.3023018618643284,-1.1808015102494507,-0.12335457699000835
1774472506940354800,8.459354736328125,0.2054910084068775,-1.2930933528900146,-0.03131225310862064
1774472506950382600,8.469382568359375,0.22701544247269628,-1.3550561803281307,-0.034712416940927505
1774472506960411000,8.479410888671875,0.356191857483983,-1.3089077387459576,-0.1951034699052572
1774472506970438700,8.489438720703125,0.42104982184171674,-1.1963833294585347,-0.4109054444462061
1774472506980467000,8.499467041015626,0.271593419867754,-1.087242205933854,-0.4400695796102285
1774472506990494700,8.50949462890625,0.19280279174745082,-1.0257441464632748,-0.3852016788691282
1774472507000522800,8.519522705078124,0.33828386034965513,-0.9834441239375621,-0.3802624689012766
1774472507010550800,8.52955078125,0.5717150150835514,-0.922557401298359,-0.42871816451251504
1774472507020578800,8.539578857421875,0.7748071456551552,-0.8552071817334741,-0.46347909677028654
1774472507030606800,8.54960693359375,0.7625567358911037,-0.7835520315162837,-0.5003337864369154
1774472507040635000,8.559634765625,0.178565007558465,-0.7392300747089088,-0.7299263859212398
1774472507050662700,8.56966259765625,-0.3418751628398895,-0.7491223770394921,-0.6619283699721098
1774472507060691000,8.57969091796875,-0.48312780009210105,-0.7766757160060107,-0.37570553624927994
1774472507070719700,8.5897197265625,-0.35259938594996926,-0.726740084035322,-0.16898469378650188
1774472507080747800,8.599747802734376,-0.23663316564559936,-0.6007992899443954,-0.14107844972908495
1774472507090775800,8.60977587890625,-0.09537292960882186,-0.49400261065401135,-0.20915479161143302
1774472507100803800,8.619803955078124,-0.02737783626914024,-0.40549240642152723,-0.3932049525827169
1774472507110831600,8.62983154296875,-0.09225275176167487,-0.3342383478185162,-0.6103349608570336
1774472507120860000,8.63985986328125,-0.21711364166140554,-0.3223712017510086,-0.7376981889665126
1774472507130887700,8.6498876953125,-0.3152759097278118,-0.3533711375074461,-0.7456734056293964
1774472507140916000,8.659916015625,-0.41605215968489645,-0.3676669354939833,-0.7223983285039662
1774472507150943700,8.66994384765625,-0.46504327734708784,-0.33381756512317806,-0.7176514262378215
1774472507160971800,8.6799716796875,-0.4436123667836189,-0.2817962494522333,-0.6931546983629465
1774472507170999800,8.689999755859375,-0.3715162678658962,-0.26244948821906,-0.682457947781682
1774472507181027800,8.70002783203125,-0.30672552352547644,-0.2549411949481815,-0.6918553062021732
1774472507191056000,8.710055908203126,-0.2044236714363098,-0.2591193574156612,-0.6804395936965942
1774472507201084000,8.720083984375,-0.13693243596553803,-0.2374004967562854,-0.7399865921646356
1774472507211112700,8.73011279296875,-0.15186989285647867,-0.15805954127684235,-0.7434539760142564
1774472507221140700,8.740140625,-0.20114625720083712,-0.09228227011710405,-0.6894505831480026
1774472507231168800,8.750168701171875,-0.17263327942192552,-0.043724867697060105,-0.5634527981728314
1774472507241196800,8.76019677734375,-0.20988778206109998,0.015574951076880096,-0.5452379270464182
1774472507251224800,8.770224853515625,-0.20447978553771973,0.08047602392397821,-0.6046481473922729
1774472507261252900,8.7802529296875,-0.12229016262888907,0.11513882956951856,-0.585615530142188
1774472507271280600,8.79028076171875,-0.006869885769486427,0.18186134569011628,-0.5372738162994385
1774472507281309000,8.800308837890626,0.030360066950321195,0.2922738043248653,-0.4991267487347126
1774472507291336700,8.810336669921876,-0.06654314096570015,0.40391346666701133,-0.46241117527782916
1774472507301365000,8.820364990234374,0.06298457170128823,0.45386239651069044,-0.24493045386970042
1774472507311392800,8.830392822265624,0.31003859359622,0.47469702168144284,-0.08172726609408855
1774472507321420800,8.8404208984375,0.3938414969205856,0.4978063868511468,-0.050769233250617975
1774472507331448800,8.85044873046875,0.3411795817911625,0.4862467358302325,-0.01771276682317257
1774472507341476600,8.8604765625,0.22813538641333578,0.43597836477383967,-0.009732873985171317
1774472507351505700,8.870505615234375,0.11249357575774192,0.4138222086757421,-0.018018471771478653
1774472507361534000,8.880533935546875,0.03866378491520881,0.43042211888618764,0.05480886403024196
1774472507371561700,8.890561767578125,0.0393090970814228,0.44927010028436776,0.1467757845878601
1774472507381590000,8.900590087890626,-0.09690729956924915,0.3972608038447797,0.17023089445531367
1774472507391617800,8.91061767578125,-0.3051847238242626,0.3407092608656734,0.1067652612388134
1774472507401645800,8.920645751953124,-0.4230582390546798,0.3251727421030402,0.022258593559265134
1774472507411673900,8.930673828125,-0.45059915693104263,0.3641518765777349,-0.04973170689642429
1774472507421702000,8.940701904296875,-0.3915945947766304,0.39088038209266956,0.035443069303035736
1774472507431730000,8.95072998046875,-0.27876082727909085,0.4092425527352839,0.16212240680158138
1774472507441757700,8.9607578125,-0.21912907313704488,0.3863897196099162,0.1615373003900051
1774472507451785700,8.97078564453125,-0.33159459184408185,0.3693527331564575,0.09459902262687682
1774472507461813800,8.980813720703125,-0.43868776986300945,0.3306087226118892,0.0992535704344511
1774472507471841800,8.990841796875,-0.4226256928563118,0.25397286137267944,0.1147732111275196
1774472507481869800,9.000869873046875,-0.42935353980660435,0.19558906146511434,0.15297405470609665
1774472507491899000,9.01089892578125,-0.5477741675257682,0.13250490184687078,0.17644436214268205
1774472507501927000,9.020927001953124,-0.600571107211709,0.037585268963500854,0.19097148466706274
1774472507511954700,9.03095458984375,-0.5510632721990346,-0.030940570252016186,0.17535539786219595
1774472507521983000,9.04098291015625,-0.4934107091754675,-0.08196217082850635,0.14671324074566364
1774472507532010800,9.0510107421875,-0.446510426312685,-0.09627068216614425,0.036407530421018595
1774472507542038800,9.061038818359375,-0.4292617698699236,-0.10695070080831647,0.03054769847691059
1774472507552066800,9.07106689453125,-0.422651411819458,-0.10641279453933239,0.14745382997989653
1774472507562094600,9.081094482421875,-0.4417500800430774,-0.13019728249162435,0.1733235997736454
1774472507572123000,9.091122802734375,-0.40556934411525725,-0.16087883648127316,0.2122621099770069
1774472507582150700,9.101150634765625,-0.3739999013751745,-0.20367928280979394,0.22011633060872554
1774472507592179000,9.111178955078126,-0.3337672597080469,-0.23810060784965753,0.16119593960642814
1774472507602206700,9.121206787109376,-0.3117033119380474,-0.22824030809253454,0.10611644194126128
1774472507612234800,9.13123486328125,-0.2507335871905088,-0.2323907057702541,0.13291852414906025
1774472507622262800,9.1412626953125,-0.09950783745646476,-0.2350127248369157,0.22091244942247867
1774472507632290800,9.151290771484375,-0.0023386720806360243,-0.22776392275243995,0.2655570623129606
1774472507642319600,9.161319580078125,0.012075053197145462,-0.22215777330845593,0.26678806541264055
1774472507652348200,9.17134814453125,0.04900514618754387,-0.23082535614967345,0.26193945633769034
1774472507662376000,9.1813759765625,0.14875146857500077,-0.23466113492026924,0.28694413373470307
1774472507672404000,9.191404052734375,0.23680209247171877,-0.223443575335294,0.27993805436491964
1774472507682432000,9.201431884765626,0.3292448138475418,-0.1849170069336891,0.24687808080613613
1774472507692460000,9.2114599609375,0.39211306569278237,-0.16680924944356082,0.1798497866719961
1774472507702488000,9.221488037109374,0.4465279619693756,-0.1260666124276817,0.1352256320476532
1774472507712516000,9.23151611328125,0.4726642737448215,-0.06068696228340268,0.09135551066100597
1774472507722543900,9.2415439453125,0.5031687176018953,-0.006394523342698812,0.06308803207576275
1774472507732572200,9.251572265625,0.4905734399229288,-0.005096154095232486,0.02987491378188133
1774472507742600000,9.261599853515625,0.4504845906406641,-0.005847118593007326,-0.0018903437912464142
1774472507752628000,9.2716279296875,0.45890229037404057,0.031295740365236996,-0.020540099203586577
1774472507762656000,9.281656005859375,0.45922494645714756,0.08479308340549468,-0.057895724129676814
1774472507772683800,9.291683837890625,0.4161374998807907,0.15381255135685204,-0.09040507806837558
1774472507782712800,9.301712890625,0.3338537689477205,0.215750390484184,-0.0882908623933792
1774472507792741000,9.3117412109375,0.2675765854418278,0.2502887660324573,-0.077123571690917
1774472507802769000,9.321768798828124,0.12592355069518088,0.2324621635712683,-0.13412614637315273
1774472507812797200,9.331797119140624,-0.04740414073169231,0.179731567119807,-0.190215697863698
1774472507822825000,9.341824951171875,-0.19281565122902392,0.13594766271188855,-0.19978256763219832
1774472507832853000,9.35185302734375,-0.2910726118415594,0.1389832310155034,-0.22911796770989892
1774472507842881000,9.361881103515625,-0.3854173674464226,0.19507672802880405,-0.28114158493578434
1774472507852908800,9.37190869140625,-0.5005331084012985,0.20441431908607482,-0.23520400962531565
1774472507862937000,9.38193701171875,-0.5931617077380419,0.16696064061298965,-0.1458650994837284
1774472507872964900,9.39196484375,-0.6259037013888359,0.1368492877267301,-0.13813421297073364
1774472507882993000,9.401992919921875,-0.6259376036584376,0.06041749769225716,-0.15756488962769508
1774472507893021000,9.41202099609375,-0.6144049867749214,-0.06336831032186746,-0.22421850523054598
1774472507903049000,9.422049072265626,-0.5480629213392734,-0.19599530417844652,-0.3609977964609861
1774472507913077000,9.432076904296874,-0.3713198685109615,-0.32192046230882404,-0.46485389225482937
1774472507923106000,9.44210595703125,-0.18372925845384597,-0.44956031540259717,-0.5658218653917312
1774472507933134000,9.452134033203125,-0.006528524985909462,-0.6237218273051083,-0.6117296300858259
1774472507943161900,9.462161865234375,0.14056407046616076,-0.8101118294008076,-0.6477601438879966
1774472507953190000,9.47218994140625,0.22890812435150146,-0.8865864356637001,-0.8135153542339801
1774472507963218000,9.482218017578125,0.23994389762878415,-0.8482119890838861,-0.9863953018933534
1774472507973246000,9.492245849609375,0.22990122704207896,-0.7554347750566899,-0.9556360064923762
1774472507983274000,9.50227392578125,0.2097264540195465,-0.6259476866610348,-0.7363964587181806
1774472507993301800,9.5123017578125,0.20975801820158957,-0.44302536067590115,-0.5270341618359089
1774472508003330000,9.522330078125,0.21541326748430728,-0.26152050027325746,-0.4100672400563955
1774472508013357800,9.53235791015625,0.21190204449295996,-0.07498714418411255,-0.418708811673522
1774472508023386000,9.54238623046875,0.3583990121394396,0.08208017118498682,-0.1772586011350155
1774472508033414000,9.552413818359375,0.42993981526196,0.23784385660961269,-0.027889292922616004
1774472508043442000,9.56244189453125,0.4674105910003185,0.3127878923043608,0.04074585188627243
1774472508053470000,9.572469970703125,0.4039817826628685,0.33163726194202897,0.024680267748236655
1774472508063499000,9.5824990234375,0.13741057487130165,0.33966260135695336,-0.2037701759636402
1774472508073526800,9.59252685546875,0.038384967973828316,0.2590687232069671,-0.13169395079016685
1774472508083555000,9.60255517578125,-0.1857102031379938,0.2606282276086509,-0.22100071222782133
1774472508093582800,9.612582763671876,-0.18428338520526885,0.1889541534952819,-0.2223924588471651
1774472508103611000,9.62261083984375,-0.10508651437163352,0.14319602640494702,-0.1837275048881769
1774472508113639000,9.632638916015624,-0.09603168577849865,0.13228461015969514,-0.14211948321461676
1774472508123667000,9.6426669921875,0.07277122170031071,0.0759225253380835,-0.07587854006588458
1774472508133695000,9.652695068359375,0.31714521073102947,0.05454407561421394,-0.0781914931833744
1774472508143723000,9.662722900390625,0.5886608891874552,-0.03603657821677625,-0.06564882247447967
1774472508153750800,9.672750732421875,0.8438684069216251,-0.18003106152303516,-0.1458171686887741
1774472508163779000,9.682779052734375,0.9267349061787128,-0.22522804759927093,-0.3547340598911047
1774472508173806800,9.692806884765625,0.8336924653440714,-0.20872677545771,-0.5781248821258544
1774472508183835100,9.702835205078125,0.6202472830623388,-0.1769900863919407,-0.7300941437035798
1774472508193863000,9.71286279296875,0.36603286801874635,-0.1141136512402445,-0.705671650108695
1774472508203891000,9.722890869140626,0.32772388789057727,0.08071845437772572,-0.31706571575403214
1774472508213920000,9.732919921875,-0.09544541032314299,-0.0066677142608910795,-0.23861235676407813
1774472508223948000,9.742947998046875,0.011374211451411247,0.039639388481713826,-0.21547522680461406
1774472508233975800,9.752975830078125,-0.19115502454042432,0.09342205126937478,-0.36763328895270825
1774472508244004000,9.763004150390625,-0.7243038698643446,0.302558540039137,-0.676277213320136
1774472508254032000,9.773031982421875,-0.5210188470691443,0.5007715933322906,-0.41192952679693695
1774472508264060000,9.783059814453125,-1.413098619452119,0.8729599152408539,-0.7948755356937647
1774472508274088000,9.793087890625,-2.0396037938654423,0.913550722695887,-0.5587830527961254
1774472508284116000,9.803115966796875,-1.004673301383853,0.7268910368133336,0.7632581621587275
1774472508294144000,9.81314404296875,-1.6828513798892497,0.8788906935293227,0.4910223527342081
1774472508304172000,9.823172119140626,-2.2297762371093035,0.968624375142157,0.45572775199115273
1774472508314199800,9.83319970703125,-1.509725933036208,0.8157889251891524,0.9611784430503845
1774472508324228000,9.84322802734375,-1.435012345096469,1.0137519492439926,0.9121791420817374
1774472508334255900,9.853255859375,-1.2166489956349134,1.0918676007121801,0.9840823487758635
1774472508344284200,9.8632841796875,-0.7295645668715238,1.046904788718,2.5221459030240774
1774472508354312000,9.87331201171875,-0.8578624454826116,0.8477052086055278,1.692625170406699
1774472508364340000,9.883340087890625,-1.7915169217914342,-0.34800986620262264,1.4239105208456515
1774472508374369000,9.893369140625,-1.8674001380324363,-0.7464337224774062,0.9454846148341893
1774472508384397000,9.90339697265625,-0.9664017306566238,-0.9817986948180943,0.976388287141919
1774472508394424800,9.9134248046875,-0.016214052698016165,-1.4900497571855782,1.056001922082901
1774472508404453000,9.923453125,0.1181979248791933,-1.9413399651207028,-0.09139525814950465
1774472508414481000,9.93348095703125,0.42728900849223134,-1.8945111400589345,-1.0680430730104447
1774472508424509000,9.943509033203124,0.6601783114343881,-1.7013132115140557,-0.9307949952244758
1774472508434537000,9.953536865234375,0.18087620711028574,-1.496791486530751,-0.9719476743459701
1774472508444565000,9.96356494140625,-1.076361988544464,-0.6139977942135184,-0.2580313429832458
1774472508454593000,9.973593017578125,-2.4723534058511256,0.5636405758298934,0.7729021888166665
1774472508464621000,9.98362109375,-3.160703918802738,1.0146747631773352,1.458635797268152
1774472508474648800,9.99364892578125,-2.4760551829785107,1.2025251932144165,2.3328584259212017
1774472508484677000,10.003677001953125,-1.1621750626474618,1.191165448679775,2.0757097109913825
1774472508494705000,10.013704833984375,0.28866964235305786,0.7948050277408212,1.1938532264590263
1774472508504733000,10.02373291015625,0.7492752295136451,0.3180553113132715,0.2577063488125801
1774472508514761000,10.033760986328126,0.7650099742621183,-0.39397155304104087,0.06398410413265228
1774472508524790000,10.0437900390625,0.46176177145838737,-0.648233679683879,-0.028655016598105428
1774472508534818000,10.053818115234375,-0.26948914106488225,0.15252631093859673,0.20745441743433474
1774472508544846000,10.06384619140625,1.3435732478052378,0.8936080048635602,-0.16718553541004658
1774472508554873900,10.073873779296875,2.366858310678601,1.6587871982127427,1.5331331121087073
1774472508564902100,10.083902099609375,2.2043220623791218,2.700077873376012,1.6398925281286238
1774472508574930000,10.093929931640625,2.0832371838867663,3.601050854049623,2.539991940838098
1774472508584958000,10.1039580078125,1.0581488709837197,4.306364484500885,4.482809431165457
1774472508594986000,10.113986083984376,-1.1290963843882083,4.624681661620736,4.035063910099864
1774472508605013800,10.124013671875,-2.05098501957953,4.054019078199565,3.3651427878081797
1774472508615042000,10.1340419921875,-1.7672984263360498,3.3401550615459676,3.144050890165567
1774472508625069800,10.14406982421875,-2.5839813046902416,3.593592354737222,3.7246529760599136
1774472508635097900,10.154097900390624,-2.405747721043229,3.330141617053747,3.245255594667792
1774472508645126000,10.1641259765625,-1.931215315338969,3.0008450730189677,2.419865678244829
1774472508655153400,10.1741533203125,-1.735477639183402,2.675813492952287,1.7435989863187074
1774472508665181700,10.184181640625,-2.6031395941466093,2.0906071281328797,1.8552116875886917
1774472508675209500,10.19420947265625,-3.707493751466274,1.337808839059621,1.9014999760329723
1774472508685238500,10.204238525390625,-2.1913281407713887,-1.299785836265981,1.0076192917078732
1774472508695266600,10.2142666015625,1.7519629100382328,-2.549356858293712,-0.5541220752477646
1774472508705294600,10.224294677734376,3.596956570473313,-1.8728771081387996,-0.26372633975446225
1774472508715322400,10.234322265625,3.5160388671964404,-0.7984503985058515,0.21780162392556665
1774472508725350700,10.2443505859375,2.410784546166658,-0.03770136962383985,0.3466495376348495
1774472508735378400,10.25437841796875,1.1227379552721977,-0.33485666237995027,-0.016754735445976256
1774472508745406700,10.26440673828125,0.5076157601386309,-0.3985468981325626,0.4193336655735969
1774472508755434500,10.2744345703125,1.2261205883353947,0.2048806214235723,0.3184481100231409
1774472508765462500,10.284462646484375,1.261201254066825,0.5082495279975235,0.3303700184851885
1774472508775490600,10.294490478515625,0.15900281347632408,0.4720823091384023,-0.24263737449645995
1774472508785518600,10.3045185546875,-0.7408709737837315,-0.22460326676443218,-2.27070095269382
1774472508795546600,10.314546630859375,-0.9215607184112071,-1.3031553126990794,-1.4772025505721569
1774472508805574700,10.32457470703125,-0.7647381715834141,-1.617498179360479,-0.572933743223548
1774472508815602400,10.3346025390625,-0.6602852789402007,-1.5466151094943283,-0.42813948784172534
1774472508825630700,10.344630615234376,-0.3018155396521091,-1.1159455186530947,-0.5090326411992311
1774472508835658500,10.354658447265624,-0.1413683725863695,-0.6034426805926486,-0.43637014057040213
1774472508845687600,10.3646875,-0.2572574360013008,-0.2870818617049605,0.2521440385103226
1774472508855715600,10.374715576171875,-0.49901452053189277,-0.11087032193746417,0.6091290921986102
1774472508865743600,10.38474365234375,-0.6727665748506784,-0.030265429203119126,0.9981687417954206
1774472508875771600,10.394771728515625,-1.1209475647240876,0.14687984775053337,1.3304302731156348
1774472508885799700,10.404799560546875,-1.7359259674727916,0.53630464247372,1.2819587954133749
1774472508895827500,10.414827392578125,-2.081134658649564,0.7992405990354716,0.9194120159447192
1774472508905855700,10.424855712890626,-1.754465248247981,0.5139283408189192,-0.1545271293669939
1774472508915883500,10.434883544921876,-0.8910679649919271,-0.1683025750075467,0.9686451256692409
1774472508925911600,10.44491162109375,-1.2354706004828213,-0.6167728118848055,2.029430774897337
1774472508935939600,10.454939697265624,-1.7925526945799588,-1.3030812245495618,0.39020518624484535
1774472508945967600,10.464967529296874,-1.5473440082907677,-2.0267104100227353,-0.8222995491921902
1774472508955995600,10.47499560546875,-1.618718807196617,-1.259692310808599,-0.11075696122348308
1774472508966023700,10.485023681640625,-1.7807646416306495,0.39521362552400674,1.3027251045882702
1774472508976051500,10.495051513671875,-1.2455921815246342,0.08447481123656034,1.081720300707221
1774472508986079700,10.505079833984375,-0.19910802937150002,-0.727607879845798,0.5261784217894077
1774472508996107500,10.515107421875,0.5511877753615378,-0.3482284773893654,0.5525596482366323
1774472509006136600,10.525136474609376,0.5371189179986715,0.13518435018919409,0.3656880001038313
1774472509016164600,10.53516455078125,0.1795405745923519,-0.24102782040797172,0.15778174724876878
1774472509026192600,10.545192626953124,0.14526070384979248,-0.6211600870583206,1.0444365719735622
1774472509036220700,10.555220703125,0.15625556059479712,-0.13962014067955314,1.560181862553954
1774472509046248700,10.565248779296875,1.0942249774932862,-0.00017820611111819744,-0.3434697385549545
1774472509056276500,10.5752763671875,2.611200151005387,-1.5185171422570942,-1.249278176560998
1774472509066304800,10.5853046875,1.8678285925775766,-1.5386813938856123,-0.44373628542423244
1774472509076332500,10.59533251953125,0.7713730795532464,-1.3285337918445468,-0.7318903794705868
1774472509086360600,10.605360595703125,0.44710605411827564,-1.4122611457146703,-0.76834525616467
1774472509096388600,10.615388671875,0.8097416809141635,-1.1162015392407774,0.4360796331912279
1774472509106416600,10.625416748046876,0.9490636423647403,-0.4310999450825155,0.8773176720589398
1774472509116444700,10.635444580078126,1.2076263157457112,0.2431704584598541,0.2757347574561834
1774472509126472400,10.645472412109376,1.624897788092494,0.21706673377975821,0.3434522028982639
1774472509136500500,10.65550048828125,1.8182254804968834,-0.2242214278399944,0.9930822323113679
1774472509146528500,10.665528564453124,0.8636597335845232,-0.06202270439919084,0.2696136442273855
1774472509156556500,10.675556640625,-0.04929623808860779,-0.3182935405159369,-0.8451835811734199
1774472509166585600,10.685585693359375,-0.4254091860949993,-0.9116009768676012,-1.2782225314944982
1774472509176613600,10.695613525390625,-1.7647259454995392,-1.0080731729552148,-0.8925818766862154
1774472509186641700,10.7056416015625,-2.602304896888137,-0.7794284487802535,0.10372224028110504
1774472509196669700,10.715669677734375,-2.6592162861555813,0.07111695168726145,0.3177835086345672
1774472509206697700,10.72569775390625,-1.533609497448802,0.3721271663058549,-0.10184534049332142
1774472509216725500,10.7357255859375,0.16090250961780547,-0.09575114267091266,-0.8921481614440679
1774472509226753500,10.74575341796875,1.05542558349967,-0.675206296152994,-1.082697621306777
1774472509236781600,10.755781494140624,1.043295585244894,-1.0805897623073308,-0.786064452728629
1774472509246809600,10.7658095703125,1.1039911692261695,-1.3786628274954855,-0.2150947030544281
1774472509256837600,10.775837646484375,1.4630460149258375,-1.3480978856228292,0.351094826605916
1774472509266865400,10.785865478515625,0.5757014543712139,-0.6394841907128691,1.2067366734296083
1774472509276893700,10.795893798828125,-0.25408406666219235,-1.1995465427298098,-1.5602613575309514
1774472509286921500,10.80592138671875,1.2132377258867024,-1.9137660217575727,-1.9586901822417973
1774472509296949500,10.815949462890625,2.388295650982857,-1.918235129995644,1.18985509673357
1774472509306977500,10.8259775390625,1.5248808320701122,-0.17075711028650403,2.2569752096801996
1774472509317005600,10.836005615234376,1.0098387213230133,0.6285382146108895,0.8543909699797629
1774472509327034400,10.846034423828126,1.602995168364048,0.7098512738808989,-0.8825567417562007
1774472509337062700,10.856062744140624,1.1854723516047,0.8792388493798673,-1.089901853597164
1774472509347090400,10.86609033203125,0.1267822133511305,-0.08099332579635084,-0.5248895510226488
1774472509357118700,10.87611865234375,-0.6769920835912228,-0.9108747814849019,-0.1115706156939268
1774472509367146500,10.886146484375,-0.09975216760635375,-1.0825158349990844,-0.27963644106984137
1774472509377174500,10.896174560546875,0.3387695980399847,-1.0236408905737102,-1.4913117399454117
1774472509387202600,10.90620263671875,0.005338438418507576,-0.8432908992946148,-1.1217401764065027
1774472509397230600,10.916230712890625,-0.10144552752077579,-0.4870198390945792,-0.21460838084220885
1774472509407258600,10.926258544921875,0.23496494017243383,-0.1941306793503463,-0.33015725251734257
1774472509417286700,10.93628662109375,1.3501976343810558,0.07570069928094744,-0.514743420061469
1774472509427314400,10.946314453125,2.67089327994585,0.12165902511849999,0.11470248397886752
1774472509437342700,10.9563427734375,2.73820214458704,1.0350488581642507,1.9861632955789565
1774472509447370500,10.96637060546875,3.6297049938648938,2.280538894488662,5.349647794786096
1774472509457398500,10.9763984375,3.3582314009845255,3.488965566831827,4.854283613455295
1774472509467426600,10.986426513671875,1.4009592688471078,-0.4599240346372127,-3.3173481864541765
1774472509477454600,10.99645458984375,-2.9449744249761105,-3.9674002406716347,-6.031119069617986
1774472509487482600,11.006482666015625,-6.35450463604331,-4.217182810747623,-4.960514621686936
1774472509497511700,11.01651171875,-4.70322737506926,-1.7710738532215355,-3.1503304088264703
1774472509507539500,11.02653955078125,-1.6000550232589243,0.856041367535293,-1.3703665621846914
1774472509517567700,11.036567626953126,0.5937333701461553,1.2453558885507285,0.8690197993129491
1774472509527595500,11.046595458984376,0.848394944435358,1.507387260955572,0.7770248217046261
1774472509537623600,11.05662353515625,0.721628513175249,1.5421573994331061,-0.3797726395577192
1774472509547651600,11.066651611328124,0.03153144881725311,1.857554012931138,-0.9434013788193464
1774472509557679600,11.0766796875,-1.0831827744752167,1.5855173793405293,-0.49214346571862694
1774472509567707600,11.086707763671875,-1.7243647090166807,0.1623709747351706,0.07281856797337531
1774472509577735700,11.096735595703125,-1.0769207914710044,-1.0470498232118786,-0.26583120307922364
1774472509587763500,11.106763427734375,-0.16533552362918852,-1.730046554045379,-1.117065754854679
1774472509597791700,11.116791748046875,-0.055955111455917354,-1.9987189718998968,-1.6039876865327358
1774472509607819500,11.126819580078125,-0.27495909690856934,-2.1154832107141615,-1.0753554418504236
1774472509617847800,11.136847900390626,0.03137655051648617,-1.795225128659606,-0.8494482528805732
1774472509627875600,11.14687548828125,-0.47504970757663245,-1.6420317321144045,-0.7194774726212024
1774472509637903600,11.156903564453126,-1.0808744975328444,-2.0183803885728118,0.34455636474788187
1774472509647932400,11.166932373046874,-2.4913076971679926,-3.400567736932635,3.470063882485032
1774472509657960200,11.176960205078124,6.157621296983957,0.00216784555837512,-0.00985913071334362
1774472509667989200,11.1869892578125,8.185519455486535,0.6902696444459259,-2.909880899763107
1774472509678017300,11.197017333984375,2.1735499074965716,0.8521500591851771,0.4533972632169723
1774472509688045300,11.20704541015625,-0.9545780218720435,0.3102162882506847,0.82416475854218
1774472509698073300,11.2170732421875,-0.9727841251701116,-0.8390750351652503,-1.1036106454759835
1774472509708101400,11.227101318359376,0.30474399431943894,-1.4194427277818322,-1.0589905825048684
1774472509718129400,11.23712939453125,0.7578998499959707,-1.6812011284641921,-1.207276187133789
1774472509728157200,11.2471572265625,1.4175690428644419,-2.4246700097866354,-2.8740964696764943
1774472509738185500,11.257185546875,0.48168169293701646,-1.2230474645003675,-1.595180695220828
1774472509748213200,11.267213134765624,-1.5370271969377993,0.9757678171560168,1.5508990704238415
1774472509758241300,11.2772412109375,-0.6493634874314069,0.10301160779371857,-0.045346039158105846
1774472509768269300,11.287269287109375,0.061571197772026055,-0.4871327979497611,-1.494587985137105
1774472509778297000,11.297297119140625,-0.07887947544753551,-0.14748290994390845,-0.6079752459883689
1774472509788325400,11.307325439453125,-0.6892804872781038,0.04660451478660106,0.35833413020968435
1774472509798353200,11.317353271484375,-1.3967097947090863,0.050123336562514303,0.7796633535146713
1774472509808381400,11.32738134765625,-1.4276426931113004,-0.45949937948435543,1.0455664527863264
1774472509818409200,11.3374091796875,-1.1034674376130102,-0.8816621310040355,1.290337916702032
1774472509828437200,11.347437255859376,-0.7025806983560323,-0.6497730911456048,1.4603881938934324
1774472509838465300,11.35746533203125,-0.23628888225257394,0.006781769094616174,1.841411710295081
1774472509848494300,11.367494384765624,-0.2656669524282217,0.30085896957963704,2.03694071213603
1774472509858522000,11.377522216796875,3.4478783541619777,-2.374064150404185,1.4796645567715168
1774472509868550400,11.38755029296875,4.58252418937087,-2.969162525293231,0.4322539374232292
1774472509878578200,11.397578125,-0.08868599919080734,0.04590075043141842,1.8705512955397365
1774472509888606200,11.407606201171875,-0.26213059499561786,0.1938052467882633,0.8371417290151119
1774472509898634200,11.41763427734375,-0.8578115920782089,1.047062098171562,1.130312774440646
1774472509908662300,11.427662353515625,-0.40177287444174287,0.6614388328894972,4.274497520118952
1774472509918690300,11.437690185546876,0.967719827517867,1.4329267709940672,3.575622690543532
1774472509928718300,11.44771826171875,0.13260989659130573,3.1989877644896505,4.453822406134009
1774472509938746000,11.45774609375,0.03504559441804886,3.876008781914413,2.8802152448177334
1774472509948774400,11.4677744140625,-0.4467553409844637,3.938238443595171,0.46172670014500616
1774472509958802200,11.47780224609375,-0.8026625363081693,3.7068165828570723,-0.9163432760238647
1774472509968830500,11.48783056640625,-0.7423585819929838,3.8161540326714514,-1.5780734930753706
1774472509978858200,11.497858154296875,-0.09013269086778164,3.5984652214705943,-2.523143097367883
1774472509988886300,11.50788623046875,0.02473755089342594,2.6967101505085824,-2.8553625431120393
1774472509998914300,11.517914306640625,-0.4094529075503349,1.4592892927408216,-2.816898080161214
1774472510008942300,11.5279423828125,-1.0178466712117193,0.09289104966521262,-2.7278233739137647
1774472510018970400,11.537970458984375,-1.828953210738301,-0.4162868452236056,-2.598881644441187
1774472510028999400,11.54799951171875,-2.54795312897563,-0.006636369274556637,-2.7297116718783974
1774472510039027200,11.558027099609374,-2.1732442025482652,0.3055360214799642,-2.308807103726268
1774472510049055200,11.56805517578125,-1.7961077567130326,-0.07079641449600457,-1.647868621574342
1774472510059083300,11.578083251953124,-1.2210124515414238,-0.5221913979798555,-1.169858310626447
1774472510069111300,11.588111328125,-0.1302665483355522,-0.244155377843976,-0.691055680257082
1774472510079139300,11.598139404296875,-0.9761299284666776,-0.6326172275528311,0.3962620020657778
1774472510089167400,11.60816748046875,-3.3718905085027218,-0.6694944213122129,3.323469884204864
1774472510099195100,11.618195068359375,-1.8187737620294093,-1.9930714675322174,2.5677117224127053
1774472510109223400,11.628223388671875,8.534182671031356,-13.450610898232458,-2.192682185728848
1774472510119251200,11.638251220703125,-1.356700440403819,-9.652624390414356,-3.0925033660188315
1774472510129279500,11.648279541015626,1.5591162791490554,-6.628987932133675,-2.7110236302822828
1774472510139307300,11.658307373046876,0.8151280501276255,-2.1540011574178934,0.4391220696270466
1774472510149335300,11.668335205078124,1.4265531443089245,0.563781883996725,2.761622183141112
1774472510159363300,11.67836328125,2.317330017399788,1.0429173995822667,1.580525270141661
1774472510169391400,11.688391357421875,-1.0220260027229786,-1.375509185770154,-1.8957552949011325
1774472510179419400,11.69841943359375,-0.38968203915357585,-0.6126154730096459,0.5373600332781672
1774472510189447400,11.708447509765625,2.9391993487060066,0.41230128271877764,2.737286491046846
1774472510199475200,11.71847509765625,3.7490731315672394,1.5389835917025803,3.213201583281159
1774472510209504300,11.728504150390625,1.6739000116705893,2.794607337898016,1.9067665182590483
1774472510219532300,11.7385322265625,0.6993927159696817,2.6081582990914582,0.9292825448349118
1774472510229560300,11.748560302734376,3.4721553018063305,1.1308958350256084,-0.6939341583028436
1774472510239588400,11.75858837890625,1.3877052349984644,-1.123958729238808,-1.4340730184197426
1774472510249616400,11.768616455078124,1.7559785754203796,-2.778260306470096,-2.3004598388805984
1774472510259644200,11.77864404296875,3.780127026000619,-0.3715291273474693,-0.7292343120038509
1774472510269672400,11.78867236328125,4.141325897991657,2.1588167410060763,0.39763066007047887
1774472510279700200,11.7987001953125,2.9662726490706204,1.3918717070281506,-0.7061836912840604
1774472510289728500,11.808728515625,1.100903724604845,1.087833815151453,-2.128642552016675
1774472510299756300,11.81875634765625,1.0149725770801306,1.2158897017002106,-1.9389955939516423
1774472510309784300,11.828784423828125,0.9412754727065563,0.4376864838659763,-1.088583756735921
1774472510319812400,11.838812255859375,0.13456044613718987,0.5818149688154459,-1.2764707193911076
1774472510329840000,11.848840087890625,-0.6133686294645071,-0.10992694014012813,-1.6996275965146719
1774472510339868400,11.858868408203126,-1.991969936031103,-0.19114567219018935,-2.558739311406016
1774472510349896200,11.868896240234376,-0.48558162298500535,1.3636629728928207,-0.8478554307311773
1774472510359924200,11.87892431640625,-0.7279904494225978,0.3034273587629199,-0.7238289458289742
1774472510369952300,11.8889521484375,-1.6519547218441961,0.7456932793736457,-1.109198528610915
1774472510379980300,11.898980224609375,-1.8398796784222125,-0.04698299271017313,-0.6547922344818711
1774472510390008300,11.90900830078125,-1.4953198065429925,0.08734276788830757,-0.17167071800008415
1774472510400037400,11.919037353515625,-1.4171429264068602,-0.10829057110995054,0.06486643992513418
1774472510410065400,11.9290654296875,-1.2308587227731942,-0.46445933997929095,0.44512028712853785
1774472510420093200,11.93909326171875,-0.7686059529274701,-0.46731239132285113,0.7195140052393079
1774472510430121200,11.949121337890626,-0.27857436479628084,-0.6272808349609375,0.8545710027217864
1774472510440149200,11.959149169921876,0.16098960337936877,-0.5228896093770862,0.9806512052834033
1774472510450177300,11.96917724609375,0.49923546980619427,-0.3458060725480318,1.0816789457835256
1774472510460205300,11.979205322265624,0.7959469643175602,-0.15958470501750707,1.4705742184735833
1774472510470233000,11.989233154296874,0.44731414391100405,0.05324702154099941,1.7321948181204496
1774472510480261400,11.999261474609375,0.03950023573935032,0.16847002226263283,2.344910975025594
1774472510490289200,12.0092890625,-0.46207624423503874,0.27744565302729607,2.6058991219878194
1774472510500317400,12.0193173828125,-0.7131564529061317,0.5390823270261287,2.8983579274907707
1774472510510345200,12.02934521484375,-0.7281161216288805,0.3384896120548248,2.835952324721217
1774472510520373200,12.039373291015625,-0.7325006203234196,0.43878801536709067,1.7402517217174172
1774472510530401300,12.0494013671875,-1.1141589274972676,0.23309768499583006,0.9579998130142688
1774472510540429300,12.05942919921875,-0.8360796527415514,0.02820405796021223,0.7432844646662473
1774472510550457300,12.069457275390626,-0.41673020507693287,0.0623930355489254,0.5414610388562083
1774472510560485400,12.0794853515625,-0.1633247683286667,0.08507102356404066,0.05643573457971215
1774472510570513200,12.08951318359375,0.03998246629834175,0.05759878700971603,-0.5261687771782279
1774472510580541400,12.09954150390625,0.6364794559389353,0.09131634769439696,-0.9211063987724483
1774472510590569200,12.1095693359375,0.23846797985732554,0.20863105999827383,-1.3412038883253932
1774472510600597500,12.119597412109375,1.294329032164812,-0.7467123932883143,-0.7167303658701479
1774472510610625300,12.129625244140625,1.1117325771331787,0.46495501454174515,-1.4325515079408884
1774472510620653300,12.1396533203125,1.166065055823326,0.38790976878404615,-1.4317410683408378
1774472510630681300,12.149681396484375,1.2934475731551647,0.06799421655684709,-1.036800816398114
1774472510640709400,12.15970947265625,0.8173217607796192,0.0395467052295804,-1.1886094805866478
1774472510650737000,12.16973681640625,0.680999565666914,-0.1314648182094097,-1.7274854713857173
1774472510660764700,12.1797646484375,0.10996434954106807,-0.7022080656513572,-2.2001265103854237
1774472510670792700,12.189792724609376,0.04114157320559025,-0.6427656966015696,-2.1054579296536744
1774472510680820700,12.19982080078125,0.20541618960499763,-0.6754428083226084,-1.7984268473103642
1774472510690848800,12.209848876953124,-0.0646282472550869,-0.8493044604957103,-1.4535188926458358
1774472510700876800,12.219876708984375,-0.6735679543614387,-0.4645590009614825,-0.8984943886656314
1774472510710904800,12.22990478515625,-0.8955448181450366,-0.7405541629195213,-0.4199261515740305
1774472510720934000,12.239933837890625,-1.0819640463352203,-0.8520876614734529,0.04383895906340331
1774472510730962000,12.2499619140625,-1.2875631912916898,-0.6089508130222558,-0.004455189310573041
1774472510740989700,12.25998974609375,-1.0167366641432047,-0.15175941821932792,0.43275337484534826
1774472510751017700,12.270017822265626,-0.069943304798007,0.05198123938888311,2.7570041679516435
1774472510761045800,12.280045654296876,-0.2854968575358391,-0.16979747147411106,2.358688886617869
1774472510771073800,12.29007373046875,-0.06938683995902538,0.8637412743881344,1.2814381325401365
1774472510781101800,12.300101806640624,0.6675158147156238,1.6862001057952642,1.846595688804239
1774472510791129900,12.3101298828125,0.411293566980958,1.3949793176546692,2.690254398497939
1774472510801157600,12.32015771484375,0.5832417867481708,1.4831025683961807,2.296515777429938
1774472510811186000,12.33018603515625,1.5107956080943346,1.8528502191543579,-0.8547855222553015
1774472510821213700,12.340213623046875,-1.8715724552810191,2.7486042961359023,1.1101758492104707
1774472510831241700,12.35024169921875,3.7600621430933474,0.7929543583728372,4.090874060127139
1774472510841269800,12.360269775390625,0.7775906388938426,0.7024640862390399,0.46080505525544285
1774472510851297800,12.3702978515625,-2.0908125875771044,-0.6851642841309309,-1.3142977612212299
1774472510861325800,12.380325927734376,0.48086862298846245,-0.5453424103341996,-1.1251648901581763
1774472510871353900,12.390353759765626,-0.8456003452807664,-1.1105000396635383,-2.4041056529246267
1774472510881381600,12.400381591796876,-2.1897832494169474,-1.2431152700170873,-2.739517903360724
1774472510891410000,12.410409912109374,-1.7937077098339795,-0.9616445992574095,-2.1642073480032384
1774472510901437700,12.420437744140624,-1.4039444221377373,-0.5614554868757724,-1.353702573762089
1774472510911466000,12.430466064453125,-0.7936620682507753,-0.8540566965240984,-1.603231169077009
1774472510921493800,12.44049365234375,-0.8062415638387203,-1.1880033313870428,-1.7915104920506477
1774472510931521800,12.450521728515625,-1.0189420652329921,-1.3967670778542756,-1.598730350526422
1774472510941549800,12.4605498046875,-0.8305185114830732,-1.3083771390005945,-0.7618449343599378
1774472510951579000,12.470578857421875,-0.7954056970477104,-1.576584715822339,-0.04132467468753457
1774472510961606700,12.480606689453126,-0.4474778100401163,-1.3589140248000622,0.31941257114112376
1774472510971635000,12.490635009765626,0.14903379264771938,-0.9418725618168711,0.7367246677592396
1774472510981662700,12.500662841796874,0.5338870964705944,-0.4986630402131006,0.5257211064759642
1774472510991690800,12.510690673828124,0.4797486790478229,-0.2808259796479717,-0.008259221236035227
1774472511001718800,12.52071875,0.38017946679294107,0.357172648682259,-0.017834931898117065
1774472511011746800,12.530746826171875,0.4518558789938688,1.1635500773277132,0.4876542645405978
1774472511021774800,12.54077490234375,0.00041910219490528107,1.2567169482596219,0.7606997829128056
1774472511031803000,12.550802978515625,-0.5677332519710063,0.46625312806088476,1.1004292389608918
1774472511041830700,12.56083056640625,-0.7136059502393007,0.7080961007766425,1.8223355461642146
1774472511051859000,12.57085888671875,-1.9857897860914469,1.3905311060741543,2.3960393969774243
1774472511061886700,12.58088671875,-3.290689896631241,-0.052887613644078374,2.9233231496602294
1774472511071915000,12.5909150390625,-1.5638433076709508,-0.05218187652751803,1.5872076705150304
