time,seconds_elapsed,z,y,x
1773256917959158500,0.066158447265625,-0.9571990966796875,-0.268524169921875,0.02935791015625
1773256917969170700,0.076170654296875,-0.95770263671875,-0.271697998046875,0.031494140625
1773256917979183400,0.086183349609375,-0.9583282470703125,-0.270477294921875,0.0363616943359375
1773256917989195500,0.096195556640625,-0.9584503173828125,-0.2672882080078125,0.0387420654296875
1773256917999207400,0.10620751953125,-0.9580535888671875,-0.2633209228515625,0.0411529541015625
1773256918009219300,0.11621923828125,-0.9598846435546875,-0.265777587890625,0.0393524169921875
1773256918019232500,0.126232421875,-0.9592437744140625,-0.2686767578125,0.033172607421875
1773256918029244400,0.136244384765625,-0.958282470703125,-0.275299072265625,0.0283050537109375
1773256918039256600,0.146256591796875,-0.955474853515625,-0.2767791748046875,0.0252838134765625
1773256918049269500,0.15626953125,-0.9555511474609375,-0.278656005859375,0.0192108154296875
1773256918059281700,0.16628173828125,-0.959075927734375,-0.2788848876953125,0.0220184326171875
1773256918069293600,0.17629345703125,-0.9651031494140625,-0.274444580078125,0.027587890625
1773256918079306500,0.186306396484375,-0.9699554443359375,-0.2676849365234375,0.025726318359375
1773256918089318400,0.196318359375,-0.9710540771484375,-0.260101318359375,0.0146484375
1773256918099330300,0.206330322265625,-0.9620361328125,-0.2476348876953125,0.0100860595703125
1773256918109343500,0.216343505859375,-0.948516845703125,-0.2512359619140625,0.0163116455078125
1773256918119355400,0.22635546875,-0.9368743896484375,-0.2841033935546875,0.01910400390625
1773256918129367600,0.236367431640625,-0.9292144775390625,-0.3065643310546875,0.0246429443359375
1773256918139379500,0.24637939453125,-0.9325408935546875,-0.2983551025390625,0.02349853515625
1773256918149392600,0.256392578125,-0.941497802734375,-0.2864837646484375,0.024200439453125
1773256918159404500,0.266404541015625,-0.96075439453125,-0.2846527099609375,0.0169219970703125
1773256918169416400,0.27641650390625,-0.988800048828125,-0.29083251953125,-0.018310546875
1773256918179429600,0.2864296875,-1.023284912109375,-0.290740966796875,-0.06201171875
1773256918189441500,0.296441650390625,-1.0528717041015625,-0.278411865234375,-0.1227569580078125
1773256918199453700,0.30645361328125,-1.07354736328125,-0.260162353515625,-0.1838531494140625
1773256918209466400,0.31646630859375,-1.0671539306640625,-0.22601318359375,-0.2035980224609375
1773256918219478500,0.326478515625,-1.0329132080078125,-0.18524169921875,-0.1845550537109375
1773256918229490400,0.336490478515625,-0.9754180908203125,-0.167205810546875,-0.1688079833984375
1773256918239502300,0.34650244140625,-0.9292144775390625,-0.165679931640625,-0.156585693359375
1773256918249515500,0.356515625,-0.9081573486328125,-0.144195556640625,-0.1761627197265625
1773256918259527400,0.36652734375,-0.89031982421875,-0.111724853515625,-0.226470947265625
1773256918269539600,0.37653955078125,-0.888031005859375,-0.0753631591796875,-0.2803497314453125
1773256918279552500,0.386552490234375,-0.904144287109375,-0.077392578125,-0.299163818359375
1773256918289564700,0.396564697265625,-0.9091949462890625,-0.0795135498046875,-0.327362060546875
1773256918299576600,0.40657666015625,-0.93927001953125,-0.0509490966796875,-0.3194122314453125
1773256918309589500,0.416589599609375,-0.998382568359375,0.00054931640625,-0.29315185546875
1773256918319601400,0.426601318359375,-1.044189453125,0.0180816650390625,-0.29840087890625
1773256918329613600,0.436613525390625,-1.056854248046875,-0.0089569091796875,-0.294830322265625
1773256918339625500,0.44662548828125,-1.025238037109375,-0.0447235107421875,-0.3105010986328125
1773256918349638400,0.456638427734375,-0.9782257080078125,-0.06732177734375,-0.299835205078125
1773256918359650600,0.466650634765625,-0.930206298828125,-0.051788330078125,-0.2864227294921875
1773256918369662500,0.476662353515625,-0.9075775146484375,-0.065765380859375,-0.2554168701171875
1773256918379675400,0.48667529296875,-0.864501953125,-0.06011962890625,-0.2401885986328125
1773256918389687600,0.4966875,-0.8228302001953125,0.002593994140625,-0.3116912841796875
1773256918399699500,0.506699462890625,-0.8406219482421875,0.007293701171875,-0.4075775146484375
1773256918409712600,0.516712646484375,-0.90863037109375,-0.011016845703125,-0.4148712158203125
1773256918419724500,0.526724609375,-0.9616851806640625,-0.00787353515625,-0.387908935546875
1773256918429736700,0.53673681640625,-0.991546630859375,-0.0316009521484375,-0.3736419677734375
1773256918439749400,0.546749267578125,-0.9996337890625,-0.072906494140625,-0.3509979248046875
1773256918449761300,0.55676123046875,-0.9718475341796875,-0.0916595458984375,-0.33428955078125
1773256918459773400,0.5667734375,-0.93194580078125,-0.10125732421875,-0.3111114501953125
1773256918469785300,0.576785400390625,-0.9087677001953125,-0.09466552734375,-0.267974853515625
1773256918479798500,0.586798583984375,-0.87677001953125,-0.046722412109375,-0.296112060546875
1773256918489810400,0.596810546875,-0.869110107421875,-0.035125732421875,-0.3071136474609375
1773256918499822600,0.606822509765625,-0.877349853515625,-0.0276947021484375,-0.2798309326171875
1773256918509835500,0.61683544921875,-0.8854217529296875,-0.05865478515625,-0.305694580078125
1773256918519847400,0.626847412109375,-0.9254150390625,-0.137847900390625,-0.3286590576171875
1773256918529859600,0.636859619140625,-0.988861083984375,-0.197540283203125,-0.363189697265625
1773256918539872500,0.64687255859375,-1.022369384765625,-0.23468017578125,-0.3735809326171875
1773256918549884400,0.656884521484375,-1.04296875,-0.2523345947265625,-0.360076904296875
1773256918559896600,0.666896484375,-1.033660888671875,-0.250885009765625,-0.3362579345703125
1773256918569908500,0.676908447265625,-0.9883575439453125,-0.2501678466796875,-0.3099212646484375
1773256918579921400,0.68692138671875,-0.946685791015625,-0.252899169921875,-0.293548583984375
1773256918589933300,0.696933349609375,-0.91455078125,-0.251495361328125,-0.2979888916015625
1773256918599945200,0.7069453125,-0.9012603759765625,-0.273834228515625,-0.2941741943359375
1773256918609958400,0.71695849609375,-0.9018096923828125,-0.32183837890625,-0.26800537109375
1773256918619970300,0.72697021484375,-0.91192626953125,-0.3634033203125,-0.236175537109375
1773256918629982500,0.736982421875,-0.9379730224609375,-0.33404541015625,-0.183563232421875
1773256918639995400,0.746995361328125,-0.9643096923828125,-0.232940673828125,-0.1314544677734375
1773256918650007600,0.757007568359375,-0.9933013916015625,-0.0679473876953125,-0.0802459716796875
1773256918660019500,0.76701953125,-0.9610443115234375,-0.0528717041015625,-0.1184539794921875
1773256918670031400,0.77703125,-0.9465179443359375,-0.129638671875,-0.1255035400390625
1773256918680044300,0.787044189453125,-0.911956787109375,-0.1814117431640625,-0.144805908203125
1773256918690056400,0.797056396484375,-0.8956451416015625,-0.2254486083984375,-0.1510467529296875
1773256918700068400,0.807068359375,-0.8937225341796875,-0.2321014404296875,-0.1610107421875
1773256918710081300,0.817081298828125,-0.9226226806640625,-0.247222900390625,-0.172210693359375
1773256918720093400,0.827093505859375,-0.9577178955078125,-0.2781219482421875,-0.179473876953125
1773256918730105300,0.837105224609375,-0.9722137451171875,-0.2704315185546875,-0.18658447265625
1773256918740118500,0.847118408203125,-0.982147216796875,-0.27099609375,-0.1829833984375
1773256918750130400,0.85713037109375,-0.9848175048828125,-0.27764892578125,-0.192230224609375
1773256918760142300,0.867142333984375,-0.975128173828125,-0.2664794921875,-0.2091522216796875
1773256918770154500,0.877154541015625,-0.9612274169921875,-0.25933837890625,-0.20562744140625
1773256918780167400,0.88716748046875,-0.9425811767578125,-0.2602691650390625,-0.214691162109375
1773256918790179600,0.8971796875,-0.9231414794921875,-0.2749176025390625,-0.2481231689453125
1773256918800191500,0.90719140625,-0.9198150634765625,-0.2987060546875,-0.284698486328125
1773256918810204400,0.917204345703125,-0.9259185791015625,-0.2938995361328125,-0.307464599609375
1773256918820216300,0.92721630859375,-0.9549560546875,-0.243072509765625,-0.298675537109375
1773256918830228200,0.937228271484375,-1.00787353515625,-0.180877685546875,-0.2337188720703125
1773256918840241400,0.947241455078125,-1.0349273681640625,-0.144866943359375,-0.195098876953125
1773256918850253300,0.95725341796875,-0.9983367919921875,-0.160430908203125,-0.1918182373046875
1773256918860265500,0.967265380859375,-0.9517669677734375,-0.2065277099609375,-0.1939849853515625
1773256918870277400,0.97727734375,-0.9200286865234375,-0.247283935546875,-0.2157135009765625
1773256918880290600,0.98729052734375,-0.91473388671875,-0.2591400146484375,-0.2322998046875
1773256918890302500,0.997302490234375,-0.9311065673828125,-0.253448486328125,-0.2274932861328125
1773256918900314400,1.007314453125,-0.966064453125,-0.225189208984375,-0.21209716796875
1773256918910327600,1.01732763671875,-0.9770355224609375,-0.203125,-0.205322265625
1773256918920339500,1.02733935546875,-0.967193603515625,-0.2012786865234375,-0.2052764892578125
1773256918930351600,1.0373515625,-0.9556884765625,-0.2095184326171875,-0.2120513916015625
1773256918940364300,1.0473642578125,-0.946868896484375,-0.2216033935546875,-0.2143402099609375
1773256918950376400,1.05737646484375,-0.952972412109375,-0.2209930419921875,-0.2137908935546875
1773256918960388400,1.067388427734375,-0.956787109375,-0.2139892578125,-0.212493896484375
1773256918970400300,1.077400146484375,-0.953125,-0.214111328125,-0.2141571044921875
1773256918980413400,1.087413330078125,-0.947723388671875,-0.2166595458984375,-0.2123870849609375
1773256918990425300,1.09742529296875,-0.943878173828125,-0.2226715087890625,-0.21337890625
1773256919000437500,1.1074375,-0.9504241943359375,-0.2275238037109375,-0.22760009765625
1773256919010450400,1.117450439453125,-0.951324462890625,-0.2284393310546875,-0.24237060546875
1773256919020462600,1.127462646484375,-0.94219970703125,-0.2327880859375,-0.2478179931640625
1773256919030474500,1.137474609375,-0.9402313232421875,-0.2336578369140625,-0.2414093017578125
1773256919040486400,1.147486328125,-0.953094482421875,-0.224700927734375,-0.2249755859375
1773256919050499300,1.157499267578125,-0.96051025390625,-0.2103424072265625,-0.2227325439453125
1773256919060511200,1.16751123046875,-0.9570159912109375,-0.1871490478515625,-0.2184906005859375
1773256919070523400,1.1775234375,-0.9514007568359375,-0.1580352783203125,-0.1976470947265625
1773256919080536300,1.187536376953125,-0.9488067626953125,-0.145263671875,-0.181488037109375
1773256919090548500,1.197548583984375,-0.9426116943359375,-0.138214111328125,-0.1647491455078125
1773256919100560400,1.207560302734375,-0.9339752197265625,-0.1629486083984375,-0.158416748046875
1773256919110573600,1.217573486328125,-0.964874267578125,-0.18829345703125,-0.1968994140625
1773256919120585500,1.22758544921875,-0.9964141845703125,-0.1450347900390625,-0.278167724609375
1773256919130597400,1.237597412109375,-0.8954315185546875,-0.16473388671875,-0.3399200439453125
1773256919140609500,1.247609619140625,-0.8659515380859375,-0.262420654296875,-0.3131103515625
1773256919150622500,1.25762255859375,-0.8405609130859375,-0.459716796875,-0.176025390625
1773256919160634600,1.267634521484375,-1.0271453857421875,-0.557708740234375,-0.093597412109375
1773256919170646500,1.277646484375,-1.11907958984375,-0.4445343017578125,0.0001678466796875
1773256919180659500,1.287659423828125,-1.0036773681640625,-0.278350830078125,0.0612335205078125
1773256919190671400,1.29767138671875,-0.903961181640625,-0.207366943359375,-0.01904296875
1773256919200683300,1.307683349609375,-0.8968048095703125,-0.21087646484375,-0.1107940673828125
1773256919210696400,1.317696533203125,-0.9296875,-0.267974853515625,-0.1652984619140625
1773256919220708400,1.327708251953125,-0.96356201171875,-0.278839111328125,-0.172027587890625
1773256919230720500,1.337720458984375,-0.966217041015625,-0.3035430908203125,-0.173431396484375
1773256919240732400,1.347732421875,-0.9805908203125,-0.3405303955078125,-0.2511138916015625
1773256919250745600,1.35774560546875,-1.005889892578125,-0.3005828857421875,-0.34112548828125
1773256919260757500,1.367757568359375,-0.9841461181640625,-0.228271484375,-0.3867340087890625
1773256919270769400,1.377769287109375,-0.9706573486328125,-0.178436279296875,-0.4001922607421875
1773256919280782300,1.3877822265625,-1.000396728515625,-0.1585540771484375,-0.3205413818359375
1773256919290794500,1.39779443359375,-1.0189056396484375,-0.1746978759765625,-0.2089996337890625
1773256919300806400,1.407806396484375,-1.0361480712890625,-0.19342041015625,-0.164520263671875
1773256919310818600,1.417818603515625,-1.0339202880859375,-0.188751220703125,-0.1634674072265625
1773256919320831500,1.42783154296875,-0.9959869384765625,-0.1756744384765625,-0.1573028564453125
1773256919330843400,1.437843505859375,-0.9708099365234375,-0.143798828125,-0.15802001953125
1773256919340855300,1.447855224609375,-0.9708251953125,-0.092041015625,-0.1652069091796875
1773256919350868500,1.457868408203125,-0.9576263427734375,-0.0626678466796875,-0.1663970947265625
1773256919360880400,1.46788037109375,-0.95611572265625,-0.0511627197265625,-0.1841888427734375
1773256919370892500,1.477892578125,-0.9581146240234375,-0.069549560546875,-0.1988067626953125
1773256919380905500,1.487905517578125,-0.9790191650390625,-0.1016693115234375,-0.2193145751953125
1773256919390917600,1.497917724609375,-0.9962921142578125,-0.1072235107421875,-0.2401885986328125
1773256919400929500,1.507929443359375,-1.027069091796875,-0.0881500244140625,-0.2657623291015625
1773256919410941400,1.51794140625,-1.053680419921875,-0.089447021484375,-0.3099212646484375
1773256919420954400,1.527954345703125,-1.0551605224609375,-0.076904296875,-0.3587493896484375
1773256919430966300,1.53796630859375,-1.0655517578125,-0.025970458984375,-0.417022705078125
1773256919440978400,1.547978515625,-1.0522003173828125,-0.0342864990234375,-0.4376678466796875
1773256919450991400,1.557991455078125,-1.048583984375,-0.0824432373046875,-0.427581787109375
1773256919461003300,1.568003173828125,-1.05560302734375,-0.1151885986328125,-0.4478759765625
1773256919471015400,1.578015380859375,-1.0888519287109375,-0.170989990234375,-0.4723968505859375
1773256919481027300,1.58802734375,-1.157928466796875,-0.15679931640625,-0.4625701904296875
1773256919491040500,1.59804052734375,-1.229278564453125,-0.07476806640625,-0.4022674560546875
1773256919501052400,1.608052490234375,-1.14892578125,-0.0680389404296875,-0.443817138671875
1773256919511064600,1.618064697265625,-1.0663299560546875,-0.1035919189453125,-0.4511871337890625
1773256919521077500,1.628077392578125,-1.0261077880859375,-0.103424072265625,-0.4410247802734375
1773256919531089400,1.63808935546875,-0.994537353515625,-0.1055755615234375,-0.4157257080078125
1773256919541101600,1.6481015625,-0.9598388671875,-0.1317596435546875,-0.391448974609375
1773256919551114200,1.6581142578125,-0.9615325927734375,-0.181488037109375,-0.387451171875
1773256919561126400,1.66812646484375,-0.9998321533203125,-0.26214599609375,-0.36663818359375
1773256919571138300,1.67813818359375,-1.052276611328125,-0.3245391845703125,-0.340179443359375
1773256919581150200,1.688150146484375,-1.1040496826171875,-0.355926513671875,-0.3192596435546875
1773256919591163400,1.698163330078125,-1.13323974609375,-0.3765411376953125,-0.2784576416015625
1773256919601175300,1.70817529296875,-1.186798095703125,-0.367401123046875,-0.204681396484375
1773256919611187500,1.7181875,-1.2751617431640625,-0.370697021484375,-0.11004638671875
1773256919621200400,1.728200439453125,-1.2865447998046875,-0.4430694580078125,-0.0449676513671875
1773256919631212500,1.738212646484375,-1.261444091796875,-0.448455810546875,0.0061492919921875
1773256919641224400,1.748224365234375,-1.201171875,-0.34521484375,0.0361785888671875
1773256919651236400,1.758236328125,-1.0894775390625,-0.2500457763671875,0.0768280029296875
1773256919661249300,1.768249267578125,-0.9417572021484375,-0.2493896484375,0.1508026123046875
1773256919671261200,1.77826123046875,-0.78338623046875,-0.274749755859375,0.215240478515625
1773256919681273300,1.7882734375,-0.649749755859375,-0.30865478515625,0.2772216796875
1773256919691286300,1.798286376953125,-0.5672607421875,-0.3462677001953125,0.33294677734375
1773256919701298400,1.80829833984375,-0.5025634765625,-0.3823699951171875,0.34918212890625
1773256919711310300,1.818310302734375,-0.4500885009765625,-0.399688720703125,0.353271484375
1773256919721323500,1.828323486328125,-0.428924560546875,-0.3760528564453125,0.3673248291015625
1773256919731335400,1.83833544921875,-0.431976318359375,-0.36029052734375,0.3597259521484375
1773256919741347300,1.848347412109375,-0.39990234375,-0.391693115234375,0.3221282958984375
1773256919751359500,1.858359375,-0.3392333984375,-0.376617431640625,0.290374755859375
1773256919761372400,1.868372314453125,-0.2626190185546875,-0.3365631103515625,0.2803192138671875
1773256919771384600,1.878384521484375,-0.22308349609375,-0.3540496826171875,0.29193115234375
1773256919781396500,1.888396484375,-0.210968017578125,-0.477630615234375,0.316680908203125
1773256919791409400,1.898409423828125,-0.1788482666015625,-0.61260986328125,0.3307342529296875
1773256919801421300,1.90842138671875,-0.19561767578125,-0.671722412109375,0.3942108154296875
1773256919811433200,1.91843310546875,-0.2786102294921875,-0.7150115966796875,0.49139404296875
1773256919821445400,1.9284453125,-0.3420257568359375,-0.7382965087890625,0.50457763671875
1773256919831458300,1.938458251953125,-0.3840484619140625,-0.6581573486328125,0.49139404296875
1773256919841470500,1.948470458984375,-0.40435791015625,-0.610198974609375,0.5325775146484375
1773256919851482400,1.958482421875,-0.445465087890625,-0.6558685302734375,0.5885009765625
1773256919861495600,1.96849560546875,-0.5142974853515625,-0.768646240234375,0.6322021484375
1773256919871507500,1.978507568359375,-0.557342529296875,-0.8426055908203125,0.6375579833984375
1773256919881519400,1.988519287109375,-0.583099365234375,-0.83575439453125,0.641876220703125
1773256919891532500,1.998532470703125,-0.60687255859375,-0.8079376220703125,0.6735992431640625
1773256919901544400,2.00854443359375,-0.622283935546875,-0.792327880859375,0.7104949951171875
1773256919911556600,2.018556640625,-0.602569580078125,-0.832427978515625,0.7176361083984375
1773256919921568500,2.028568603515625,-0.540679931640625,-0.8404541015625,0.6974639892578125
1773256919931581400,2.03858154296875,-0.486053466796875,-0.80670166015625,0.6531982421875
1773256919941593300,2.04859326171875,-0.4726409912109375,-0.8154754638671875,0.5942840576171875
1773256919951605200,2.058605224609375,-0.4539642333984375,-0.79962158203125,0.485260009765625
1773256919961618400,2.068618408203125,-0.4364166259765625,-0.7799224853515625,0.3731536865234375
1773256919971630300,2.07863037109375,-0.4171600341796875,-0.7902679443359375,0.335723876953125
1773256919981642500,2.088642578125,-0.381256103515625,-0.7851104736328125,0.3351287841796875
1773256919991654400,2.098654296875,-0.350860595703125,-0.7885589599609375,0.34552001953125
1773256920001667600,2.10866748046875,-0.317901611328125,-0.7898101806640625,0.3719635009765625
1773256920011679500,2.118679443359375,-0.2955169677734375,-0.7785186767578125,0.39794921875
1773256920021691400,2.12869140625,-0.2786865234375,-0.74993896484375,0.4105224609375
1773256920031704300,2.138704345703125,-0.276123046875,-0.7238922119140625,0.413970947265625
1773256920041716200,2.14871630859375,-0.2687530517578125,-0.7251434326171875,0.409149169921875
1773256920051728400,2.158728271484375,-0.253814697265625,-0.7442474365234375,0.403839111328125
1773256920061740300,2.168740234375,-0.2616119384765625,-0.79278564453125,0.4170379638671875
1773256920071753200,2.178753173828125,-0.2735595703125,-0.84417724609375,0.4333343505859375
1773256920081765400,2.188765380859375,-0.2840576171875,-0.8682861328125,0.43927001953125
1773256920091777300,2.19877734375,-0.297332763671875,-0.8874053955078125,0.4407958984375
1773256920101790500,2.20879052734375,-0.324493408203125,-0.8979339599609375,0.45196533203125
1773256920111802400,2.21880224609375,-0.3623199462890625,-0.88104248046875,0.4492034912109375
1773256920121814500,2.228814453125,-0.40704345703125,-0.8614349365234375,0.4287109375
1773256920131827500,2.238827392578125,-0.43988037109375,-0.8199615478515625,0.3975830078125
1773256920141839400,2.24883935546875,-0.46728515625,-0.75927734375,0.37506103515625
1773256920151851500,2.2588515625,-0.489501953125,-0.7170562744140625,0.3755340576171875
1773256920161863400,2.268863525390625,-0.5130615234375,-0.6948394775390625,0.3997955322265625
1773256920171876400,2.27887646484375,-0.5349884033203125,-0.6936187744140625,0.434539794921875
1773256920181888300,2.28888818359375,-0.5357818603515625,-0.6847686767578125,0.482025146484375
1773256920191900400,2.298900390625,-0.53460693359375,-0.687042236328125,0.54296875
1773256920201913300,2.308913330078125,-0.536468505859375,-0.7196197509765625,0.5767974853515625
1773256920211925200,2.31892529296875,-0.5276641845703125,-0.7525634765625,0.587615966796875
1773256920221937400,2.3289375,-0.524200439453125,-0.7863616943359375,0.6115264892578125
1773256920231949300,2.33894921875,-0.531951904296875,-0.8036956787109375,0.620574951171875
1773256920241962500,2.34896240234375,-0.5234832763671875,-0.7951812744140625,0.6029205322265625
1773256920251974400,2.358974365234375,-0.4884033203125,-0.7679443359375,0.59686279296875
1773256920261986600,2.368986572265625,-0.422210693359375,-0.73321533203125,0.608123779296875
1773256920271999200,2.378999267578125,-0.359100341796875,-0.6981353759765625,0.605224609375
1773256920282011400,2.389011474609375,-0.314483642578125,-0.6641845703125,0.602386474609375
1773256920292023300,2.399023193359375,-0.2748870849609375,-0.6447601318359375,0.6119384765625
1773256920302035500,2.409035400390625,-0.2485198974609375,-0.6448822021484375,0.63427734375
1773256920312048400,2.41904833984375,-0.2431488037109375,-0.6514129638671875,0.6618499755859375
1773256920322060300,2.429060302734375,-0.2548065185546875,-0.665802001953125,0.703521728515625
1773256920332072400,2.439072509765625,-0.2550048828125,-0.6684722900390625,0.73583984375
1773256920342085400,2.44908544921875,-0.2591552734375,-0.663909912109375,0.7542877197265625
1773256920352097300,2.45909716796875,-0.270538330078125,-0.67266845703125,0.75518798828125
1773256920362109400,2.469109375,-0.275634765625,-0.67333984375,0.750091552734375
1773256920372122400,2.479122314453125,-0.2773284912109375,-0.6616973876953125,0.74285888671875
1773256920382134500,2.489134521484375,-0.2759246826171875,-0.6665496826171875,0.7452545166015625
1773256920392146400,2.499146484375,-0.2790374755859375,-0.6971435546875,0.7601318359375
1773256920402158600,2.50915869140625,-0.27520751953125,-0.7167205810546875,0.7706756591796875
1773256920412171300,2.519171142578125,-0.2740325927734375,-0.7131805419921875,0.7616729736328125
1773256920422183200,2.52918310546875,-0.2872772216796875,-0.7084808349609375,0.7444000244140625
1773256920432195300,2.5391953125,-0.3060302734375,-0.7057342529296875,0.7198486328125
1773256920442208300,2.549208251953125,-0.3230743408203125,-0.699676513671875,0.691070556640625
1773256920452220400,2.559220458984375,-0.3544464111328125,-0.714447021484375,0.6575775146484375
1773256920462232300,2.569232421875,-0.4155731201171875,-0.7715911865234375,0.6237335205078125
1773256920472244200,2.579244140625,-0.4837799072265625,-0.8309326171875,0.593048095703125
1773256920482257400,2.58925732421875,-0.5539093017578125,-0.84698486328125,0.565093994140625
1773256920492269300,2.599269287109375,-0.63653564453125,-0.8298797607421875,0.49908447265625
1773256920502281500,2.609281494140625,-0.7078857421875,-0.7977447509765625,0.3724365234375
1773256920512294400,2.61929443359375,-0.7558135986328125,-0.762664794921875,0.265594482421875
1773256920522306600,2.629306640625,-0.7795562744140625,-0.7371673583984375,0.221038818359375
1773256920532318500,2.639318359375,-0.7711944580078125,-0.7189178466796875,0.205596923828125
1773256920542330600,2.64933056640625,-0.7408905029296875,-0.7117462158203125,0.203826904296875
1773256920552343600,2.659343505859375,-0.6859588623046875,-0.7198638916015625,0.212860107421875
1773256920562355500,2.66935546875,-0.6250457763671875,-0.7154388427734375,0.2390899658203125
1773256920572367600,2.67936767578125,-0.588531494140625,-0.7074432373046875,0.279022216796875
1773256920582380500,2.689380615234375,-0.588623046875,-0.7316436767578125,0.310211181640625
1773256920592392700,2.699392822265625,-0.6071319580078125,-0.7861480712890625,0.329833984375
1773256920602404600,2.709404541015625,-0.641357421875,-0.7937164306640625,0.356842041015625
1773256920612417800,2.719417724609375,-0.675506591796875,-0.78533935546875,0.3746490478515625
1773256920622429700,2.7294296875,-0.68182373046875,-0.7623138427734375,0.3800811767578125
1773256920632441600,2.739441650390625,-0.6631317138671875,-0.7387542724609375,0.38946533203125
1773256920642453800,2.749453857421875,-0.629852294921875,-0.73236083984375,0.385101318359375
1773256920652466400,2.759466552734375,-0.601776123046875,-0.745697021484375,0.3604888916015625
1773256920662478600,2.769478515625,-0.6024932861328125,-0.7490386962890625,0.3286895751953125
1773256920672490500,2.779490478515625,-0.6340789794921875,-0.7393646240234375,0.28863525390625
1773256920682503700,2.789503662109375,-0.6841583251953125,-0.7116241455078125,0.240020751953125
1773256920692515600,2.799515625,-0.7222747802734375,-0.6896514892578125,0.2042388916015625
1773256920702527500,2.809527587890625,-0.7275238037109375,-0.694305419921875,0.1843719482421875
1773256920712539600,2.81953955078125,-0.70208740234375,-0.69610595703125,0.170257568359375
1773256920722552600,2.829552490234375,-0.66229248046875,-0.688629150390625,0.1671295166015625
1773256920732564700,2.839564697265625,-0.638397216796875,-0.6786346435546875,0.1591644287109375
1773256920742576600,2.84957666015625,-0.6385345458984375,-0.658843994140625,0.1465606689453125
1773256920752589800,2.85958984375,-0.6403350830078125,-0.63653564453125,0.1626129150390625
1773256920762601700,2.869601806640625,-0.6356048583984375,-0.6284332275390625,0.2010345458984375
1773256920772613600,2.879613525390625,-0.63299560546875,-0.6357269287109375,0.2425537109375
1773256920782625800,2.889625732421875,-0.662261962890625,-0.6426544189453125,0.2593994140625
1773256920792638500,2.899638427734375,-0.70733642578125,-0.6229248046875,0.2476043701171875
1773256920802650600,2.909650634765625,-0.7545928955078125,-0.6045074462890625,0.2505950927734375
1773256920812662500,2.91966259765625,-0.7813873291015625,-0.616455078125,0.264007568359375
1773256920822675700,2.92967578125,-0.8000640869140625,-0.6461029052734375,0.277923583984375
1773256920832687600,2.9396875,-0.82415771484375,-0.6612091064453125,0.2945556640625
1773256920842699500,2.949699462890625,-0.8579559326171875,-0.6373291015625,0.2920989990234375
1773256920852712700,2.959712646484375,-0.8970794677734375,-0.5841522216796875,0.241302490234375
1773256920862724600,2.969724609375,-0.9220428466796875,-0.5294647216796875,0.1864776611328125
1773256920872736800,2.97973681640625,-0.90216064453125,-0.5200042724609375,0.1600189208984375
1773256920882748700,2.989748779296875,-0.853607177734375,-0.538177490234375,0.17034912109375
1773256920892761600,2.99976171875,-0.8207855224609375,-0.5384674072265625,0.182098388671875
1773256920902773500,3.0097734375,-0.8236541748046875,-0.522186279296875,0.15283203125
1773256920912785400,3.019785400390625,-0.850738525390625,-0.50408935546875,0.125701904296875
1773256920922798600,3.029798583984375,-0.8689117431640625,-0.479949951171875,0.1284637451171875
1773256920932810500,3.039810546875,-0.867462158203125,-0.4449462890625,0.1579742431640625
1773256920942822700,3.04982275390625,-0.8466033935546875,-0.4166259765625,0.182830810546875
1773256920952834600,3.05983447265625,-0.8153533935546875,-0.396209716796875,0.1987762451171875
1773256920962847700,3.06984765625,-0.775665283203125,-0.367889404296875,0.2073211669921875
1773256920972859600,3.079859619140625,-0.730987548828125,-0.346405029296875,0.2050323486328125
1773256920982871600,3.08987158203125,-0.7346038818359375,-0.3559722900390625,0.14654541015625
1773256920992884700,3.099884765625,-0.7632293701171875,-0.385986328125,0.072479248046875
1773256921002896600,3.109896728515625,-0.791229248046875,-0.4267120361328125,0.05352783203125
1773256921012908800,3.11990869140625,-0.826385498046875,-0.4635772705078125,0.039459228515625
1773256921022920700,3.129920654296875,-0.8805084228515625,-0.4951934814453125,-0.0102691650390625
1773256921032933600,3.13993359375,-0.922943115234375,-0.5345458984375,-0.0431671142578125
1773256921042945500,3.149945556640625,-0.9434356689453125,-0.558563232421875,-0.030426025390625
1773256921052957400,3.15995751953125,-0.9580841064453125,-0.5835113525390625,-0.0188751220703125
1773256921062970600,3.169970703125,-0.9580078125,-0.609130859375,-0.039276123046875
1773256921072982500,3.179982421875,-0.940582275390625,-0.6324462890625,-0.03662109375
1773256921082994700,3.18999462890625,-0.9130859375,-0.6582489013671875,-0.0160064697265625
1773256921093007600,3.200007568359375,-0.878448486328125,-0.663482666015625,-0.000396728515625
1773256921103019800,3.210019775390625,-0.8517913818359375,-0.6570281982421875,0.021209716796875
1773256921113031700,3.22003173828125,-0.8298797607421875,-0.6600494384765625,0.046905517578125
1773256921123043600,3.230043701171875,-0.8232879638671875,-0.67669677734375,0.05938720703125
1773256921133056800,3.240056884765625,-0.854278564453125,-0.6767425537109375,0.0539703369140625
1773256921143068700,3.250068603515625,-0.84552001953125,-0.6902313232421875,0.071044921875
1773256921153080600,3.26008056640625,-0.8319244384765625,-0.69683837890625,0.1287994384765625
1773256921163093500,3.270093505859375,-0.8254547119140625,-0.6843109130859375,0.20501708984375
1773256921173105700,3.280105712890625,-0.7987518310546875,-0.6614990234375,0.274200439453125
1773256921183117600,3.29011767578125,-0.7581787109375,-0.6174774169921875,0.34503173828125
1773256921193129500,3.30012939453125,-0.714324951171875,-0.5576019287109375,0.4168701171875
1773256921203142700,3.310142578125,-0.6613922119140625,-0.4931640625,0.4821624755859375
1773256921213154600,3.320154541015625,-0.623626708984375,-0.430755615234375,0.5524749755859375
1773256921223166700,3.330166748046875,-0.5883331298828125,-0.3824920654296875,0.6077880859375
1773256921233179600,3.3401796875,-0.534881591796875,-0.3700103759765625,0.6507415771484375
1773256921243191800,3.35019189453125,-0.494720458984375,-0.3455810546875,0.693817138671875
1773256921253203700,3.36020361328125,-0.449249267578125,-0.3142242431640625,0.762664794921875
1773256921263216600,3.370216552734375,-0.38751220703125,-0.3077392578125,0.8468475341796875
1773256921273228500,3.380228515625,-0.3260650634765625,-0.327606201171875,0.9229278564453125
1773256921283240400,3.390240478515625,-0.273162841796875,-0.4062347412109375,0.970733642578125
1773256921293252600,3.400252685546875,-0.2683563232421875,-0.509185791015625,0.9918365478515625
1773256921303265500,3.410265625,-0.303680419921875,-0.594818115234375,1.008697509765625
1773256921313277700,3.420277587890625,-0.3702850341796875,-0.62335205078125,1.0086822509765625
1773256921323289600,3.43028955078125,-0.462158203125,-0.6022186279296875,0.9787445068359375
1773256921333302800,3.440302734375,-0.5785064697265625,-0.57550048828125,0.909576416015625
1773256921343314700,3.450314697265625,-0.6669921875,-0.56201171875,0.8269195556640625
1773256921353326600,3.46032666015625,-0.7256622314453125,-0.546600341796875,0.773406982421875
1773256921363338800,3.4703388671875,-0.7637176513671875,-0.5263519287109375,0.7383270263671875
1773256921373351700,3.4803515625,-0.778900146484375,-0.512481689453125,0.6885833740234375
1773256921383363800,3.49036376953125,-0.751983642578125,-0.4946136474609375,0.6147308349609375
1773256921393375700,3.500375732421875,-0.6592254638671875,-0.45880126953125,0.5655670166015625
1773256921403388700,3.510388671875,-0.5456695556640625,-0.4323577880859375,0.5557708740234375
1773256921413400600,3.520400634765625,-0.4606781005859375,-0.4373626708984375,0.5994415283203125
1773256921423412500,3.53041259765625,-0.3828125,-0.4542999267578125,0.6389007568359375
1773256921433425700,3.54042578125,-0.3590240478515625,-0.4574432373046875,0.684661865234375
1773256921443437600,3.5504375,-0.3822784423828125,-0.4115447998046875,0.7381591796875
1773256921453449700,3.56044970703125,-0.4635772705078125,-0.3697662353515625,0.7871551513671875
1773256921463461600,3.570461669921875,-0.5555419921875,-0.35455322265625,0.82568359375
1773256921473474800,3.580474853515625,-0.60626220703125,-0.3203582763671875,0.869659423828125
1773256921483486700,3.59048681640625,-0.6141204833984375,-0.2837677001953125,0.8974761962890625
1773256921493498600,3.60049853515625,-0.57958984375,-0.26422119140625,0.8984375
1773256921503511600,3.610511474609375,-0.53009033203125,-0.2509002685546875,0.87042236328125
1773256921513523500,3.6205234375,-0.488433837890625,-0.2429962158203125,0.8285675048828125
1773256921523535600,3.63053564453125,-0.466400146484375,-0.2597808837890625,0.767333984375
1773256921533548500,3.640548583984375,-0.4688568115234375,-0.30780029296875,0.711273193359375
1773256921543560200,3.650560302734375,-0.4646453857421875,-0.310546875,0.6836090087890625
1773256921553572000,3.660572021484375,-0.470062255859375,-0.305908203125,0.6765289306640625
1773256921563584000,3.670583984375,-0.4722900390625,-0.334564208984375,0.6623687744140625
1773256921573597200,3.68059716796875,-0.4467620849609375,-0.3803558349609375,0.6231231689453125
1773256921583609000,3.690609130859375,-0.425384521484375,-0.4111328125,0.5911865234375
1773256921593621200,3.700621337890625,-0.3978729248046875,-0.4167938232421875,0.56243896484375
1773256921603634200,3.71063427734375,-0.338592529296875,-0.4143218994140625,0.5352325439453125
1773256921613646300,3.720646240234375,-0.2752532958984375,-0.4457550048828125,0.550079345703125
1773256921623658200,3.730658203125,-0.2086334228515625,-0.5103759765625,0.6047515869140625
1773256921633671200,3.740671142578125,-0.167022705078125,-0.54754638671875,0.6573333740234375
1773256921643683000,3.75068310546875,-0.1406097412109375,-0.5438690185546875,0.697662353515625
1773256921653695200,3.7606953125,-0.128204345703125,-0.523162841796875,0.6902008056640625
1773256921663707100,3.77070703125,-0.12432861328125,-0.49346923828125,0.685516357421875
1773256921673720000,3.780719970703125,-0.1048126220703125,-0.4947509765625,0.7008514404296875
1773256921683732200,3.790732177734375,-0.11407470703125,-0.482635498046875,0.710357666015625
1773256921693744000,3.800744140625,-0.1424560546875,-0.4409942626953125,0.7260589599609375
1773256921703757300,3.81075732421875,-0.15521240234375,-0.390228271484375,0.7715606689453125
1773256921713769200,3.820769287109375,-0.1738433837890625,-0.34503173828125,0.858245849609375
1773256921723781000,3.830781005859375,-0.1806488037109375,-0.35284423828125,0.9661712646484375
1773256921733793300,3.840793212890625,-0.1872406005859375,-0.3801422119140625,1.0534210205078125
1773256921743806200,3.85080615234375,-0.1949310302734375,-0.376068115234375,1.0895843505859375
1773256921753818400,3.860818359375,-0.1912841796875,-0.3539581298828125,1.07958984375
1773256921763830300,3.870830322265625,-0.1839599609375,-0.3431243896484375,1.0435638427734375
1773256921773843200,3.88084326171875,-0.1599273681640625,-0.3287506103515625,1.0137786865234375
1773256921783855000,3.890855224609375,-0.1378326416015625,-0.3079376220703125,1.0150909423828125
1773256921793867000,3.900866943359375,-0.1192474365234375,-0.2873992919921875,1.01605224609375
1773256921803880200,3.910880126953125,-0.0991973876953125,-0.253387451171875,0.9874114990234375
1773256921813892000,3.92089208984375,-0.0795440673828125,-0.2275543212890625,0.9682464599609375
1773256921823904300,3.930904296875,-0.0680084228515625,-0.22760009765625,0.972442626953125
1773256921833917200,3.940917236328125,-0.0620269775390625,-0.244903564453125,0.984619140625
1773256921843929300,3.950929443359375,-0.055694580078125,-0.2488250732421875,0.99237060546875
1773256921853941200,3.960941162109375,-0.0573883056640625,-0.24237060546875,0.9990081787109375
1773256921863953200,3.970953125,-0.06597900390625,-0.246185302734375,1.0040435791015625
1773256921873966300,3.98096630859375,-0.0976409912109375,-0.2535858154296875,0.97711181640625
1773256921883978200,3.990978271484375,-0.1282196044921875,-0.2278289794921875,0.9229583740234375
1773256921893990400,4.000990478515625,-0.1380157470703125,-0.1827392578125,0.9091949462890625
1773256921904003000,4.011003173828125,-0.137847900390625,-0.1849212646484375,0.9666900634765625
1773256921914015000,4.021014892578125,-0.1204681396484375,-0.206756591796875,1.026641845703125
1773256921924027100,4.031027099609375,-0.1081390380859375,-0.199951171875,1.06134033203125
1773256921934040000,4.0410400390625,-0.1068572998046875,-0.1798248291015625,1.0723114013671875
1773256921944052200,4.05105224609375,-0.101165771484375,-0.1719512939453125,1.066864013671875
1773256921954064100,4.061064208984375,-0.096893310546875,-0.1781005859375,1.06103515625
1773256921964076300,4.071076171875,-0.087249755859375,-0.196685791015625,1.0558319091796875
1773256921974089200,4.081089111328125,-0.0798187255859375,-0.22991943359375,1.04638671875
1773256921984101000,4.09110107421875,-0.0776519775390625,-0.2437896728515625,1.04345703125
1773256921994113300,4.10111328125,-0.0881805419921875,-0.2633056640625,1.058685302734375
1773256922004126000,4.1111259765625,-0.1275634765625,-0.2744903564453125,1.046142578125
1773256922014138000,4.12113818359375,-0.1705322265625,-0.2794647216796875,1.0196685791015625
1773256922024150000,4.13114990234375,-0.2064666748046875,-0.296844482421875,1.0008392333984375
1773256922034163200,4.1411630859375,-0.231781005859375,-0.312225341796875,0.9672698974609375
1773256922044175000,4.151175048828125,-0.2525634765625,-0.3253936767578125,0.9244537353515625
1773256922054187000,4.16118701171875,-0.260284423828125,-0.3246917724609375,0.8979339599609375
1773256922064200200,4.1712001953125,-0.2641448974609375,-0.3199462890625,0.8765716552734375
1773256922074212000,4.181212158203125,-0.2756805419921875,-0.318084716796875,0.849578857421875
1773256922084224300,4.191224365234375,-0.2921905517578125,-0.3470306396484375,0.83087158203125
1773256922094236200,4.201236083984375,-0.3024444580078125,-0.3803558349609375,0.832733154296875
1773256922104249300,4.211249267578125,-0.3068389892578125,-0.403076171875,0.84307861328125
1773256922114261200,4.22126123046875,-0.311309814453125,-0.4132232666015625,0.8494720458984375
1773256922124273200,4.231273193359375,-0.308624267578125,-0.3986053466796875,0.8536529541015625
1773256922134286000,4.2412861328125,-0.2996368408203125,-0.3842315673828125,0.864471435546875
1773256922144298000,4.251298095703125,-0.2784271240234375,-0.3662109375,0.875244140625
1773256922154310100,4.26131005859375,-0.2510223388671875,-0.34320068359375,0.891204833984375
1773256922164323000,4.271322998046875,-0.218353271484375,-0.3176116943359375,0.900543212890625
1773256922174335200,4.281335205078125,-0.1932525634765625,-0.3159027099609375,0.9156494140625
1773256922184347100,4.29134716796875,-0.1716461181640625,-0.3394775390625,0.9409637451171875
1773256922194359000,4.301359130859375,-0.165863037109375,-0.3527374267578125,0.9625701904296875
1773256922204372200,4.311372314453125,-0.1692047119140625,-0.3261871337890625,0.950225830078125
1773256922214384000,4.321384033203125,-0.170135498046875,-0.2970733642578125,0.9150543212890625
1773256922224396300,4.331396240234375,-0.1873016357421875,-0.317901611328125,0.9128875732421875
1773256922234409200,4.3414091796875,-0.2251434326171875,-0.357940673828125,0.906158447265625
1773256922244421000,4.351421142578125,-0.257720947265625,-0.3562774658203125,0.878814697265625
1773256922254433300,4.361433349609375,-0.2761688232421875,-0.33538818359375,0.8767547607421875
1773256922264446200,4.3714462890625,-0.278839111328125,-0.32867431640625,0.8805389404296875
1773256922274458000,4.3814580078125,-0.27435302734375,-0.3449859619140625,0.878021240234375
1773256922284470000,4.391469970703125,-0.2603912353515625,-0.3556060791015625,0.8766632080078125
1773256922294482200,4.401482177734375,-0.2501220703125,-0.3495635986328125,0.8807830810546875
1773256922304495000,4.4114951171875,-0.2407684326171875,-0.3415679931640625,0.8831024169921875
1773256922314507300,4.42150732421875,-0.233612060546875,-0.336456298828125,0.8818817138671875
1773256922324519200,4.431519287109375,-0.2293853759765625,-0.338714599609375,0.882904052734375
1773256922334532400,4.441532470703125,-0.2336578369140625,-0.3373565673828125,0.878143310546875
1773256922344544300,4.451544189453125,-0.2401580810546875,-0.333831787109375,0.8645477294921875
1773256922354556200,4.46155615234375,-0.2417449951171875,-0.3348236083984375,0.8524322509765625
1773256922364569000,4.471569091796875,-0.23931884765625,-0.34564208984375,0.845611572265625
1773256922374581000,4.4815810546875,-0.2351837158203125,-0.3531341552734375,0.83966064453125
1773256922384593200,4.49159326171875,-0.23699951171875,-0.362396240234375,0.8302459716796875
1773256922394606000,4.501606201171875,-0.245269775390625,-0.355926513671875,0.8157958984375
1773256922404618200,4.5116181640625,-0.2566375732421875,-0.3466644287109375,0.79986572265625
1773256922414630100,4.521630126953125,-0.2654266357421875,-0.344512939453125,0.798919677734375
1773256922424642000,4.53164208984375,-0.285614013671875,-0.3476104736328125,0.8133392333984375
1773256922434655200,4.5416552734375,-0.3025360107421875,-0.3457489013671875,0.831329345703125
1773256922444667100,4.551667236328125,-0.3072052001953125,-0.3379669189453125,0.843017578125
1773256922454679300,4.56167919921875,-0.299102783203125,-0.3195648193359375,0.848480224609375
1773256922464692200,4.571692138671875,-0.2794647216796875,-0.3073272705078125,0.856170654296875
1773256922474704400,4.581704345703125,-0.2565765380859375,-0.314300537109375,0.87030029296875
1773256922484716300,4.59171630859375,-0.2352447509765625,-0.3273773193359375,0.8792877197265625
1773256922494729200,4.601729248046875,-0.220123291015625,-0.32977294921875,0.882476806640625
1773256922504741000,4.6117412109375,-0.219482421875,-0.3282470703125,0.87615966796875
1773256922514753000,4.6217529296875,-0.2270660400390625,-0.3250579833984375,0.858428955078125
1773256922524766200,4.63176611328125,-0.24462890625,-0.3297882080078125,0.8416748046875
1773256922534778000,4.641778076171875,-0.2624969482421875,-0.3368682861328125,0.832550048828125
1773256922544789800,4.651789794921875,-0.2722930908203125,-0.3479461669921875,0.841400146484375
1773256922554801700,4.6618017578125,-0.2767791748046875,-0.368377685546875,0.8644561767578125
1773256922564814800,4.67181494140625,-0.2749176025390625,-0.400634765625,0.8836212158203125
1773256922574826800,4.68182666015625,-0.2787628173828125,-0.43060302734375,0.8986968994140625
1773256922584839000,4.6918388671875,-0.288604736328125,-0.44464111328125,0.9032745361328125
1773256922594851800,4.701851806640625,-0.3086700439453125,-0.447998046875,0.908905029296875
1773256922604864000,4.711864013671875,-0.3348541259765625,-0.4532318115234375,0.9186248779296875
1773256922614876000,4.7218759765625,-0.355621337890625,-0.4620208740234375,0.9268341064453125
1773256922624888800,4.731888916015625,-0.3648223876953125,-0.4664154052734375,0.9302978515625
1773256922634900700,4.741900634765625,-0.3595123291015625,-0.4671173095703125,0.935760498046875
1773256922644912600,4.75191259765625,-0.345001220703125,-0.471588134765625,0.9339599609375
1773256922654924800,4.7619248046875,-0.3327178955078125,-0.484588623046875,0.9314727783203125
1773256922664937700,4.771937744140625,-0.331817626953125,-0.492523193359375,0.932952880859375
1773256922674950000,4.781949951171875,-0.332275390625,-0.5032196044921875,0.9415283203125
1773256922684961800,4.7919619140625,-0.331024169921875,-0.511871337890625,0.9578857421875
1773256922694975000,4.80197509765625,-0.326263427734375,-0.5172576904296875,0.9709014892578125
1773256922704987000,4.81198681640625,-0.3135528564453125,-0.5125579833984375,0.9866485595703125
1773256922714998800,4.821998779296875,-0.3017730712890625,-0.498565673828125,1.01434326171875
1773256922725011700,4.83201171875,-0.2913970947265625,-0.489044189453125,1.0350494384765625
1773256922735023600,4.842023681640625,-0.28704833984375,-0.48583984375,1.035430908203125
1773256922745035800,4.852035888671875,-0.28448486328125,-0.48260498046875,1.0252685546875
1773256922755048700,4.862048583984375,-0.2846527099609375,-0.483306884765625,1.0017242431640625
1773256922765060900,4.872060791015625,-0.294158935546875,-0.4841766357421875,0.97314453125
1773256922775072800,4.88207275390625,-0.2909088134765625,-0.475738525390625,0.95489501953125
1773256922785086000,4.8920859375,-0.2538299560546875,-0.453948974609375,0.9209136962890625
1773256922795097900,4.902097900390625,-0.2138214111328125,-0.454620361328125,0.8651275634765625
1773256922805109800,4.91210986328125,-0.1895904541015625,-0.499267578125,0.797698974609375
1773256922815122000,4.922121826171875,-0.2017669677734375,-0.5491485595703125,0.7256927490234375
1773256922825134800,4.932134765625,-0.2530517578125,-0.5672607421875,0.63140869140625
1773256922835147000,4.94214697265625,-0.338134765625,-0.560302734375,0.5666351318359375
1773256922845159000,4.952158935546875,-0.3843994140625,-0.5143585205078125,0.5947113037109375
1773256922855171600,4.962171630859375,-0.399139404296875,-0.462890625,0.6890716552734375
1773256922865183700,4.972183837890625,-0.4140625,-0.4473876953125,0.7047271728515625
1773256922875195600,4.982195556640625,-0.449920654296875,-0.4637298583984375,0.6269378662109375
1773256922885208800,4.992208740234375,-0.4976043701171875,-0.5292816162109375,0.466552734375
1773256922895220700,5.002220703125,-0.539703369140625,-0.5823211669921875,0.2944183349609375
1773256922905233000,5.01223291015625,-0.5695648193359375,-0.60028076171875,0.1562652587890625
1773256922915244800,5.022244873046875,-0.5928192138671875,-0.601409912109375,0.0395050048828125
1773256922925257700,5.0322578125,-0.645599365234375,-0.625091552734375,-0.07958984375
1773256922935270000,5.042269775390625,-0.69818115234375,-0.6863250732421875,-0.19281005859375
1773256922945281800,5.05228173828125,-0.734100341796875,-0.7454681396484375,-0.283355712890625
1773256922955294700,5.062294677734375,-0.7710418701171875,-0.792327880859375,-0.37603759765625
1773256922965307000,5.072306884765625,-0.8268890380859375,-0.8319854736328125,-0.4594879150390625
1773256922975318800,5.08231884765625,-0.8621673583984375,-0.832366943359375,-0.5247802734375
1773256922985331700,5.092331787109375,-0.886260986328125,-0.7767181396484375,-0.5384063720703125
1773256922995343600,5.102343505859375,-0.90704345703125,-0.7373199462890625,-0.5149078369140625
1773256923005355800,5.112355712890625,-0.921844482421875,-0.7168121337890625,-0.50396728515625
1773256923015368700,5.12236865234375,-0.926605224609375,-0.6955108642578125,-0.4662017822265625
1773256923025380900,5.132380859375,-0.89453125,-0.6800384521484375,-0.403656005859375
1773256923035392800,5.142392822265625,-0.8244781494140625,-0.6743316650390625,-0.3303070068359375
1773256923045405000,5.152405029296875,-0.7447052001953125,-0.69256591796875,-0.232147216796875
1773256923055417900,5.16241796875,-0.68536376953125,-0.7112884521484375,-0.1562347412109375
1773256923065429800,5.1724296875,-0.665008544921875,-0.7167816162109375,-0.08880615234375
1773256923075442000,5.18244189453125,-0.6671600341796875,-0.7240142822265625,-0.0248565673828125
1773256923085454600,5.19245458984375,-0.674163818359375,-0.7621612548828125,0.0130767822265625
1773256923095466800,5.202466796875,-0.688934326171875,-0.7923126220703125,0.0298004150390625
1773256923105478700,5.212478759765625,-0.7239837646484375,-0.7920684814453125,0.07720947265625
1773256923115491800,5.222491943359375,-0.7627105712890625,-0.800262451171875,0.11651611328125
1773256923125503700,5.232503662109375,-0.78155517578125,-0.8262786865234375,0.1069488525390625
1773256923135515600,5.242515625,-0.7583160400390625,-0.8365325927734375,0.08673095703125
1773256923145527800,5.25252783203125,-0.6927337646484375,-0.78497314453125,0.10894775390625
1773256923155540700,5.262540771484375,-0.646331787109375,-0.745513916015625,0.1590423583984375
1773256923165553000,5.272552978515625,-0.6263885498046875,-0.7906341552734375,0.1459503173828125
1773256923175564800,5.282564697265625,-0.583831787109375,-0.79638671875,0.0527801513671875
1773256923185578000,5.292577880859375,-0.5616912841796875,-0.7365264892578125,0.038970947265625
1773256923195590000,5.30258984375,-0.6695404052734375,-0.9259490966796875,0.236785888671875
1773256923205601800,5.312601806640625,-0.6136627197265625,-0.9980316162109375,0.2167816162109375
1773256923215614700,5.32261474609375,-0.5569915771484375,-0.9347076416015625,0.0745697021484375
1773256923225626600,5.332626708984375,-0.4929351806640625,-0.9150390625,0.110748291015625
1773256923235638800,5.342638671875,-0.399505615234375,-0.8346405029296875,0.262359619140625
1773256923245651700,5.352651611328125,-0.405303955078125,-0.739654541015625,0.46136474609375
1773256923255663900,5.362663818359375,-0.4460906982421875,-0.6825408935546875,0.58282470703125
1773256923265675800,5.37267578125,-0.4477996826171875,-0.6511077880859375,0.6216888427734375
1773256923275689000,5.38268896484375,-0.4098052978515625,-0.64434814453125,0.6480712890625
1773256923285700900,5.392700927734375,-0.3191986083984375,-0.6401214599609375,0.648712158203125
1773256923295712800,5.402712646484375,-0.1981201171875,-0.611907958984375,0.6460113525390625
1773256923305725000,5.412724853515625,-0.1130828857421875,-0.576995849609375,0.63055419921875
1773256923315737600,5.422737548828125,-0.029632568359375,-0.6620330810546875,0.6453857421875
1773256923325749800,5.432749755859375,-0.007720947265625,-0.769500732421875,0.6837158203125
1773256923335761700,5.44276171875,-0.0149078369140625,-0.75244140625,0.660064697265625
1773256923345774800,5.45277490234375,-0.025177001953125,-0.72650146484375,0.630279541015625
1773256923355786800,5.462786865234375,-0.004638671875,-0.6765289306640625,0.5835723876953125
1773256923365798700,5.472798583984375,0.0180206298828125,-0.7113494873046875,0.5649261474609375
1773256923375811800,5.482811767578125,0.0058746337890625,-0.7309417724609375,0.5438079833984375
1773256923385823700,5.49282373046875,-0.0408477783203125,-0.708587646484375,0.543609619140625
1773256923395836000,5.5028359375,-0.105499267578125,-0.7058563232421875,0.5646514892578125
1773256923405847800,5.512847900390625,-0.131317138671875,-0.695159912109375,0.630126953125
1773256923415861000,5.522861083984375,-0.1270599365234375,-0.671783447265625,0.7049407958984375
1773256923425873000,5.532872802734375,-0.1029205322265625,-0.6496124267578125,0.7144317626953125
1773256923435884800,5.542884765625,-0.0733184814453125,-0.639251708984375,0.6714630126953125
1773256923445897700,5.552897705078125,-0.1246337890625,-0.6813812255859375,0.630859375
1773256923455909600,5.56290966796875,-0.17572021484375,-0.7144317626953125,0.5598297119140625
1773256923465921800,5.572921875,-0.17401123046875,-0.72442626953125,0.5082244873046875
1773256923475934700,5.582934814453125,-0.1558074951171875,-0.661834716796875,0.5191497802734375
1773256923485947000,5.59294677734375,-0.0675811767578125,-0.3828582763671875,0.4863128662109375
1773256923495958800,5.602958740234375,0.0267333984375,-0.3083648681640625,0.3813934326171875
1773256923505972000,5.612971923828125,0.0961456298828125,-0.486602783203125,0.5623626708984375
1773256923515984000,5.62298388671875,0.14459228515625,-0.667083740234375,0.744659423828125
1773256923525995800,5.632995849609375,0.1615142822265625,-0.7694854736328125,0.81341552734375
1773256923536008000,5.643008056640625,0.147369384765625,-0.7821044921875,0.782440185546875
1773256923546021000,5.653021240234375,0.13714599609375,-0.7512969970703125,0.765380859375
1773256923556033300,5.663033203125,0.163360595703125,-0.74139404296875,0.733917236328125
1773256923566045200,5.673045166015625,0.207794189453125,-0.758819580078125,0.6672821044921875
1773256923576058000,5.68305810546875,0.2467193603515625,-0.8224639892578125,0.56036376953125
1773256923586070300,5.6930703125,0.3284759521484375,-0.9176788330078125,0.44464111328125
1773256923596082200,5.703082275390625,0.322784423828125,-0.825836181640625,0.469390869140625
1773256923606095400,5.713095458984375,0.246246337890625,-0.6836090087890625,0.4932098388671875
1773256923616107300,5.723107177734375,0.1588592529296875,-0.63067626953125,0.5323028564453125
1773256923626119200,5.733119140625,0.0135040283203125,-0.68731689453125,0.6445770263671875
1773256923636132400,5.74313232421875,-0.150177001953125,-0.8352203369140625,0.6575469970703125
1773256923646144300,5.753144287109375,-0.296539306640625,-0.89129638671875,0.57196044921875
1773256923656156400,5.763156494140625,-0.4486846923828125,-0.8496551513671875,0.536041259765625
1773256923666168300,5.773168212890625,-0.4681549072265625,-0.7932586669921875,0.5560302734375
1773256923676181200,5.78318115234375,-0.375640869140625,-0.7847747802734375,0.5897369384765625
1773256923686193200,5.793193115234375,-0.268463134765625,-0.78594970703125,0.6282196044921875
1773256923696205000,5.803205078125,-0.1950836181640625,-0.78143310546875,0.6583709716796875
1773256923706218200,5.81321826171875,-0.1162261962890625,-0.7586517333984375,0.6290283203125
1773256923716230100,5.823230224609375,-0.069915771484375,-0.6226654052734375,0.4860076904296875
1773256923726242300,5.8332421875,-0.15057373046875,-0.584930419921875,0.43695068359375
1773256923736255200,5.843255126953125,-0.108062744140625,-0.7112884521484375,0.4655914306640625
1773256923746267400,5.853267333984375,-0.0712432861328125,-0.810272216796875,0.5254974365234375
1773256923756279300,5.863279296875,-0.057464599609375,-0.84075927734375,0.592315673828125
1773256923766292200,5.873292236328125,-0.072296142578125,-0.7335662841796875,0.5746917724609375
1773256923776304000,5.88330419921875,-0.0902252197265625,-0.754058837890625,0.7359619140625
1773256923786316000,5.89331591796875,-0.102020263671875,-0.8104248046875,0.8884429931640625
1773256923796328200,5.903328125,-0.1816253662109375,-0.731475830078125,0.878631591796875
1773256923806341000,5.913341064453125,-0.27203369140625,-0.62176513671875,0.84503173828125
1773256923816353300,5.923353271484375,-0.2939453125,-0.5966644287109375,0.8304290771484375
1773256923826365200,5.933365234375,-0.245849609375,-0.61871337890625,0.7374267578125
1773256923836378400,5.94337841796875,-0.1566314697265625,-0.6380767822265625,0.661346435546875
1773256923846390300,5.953390380859375,-0.0988616943359375,-0.6139068603515625,0.6324310302734375
1773256923856402200,5.963402099609375,-0.1163330078125,-0.695892333984375,0.649658203125
1773256923866415400,5.973415283203125,-0.1463470458984375,-0.8023834228515625,0.6795806884765625
1773256923876427300,5.98342724609375,-0.1767578125,-0.8077545166015625,0.6572113037109375
1773256923886439400,5.993439453125,-0.1351470947265625,-0.737091064453125,0.6290130615234375
1773256923896452000,6.0034521484375,-0.043212890625,-0.7442779541015625,0.6310882568359375
1773256923906464300,6.01346435546875,-0.01629638671875,-0.7916412353515625,0.654449462890625
1773256923916476200,6.02347607421875,-0.0424041748046875,-0.8035430908203125,0.68267822265625
1773256923926488000,6.033488037109375,-0.0803985595703125,-0.7474517822265625,0.6896209716796875
1773256923936501200,6.043501220703125,-0.08843994140625,-0.68499755859375,0.6431427001953125
1773256923946513200,6.05351318359375,-0.0272064208984375,-0.6938323974609375,0.5937957763671875
1773256923956525300,6.063525390625,-0.0133209228515625,-0.7186126708984375,0.59967041015625
1773256923966538200,6.073538330078125,-0.1355438232421875,-0.73321533203125,0.6076507568359375
1773256923976550400,6.08355029296875,-0.28802490234375,-0.778045654296875,0.6255035400390625
1773256923986562300,6.093562255859375,-0.39508056640625,-0.7935028076171875,0.65191650390625
1773256923996575200,6.1035751953125,-0.3908843994140625,-0.796783447265625,0.6634979248046875
1773256924006587400,6.11358740234375,-0.3265228271484375,-0.7675628662109375,0.618194580078125
1773256924016599300,6.123599365234375,-0.2662353515625,-0.761566162109375,0.5548553466796875
1773256924026611500,6.133611572265625,-0.1761627197265625,-0.7706146240234375,0.4934539794921875
1773256924036624100,6.1436240234375,-0.109710693359375,-0.768829345703125,0.444610595703125
1773256924046636300,6.15363623046875,-0.099151611328125,-0.7733001708984375,0.4350738525390625
1773256924056648200,6.163648193359375,-0.1457366943359375,-0.759521484375,0.4495849609375
1773256924066661400,6.173661376953125,-0.180206298828125,-0.7234344482421875,0.48956298828125
1773256924076673300,6.18367333984375,-0.204620361328125,-0.6966094970703125,0.5277252197265625
1773256924086685200,6.193685302734375,-0.1834869384765625,-0.6713104248046875,0.574005126953125
1773256924096698400,6.203698486328125,-0.1122283935546875,-0.4755096435546875,0.49310302734375
1773256924106710300,6.213710205078125,-0.090850830078125,-0.382293701171875,0.6307373046875
1773256924116722400,6.223722412109375,-0.112457275390625,-0.4205780029296875,0.83013916015625
1773256924126735000,6.233735107421875,-0.19122314453125,-0.5859527587890625,1.0162506103515625
1773256924136747300,6.243747314453125,-0.1825714111328125,-0.6468658447265625,1.0742645263671875
1773256924146759200,6.25375927734375,-0.1811676025390625,-0.5659027099609375,1.09271240234375
1773256924156772000,6.263772216796875,-0.2118377685546875,-0.4523773193359375,1.0255889892578125
1773256924166784300,6.2737841796875,-0.2116241455078125,-0.3931884765625,0.9427642822265625
1773256924176796200,6.283796142578125,-0.1945037841796875,-0.3954925537109375,0.8711700439453125
1773256924186808300,6.293808349609375,-0.1586761474609375,-0.456573486328125,0.8253326416015625
1773256924196821200,6.3038212890625,-0.1035919189453125,-0.469573974609375,0.7837982177734375
1773256924206833400,6.31383349609375,-0.05072021484375,-0.4679718017578125,0.7226104736328125
1773256924216845300,6.32384521484375,-0.03228759765625,-0.4575958251953125,0.660552978515625
1773256924226858200,6.333858154296875,-0.009124755859375,-0.448516845703125,0.595977783203125
1773256924236870400,6.343870361328125,0.0153045654296875,-0.4499053955078125,0.5559539794921875
1773256924246882300,6.35388232421875,0.007720947265625,-0.49456787109375,0.7219390869140625
1773256924256895200,6.363895263671875,-0.0413055419921875,-0.51971435546875,0.91448974609375
1773256924266907100,6.3739072265625,-0.1497039794921875,-0.517120361328125,0.76806640625
1773256924276919300,6.383919189453125,-0.243499755859375,-0.4872589111328125,0.690521240234375
1773256924286931200,6.39393115234375,-0.27569580078125,-0.4551544189453125,0.6826934814453125
1773256924296944000,6.403944091796875,-0.25927734375,-0.4559326171875,0.6638031005859375
1773256924306956300,6.413956298828125,-0.2111968994140625,-0.4694671630859375,0.6258392333984375
1773256924316968200,6.42396826171875,-0.21234130859375,-0.475067138671875,0.669158935546875
1773256924326981400,6.4339814453125,-0.170379638671875,-0.46832275390625,0.742279052734375
1773256924336993300,6.4439931640625,-0.1293792724609375,-0.4681549072265625,0.8130950927734375
1773256924347005400,6.45400537109375,-0.143798828125,-0.4738922119140625,0.904449462890625
1773256924357018000,6.46401806640625,-0.1555328369140625,-0.507049560546875,1.0025177001953125
1773256924367030000,6.474030029296875,-0.0543212890625,-0.5480194091796875,1.01513671875
1773256924377042200,6.484042236328125,0.0654754638671875,-0.565093994140625,0.976654052734375
1773256924387055000,6.49405517578125,0.1152496337890625,-0.5894927978515625,0.966094970703125
1773256924397067300,6.5040673828125,0.090087890625,-0.600860595703125,0.961181640625
1773256924407079200,6.5140791015625,0.0070343017578125,-0.5621795654296875,0.94573974609375
1773256924417092400,6.52409228515625,-0.0713043212890625,-0.487945556640625,0.9426116943359375
1773256924427104300,6.534104248046875,-0.1590118408203125,-0.4579620361328125,0.9335174560546875
1773256924437116200,6.5441162109375,-0.2147979736328125,-0.491729736328125,0.946441650390625
1773256924447128300,6.55412841796875,-0.250213623046875,-0.511260986328125,0.970672607421875
1773256924457141200,6.564141357421875,-0.2696075439453125,-0.4604949951171875,0.9277801513671875
1773256924467153400,6.5741533203125,-0.27093505859375,-0.45428466796875,0.9167327880859375
1773256924477165300,6.584165283203125,-0.2931060791015625,-0.500640869140625,0.966156005859375
1773256924487178200,6.59417822265625,-0.3416595458984375,-0.5524444580078125,1.025909423828125
1773256924497190100,6.604190185546875,-0.3544921875,-0.5801849365234375,0.9884490966796875
1773256924507202000,6.6142021484375,-0.3182220458984375,-0.5359039306640625,0.861968994140625
1773256924517215200,6.62421533203125,-0.28082275390625,-0.55078125,0.7895050048828125
1773256924527227100,6.63422705078125,-0.282379150390625,-0.5636444091796875,0.842742919921875
1773256924537239300,6.6442392578125,-0.3058929443359375,-0.482391357421875,0.9128570556640625
1773256924547252500,6.65425244140625,-0.324615478515625,-0.4305572509765625,0.9173736572265625
1773256924557264600,6.6642646484375,-0.29962158203125,-0.44891357421875,0.9021759033203125
1773256924567276500,6.674276611328125,-0.26824951171875,-0.4476165771484375,0.9045867919921875
1773256924577288400,6.684288330078125,-0.2426605224609375,-0.4099884033203125,0.8812713623046875
1773256924587301400,6.69430126953125,-0.251953125,-0.3746795654296875,0.852691650390625
1773256924597313300,6.704313232421875,-0.3137969970703125,-0.3914337158203125,0.8648223876953125
1773256924607325400,6.714325439453125,-0.37701416015625,-0.4423370361328125,0.8910369873046875
1773256924617338400,6.72433837890625,-0.3997039794921875,-0.479400634765625,0.8905487060546875
1773256924627350500,6.7343505859375,-0.3990478515625,-0.4919891357421875,0.8614959716796875
1773256924637362400,6.744362548828125,-0.39581298828125,-0.4931182861328125,0.850921630859375
1773256924647375600,6.754375732421875,-0.3636627197265625,-0.4835205078125,0.8570556640625
1773256924657387500,6.764387451171875,-0.2647552490234375,-0.45660400390625,0.8614959716796875
1773256924667399400,6.7743994140625,0.0284576416015625,-0.4296722412109375,0.791168212890625
1773256924677412600,6.78441259765625,0.02056884765625,-0.4413604736328125,0.7436676025390625
1773256924687424500,6.794424560546875,-0.2595672607421875,-0.410858154296875,0.7848052978515625
1773256924697436700,6.804436767578125,-0.35614013671875,-0.432098388671875,0.7822113037109375
1773256924707448600,6.814448486328125,-0.3515777587890625,-0.5509185791015625,0.8299560546875
1773256924717461500,6.82446142578125,-0.3709564208984375,-0.5576629638671875,0.8879241943359375
1773256924727473400,6.834473388671875,-0.4125823974609375,-0.5311431884765625,0.872589111328125
1773256924737485300,6.8444853515625,-0.4667816162109375,-0.478973388671875,0.8832550048828125
1773256924747498500,6.85449853515625,-0.5319366455078125,-0.41876220703125,0.8501739501953125
1773256924757510400,6.864510498046875,-0.6909942626953125,-0.4109954833984375,0.7911224365234375
1773256924767522600,6.8745224609375,-0.4876556396484375,-0.3638153076171875,0.87396240234375
1773256924777535500,6.884535400390625,-0.3487091064453125,-0.413055419921875,0.8314361572265625
1773256924787547600,6.894547607421875,-0.669281005859375,-0.4130401611328125,0.81085205078125
1773256924797559600,6.9045595703125,-0.788848876953125,-0.512420654296875,0.8155975341796875
1773256924807572500,6.914572509765625,-0.530303955078125,-0.5876007080078125,0.73968505859375
1773256924817584600,6.924584716796875,-0.2092437744140625,-0.412078857421875,0.83148193359375
1773256924827596500,6.934596435546875,-0.2468109130859375,-0.2764129638671875,0.9035491943359375
1773256924837608400,6.9446083984375,-0.429901123046875,-0.30596923828125,0.913116455078125
1773256924847621400,6.954621337890625,-0.4001922607421875,-0.358184814453125,0.951019287109375
1773256924857633500,6.964633544921875,-0.2786865234375,-0.372650146484375,0.934234619140625
1773256924867645400,6.9746455078125,-0.3075714111328125,-0.372039794921875,0.9019317626953125
1773256924877658600,6.98465869140625,-0.376068115234375,-0.452423095703125,0.80096435546875
1773256924887670500,6.99467041015625,-0.41357421875,-0.4990997314453125,0.706329345703125
1773256924897682400,7.004682373046875,-0.4878387451171875,-0.572479248046875,0.617706298828125
1773256924907695600,7.014695556640625,-0.5770721435546875,-0.79766845703125,0.4806976318359375
1773256924917707500,7.02470751953125,-0.587005615234375,-0.886138916015625,0.4049072265625
1773256924927719700,7.0347197265625,-0.4339752197265625,-0.8690643310546875,0.454864501953125
1773256924937732400,7.044732421875,-0.2471466064453125,-0.7781219482421875,0.5469818115234375
1773256924947744500,7.05474462890625,-0.1478118896484375,-0.73248291015625,0.5475616455078125
1773256924957756400,7.06475634765625,-0.199005126953125,-0.775421142578125,0.507232666015625
1773256924967769600,7.07476953125,-0.3107147216796875,-0.7892608642578125,0.4999847412109375
1773256924977781500,7.084781494140625,-0.3265380859375,-0.7483367919921875,0.5366668701171875
1773256924987793400,7.09479345703125,-0.2234039306640625,-0.6744537353515625,0.6244354248046875
1773256924997806600,7.104806640625,-0.142242431640625,-0.640289306640625,0.7193145751953125
1773256925007818500,7.114818603515625,-0.14031982421875,-0.6574249267578125,0.7740936279296875
1773256925017830700,7.12483056640625,-0.1743621826171875,-0.7033233642578125,0.74298095703125
1773256925027843600,7.134843505859375,-0.218902587890625,-0.6959686279296875,0.7178955078125
1773256925037855500,7.14485546875,-0.259429931640625,-0.6428680419921875,0.725494384765625
1773256925047867600,7.15486767578125,-0.3317108154296875,-0.6396331787109375,0.69012451171875
1773256925057880300,7.16488037109375,-0.3507232666015625,-0.6801910400390625,0.6142578125
1773256925067892500,7.174892578125,-0.3016357421875,-0.6930694580078125,0.5447540283203125
1773256925077904400,7.184904296875,-0.2933197021484375,-0.7303619384765625,0.4622344970703125
1773256925087917600,7.19491748046875,-0.3347320556640625,-0.80389404296875,0.3706512451171875
1773256925097929500,7.204929443359375,-0.34527587890625,-0.876007080078125,0.3189697265625
1773256925107941400,7.21494140625,-0.3467864990234375,-0.9036865234375,0.321502685546875
1773256925117954600,7.22495458984375,-0.371185302734375,-0.8758392333984375,0.41558837890625
1773256925127966500,7.234966552734375,-0.389862060546875,-0.8052978515625,0.489013671875
1773256925137978600,7.244978515625,-0.3941802978515625,-0.7885284423828125,0.5156402587890625
1773256925147991300,7.2549912109375,-0.3278961181640625,-0.806610107421875,0.5526580810546875
1773256925158003500,7.26500341796875,-0.2600860595703125,-0.832977294921875,0.539764404296875
1773256925168015400,7.275015380859375,-0.2312774658203125,-0.843017578125,0.5111846923828125
1773256925178028500,7.285028564453125,-0.233245849609375,-0.83758544921875,0.5059814453125
1773256925188040400,7.29504052734375,-0.253936767578125,-0.835174560546875,0.5292816162109375
1773256925198052400,7.30505224609375,-0.267791748046875,-0.8159027099609375,0.5467529296875
1773256925208065500,7.3150654296875,-0.267578125,-0.7701873779296875,0.55682373046875
1773256925218077400,7.325077392578125,-0.2969970703125,-0.77789306640625,0.5822601318359375
1773256925228089600,7.335089599609375,-0.275482177734375,-0.7716827392578125,0.58978271484375
1773256925238102500,7.3451025390625,-0.2616729736328125,-0.7157745361328125,0.5813446044921875
1773256925248114700,7.35511474609375,-0.2956085205078125,-0.6722259521484375,0.60540771484375
1773256925258126600,7.365126708984375,-0.33477783203125,-0.75897216796875,0.5721282958984375
1773256925268139500,7.375139404296875,-0.3513641357421875,-0.852752685546875,0.4200439453125
1773256925278151400,7.3851513671875,-0.3399810791015625,-0.8197021484375,0.2728424072265625
1773256925288164600,7.39516455078125,-0.3304901123046875,-0.874786376953125,0.251220703125
1773256925298176500,7.405176513671875,-0.2899322509765625,-0.924957275390625,0.2545928955078125
1773256925308188400,7.4151884765625,-0.27020263671875,-0.9372100830078125,0.2675018310546875
1773256925318201600,7.42520166015625,-0.2998809814453125,-0.9208526611328125,0.330413818359375
1773256925328213500,7.435213623046875,-0.343109130859375,-0.9271240234375,0.3773345947265625
1773256925338225700,7.4452255859375,-0.354827880859375,-0.9268035888671875,0.3758392333984375
1773256925348238600,7.455238525390625,-0.3415985107421875,-0.8903350830078125,0.34478759765625
1773256925358250500,7.46525048828125,-0.30572509765625,-0.89764404296875,0.3593902587890625
1773256925368262700,7.4752626953125,-0.2687530517578125,-0.9026336669921875,0.3910980224609375
1773256925378275300,7.485275390625,-0.2269134521484375,-0.823944091796875,0.41363525390625
1773256925388287500,7.49528759765625,-0.2053985595703125,-0.76727294921875,0.42437744140625
1773256925398300400,7.505300537109375,-0.20556640625,-0.8008270263671875,0.373321533203125
1773256925408312600,7.5153125,-0.2496795654296875,-0.8453826904296875,0.3115692138671875
1773256925418324500,7.525324462890625,-0.3253936767578125,-0.9072723388671875,0.260894775390625
1773256925428337700,7.535337646484375,-0.4122467041015625,-0.8868255615234375,0.24267578125
1773256925438349600,7.545349609375,-0.4703521728515625,-0.8566741943359375,0.2444610595703125
1773256925448361500,7.555361572265625,-0.3964385986328125,-0.8597564697265625,0.293701171875
1773256925458374400,7.56537451171875,-0.19940185546875,-0.7596435546875,0.4058074951171875
1773256925468386300,7.57538623046875,-0.1460418701171875,-0.618927001953125,0.4774322509765625
1773256925478399500,7.5853994140625,-0.11376953125,-0.761993408203125,0.4091644287109375
1773256925488411400,7.595411376953125,-0.1680450439453125,-0.8848419189453125,0.42706298828125
1773256925498423600,7.605423583984375,-0.225372314453125,-0.7117156982421875,0.5355987548828125
1773256925508436500,7.6154365234375,-0.2353515625,-0.52960205078125,0.5355377197265625
1773256925518448600,7.62544873046875,-0.2665557861328125,-0.5214996337890625,0.4656219482421875
1773256925528460500,7.63546044921875,-0.3101654052734375,-0.58306884765625,0.4335784912109375
1773256925538473700,7.6454736328125,-0.3349456787109375,-0.6484222412109375,0.4155426025390625
1773256925548484900,7.65548486328125,-0.3200836181640625,-0.6824493408203125,0.3698272705078125
1773256925558497800,7.665497802734375,-0.28387451171875,-0.7447967529296875,0.2617034912109375
1773256925568509700,7.675509765625,-0.22833251953125,-0.798736572265625,0.1559906005859375
1773256925578521900,7.68552197265625,-0.206207275390625,-0.973114013671875,0.0258331298828125
1773256925588534800,7.69553466796875,-0.185791015625,-1.0885772705078125,-0.0352935791015625
1773256925598546700,7.705546630859375,-0.19580078125,-1.1667022705078125,-0.1471710205078125
1773256925608559900,7.715559814453125,-0.362091064453125,-1.2013702392578125,-0.36346435546875
1773256925618571800,7.72557177734375,-0.4345550537109375,-1.2750091552734375,-0.47113037109375
1773256925628584000,7.735583984375,-0.31829833984375,-1.27178955078125,-0.3906707763671875
1773256925638596900,7.745596923828125,-0.2107696533203125,-1.1971435546875,-0.33245849609375
1773256925648608800,7.75560888671875,-0.167236328125,-1.109283447265625,-0.249176025390625
1773256925658621000,7.765620849609375,-0.2396392822265625,-1.0550994873046875,-0.0841522216796875
1773256925668633600,7.775633544921875,-0.34979248046875,-1.0286407470703125,0.1162261962890625
1773256925678645800,7.785645751953125,-0.346923828125,-0.9734649658203125,0.3457183837890625
1773256925688658700,7.79565869140625,-0.395965576171875,-1.0031280517578125,0.566802978515625
1773256925698670800,7.8056708984375,-0.4757080078125,-1.03668212890625,0.63897705078125
1773256925708682800,7.815682861328125,-0.4929962158203125,-1.0449371337890625,0.504669189453125
1773256925718696000,7.825696044921875,-0.5356292724609375,-1.0430908203125,0.29510498046875
1773256925728707800,7.835707763671875,-0.5787200927734375,-1.0506439208984375,0.177581787109375
1773256925738720800,7.845720703125,-0.5927276611328125,-1.051513671875,0.1732025146484375
1773256925748733000,7.85573291015625,-0.586181640625,-1.0700225830078125,0.139556884765625
1773256925758744800,7.865744873046875,-0.5590362548828125,-1.087371826171875,0.0860443115234375
1773256925768757800,7.8757578125,-0.497589111328125,-1.09344482421875,0.06707763671875
1773256925778769700,7.885769775390625,-0.4144439697265625,-1.0624847412109375,0.1024017333984375
1773256925788782800,7.895782958984375,-0.41143798828125,-1.0223846435546875,0.1377105712890625
1773256925798794800,7.905794677734375,-0.3459625244140625,-0.9585113525390625,0.0489501953125
1773256925808807000,7.915806884765625,0.48681640625,-0.736541748046875,-0.420074462890625
1773256925818819800,7.92581982421875,0.2168121337890625,-0.7453460693359375,-0.1490936279296875
1773256925828832000,7.93583203125,-0.54998779296875,-0.6790618896484375,0.1591033935546875
1773256925838844700,7.9458447265625,-0.3841552734375,-0.5885162353515625,0.360198974609375
1773256925848856600,7.955856689453125,-0.3072509765625,-0.4771575927734375,0.5015106201171875
1773256925858868700,7.96586865234375,-0.4788970947265625,-0.382843017578125,0.47698974609375
1773256925868881700,7.975881591796875,-0.4823455810546875,-0.4160919189453125,0.4395294189453125
1773256925878893800,7.985893798828125,-0.3934783935546875,-0.57940673828125,0.4092254638671875
1773256925888906800,7.99590673828125,-0.3187255859375,-0.8168792724609375,0.2374114990234375
1773256925898919000,8.0059189453125,-0.330718994140625,-1.052764892578125,0.0545654296875
1773256925908930800,8.015930908203124,-0.408477783203125,-1.187835693359375,-0.012542724609375
1773256925918944000,8.025944091796875,-0.3574066162109375,-1.28558349609375,-0.2071380615234375
1773256925928956000,8.035955810546875,-0.3149566650390625,-1.27459716796875,-0.1366729736328125
1773256925938968800,8.04596875,-0.1988525390625,-1.10809326171875,0.1765289306640625
1773256925948980700,8.055980712890625,0.0226287841796875,-0.9394683837890625,0.4876251220703125
1773256925958992600,8.06599267578125,-0.017181396484375,-0.9372100830078125,0.44354248046875
1773256925969005800,8.076005859375,-0.2262420654296875,-0.947235107421875,0.24932861328125
1773256925979017700,8.086017822265624,-0.1955718994140625,-0.83642578125,0.060028076171875
1773256925989031000,8.096031005859375,-0.23602294921875,-0.8372955322265625,-0.075347900390625
1773256925999042800,8.106042724609376,-0.158935546875,-0.89093017578125,0.129852294921875
1773256926009055000,8.116054931640624,-0.2478485107421875,-0.9226837158203125,0.3287200927734375
1773256926019067600,8.126067626953125,-0.2198028564453125,-0.9878082275390625,0.34649658203125
1773256926029079800,8.136079833984375,-0.1490020751953125,-1.1585845947265625,0.178131103515625
1773256926039092700,8.1460927734375,-0.1529388427734375,-1.2260589599609375,0.0484619140625
1773256926049104600,8.156104736328125,-0.149566650390625,-1.1987457275390625,0.090606689453125
1773256926059116800,8.16611669921875,-0.1392059326171875,-1.161376953125,0.1798095703125
1773256926069129700,8.176129638671876,-0.12603759765625,-1.098907470703125,0.1895904541015625
1773256926079142000,8.186141845703125,-0.1165924072265625,-1.0220794677734375,0.1642608642578125
1773256926089154800,8.19615478515625,-0.152801513671875,-0.9213104248046875,0.17333984375
1773256926099167000,8.2061669921875,-0.14813232421875,-0.908172607421875,0.2035675048828125
1773256926109179000,8.216178955078124,-0.15594482421875,-0.93768310546875,0.144317626953125
1773256926119191800,8.22619189453125,-0.1970062255859375,-0.9649505615234375,0.1440277099609375
1773256926133584000,8.240583984375,-0.197021484375,-1.055267333984375,0.2086334228515625
1773256926143596800,8.2505966796875,-0.2078857421875,-1.08001708984375,0.21044921875
1773256926153608700,8.260608642578125,-0.2474517822265625,-1.0296478271484375,0.2481231689453125
1773256926163620600,8.27062060546875,-0.2459869384765625,-1.05859375,0.23944091796875
1773256926173633800,8.2806337890625,-0.2284088134765625,-1.0129852294921875,0.1742706298828125
1773256926183645700,8.290645751953125,-0.246337890625,-0.876678466796875,0.14508056640625
1773256926193659000,8.300658935546876,-0.2389678955078125,-0.8348388671875,0.1706695556640625
1773256926203670800,8.3106708984375,-0.2476043701171875,-0.8793182373046875,0.253570556640625
1773256926213683000,8.320682861328125,-0.2562103271484375,-0.9384765625,0.2760772705078125
1773256926223696000,8.33069580078125,-0.2687225341796875,-0.9478302001953125,0.232696533203125
1773256926233708000,8.3407080078125,-0.2377471923828125,-0.9756622314453125,0.175567626953125
1773256926243720700,8.350720703125,-0.158538818359375,-1.0059814453125,0.1337890625
1773256926253732600,8.360732666015625,-0.10205078125,-1.0270233154296875,0.1409912109375
1773256926263745800,8.370745849609374,-0.041229248046875,-1.0911407470703125,0.1074981689453125
1773256926273757700,8.3807578125,-0.06048583984375,-1.0442962646484375,0.1014251708984375
1773256926283769900,8.390769775390625,-0.1146240234375,-0.964691162109375,0.1892852783203125
1773256926293782800,8.40078271484375,-0.1482391357421875,-0.958984375,0.19818115234375
1773256926303795000,8.410794921875,-0.158111572265625,-0.971923828125,0.158538818359375
1773256926313807600,8.4208076171875,-0.153717041015625,-0.9799346923828125,0.12158203125
1773256926323819800,8.43081982421875,-0.1286468505859375,-1.0260009765625,0.0697784423828125
1773256926333831700,8.440831787109374,-0.1010894775390625,-1.020263671875,0.0164031982421875
1773256926343844900,8.450844970703125,-0.08154296875,-0.9514312744140625,0.03515625
1773256926353856800,8.460856689453125,-0.03717041015625,-0.9876556396484375,0.042266845703125
1773256926363870000,8.470869873046874,-0.02325439453125,-1.0254669189453125,0.05133056640625
1773256926373881900,8.4808818359375,-0.0668182373046875,-1.00653076171875,0.0657196044921875
1773256926383893800,8.490893798828125,-0.094635009765625,-1.0013580322265625,0.09027099609375
1773256926393907000,8.500906982421874,-0.1040191650390625,-1.019744873046875,0.131439208984375
1773256926403918800,8.5109189453125,-0.1163787841796875,-1.024139404296875,0.1446990966796875
1773256926413931800,8.520931884765625,-0.14764404296875,-0.9824981689453125,0.1636505126953125
1773256926423943700,8.530943603515626,-0.1606903076171875,-0.964630126953125,0.1884613037109375
1773256926433955800,8.540955810546874,-0.17156982421875,-0.9837646484375,0.154876708984375
1773256926443968800,8.55096875,-0.2091827392578125,-1.0230255126953125,0.148223876953125
1773256926453980700,8.560980712890625,-0.2437286376953125,-1.0027008056640625,0.16571044921875
1773256926463993900,8.570993896484374,-0.240966796875,-0.9970703125,0.175445556640625
1773256926474005800,8.581005859375,-0.1953582763671875,-1.113677978515625,0.095733642578125
1773256926484018000,8.591017822265625,-0.1469573974609375,-1.2549285888671875,-0.0764312744140625
1773256926494030600,8.601030517578126,-0.183563232421875,-1.27252197265625,-0.121673583984375
1773256926504042800,8.611042724609375,-0.236297607421875,-1.1489715576171875,-0.0334320068359375
1773256926514055700,8.6210556640625,-0.288818359375,-1.0147705078125,0.03271484375
1773256926524067800,8.63106787109375,-0.3197174072265625,-0.936126708984375,0.105194091796875
1773256926534079700,8.641079833984374,-0.363739013671875,-0.889617919921875,0.246063232421875
1773256926544093000,8.651093017578125,-0.303253173828125,-0.7872467041015625,0.4808502197265625
1773256926554104600,8.6611044921875,-0.3235321044921875,-0.6643524169921875,0.54901123046875
1773256926564117800,8.67111767578125,-0.449920654296875,-0.519317626953125,0.4962310791015625
1773256926574129700,8.681129638671875,-0.376129150390625,-0.4928436279296875,0.468902587890625
1773256926584141800,8.691141845703125,-0.3107757568359375,-0.641937255859375,0.510284423828125
1773256926594154500,8.701154541015624,-0.1569976806640625,-0.8784027099609375,0.3880767822265625
1773256926604166700,8.711166748046875,-0.0612030029296875,-1.0282135009765625,0.18658447265625
1773256926614179600,8.7211796875,-0.0195770263671875,-1.0520782470703125,-0.0810089111328125
1773256926624191500,8.73119140625,0.024139404296875,-1.116546630859375,-0.171966552734375
1773256926634204700,8.74120458984375,0.0609588623046875,-1.1892547607421875,-0.001861572265625
1773256926644216600,8.751216552734375,0.039825439453125,-1.1316070556640625,0.1639556884765625
1773256926654228700,8.761228759765626,-0.0545654296875,-0.986968994140625,0.3209686279296875
1773256926664241700,8.77124169921875,-0.072967529296875,-0.8817596435546875,0.396270751953125
1773256926674253800,8.78125390625,-0.054656982421875,-0.8727569580078125,0.3800506591796875
1773256926684266500,8.7912666015625,-0.1172027587890625,-0.9264068603515625,0.38037109375
1773256926694278700,8.801278564453124,-0.1398773193359375,-0.93719482421875,0.26007080078125
1773256926704290600,8.81129052734375,-0.1526031494140625,-0.937225341796875,0.2953948974609375
1773256926714303700,8.8213037109375,-0.148651123046875,-0.944427490234375,0.3490753173828125
1773256926724315600,8.831315673828126,-0.1108856201171875,-0.9432525634765625,0.3174591064453125
1773256926734328800,8.841328857421875,-0.08026123046875,-0.944305419921875,0.2491455078125
1773256926744340700,8.8513408203125,-0.031463623046875,-0.9542999267578125,0.1962127685546875
1773256926754352600,8.8613525390625,-0.030609130859375,-0.98394775390625,0.151519775390625
1773256926764365600,8.871365478515624,-0.0437469482421875,-1.012359619140625,0.136932373046875
1773256926774377500,8.88137744140625,-0.0542449951171875,-0.9966888427734375,0.173126220703125
1773256926784390700,8.891390625,-0.045562744140625,-0.979278564453125,0.2049102783203125
1773256926794402600,8.901402587890624,-0.096893310546875,-0.956512451171875,0.2202301025390625
1773256926804415700,8.911415771484375,-0.1497802734375,-0.9661712646484375,0.2455291748046875
1773256926814427600,8.921427734375,-0.085845947265625,-0.9930572509765625,0.238433837890625
1773256926824439600,8.931439453125,-0.0380096435546875,-0.954742431640625,0.2269134521484375
1773256926834452700,8.94145263671875,0.034942626953125,-0.916900634765625,0.2492828369140625
1773256926844464600,8.951464599609375,0.108917236328125,-0.982574462890625,0.2344970703125
1773256926854477600,8.9614775390625,0.032928466796875,-0.9964599609375,0.215972900390625
1773256926864489500,8.971489501953124,-0.094024658203125,-0.941497802734375,0.2119293212890625
1773256926874502700,8.981502685546875,-0.1216888427734375,-0.9166412353515625,0.256561279296875
1773256926884514600,8.9915146484375,-0.1044464111328125,-0.9619140625,0.25836181640625
1773256926894526700,9.001526611328124,-0.1068572998046875,-0.947479248046875,0.222320556640625
1773256926904539600,9.01153955078125,-0.1145477294921875,-0.9199676513671875,0.1675262451171875
1773256926914551800,9.0215517578125,-0.1555938720703125,-0.9358062744140625,0.1336669921875
1773256926924564500,9.031564453125,-0.2103118896484375,-0.9862823486328125,0.1598358154296875
1773256926934576600,9.04157666015625,-0.24627685546875,-1.0165557861328125,0.220703125
1773256926944588500,9.051588623046875,-0.2494354248046875,-0.9872589111328125,0.2471466064453125
1773256926954601500,9.0616015625,-0.24688720703125,-0.9364013671875,0.240875244140625
1773256926964613600,9.071613525390624,-0.2564239501953125,-0.9119415283203125,0.222015380859375
1773256926974626600,9.08162646484375,-0.2637786865234375,-0.9226531982421875,0.2053375244140625
1773256926984638700,9.091638671875,-0.25921630859375,-0.9432220458984375,0.212646484375
1773256926994651600,9.101651611328125,-0.2263641357421875,-0.9516754150390625,0.22979736328125
1773256927004663800,9.111663818359375,-0.227447509765625,-0.9378204345703125,0.2115020751953125
1773256927014676500,9.121676513671876,-0.2432708740234375,-0.9048309326171875,0.186737060546875
1773256927024688600,9.131688720703124,-0.126953125,-0.918731689453125,0.19061279296875
1773256927034700500,9.141700439453125,-0.1009521484375,-0.9425811767578125,0.1654510498046875
1773256927044713700,9.151713623046875,-0.0763092041015625,-0.91485595703125,0.1792755126953125
1773256927054725600,9.1617255859375,-0.1434326171875,-0.9658050537109375,0.2440338134765625
1773256927064738600,9.171738525390625,-0.344085693359375,-0.96954345703125,0.272979736328125
1773256927074750700,9.181750732421875,-0.489532470703125,-0.9676666259765625,0.23907470703125
1773256927084763600,9.191763671875,-0.444854736328125,-0.98626708984375,0.209869384765625
1773256927094775600,9.201775634765625,-0.4798126220703125,-0.9569244384765625,0.235443115234375
1773256927104787700,9.21178759765625,-0.70355224609375,-0.9352264404296875,0.289642333984375
1773256927114800600,9.221800537109376,-0.9379119873046875,-0.9174652099609375,0.3260040283203125
1773256927124812500,9.2318125,-0.9053497314453125,-0.9028778076171875,0.3260345458984375
1773256927134825700,9.24182568359375,-0.5703887939453125,-0.8786773681640625,0.304290771484375
1773256927144837600,9.251837646484375,0.0330963134765625,-0.791046142578125,0.17626953125
1773256927154850800,9.261850830078124,0.0887298583984375,-0.8128509521484375,0.14031982421875
1773256927164862700,9.27186279296875,-0.3048248291015625,-0.8604583740234375,0.16632080078125
1773256927174875600,9.281875732421875,-0.5498046875,-0.8502044677734375,0.220062255859375
1773256927184887600,9.291887451171876,-0.5948333740234375,-0.8604736328125,0.31378173828125
1773256927194899500,9.3018994140625,-0.500274658203125,-0.8570404052734375,0.371246337890625
1773256927204912600,9.31191259765625,-0.48089599609375,-0.8658447265625,0.3100738525390625
1773256927214924500,9.321924560546876,-0.5930328369140625,-0.91815185546875,0.21673583984375
1773256927224937700,9.331937744140625,-0.18023681640625,-0.931182861328125,0.1731109619140625
1773256927234949600,9.34194970703125,0.1977081298828125,-0.9048614501953125,0.1531982421875
1773256927244962800,9.351962890625,-0.1049041748046875,-0.8915252685546875,0.09075927734375
1773256927254974700,9.361974609375,-0.2846221923828125,-0.963623046875,0.2356414794921875
1773256927264987600,9.371987548828125,-0.227325439453125,-0.8515777587890625,0.2108306884765625
1773256927274999600,9.38199951171875,-0.2279205322265625,-0.8059539794921875,0.1910858154296875
1773256927285012700,9.3920126953125,-0.3208770751953125,-0.779541015625,0.1918487548828125
1773256927295024600,9.402024658203125,-0.227081298828125,-0.8586578369140625,0.28912353515625
1773256927305037800,9.412037841796876,-0.1509552001953125,-0.9925384521484375,0.30426025390625
1773256927315049700,9.4220498046875,-0.1515655517578125,-0.9814453125,0.299163818359375
1773256927325061600,9.4320615234375,-0.175994873046875,-0.95684814453125,0.3382568359375
1773256927335074600,9.442074462890625,-0.2481842041015625,-1.000152587890625,0.2758636474609375
1773256927345086500,9.45208642578125,-0.318206787109375,-1.048431396484375,0.1670379638671875
1773256927355099600,9.462099609375,-0.260589599609375,-1.092498779296875,0.2130126953125
1773256927365111600,9.472111572265625,-0.15667724609375,-1.078948974609375,0.335235595703125
1773256927375124700,9.482124755859376,-0.1041107177734375,-1.014404296875,0.3506011962890625
1773256927385136600,9.49213671875,-0.1083831787109375,-0.9093475341796875,0.3198089599609375
1773256927395149800,9.50214990234375,-0.1062774658203125,-0.865447998046875,0.2749176025390625
1773256927405161700,9.51216162109375,-0.0353546142578125,-0.8594207763671875,0.3291015625
1773256927415174700,9.522174560546874,-0.0882720947265625,-0.904052734375,0.46990966796875
1773256927425186600,9.5321865234375,-0.3112640380859375,-0.908660888671875,0.49237060546875
1773256927435199700,9.54219970703125,-0.522125244140625,-0.7974090576171875,0.448699951171875
1773256927445211600,9.552211669921874,-0.6522369384765625,-0.7386932373046875,0.3088836669921875
1773256927455224600,9.562224609375,-0.6585845947265625,-0.8643646240234375,0.2101593017578125
1773256927465236700,9.57223681640625,-0.5272216796875,-0.9415435791015625,0.21588134765625
1773256927475249400,9.58224951171875,-0.4276275634765625,-0.96173095703125,0.256744384765625
1773256927485261600,9.592261474609375,-0.21466064453125,-0.830169677734375,0.2169342041015625
1773256927495274500,9.6022744140625,-0.3079833984375,-0.8903656005859375,0.1635284423828125
1773256927505286700,9.61228662109375,-0.2535400390625,-0.8765716552734375,0.0991058349609375
1773256927515298600,9.622298583984374,-0.1911163330078125,-0.9080963134765625,0.0162200927734375
1773256927525311700,9.632311767578125,0.1912689208984375,-1.007232666015625,0.13922119140625
1773256927535323600,9.64232373046875,0.0066986083984375,-1.01470947265625,0.2476806640625
1773256927545336800,9.6523369140625,0.03570556640625,-1.0683135986328125,0.2239990234375
1773256927555349000,9.662348876953125,0.0264739990234375,-1.097259521484375,0.187652587890625
1773256927565362200,9.672362060546876,0.0285491943359375,-1.0540313720703125,0.2234344482421875
1773256927575374000,9.6823740234375,-0.039764404296875,-0.987762451171875,0.2798614501953125
1773256927585387300,9.69238720703125,-0.0840301513671875,-0.9347076416015625,0.3288421630859375
1773256927595399200,9.702399169921875,-0.00042724609375,-0.90399169921875,0.3502044677734375
1773256927605412400,9.712412353515624,-0.2314910888671875,-0.882415771484375,0.3032989501953125
1773256927615424300,9.72242431640625,-0.2825469970703125,-0.9598846435546875,0.178192138671875
1773256927625437200,9.732437255859375,-0.0198974609375,-0.996917724609375,0.1772613525390625
1773256927635449000,9.742448974609376,-0.25341796875,-1.019195556640625,0.2007598876953125
1773256927645462300,9.752462158203125,-0.428314208984375,-0.84552001953125,0.3212738037109375
1773256927655474200,9.76247412109375,-0.4834442138671875,-0.735504150390625,0.3786163330078125
1773256927665487400,9.7724873046875,-0.4219512939453125,-0.8655242919921875,0.36517333984375
1773256927675499300,9.782499267578125,-0.3229827880859375,-0.8954620361328125,0.3521270751953125
1773256927685512200,9.79251220703125,-0.2393951416015625,-0.9668426513671875,0.2779693603515625
1773256927695524000,9.802524169921876,-0.3264617919921875,-1.0174102783203125,0.193328857421875
1773256927705537000,9.812537109375,-0.3897705078125,-0.9109344482421875,0.1383514404296875
1773256927715549200,9.822549072265625,-0.0820465087890625,-0.93597412109375,0.1782684326171875
1773256927725562000,9.83256201171875,-0.115814208984375,-1.02825927734375,0.2707366943359375
1773256927735574300,9.84257421875,-0.3495025634765625,-0.9630126953125,0.2765655517578125
1773256927745587200,9.852587158203125,-0.5189208984375,-0.878631591796875,0.2299652099609375
1773256927755599400,9.862599365234376,-0.5039825439453125,-0.874847412109375,0.205108642578125
1773256927765612000,9.872612060546874,-0.478057861328125,-0.9521026611328125,0.2209930419921875
1773256927775624200,9.882624267578125,-0.453704833984375,-0.9579010009765625,0.2921295166015625
1773256927785637000,9.89263720703125,-0.2242279052734375,-0.8679351806640625,0.3714447021484375
1773256927795649300,9.902649169921874,-0.2067413330078125,-0.8561859130859375,0.414398193359375
1773256927805662200,9.912662109375,-0.3586883544921875,-0.853363037109375,0.3467559814453125
1773256927815675100,9.922675048828125,-0.3494415283203125,-0.849884033203125,0.288970947265625
1773256927825687300,9.932687255859374,-0.2945404052734375,-0.9242706298828125,0.3154296875
1773256927835700200,9.9427001953125,-0.2304840087890625,-0.9814453125,0.3182525634765625
1773256927845712100,9.952712158203125,-0.237152099609375,-0.9748382568359375,0.2596893310546875
1773256927855725300,9.962725341796874,-0.230865478515625,-0.9290008544921875,0.243896484375
1773256927865737200,9.9727373046875,-0.1833038330078125,-0.9298858642578125,0.26397705078125
1773256927875750100,9.982750244140625,-0.1890106201171875,-0.915679931640625,0.2830047607421875
1773256927885762300,9.99276220703125,-0.222442626953125,-0.8786163330078125,0.339141845703125
1773256927895775000,10.00277490234375,-0.217132568359375,-0.7347564697265625,0.4328155517578125
1773256927905787100,10.012787109375,-0.1717071533203125,-0.8330078125,0.40936279296875
1773256927915800000,10.022800048828126,-0.1505279541015625,-0.988861083984375,0.3141021728515625
1773256927925812200,10.032812255859374,-0.1710968017578125,-1.0489654541015625,0.1133270263671875
1773256927935825200,10.0428251953125,-0.20361328125,-1.0164337158203125,0.0212249755859375
1773256927945837300,10.05283740234375,-0.2422637939453125,-0.9847869873046875,0.1074981689453125
1773256927955850200,10.062850341796874,-0.2468109130859375,-0.9102783203125,0.2756195068359375
1773256927965862400,10.0728623046875,-0.30059814453125,-0.8789825439453125,0.3780364990234375
1773256927975875000,10.082875,-0.333160400390625,-0.9016265869140625,0.38507080078125
1773256927985887200,10.09288720703125,-0.3244781494140625,-0.8923797607421875,0.3232574462890625
1773256927995900200,10.102900146484375,-0.3039093017578125,-0.884185791015625,0.2585601806640625
1773256928005913300,10.112913330078126,-0.29510498046875,-0.91156005859375,0.166748046875
1773256928015925200,10.12292529296875,-0.2878570556640625,-0.9779052734375,0.1206207275390625
1773256928025938200,10.132938232421875,-0.2195281982421875,-1.0697784423828125,0.077423095703125
1773256928035950000,10.1429501953125,-0.13311767578125,-1.0307769775390625,0.0920562744140625
1773256928045963300,10.15296337890625,-0.0847625732421875,-0.9590911865234375,0.1810150146484375
1773256928055975200,10.16297509765625,-0.164520263671875,-0.9244384765625,0.224334716796875
1773256928065988000,10.172988037109375,-0.22369384765625,-0.940521240234375,0.291748046875
1773256928076000300,10.183000244140626,-0.2142181396484375,-0.9374237060546875,0.3262481689453125
1773256928086013200,10.19301318359375,-0.20166015625,-0.9134368896484375,0.3165130615234375
1773256928096025300,10.203025390625,-0.168212890625,-0.9248199462890625,0.327178955078125
1773256928106038000,10.2130380859375,-0.120086669921875,-0.939605712890625,0.3145599365234375
1773256928116050200,10.22305029296875,-0.1451873779296875,-0.93499755859375,0.2682342529296875
1773256928126063000,10.23306298828125,-0.06683349609375,-0.9256439208984375,0.2391357421875
1773256928136076300,10.243076171875,-0.1027984619140625,-0.97161865234375,0.2159423828125
1773256928146088200,10.253088134765624,-0.2112579345703125,-0.9932098388671875,0.20477294921875
1773256928156101000,10.26310107421875,-0.2245330810546875,-0.9356231689453125,0.2337493896484375
1773256928166113000,10.273113037109376,-0.240264892578125,-0.932464599609375,0.2604522705078125
1773256928176126200,10.283126220703124,-0.3114013671875,-0.9655914306640625,0.270294189453125
1773256928186138000,10.29313818359375,-0.2607269287109375,-0.9275970458984375,0.329132080078125
1773256928196151300,10.3031513671875,-0.22760009765625,-0.8895263671875,0.3377227783203125
1773256928206163200,10.3131630859375,-0.27606201171875,-0.91729736328125,0.285797119140625
1773256928216176400,10.32317626953125,-0.21087646484375,-0.96142578125,0.324462890625
1773256928226189000,10.33318896484375,-0.1637725830078125,-0.9327850341796875,0.3557281494140625
1773256928236201200,10.343201171875,-0.113525390625,-0.885009765625,0.3488311767578125
1773256928246214100,10.353214111328125,-0.0433807373046875,-0.89154052734375,0.2932586669921875
1773256928256226000,10.36322607421875,0.07537841796875,-0.899200439453125,0.2438507080078125
1773256928266239200,10.3732392578125,-0.00701904296875,-0.962646484375,0.230438232421875
1773256928276251100,10.383251220703125,-0.1470794677734375,-0.997039794921875,0.2836761474609375
1773256928286264000,10.39326416015625,-0.1368560791015625,-0.9524383544921875,0.3193359375
1773256928296276000,10.40327587890625,-0.182586669921875,-0.9575958251953125,0.307403564453125
1773256928306289200,10.4132890625,-0.218597412109375,-0.9600677490234375,0.2507781982421875
1773256928316302000,10.423302001953125,-0.2214202880859375,-0.9672393798828125,0.2318572998046875
1773256928326314200,10.433314208984376,-0.190399169921875,-0.9621429443359375,0.2386474609375
1773256928336327200,10.4433271484375,-0.157257080078125,-0.9631500244140625,0.212921142578125
1773256928346339300,10.45333935546875,-0.135223388671875,-0.961334228515625,0.2358245849609375
1773256928356352000,10.46335205078125,-0.131866455078125,-0.9759979248046875,0.19354248046875
1773256928366364200,10.4733642578125,-0.288330078125,-0.9274444580078125,0.12261962890625
1773256928376377000,10.483377197265625,-0.268310546875,-0.888336181640625,0.2165985107421875
1773256928386389200,10.49338916015625,-0.2510986328125,-0.8962554931640625,0.2799072265625
1773256928396402200,10.503402099609374,-0.2430419921875,-0.9398345947265625,0.2733612060546875
1773256928406415000,10.5134150390625,-0.2257080078125,-0.9582672119140625,0.262451171875
1773256928416427000,10.523427001953126,-0.1865081787109375,-0.923980712890625,0.2931365966796875
1773256928426440200,10.533440185546874,-0.1638031005859375,-0.92962646484375,0.2859344482421875
1773256928436452000,10.5434521484375,-0.16558837890625,-0.9674224853515625,0.2602081298828125
1773256928446465300,10.55346533203125,-0.1889801025390625,-0.981475830078125,0.192138671875
1773256928456477200,10.563477294921874,-0.1798858642578125,-0.969482421875,0.175048828125
1773256928466490400,10.573490478515625,-0.16241455078125,-0.9507598876953125,0.23046875
1773256928476502300,10.583502197265625,-0.174774169921875,-0.9352569580078125,0.24029541015625
1773256928486515200,10.59351513671875,-0.1988067626953125,-0.97564697265625,0.20306396484375
1773256928496527000,10.603527099609375,-0.25946044921875,-0.9835662841796875,0.170440673828125
1773256928506540000,10.6135400390625,-0.382598876953125,-0.89154052734375,0.1759490966796875
1773256928516553200,10.62355322265625,-0.3831329345703125,-0.8430633544921875,0.293670654296875
1773256928526565000,10.633565185546875,-0.3159027099609375,-0.932159423828125,0.35693359375
1773256928536578300,10.643578369140625,-0.322662353515625,-0.978485107421875,0.25048828125
1773256928546590200,10.653590087890626,-0.31842041015625,-0.943878173828125,0.159698486328125
1773256928556603400,10.663603271484375,-0.2722930908203125,-0.933685302734375,0.2081298828125
1773256928566615600,10.673615478515625,-0.29168701171875,-0.9058380126953125,0.2631683349609375
1773256928576628500,10.68362841796875,-0.3367156982421875,-0.8948516845703125,0.2571868896484375
1773256928586640600,10.693640625,-0.3099822998046875,-0.87945556640625,0.2650146484375
1773256928596653600,10.703653564453125,-0.3441314697265625,-0.9030303955078125,0.28094482421875
1773256928606665700,10.713665771484376,-0.333709716796875,-0.9110260009765625,0.271209716796875
1773256928616678400,10.723678466796875,-0.2928314208984375,-0.9101715087890625,0.30987548828125
1773256928626691600,10.733691650390625,-0.354736328125,-0.89599609375,0.2812957763671875
1773256928636703500,10.743703369140626,-0.38458251953125,-0.8802032470703125,0.2570343017578125
1773256928646716700,10.753716552734375,-0.3737945556640625,-0.8950042724609375,0.289154052734375
1773256928656728600,10.763728515625,-0.377105712890625,-0.923828125,0.25885009765625
1773256928666741500,10.773741455078126,-0.4299468994140625,-0.8173065185546875,0.228546142578125
1773256928676753400,10.78375341796875,0.7298431396484375,-0.5797576904296875,0.276092529296875
1773256928686766600,10.7937666015625,-0.0951690673828125,-1.146942138671875,-0.1108856201171875
1773256928696778500,10.803778564453125,-0.5560302734375,-1.41070556640625,0.032012939453125
1773256928706791700,10.813791748046874,-0.6474456787109375,-1.022430419921875,0.2012786865234375
1773256928716803600,10.823803466796875,-0.5708770751953125,-0.679290771484375,0.445556640625
1773256928726816800,10.833816650390625,-0.5447540283203125,-0.7726898193359375,0.5351104736328125
1773256928736829400,10.843829345703124,-0.4803619384765625,-0.88690185546875,0.4595947265625
1773256928746841300,10.85384130859375,-0.2779083251953125,-0.9158782958984375,0.3220672607421875
1773256928756854500,10.8638544921875,-0.1808929443359375,-0.903045654296875,0.140838623046875
1773256928766866400,10.873866455078126,-0.1606597900390625,-0.8990020751953125,0.1201324462890625
1773256928776879600,10.883879638671875,-0.1741180419921875,-0.956268310546875,0.1985321044921875
1773256928786891500,10.8938916015625,-0.284515380859375,-0.9499053955078125,0.25140380859375
1773256928796904400,10.903904541015624,-0.338165283203125,-0.9642181396484375,0.30255126953125
1773256928806916400,10.913916259765625,-0.25506591796875,-0.8835906982421875,0.240234375
1773256928816929500,10.923929443359375,-0.3169097900390625,-0.7950592041015625,0.247161865234375
1773256928826941400,10.93394140625,-0.3431854248046875,-0.9290618896484375,0.2847747802734375
1773256928836954600,10.94395458984375,-0.331634521484375,-0.9444580078125,0.2501373291015625
1773256928846966500,10.953966552734375,-0.342620849609375,-0.93768310546875,0.1939849853515625
1773256928856979700,10.963979736328126,-0.253387451171875,-0.9477081298828125,0.1768646240234375
1773256928866991600,10.97399169921875,-0.1563568115234375,-0.93487548828125,0.223175048828125
1773256928877004500,10.984004638671875,-0.272979736328125,-0.928192138671875,0.16839599609375
1773256928887016400,10.994016357421875,-0.2314910888671875,-0.95721435546875,0.28118896484375
1773256928897029600,11.004029541015624,-0.2371673583984375,-0.9468231201171875,0.2918853759765625
1773256928907042600,11.01404248046875,-0.244720458984375,-0.923431396484375,0.2619476318359375
1773256928917054700,11.0240546875,-0.202789306640625,-0.877166748046875,0.2980194091796875
1773256928927067400,11.0340673828125,-0.2097625732421875,-0.8437347412109375,0.339813232421875
1773256928937079600,11.04407958984375,-0.0609283447265625,-0.9300079345703125,0.3337249755859375
1773256928947092500,11.054092529296875,-0.115631103515625,-0.9544677734375,0.154205322265625
1773256928957104400,11.0641044921875,-0.1902313232421875,-0.9285888671875,0.214263916015625
1773256928967117600,11.07411767578125,-0.4058990478515625,-0.9366455078125,0.197235107421875
1773256928977129500,11.08412939453125,-0.5600433349609375,-0.9226226806640625,0.2845916748046875
1773256928987142700,11.094142578125,-0.718353271484375,-0.869659423828125,0.3805999755859375
1773256928997154600,11.104154541015625,-0.8517913818359375,-0.821136474609375,0.4634857177734375
1773256929007167500,11.11416748046875,-0.8350982666015625,-0.800079345703125,0.54266357421875
1773256929017179400,11.124179443359376,-0.629638671875,-0.773712158203125,0.5959014892578125
1773256929027192600,11.134192626953125,-0.2853546142578125,-0.7412261962890625,0.5045623779296875
1773256929037204500,11.14420458984375,-0.1520233154296875,-0.826141357421875,0.3301239013671875
1773256929047217700,11.1542177734375,-0.387725830078125,-0.969024658203125,0.2705535888671875
1773256929057229600,11.1642294921875,-0.4417266845703125,-0.9410858154296875,0.2382049560546875
1773256929067242500,11.174242431640625,-0.303558349609375,-0.90130615234375,0.235992431640625
1773256929077254700,11.184254638671876,-0.187652587890625,-0.8863983154296875,0.2062530517578125
1773256929087267600,11.194267578125,-0.0289306640625,-0.8524017333984375,0.1530609130859375
1773256929097279500,11.204279541015625,-0.19317626953125,-0.9690093994140625,0.09320068359375
1773256929107292700,11.214292724609376,-0.288665771484375,-1.0287933349609375,0.120452880859375
1773256929117304600,11.2243046875,-0.191864013671875,-0.9193572998046875,0.217376708984375
1773256929127317500,11.2343173828125,-0.260009765625,-0.9042816162109375,0.2699432373046875
1773256929137329700,11.24432958984375,-0.314971923828125,-0.9219818115234375,0.2572174072265625
1773256929147342300,11.25434228515625,-0.33270263671875,-0.916778564453125,0.2883453369140625
1773256929157354500,11.2643544921875,-0.31097412109375,-0.9053955078125,0.30084228515625
1773256929167367400,11.274367431640625,-0.3083343505859375,-0.9257659912109375,0.254974365234375
1773256929177379600,11.284379638671876,-0.2772216796875,-0.9408416748046875,0.227020263671875
1773256929187392500,11.294392578125,-0.257904052734375,-0.9303741455078125,0.2023162841796875
1773256929197405700,11.30440576171875,-0.2667388916015625,-0.920074462890625,0.185791015625
1773256929207417600,11.31441748046875,-0.2823638916015625,-0.937744140625,0.191986083984375
1773256929217430500,11.324430419921875,-0.2212982177734375,-0.9378204345703125,0.1776885986328125
1773256929227442400,11.3344423828125,-0.23150634765625,-0.9444122314453125,0.1519775390625
1773256929237455600,11.34445556640625,-0.228515625,-0.9635467529296875,0.162261962890625
1773256929247467500,11.354467529296874,-0.243194580078125,-0.96636962890625,0.1962432861328125
1773256929257480700,11.364480712890625,-0.2498016357421875,-0.959075927734375,0.2538909912109375
1773256929267492600,11.37449267578125,-0.272308349609375,-0.9334259033203125,0.2614593505859375
1773256929277505500,11.384505615234374,-0.291778564453125,-0.9045867919921875,0.22344970703125
1773256929287517400,11.394517333984375,-0.28759765625,-0.8839263916015625,0.2422332763671875
1773256929297530600,11.404530517578126,-0.2691802978515625,-0.8915252685546875,0.276275634765625
1773256929307542500,11.41454248046875,-0.313934326171875,-0.90264892578125,0.1739349365234375
1773256929317555700,11.4245556640625,-0.3511199951171875,-0.91766357421875,0.1471710205078125
1773256929327567600,11.434567626953125,-0.4605712890625,-1.06640625,0.179107666015625
1773256929337580500,11.44458056640625,-0.13189697265625,-0.96234130859375,0.2008514404296875
1773256929347592700,11.4545927734375,-0.252593994140625,-0.8293304443359375,0.141632080078125
1773256929357605400,11.46460546875,-0.3451080322265625,-0.914764404296875,0.101470947265625
1773256929367617500,11.474617431640626,-0.4282684326171875,-0.9402923583984375,0.112396240234375
1773256929377630500,11.48463037109375,-0.493804931640625,-0.89703369140625,0.1089019775390625
1773256929387642600,11.494642578125,-0.4914093017578125,-0.8882293701171875,0.2050323486328125
1773256929397655600,11.504655517578126,-0.422271728515625,-0.903045654296875,0.2054290771484375
1773256929407667700,11.514667724609374,-0.4267425537109375,-0.8880157470703125,0.129058837890625
1773256929417680400,11.524680419921875,-0.370574951171875,-0.88677978515625,0.1455535888671875
1773256929427692500,11.534692626953126,-0.353790283203125,-0.9183807373046875,0.114349365234375
1773256929437705500,11.54470556640625,-0.2948455810546875,-0.91015625,0.144989013671875
1773256929447717400,11.55471728515625,-0.1708831787109375,-0.8350067138671875,0.189178466796875
1773256929457730600,11.56473046875,-0.016326904296875,-0.7898101806640625,0.185333251953125
1773256929467742500,11.574742431640624,-0.203125,-0.93621826171875,0.10687255859375
1773256929477755600,11.584755615234375,-0.508880615234375,-0.928955078125,0.1203765869140625
1773256929487767600,11.594767578125,-0.4369049072265625,-1.005889892578125,0.006988525390625
1773256929497780500,11.604780517578124,-0.46221923828125,-1.0337982177734375,0.1241455078125
1773256929507792400,11.61479248046875,-0.52056884765625,-0.973236083984375,0.1578826904296875
1773256929517805600,11.6248056640625,-0.570587158203125,-0.9206695556640625,0.198974609375
1773256929527817500,11.6348173828125,-0.5734710693359375,-0.959197998046875,0.1371612548828125
1773256929537830700,11.64483056640625,-0.5933074951171875,-0.9586029052734375,0.1411285400390625
1773256929547842600,11.654842529296875,-0.5296630859375,-0.89788818359375,0.2010498046875
1773256929557855500,11.66485546875,-0.4910888671875,-0.8426971435546875,0.1922607421875
1773256929567867400,11.674867431640624,-0.626708984375,-0.7924041748046875,0.1683807373046875
1773256929577880600,11.684880615234375,-0.523040771484375,-0.8061065673828125,0.0818939208984375
1773256929587892500,11.694892578125,-0.54364013671875,-0.8199615478515625,0.080078125
1773256929597905400,11.704905517578124,-0.503021240234375,-0.799041748046875,0.131683349609375
1773256929607917600,11.71491748046875,-0.5163726806640625,-0.8431396484375,0.1173858642578125
1773256929617930500,11.724930419921876,-0.3526763916015625,-0.83795166015625,0.18017578125
1773256929627942700,11.734942626953124,-0.2738037109375,-0.855255126953125,0.256927490234375
1773256929637954600,11.74495458984375,-0.491790771484375,-0.8530426025390625,0.16259765625
1773256929647967500,11.754967529296875,-0.5207977294921875,-0.8522491455078125,0.1754608154296875
1773256929657980400,11.76498046875,-0.46441650390625,-0.8909759521484375,0.2177581787109375
1773256929667992600,11.77499267578125,-0.4219512939453125,-0.9551849365234375,0.249298095703125
1773256929678004500,11.78500439453125,-0.52276611328125,-0.9073028564453125,0.1865997314453125
1773256929688017700,11.795017578125,-0.5584869384765625,-0.8358154296875,0.1281585693359375
1773256929698030600,11.805030517578125,-0.6511688232421875,-0.85113525390625,0.1034698486328125
1773256929708042500,11.81504248046875,-0.616119384765625,-0.8509063720703125,0.048797607421875
1773256929718054700,11.8250546875,-0.5790863037109375,-0.8313140869140625,0.05108642578125
1773256929728067300,11.8350673828125,-0.311370849609375,-1.1147308349609375,0.21417236328125
1773256929738079500,11.84507958984375,0.0148468017578125,-1.086151123046875,0.2807464599609375
1773256929748092400,11.855092529296876,-0.157135009765625,-1.02740478515625,0.1072845458984375
1773256929758104600,11.8651044921875,-0.4779815673828125,-0.9376373291015625,-0.241943359375
1773256929768117500,11.875117431640625,-0.235260009765625,-0.8338470458984375,-0.2993621826171875
1773256929778129700,11.885129638671875,-0.158599853515625,-0.729522705078125,-0.0543670654296875
1773256929788142300,11.895142333984374,-0.2485504150390625,-0.7902374267578125,0.1110687255859375
1773256929798154500,11.905154541015625,-0.342681884765625,-0.9933319091796875,0.08197021484375
1773256929808167400,11.91516748046875,-0.498321533203125,-1.0747222900390625,0.118011474609375
1773256929818179600,11.9251796875,-0.4822845458984375,-0.982696533203125,0.184295654296875
1773256929828192500,11.935192626953125,-0.6399688720703125,-0.75225830078125,0.2598724365234375
1773256929838204700,11.94520458984375,-0.7714385986328125,-0.6472625732421875,0.26300048828125
1773256929848217600,11.955217529296876,-0.7099456787109375,-0.61376953125,0.23138427734375
1773256929858229500,11.9652294921875,-0.714874267578125,-0.6088104248046875,0.162353515625
1773256929868242400,11.975242431640625,-0.7012481689453125,-0.6717071533203125,0.1384735107421875
1773256929878254300,11.98525439453125,-0.600799560546875,-0.756591796875,0.1746826171875
1773256929888267500,11.995267578125,-0.5302581787109375,-0.795806884765625,0.149505615234375
1773256929898279400,12.005279541015625,-0.3613128662109375,-0.7675018310546875,0.136566162109375
1773256929908292600,12.015292724609376,-0.446868896484375,-0.744903564453125,0.1823883056640625
1773256929918304500,12.025304443359374,-0.5889129638671875,-0.8001708984375,0.0703887939453125
1773256929928317400,12.0353173828125,-0.66815185546875,-0.843109130859375,0.0452880859375
1773256929938329300,12.045329345703125,-0.71368408203125,-0.857086181640625,0.06390380859375
1773256929948342500,12.055342529296874,-0.8258056640625,-0.849395751953125,0.0074005126953125
1773256929958354400,12.0653544921875,-0.8742828369140625,-0.84393310546875,-0.1187744140625
1773256929968367600,12.07536767578125,-0.666748046875,-0.8602752685546875,-0.0721435546875
1773256929978379500,12.085379638671874,-0.5195465087890625,-0.8803863525390625,0.033477783203125
1773256929988392700,12.095392822265625,-0.4204254150390625,-0.8805389404296875,0.10186767578125
1773256929998404600,12.105404541015625,-0.4629364013671875,-0.8874664306640625,0.046417236328125
1773256930008417500,12.11541748046875,-0.5011749267578125,-0.8763427734375,-0.0249786376953125
1773256930018429400,12.125429443359375,-0.518463134765625,-0.841461181640625,-0.0305938720703125
1773256930028442600,12.135442626953125,-0.52838134765625,-0.8387298583984375,0.0403594970703125
1773256930038454500,12.14545458984375,-0.5825347900390625,-0.826568603515625,0.0318756103515625
1773256930048467500,12.155467529296875,-0.601654052734375,-0.7917633056640625,0.088043212890625
1773256930058479600,12.165479736328125,-0.5450897216796875,-0.8472442626953125,0.1707305908203125
1773256930068492300,12.1754921875,-0.6213226318359375,-0.944732666015625,0.099639892578125
1773256930078504400,12.18550439453125,-0.64892578125,-0.9255523681640625,0.0051422119140625
1773256930088517400,12.195517333984375,-0.383575439453125,-0.781646728515625,0.0026702880859375
1773256930098529500,12.205529541015625,-0.40655517578125,-0.699127197265625,-0.0531463623046875
1773256930108542500,12.21554248046875,-0.41302490234375,-0.6664581298828125,-0.0891876220703125
1773256930118554600,12.2255546875,-0.2921295166015625,-0.6542205810546875,0.0065765380859375
1773256930128567600,12.235567626953125,-0.3418426513671875,-0.608734130859375,0.059814453125
1773256930138579700,12.245579833984374,-0.850372314453125,-0.521331787109375,0.093292236328125
1773256930148592400,12.25559228515625,-1.6629180908203125,-0.51751708984375,0.0345001220703125
1773256930158604500,12.2656044921875,-1.1872711181640625,-0.7045745849609375,-0.1423797607421875
1773256930168617500,12.275617431640624,-0.7206878662109375,-0.897979736328125,0.0464935302734375
1773256930178629400,12.28562939453125,-0.43377685546875,-1.02386474609375,0.223297119140625
1773256930188642600,12.295642578125,-0.2563629150390625,-1.0692138671875,0.2150726318359375
1773256930198654500,12.305654541015626,-0.2716827392578125,-1.088043212890625,0.1894378662109375
1773256930208667400,12.31566748046875,-0.3763580322265625,-1.0418243408203125,0.1229400634765625
1773256930218679600,12.325679443359375,-0.45806884765625,-0.9176788330078125,0.054473876953125
1773256930228692500,12.3356923828125,-0.5716552734375,-0.8060302734375,0.0110931396484375
1773256930238705400,12.345705322265625,-0.6421661376953125,-0.5490570068359375,-0.044586181640625
1773256930248717600,12.355717529296875,-0.567779541015625,-0.512969970703125,0.002197265625
1773256930258730500,12.36573046875,-0.5936126708984375,-0.6195831298828125,-0.045745849609375
1773256930268742700,12.37574267578125,-0.630126953125,-0.7419586181640625,-0.034881591796875
1773256930278754600,12.385754638671875,-0.5606231689453125,-0.7415771484375,0.0971527099609375
1773256930288767500,12.395767578125,-0.634063720703125,-0.7686614990234375,0.1472320556640625
1773256930298780400,12.405780517578124,-0.721527099609375,-0.7856903076171875,0.170806884765625
1773256930308792600,12.41579248046875,-0.76202392578125,-0.8056182861328125,0.2083892822265625
1773256930318805500,12.425805419921875,-0.701324462890625,-0.8022003173828125,0.217010498046875
1773256930328817700,12.435817626953124,-0.61187744140625,-0.830230712890625,0.22528076171875
1773256930338830600,12.44583056640625,-0.600830078125,-0.860015869140625,0.2380828857421875
1773256930348842500,12.455842529296875,-0.5970306396484375,-0.8952789306640625,0.2191925048828125
1773256930358855400,12.46585546875,-0.5699462890625,-0.895538330078125,0.1568450927734375
1773256930368867300,12.475867431640625,-0.48162841796875,-0.8472137451171875,0.06964111328125
1773256930378880500,12.485880615234375,-0.498626708984375,-0.7884368896484375,0.0072174072265625
1773256930388892400,12.495892333984376,-0.576507568359375,-0.7521820068359375,0.0388031005859375
1773256930398905600,12.505905517578125,-0.65081787109375,-0.7748260498046875,0.0734405517578125
1773256930408917500,12.51591748046875,-0.693603515625,-0.781036376953125,0.0860443115234375
1773256930418930400,12.525930419921876,-0.688690185546875,-0.747528076171875,0.1239013671875
1773256930428942300,12.5359423828125,-0.5734100341796875,-0.75469970703125,0.1190948486328125
1773256930438955500,12.54595556640625,-0.571441650390625,-0.775482177734375,0.0733795166015625
1773256930448967400,12.555967529296876,-0.5396575927734375,-0.7593994140625,0.025177001953125
1773256930458980600,12.565980712890624,-0.4472198486328125,-0.7464752197265625,-0.08734130859375
1773256930468992500,12.575992431640625,-0.5054779052734375,-0.7375030517578125,-0.1579132080078125
1773256930479005700,12.586005615234376,-0.58642578125,-0.73004150390625,-0.1089019775390625
1773256930489017600,12.596017578125,-0.6115570068359375,-0.772552490234375,-0.0614776611328125
1773256930499030500,12.606030517578125,-0.6714630126953125,-0.8209075927734375,-0.0338592529296875
1773256930509042400,12.61604248046875,-0.7173004150390625,-0.8630218505859375,-0.0129852294921875
1773256930519055600,12.6260556640625,-0.74322509765625,-0.881500244140625,0.023284912109375
1773256930529067500,12.636067626953125,-0.6993255615234375,-0.935150146484375,-0.0014190673828125
1773256930539080700,12.646080810546875,-0.66168212890625,-1.000518798828125,-0.0361480712890625
1773256930549092600,12.656092529296876,-0.5716552734375,-0.9913177490234375,-0.0561065673828125
1773256930559104800,12.666104736328125,-0.6107635498046875,-0.8984222412109375,-0.001983642578125
1773256930569117000,12.676116943359375,-0.6368408203125,-0.804046630859375,0.052398681640625
1773256930579129600,12.686129638671876,-0.544647216796875,-0.757110595703125,0.0847930908203125
1773256930589141800,12.696141845703124,-0.5697479248046875,-0.6669464111328125,0.0922393798828125
1773256930599154700,12.70615478515625,-0.6385955810546875,-0.6939849853515625,-0.0121307373046875
1773256930609166800,12.716166748046875,-0.5785369873046875,-0.7382354736328125,-0.0631103515625
1773256930619179800,12.7261796875,-0.5752105712890625,-0.7337493896484375,-0.080596923828125
1773256930629191700,12.736191650390625,-0.5954132080078125,-0.776153564453125,-0.0781402587890625
1773256930639204900,12.746204833984375,-0.6042938232421875,-0.8025054931640625,-0.075042724609375
1773256930649216800,12.756216796875,-0.6986236572265625,-0.7725677490234375,-0.0245361328125
1773256930659229700,12.766229736328125,-0.670562744140625,-0.7276153564453125,-0.0337371826171875
1773256930669241600,12.77624169921875,-0.6123199462890625,-0.7008209228515625,-0.0338592529296875
1773256930679254800,12.7862548828125,-0.5343017578125,-0.7310028076171875,-0.0341033935546875
1773256930689268000,12.79626806640625,-0.6348114013671875,-0.7647247314453125,-0.0437774658203125
1773256930699280000,12.80627978515625,-0.5819854736328125,-0.7804718017578125,-0.0752105712890625
1773256930709292500,12.81629248046875,-0.6200103759765625,-0.7686004638671875,-0.067108154296875
1773256930719304700,12.8263046875,-0.6169586181640625,-0.7880859375,-0.0215301513671875
1773256930729317600,12.836317626953125,-0.6144561767578125,-0.8033447265625,-0.009033203125
1773256930739329800,12.846329833984376,-0.629180908203125,-0.7941436767578125,-0.057891845703125
1773256930749342700,12.8563427734375,-0.6403350830078125,-0.806304931640625,-0.0695343017578125
1773256930759355000,12.86635498046875,-0.6317901611328125,-0.848419189453125,-0.0574798583984375
1773256930769367800,12.876367919921876,-0.583099365234375,-0.872650146484375,-0.0494842529296875
1773256930779380000,12.8863798828125,-0.634521484375,-0.828582763671875,-0.0499725341796875
1773256930789392600,12.896392578125,-0.6257476806640625,-0.8372802734375,-0.037017822265625
1773256930799404800,12.90640478515625,-0.6403045654296875,-0.839569091796875,-0.06488037109375
1773256930809417700,12.916417724609374,-0.6659088134765625,-0.808197021484375,-0.087982177734375
