time,seconds_elapsed,z,y,x
1774470098291671800,0.053671875,-0.96661376953125,-0.2767181396484375,-0.0189666748046875
1774470098301689600,0.063689697265625,-0.9723358154296875,-0.2633819580078125,-0.001251220703125
1774470098311706600,0.07370654296875,-0.9654541015625,-0.2675018310546875,0.0002899169921875
1774470098321723600,0.0837236328125,-0.9438629150390625,-0.278564453125,-0.000732421875
1774470098331740700,0.09374072265625,-0.9356536865234375,-0.2822113037109375,-0.0108184814453125
1774470098341757400,0.10375732421875,-0.9409942626953125,-0.2835693359375,-0.0222320556640625
1774470098351774700,0.113774658203125,-0.968414306640625,-0.2755889892578125,-0.03143310546875
1774470098361791500,0.12379150390625,-1.052642822265625,-0.2405242919921875,-0.0252838134765625
1774470098371808500,0.13380859375,-1.1021270751953125,-0.1982879638671875,0.01312255859375
1774470098381826600,0.14382666015625,-1.1039276123046875,-0.150787353515625,0.1020050048828125
1774470098391843600,0.153843505859375,-1.0966339111328125,-0.166168212890625,0.156707763671875
1774470098401860600,0.163860595703125,-1.0400848388671875,-0.222076416015625,0.1809539794921875
1774470098411877600,0.173877685546875,-0.9647979736328125,-0.2794952392578125,0.18804931640625
1774470098421894700,0.183894775390625,-0.8935089111328125,-0.3289337158203125,0.16473388671875
1774470098431911700,0.19391162109375,-0.8570404052734375,-0.3495635986328125,0.117767333984375
1774470098441928700,0.2039287109375,-0.86065673828125,-0.3428802490234375,0.064666748046875
1774470098451945500,0.213945556640625,-0.8610382080078125,-0.330413818359375,0.0139007568359375
1774470098461963800,0.2239638671875,-0.8512115478515625,-0.3159027099609375,-0.0373382568359375
1774470098471980500,0.23398046875,-0.818756103515625,-0.271942138671875,-0.0512847900390625
1774470098481997800,0.243997802734375,-0.80731201171875,-0.2660369873046875,-0.0702056884765625
1774470098492014600,0.2540146484375,-0.8066864013671875,-0.282562255859375,-0.0937042236328125
1774470098502031600,0.264031494140625,-0.811065673828125,-0.3124847412109375,-0.114044189453125
1774470098512048600,0.274048583984375,-0.8337860107421875,-0.3530120849609375,-0.154144287109375
1774470098522065700,0.284065673828125,-0.879638671875,-0.3932342529296875,-0.2039642333984375
1774470098532082400,0.29408251953125,-0.8668670654296875,-0.3698577880859375,-0.2221221923828125
1774470098542100700,0.304100830078125,-0.6861724853515625,-0.3642730712890625,-0.208740234375
1774470098552117500,0.314117431640625,-0.5391387939453125,-0.37060546875,-0.283050537109375
1774470098562134800,0.324134765625,-0.79461669921875,-0.4481048583984375,-0.5453338623046875
1774470098572151600,0.334151611328125,-1.0829010009765625,-0.62982177734375,-1.091644287109375
1774470098582168600,0.34416845703125,-0.628814697265625,-0.6669769287109375,-1.1437225341796875
1774470098592185900,0.354185791015625,-0.5247802734375,-0.7298431396484375,-1.229949951171875
1774470098602202600,0.36420263671875,-0.6608123779296875,-0.6425628662109375,-1.049713134765625
1774470098612219600,0.3742197265625,-0.6345062255859375,-0.3573760986328125,-0.4860076904296875
1774470098622237700,0.38423779296875,-0.7490081787109375,-0.3320159912109375,-0.2844085693359375
1774470098632254500,0.39425439453125,-0.9271240234375,-0.3495941162109375,-0.243408203125
1774470098642271200,0.404271240234375,-0.9214630126953125,-0.3603363037109375,-0.305084228515625
1774470098652288500,0.41428857421875,-0.9614105224609375,-0.48095703125,-0.402069091796875
1774470098662305300,0.42430517578125,-1.0074615478515625,-0.5070343017578125,-0.4493255615234375
1774470098672322600,0.434322509765625,-1.0092926025390625,-0.4684600830078125,-0.30902099609375
1774470098682339300,0.44433935546875,-0.9333343505859375,-0.3973846435546875,-0.16326904296875
1774470098692356400,0.4543564453125,-0.814727783203125,-0.378631591796875,-0.19207763671875
1774470098702374400,0.46437451171875,-0.7301788330078125,-0.4407958984375,-0.2831573486328125
1774470098712391400,0.474391357421875,-0.6702880859375,-0.447235107421875,-0.4228363037109375
1774470098722408200,0.484408203125,-0.53594970703125,-0.4661102294921875,-0.4857940673828125
1774470098732425500,0.494425537109375,-0.547454833984375,-0.516021728515625,-0.3641204833984375
1774470098742442500,0.5044423828125,-0.6341094970703125,-0.5147857666015625,-0.2903594970703125
1774470098752459300,0.514459228515625,-0.6784515380859375,-0.513427734375,-0.2580413818359375
1774470098762476500,0.5244765625,-0.7402191162109375,-0.5066680908203125,-0.2071075439453125
1774470098772494300,0.534494384765625,-0.71539306640625,-0.4879150390625,-0.2003021240234375
1774470098782511400,0.544511474609375,-0.6424560546875,-0.4591522216796875,-0.2689971923828125
1774470098792528400,0.5545283203125,-0.5370330810546875,-0.44512939453125,-0.376617431640625
1774470098802545400,0.56454541015625,-0.47802734375,-0.438201904296875,-0.41796875
1774470098812562400,0.5745625,-0.447540283203125,-0.442535400390625,-0.47161865234375
1774470098822579500,0.584579345703125,-0.4495086669921875,-0.421417236328125,-0.4869232177734375
1774470098832596200,0.59459619140625,-0.5515594482421875,-0.38409423828125,-0.420379638671875
1774470098842613500,0.604613525390625,-0.6854705810546875,-0.3411865234375,-0.39752197265625
1774470098852630300,0.61463037109375,-0.782470703125,-0.292938232421875,-0.4352569580078125
1774470098862648600,0.624648681640625,-0.8405303955078125,-0.256866455078125,-0.520294189453125
1774470098872665300,0.634665283203125,-0.862060546875,-0.2355194091796875,-0.5782928466796875
1774470098882682400,0.644682373046875,-0.8406219482421875,-0.20458984375,-0.599578857421875
1774470098892699400,0.654699462890625,-0.8110504150390625,-0.1853790283203125,-0.6004486083984375
1774470098902716400,0.66471630859375,-0.7806854248046875,-0.20623779296875,-0.592315673828125
1774470098912733400,0.6747333984375,-0.7677154541015625,-0.2360076904296875,-0.558258056640625
1774470098922750500,0.68475048828125,-0.76824951171875,-0.2881622314453125,-0.503326416015625
1774470098932768300,0.694768310546875,-0.7922515869140625,-0.3362884521484375,-0.490142822265625
1774470098942785500,0.70478564453125,-0.8474884033203125,-0.3441314697265625,-0.508026123046875
1774470098952802300,0.71480224609375,-0.8683929443359375,-0.3640899658203125,-0.48480224609375
1774470098962819300,0.7248193359375,-0.85467529296875,-0.4423980712890625,-0.3961639404296875
1774470098972836600,0.734836669921875,-0.8334197998046875,-0.5421295166015625,-0.2546234130859375
1774470098982853400,0.744853271484375,-0.8311004638671875,-0.646270751953125,-0.1437530517578125
1774470098992870400,0.754870361328125,-0.8430328369140625,-0.67218017578125,-0.1156768798828125
1774470099002887400,0.764887451171875,-0.89312744140625,-0.6304168701171875,-0.12982177734375
1774470099012905500,0.774905517578125,-0.993927001953125,-0.57470703125,-0.190643310546875
1774470099022922500,0.784922607421875,-1.0696563720703125,-0.53582763671875,-0.27117919921875
1774470099032939500,0.794939453125,-1.21923828125,-0.503448486328125,-0.4214935302734375
1774470099042956300,0.804956298828125,-1.2881317138671875,-0.440673828125,-0.5171966552734375
1774470099052973600,0.8149736328125,-1.2170562744140625,-0.382110595703125,-0.4878387451171875
1774470099062990300,0.824990234375,-1.055267333984375,-0.3258514404296875,-0.4089508056640625
1774470099073007400,0.83500732421875,-0.925994873046875,-0.361358642578125,-0.3941497802734375
1774470099083024400,0.8450244140625,-0.76898193359375,-0.3712310791015625,-0.3675994873046875
1774470099093042400,0.85504248046875,-0.6450042724609375,-0.3609771728515625,-0.337249755859375
1774470099103059200,0.86505908203125,-0.588409423828125,-0.417510986328125,-0.3459930419921875
1774470099113076500,0.875076416015625,-0.568145751953125,-0.425506591796875,-0.330963134765625
1774470099123093200,0.88509326171875,-0.5796661376953125,-0.387115478515625,-0.3185882568359375
1774470099133110300,0.8951103515625,-0.67279052734375,-0.3893890380859375,-0.3531646728515625
1774470099143127600,0.90512744140625,-0.8603515625,-0.3887481689453125,-0.3774566650390625
1774470099153144300,0.915144287109375,-1.0026092529296875,-0.360076904296875,-0.402862548828125
1774470099163162400,0.925162353515625,-1.1064453125,-0.3327484130859375,-0.361541748046875
1774470099173179400,0.935179443359375,-1.0882568359375,-0.322601318359375,-0.3043365478515625
1774470099183196400,0.945196533203125,-1.053802490234375,-0.3599700927734375,-0.3182525634765625
1774470099193213400,0.95521337890625,-0.974365234375,-0.42279052734375,-0.228729248046875
1774470099203230500,0.96523046875,-0.97265625,-0.4524383544921875,-0.1138763427734375
1774470099213247200,0.975247314453125,-0.971221923828125,-0.4753265380859375,-0.0624542236328125
1774470099223264500,0.985264404296875,-0.93170166015625,-0.4860687255859375,-0.0449066162109375
1774470099233282300,0.9952822265625,-0.9266815185546875,-0.4680938720703125,-0.0490570068359375
1774470099243299600,1.005299560546875,-0.9774322509765625,-0.4540557861328125,-0.097747802734375
1774470099253316400,1.01531640625,-0.94744873046875,-0.4399261474609375,-0.1446075439453125
1774470099263333400,1.02533349609375,-0.9672088623046875,-0.4212646484375,-0.137542724609375
1774470099273350400,1.035350341796875,-1.0806427001953125,-0.4506072998046875,-0.1654205322265625
1774470099283367400,1.045367431640625,-1.0659332275390625,-0.4779510498046875,-0.235076904296875
1774470099293384200,1.05538427734375,-0.99884033203125,-0.439239501953125,-0.2899627685546875
1774470099303401500,1.0654013671875,-0.962432861328125,-0.393280029296875,-0.289642333984375
1774470099313419300,1.075419189453125,-0.9040985107421875,-0.386474609375,-0.2904052734375
1774470099323436500,1.0854365234375,-0.91766357421875,-0.399993896484375,-0.253173828125
1774470099333453300,1.095453369140625,-0.903564453125,-0.42010498046875,-0.236572265625
1774470099343470300,1.10547021484375,-0.880035400390625,-0.4194488525390625,-0.2243499755859375
1774470099353487600,1.115487548828125,-0.8957061767578125,-0.4227294921875,-0.1917877197265625
1774470099363504400,1.12550439453125,-0.89801025390625,-0.425323486328125,-0.1984100341796875
1774470099373521400,1.135521484375,-0.909423828125,-0.4263458251953125,-0.1864013671875
1774470099383538400,1.145538330078125,-0.9148101806640625,-0.4315643310546875,-0.16339111328125
1774470099393556500,1.155556396484375,-0.9025726318359375,-0.428436279296875,-0.1089019775390625
1774470099403573500,1.165573486328125,-0.9002685546875,-0.4259796142578125,-0.030364990234375
1774470099413590500,1.175590576171875,-0.902618408203125,-0.4297332763671875,0.0495758056640625
1774470099423607300,1.185607177734375,-0.8931121826171875,-0.4472503662109375,0.119293212890625
1774470099433624600,1.19562451171875,-0.8953399658203125,-0.515289306640625,0.1318359375
1774470099443641300,1.205641357421875,-0.8469085693359375,-0.5553436279296875,0.1476898193359375
1774470099453658400,1.215658447265625,-0.8102264404296875,-0.56463623046875,0.1662750244140625
1774470099463676400,1.225676513671875,-0.8092193603515625,-0.577911376953125,0.1636962890625
1774470099473693400,1.235693359375,-0.835662841796875,-0.5721435546875,0.1517181396484375
1774470099483710200,1.245710205078125,-0.8773040771484375,-0.5335693359375,0.0766754150390625
1774470099493727500,1.2557275390625,-0.9309844970703125,-0.48681640625,-0.01025390625
1774470099503744300,1.265744140625,-0.9536590576171875,-0.4469757080078125,-0.0721588134765625
1774470099513761300,1.27576123046875,-0.955810546875,-0.4022064208984375,-0.1378326416015625
1774470099523778600,1.285778564453125,-0.949249267578125,-0.35662841796875,-0.1965179443359375
1774470099533795300,1.29579541015625,-0.9357452392578125,-0.325958251953125,-0.225006103515625
1774470099543813400,1.3058134765625,-0.9239501953125,-0.306549072265625,-0.2369232177734375
1774470099553830400,1.315830322265625,-0.9151611328125,-0.300140380859375,-0.2333526611328125
1774470099563847400,1.325847412109375,-0.901153564453125,-0.3087158203125,-0.193023681640625
1774470099573864400,1.335864501953125,-0.8488922119140625,-0.3345184326171875,-0.160125732421875
1774470099583881500,1.345881591796875,-0.82769775390625,-0.369659423828125,-0.1201629638671875
1774470099593898200,1.355898193359375,-0.856414794921875,-0.4013671875,-0.0823822021484375
1774470099603915500,1.36591552734375,-0.876617431640625,-0.4246063232421875,-0.06842041015625
1774470099613933300,1.375933349609375,-0.9263458251953125,-0.4221343994140625,-0.0843353271484375
1774470099623950600,1.38595068359375,-0.9372406005859375,-0.40972900390625,-0.112823486328125
1774470099633967000,1.395967041015625,-0.8902740478515625,-0.40203857421875,-0.1088409423828125
1774470099643984100,1.405984130859375,-0.8717193603515625,-0.3972320556640625,-0.093780517578125
1774470099654001200,1.416001220703125,-0.8590240478515625,-0.4058074951171875,-0.087677001953125
1774470099664018200,1.42601806640625,-0.832763671875,-0.4310150146484375,-0.0865936279296875
1774470099674035200,1.43603515625,-0.8097991943359375,-0.4371337890625,-0.0445709228515625
1774470099684052200,1.44605224609375,-0.804534912109375,-0.4616241455078125,0.015472412109375
1774470099694070000,1.456070068359375,-0.8380279541015625,-0.488739013671875,0.064361572265625
1774470099704087300,1.46608740234375,-0.8755035400390625,-0.50390625,0.0931396484375
1774470099714104000,1.47610400390625,-0.9135894775390625,-0.515625,0.132476806640625
1774470099724121000,1.48612109375,-0.9644775390625,-0.49029541015625,0.122955322265625
1774470099734138400,1.496138427734375,-1.0125885009765625,-0.4369354248046875,0.03790283203125
1774470099744155100,1.506155029296875,-1.0414581298828125,-0.38885498046875,-0.0739593505859375
1774470099754172200,1.516172119140625,-0.9858856201171875,-0.3291473388671875,-0.1601104736328125
1774470099764189200,1.526189208984375,-0.921478271484375,-0.2489013671875,-0.2664031982421875
1774470099774207200,1.536207275390625,-0.9054718017578125,-0.2142486572265625,-0.3535003662109375
1774470099784224000,1.54622412109375,-0.8884124755859375,-0.1995849609375,-0.420989990234375
1774470099794241300,1.5562412109375,-0.8865203857421875,-0.2081298828125,-0.425689697265625
1774470099804258000,1.566258056640625,-0.9089813232421875,-0.2326202392578125,-0.399200439453125
1774470099814275300,1.576275390625,-0.9008941650390625,-0.2679595947265625,-0.4127044677734375
1774470099824292000,1.5862919921875,-0.9055328369140625,-0.2925567626953125,-0.430694580078125
1774470099834309000,1.59630908203125,-0.9589691162109375,-0.294525146484375,-0.4818572998046875
1774470099844326100,1.606326171875,-0.98876953125,-0.2763671875,-0.5258941650390625
1774470099854344200,1.61634423828125,-0.9716339111328125,-0.23895263671875,-0.53131103515625
1774470099864361000,1.62636083984375,-0.933135986328125,-0.215911865234375,-0.52783203125
1774470099874378200,1.636378173828125,-0.891326904296875,-0.2208404541015625,-0.5383758544921875
1774470099884395000,1.64639501953125,-0.8604888916015625,-0.232818603515625,-0.5356903076171875
1774470099894412000,1.656412109375,-0.84332275390625,-0.242034912109375,-0.487548828125
1774470099904429300,1.66642919921875,-0.8304443359375,-0.2655181884765625,-0.42864990234375
1774470099914446000,1.676446044921875,-0.831817626953125,-0.2984771728515625,-0.3919677734375
1774470099924463000,1.686463134765625,-0.843719482421875,-0.322906494140625,-0.35693359375
1774470099934481200,1.696481201171875,-0.8255767822265625,-0.329376220703125,-0.336181640625
1774470099944498200,1.706498291015625,-0.8076019287109375,-0.3209381103515625,-0.3128204345703125
1774470099954515200,1.71651513671875,-0.82305908203125,-0.3050994873046875,-0.3014678955078125
1774470099964532200,1.7265322265625,-0.836578369140625,-0.2968597412109375,-0.2959136962890625
1774470099974549000,1.736549072265625,-0.856475830078125,-0.286407470703125,-0.2640533447265625
1774470099984566300,1.746566162109375,-0.885955810546875,-0.27154541015625,-0.251617431640625
1774470099994583000,1.7565830078125,-0.904144287109375,-0.2790985107421875,-0.2648468017578125
1774470100004600000,1.76660009765625,-0.92572021484375,-0.2720947265625,-0.260528564453125
1774470100014617000,1.7766171875,-0.974609375,-0.2747344970703125,-0.01971435546875
1774470100024635100,1.78663525390625,-0.9748382568359375,-0.3936309814453125,0.1027679443359375
1774470100034652200,1.796652099609375,-0.910400390625,-0.400360107421875,-0.216156005859375
1774470100044669200,1.806669189453125,-0.9025115966796875,-0.2889556884765625,-0.36651611328125
1774470100054686000,1.81668603515625,-0.8928375244140625,-0.244415283203125,-0.2291107177734375
1774470100064703200,1.826703125,-0.9010772705078125,-0.27008056640625,-0.2398223876953125
1774470100074720300,1.83672021484375,-0.919586181640625,-0.2730712890625,-0.2807159423828125
1774470100084737000,1.846737060546875,-0.9649505615234375,-0.2359466552734375,-0.307861328125
1774470100094754300,1.85675439453125,-0.9893798828125,-0.20751953125,-0.3159027099609375
1774470100104772000,1.866772216796875,-0.99114990234375,-0.19464111328125,-0.30810546875
1774470100114789000,1.8767890625,-0.9668426513671875,-0.186492919921875,-0.3233184814453125
1774470100124806100,1.88680615234375,-0.9609527587890625,-0.1970672607421875,-0.337249755859375
1774470100134823200,1.8968232421875,-0.9659576416015625,-0.203125,-0.288604736328125
1774470100144840200,1.906840087890625,-0.966796875,-0.2152099609375,-0.2586517333984375
1774470100154857200,1.916857177734375,-0.9729461669921875,-0.2265167236328125,-0.22210693359375
1774470100164874000,1.9268740234375,-0.967620849609375,-0.24560546875,-0.178253173828125
1774470100174891300,1.936891357421875,-0.952056884765625,-0.2601165771484375,-0.1967010498046875
1774470100184909000,1.946908935546875,-0.93511962890625,-0.254150390625,-0.23175048828125
1774470100194926300,1.95692626953125,-0.9044342041015625,-0.251678466796875,-0.2498626708984375
1774470100204943000,1.966943115234375,-0.863739013671875,-0.24786376953125,-0.290618896484375
1774470100214960000,1.976960205078125,-0.8551025390625,-0.246246337890625,-0.289337158203125
1774470100224977200,1.98697705078125,-0.8983001708984375,-0.2559051513671875,-0.2741241455078125
1774470100234994200,1.996994140625,-0.952392578125,-0.2607421875,-0.2440643310546875
1774470100245011200,2.00701123046875,-0.988006591796875,-0.2304534912109375,-0.20977783203125
1774470100255028200,2.0170283203125,-1.007781982421875,-0.196990966796875,-0.213043212890625
1774470100265046000,2.0270458984375,-1.0047607421875,-0.2013092041015625,-0.1920623779296875
1774470100275063000,2.03706298828125,-0.9906768798828125,-0.215972900390625,-0.178192138671875
1774470100285080300,2.047080322265625,-0.9729156494140625,-0.216278076171875,-0.1975860595703125
1774470100295097000,2.05709716796875,-0.96185302734375,-0.2127532958984375,-0.217803955078125
1774470100305114000,2.067114013671875,-0.9370574951171875,-0.2175445556640625,-0.2331390380859375
1774470100315131100,2.077131103515625,-0.9159393310546875,-0.2334442138671875,-0.2265167236328125
1774470100325148200,2.087148193359375,-0.9232177734375,-0.240875244140625,-0.218109130859375
1774470100335165200,2.097165283203125,-0.949554443359375,-0.2342681884765625,-0.215667724609375
1774470100345182200,2.10718212890625,-0.9693145751953125,-0.228240966796875,-0.209259033203125
1774470100355200000,2.117199951171875,-0.9833831787109375,-0.229339599609375,-0.202728271484375
1774470100365217300,2.12721728515625,-0.9989471435546875,-0.23138427734375,-0.18218994140625
1774470100375234000,2.137234130859375,-1.015838623046875,-0.2300872802734375,-0.1746063232421875
1774470100385251000,2.1472509765625,-1.0270843505859375,-0.2259368896484375,-0.173919677734375
1774470100395268000,2.15726806640625,-1.025054931640625,-0.22467041015625,-0.1838836669921875
1774470100405285000,2.16728515625,-0.9954681396484375,-0.2260894775390625,-0.194122314453125
1774470100415302100,2.17730224609375,-0.95458984375,-0.2331695556640625,-0.2185821533203125
1774470100425319200,2.187319091796875,-0.93292236328125,-0.2288360595703125,-0.2227630615234375
1774470100435337000,2.1973369140625,-0.935272216796875,-0.22479248046875,-0.2068939208984375
1774470100445354200,2.207354248046875,-0.9374542236328125,-0.2267608642578125,-0.19793701171875
1774470100455371300,2.217371337890625,-0.9436492919921875,-0.218780517578125,-0.200439453125
1774470100465388000,2.227387939453125,-0.9484100341796875,-0.2227325439453125,-0.1927337646484375
1774470100475405300,2.2374052734375,-0.940948486328125,-0.22271728515625,-0.18243408203125
1774470100485422000,2.247422119140625,-0.94366455078125,-0.215179443359375,-0.183349609375
1774470100495439000,2.257439208984375,-0.9493560791015625,-0.2124786376953125,-0.1826324462890625
1774470100505456000,2.2674560546875,-0.965728759765625,-0.21478271484375,-0.1951141357421875
1774470100515473200,2.27747314453125,-0.98260498046875,-0.22235107421875,-0.211212158203125
1774470100525491200,2.2874912109375,-0.9996185302734375,-0.2252655029296875,-0.2078399658203125
1774470100535508200,2.29750830078125,-1.0135498046875,-0.225738525390625,-0.204864501953125
1774470100545525000,2.30752490234375,-1.0020904541015625,-0.22772216796875,-0.2172088623046875
1774470100555542300,2.317542236328125,-0.9597320556640625,-0.2241973876953125,-0.2088775634765625
1774470100565559000,2.32755908203125,-0.918701171875,-0.23138427734375,-0.2298126220703125
1774470100575576000,2.337576171875,-0.9097442626953125,-0.2474365234375,-0.233184814453125
1774470100585593300,2.34759326171875,-0.9228973388671875,-0.2448883056640625,-0.2469635009765625
1774470100595610000,2.357610107421875,-0.94415283203125,-0.2457427978515625,-0.283843994140625
1774470100605627100,2.367627197265625,-0.9614410400390625,-0.268035888671875,-0.28759765625
1774470100615645200,2.377645263671875,-0.9630584716796875,-0.3297119140625,-0.222015380859375
1774470100625662200,2.387662109375,-0.959259033203125,-0.3225860595703125,-0.2984771728515625
1774470100635678700,2.3976787109375,-0.94561767578125,-0.3140106201171875,-0.2263336181640625
1774470100645695700,2.40769580078125,-0.9465484619140625,-0.3070068359375,-0.197540283203125
1774470100655712800,2.417712646484375,-0.949493408203125,-0.3174591064453125,-0.1923370361328125
1774470100665729800,2.427729736328125,-0.93182373046875,-0.3341827392578125,-0.1871490478515625
1774470100675746600,2.43774658203125,-0.875091552734375,-0.3482208251953125,-0.195159912109375
1774470100685763800,2.447763916015625,-0.839691162109375,-0.35272216796875,-0.2000579833984375
1774470100695780900,2.45778076171875,-0.860687255859375,-0.34417724609375,-0.200714111328125
1774470100705799000,2.467798828125,-0.869659423828125,-0.3287353515625,-0.2199249267578125
1774470100715815700,2.477815673828125,-0.86859130859375,-0.3155059814453125,-0.2168426513671875
1774470100725832700,2.487832763671875,-0.8690032958984375,-0.307342529296875,-0.23626708984375
1774470100735850000,2.49785009765625,-0.8706817626953125,-0.3162689208984375,-0.2575531005859375
1774470100745866800,2.50786669921875,-0.836273193359375,-0.301055908203125,-0.258331298828125
1774470100755883800,2.5178837890625,-0.83685302734375,-0.2850799560546875,-0.27581787109375
1774470100765900800,2.52790087890625,-0.8357696533203125,-0.274322509765625,-0.2521209716796875
1774470100775917800,2.537917724609375,-0.86572265625,-0.27734375,-0.1641845703125
1774470100785934600,2.5479345703125,-0.92962646484375,-0.2450714111328125,-0.2230072021484375
1774470100795953000,2.557952880859375,-0.9246368408203125,-0.2181549072265625,-0.224853515625
1774470100805969700,2.5679697265625,-0.9620819091796875,-0.264068603515625,-0.11163330078125
1774470100815987000,2.577987060546875,-0.9876251220703125,-0.270843505859375,-0.0811614990234375
1774470100826003700,2.588003662109375,-0.976776123046875,-0.324798583984375,-0.1286468505859375
1774470100836020700,2.598020751953125,-0.971282958984375,-0.4743194580078125,-0.2841339111328125
1774470100846037800,2.608037841796875,-0.7926788330078125,-0.556732177734375,-0.3761444091796875
1774470100856054800,2.6180546875,-0.6055908203125,-0.4139404296875,-0.291748046875
1774470100866071800,2.62807177734375,-0.59912109375,-0.340087890625,-0.3094635009765625
1774470100876088800,2.6380888671875,-0.933685302734375,-0.5198516845703125,-0.423736572265625
1774470100886105900,2.64810595703125,-1.0438385009765625,-0.5457916259765625,-0.48809814453125
1774470100896124000,2.6581240234375,-0.9956207275390625,-0.5430755615234375,-0.5793914794921875
1774470100906141000,2.668140869140625,-1.06903076171875,-0.4859619140625,-0.6026763916015625
1774470100916157700,2.67815771484375,-1.036834716796875,-0.4335784912109375,-0.5189666748046875
1774470100926175000,2.688175048828125,-0.9855194091796875,-0.4233551025390625,-0.34722900390625
1774470100936191700,2.698191650390625,-1.0135345458984375,-0.4683074951171875,-0.2488555908203125
1774470100946208800,2.708208740234375,-0.92864990234375,-0.552032470703125,-0.25738525390625
1774470100956225800,2.718225830078125,-0.7655181884765625,-0.589019775390625,-0.1605377197265625
1774470100966242800,2.728242919921875,-0.637725830078125,-0.5892791748046875,-0.02813720703125
1774470100976259600,2.738259521484375,-0.5581817626953125,-0.5918731689453125,0.10205078125
1774470100986278000,2.74827783203125,-0.5688018798828125,-0.615753173828125,0.2145233154296875
1774470100996294700,2.758294677734375,-0.645782470703125,-0.6465606689453125,0.2764892578125
1774470101006311700,2.768311767578125,-0.7284698486328125,-0.6604156494140625,0.3200836181640625
1774470101016328700,2.77832861328125,-0.7700347900390625,-0.7083740234375,0.34619140625
1774470101026345700,2.788345703125,-0.79949951171875,-0.734619140625,0.3752288818359375
1774470101036363000,2.798363037109375,-0.855560302734375,-0.714752197265625,0.4699249267578125
1774470101046379800,2.8083798828125,-0.9007568359375,-0.6724700927734375,0.5211639404296875
1774470101056396800,2.818396728515625,-0.9022674560546875,-0.5929412841796875,0.5201568603515625
1774470101066413800,2.828413818359375,-0.8876190185546875,-0.494873046875,0.4227447509765625
1774470101076432000,2.838431884765625,-0.8776092529296875,-0.39556884765625,0.37078857421875
1774470101086448600,2.84844873046875,-0.9075775146484375,-0.3038787841796875,0.3916168212890625
1774470101096466000,2.8584658203125,-0.9567718505859375,-0.2896728515625,0.4461212158203125
1774470101106482700,2.868482666015625,-0.9489898681640625,-0.3332061767578125,0.4491424560546875
1774470101116499700,2.878499755859375,-0.94140625,-0.3471221923828125,0.508087158203125
1774470101126516700,2.888516845703125,-0.94512939453125,-0.3311614990234375,0.5923004150390625
1774470101136533800,2.89853369140625,-0.9266357421875,-0.2841949462890625,0.6274566650390625
1774470101146550500,2.908550537109375,-0.905975341796875,-0.25921630859375,0.6106414794921875
1774470101156567800,2.91856787109375,-0.8912506103515625,-0.21405029296875,0.5782012939453125
1774470101166584800,2.928584716796875,-0.87347412109375,-0.1156005859375,0.5134429931640625
1774470101176603000,2.938602783203125,-0.9531097412109375,0.005584716796875,0.349761962890625
1774470101186619600,2.94861962890625,-0.9130401611328125,0.070709228515625,0.260650634765625
1774470101196636700,2.95863671875,-0.8802032470703125,0.1134185791015625,0.2633056640625
1774470101206654000,2.968654052734375,-0.953155517578125,0.055328369140625,0.3112030029296875
1774470101216670700,2.978670654296875,-0.9864044189453125,-0.018646240234375,0.403656005859375
1774470101226687700,2.988687744140625,-0.952392578125,-0.0564422607421875,0.44970703125
1774470101236704800,2.998704833984375,-0.8132476806640625,-0.0413360595703125,0.5010833740234375
1774470101246721800,3.0087216796875,-0.7091217041015625,-0.010986328125,0.5033416748046875
1774470101256738600,3.018738525390625,-0.68841552734375,0.002410888671875,0.505462646484375
1774470101266755800,3.028755859375,-0.737030029296875,-0.0518951416015625,0.51025390625
1774470101276773600,3.038773681640625,-0.8190460205078125,-0.1223602294921875,0.6195068359375
1774470101286791000,3.048791015625,-0.8620758056640625,-0.095611572265625,0.7821807861328125
1774470101296807700,3.0588076171875,-0.8647613525390625,-0.068878173828125,0.826995849609375
1774470101306824700,3.06882470703125,-0.810272216796875,-0.0322113037109375,0.7515869140625
1774470101316841700,3.078841796875,-0.811767578125,-0.0265350341796875,0.6904449462890625
1774470101326858800,3.088858642578125,-0.8229217529296875,0.040313720703125,0.6295318603515625
1774470101336875800,3.098875732421875,-0.7855682373046875,0.0472259521484375,0.5369415283203125
1774470101346892800,3.108892822265625,-0.751220703125,0.03143310546875,0.4834136962890625
1774470101356909800,3.118909912109375,-0.754791259765625,0.02191162109375,0.4280853271484375
1774470101366928000,3.128927978515625,-0.7807464599609375,0.009429931640625,0.4117431640625
1774470101376945000,3.13894482421875,-0.719818115234375,0.00311279296875,0.4224853515625
1774470101386961700,3.148961669921875,-0.6560821533203125,-0.0258331298828125,0.4734649658203125
1774470101396979000,3.15897900390625,-0.63848876953125,-0.0296173095703125,0.5546417236328125
1774470101406995700,3.16899560546875,-0.636199951171875,-0.06475830078125,0.6131744384765625
1774470101417012700,3.1790126953125,-0.6211090087890625,-0.1062469482421875,0.5753631591796875
1774470101427029800,3.18902978515625,-0.630096435546875,-0.0877532958984375,0.6484832763671875
1774470101437046800,3.199046875,-0.6825408935546875,-0.0379638671875,0.7152557373046875
1774470101447063800,3.209063720703125,-0.734954833984375,-0.08319091796875,0.6305389404296875
1774470101457080800,3.219080810546875,-0.735137939453125,-0.0787200927734375,0.615142822265625
1774470101467098600,3.2290986328125,-0.7242279052734375,-0.0708160400390625,0.570831298828125
1774470101477116000,3.239115966796875,-0.6971282958984375,-0.080291748046875,0.56195068359375
1774470101487132700,3.249132568359375,-0.6640625,-0.12591552734375,0.501434326171875
1774470101497149700,3.259149658203125,-0.6880035400390625,-0.07647705078125,0.5515594482421875
1774470101507167000,3.2691669921875,-0.7382965087890625,-0.018463134765625,0.627227783203125
1774470101517183700,3.279183837890625,-0.799468994140625,-0.013153076171875,0.6202239990234375
1774470101527200800,3.28920068359375,-0.82244873046875,-0.01580810546875,0.6123504638671875
1774470101537217800,3.2992177734375,-0.8157501220703125,-0.02398681640625,0.58538818359375
1774470101547234800,3.30923486328125,-0.8195343017578125,0.002777099609375,0.5884857177734375
1774470101557251600,3.31925146484375,-0.8357086181640625,0.1078643798828125,0.6930389404296875
1774470101567270000,3.329269775390625,-0.8405914306640625,0.101593017578125,0.664703369140625
1774470101577286700,3.33928662109375,-0.87548828125,0.120208740234375,0.67388916015625
1774470101587304000,3.349303955078125,-0.87091064453125,0.171905517578125,0.6744537353515625
1774470101597320700,3.35932080078125,-0.8333587646484375,0.212310791015625,0.656219482421875
1774470101607337700,3.369337646484375,-0.8334503173828125,0.238372802734375,0.6289520263671875
1774470101617354800,3.379354736328125,-0.8200225830078125,0.2459259033203125,0.6547698974609375
1774470101627371800,3.389371826171875,-0.7088623046875,0.2164459228515625,0.7165679931640625
1774470101637388800,3.399388916015625,-0.6423492431640625,0.1705780029296875,0.7086639404296875
1774470101647405600,3.409405517578125,-0.704345703125,0.113037109375,0.67608642578125
1774470101657422800,3.4194228515625,-0.7184600830078125,0.116302490234375,0.638397216796875
1774470101667440600,3.429440673828125,-0.5270233154296875,0.0334320068359375,0.55859375
1774470101677457700,3.439457763671875,-0.561279296875,-0.008819580078125,0.4915618896484375
1774470101687474700,3.449474609375,-0.5884857177734375,-0.0050506591796875,0.557952880859375
1774470101697491700,3.45949169921875,-0.583526611328125,-0.0565185546875,0.527191162109375
1774470101707508700,3.4695087890625,-0.5576171875,-0.042266845703125,0.5287933349609375
1774470101717525800,3.47952587890625,-0.5826873779296875,0.019683837890625,0.5586395263671875
1774470101727542500,3.48954248046875,-0.634796142578125,0.03900146484375,0.509246826171875
1774470101737559800,3.499559814453125,-0.665557861328125,0.085662841796875,0.5210418701171875
1774470101747576800,3.509576904296875,-0.6660003662109375,0.137969970703125,0.5848388671875
1774470101757593600,3.519593505859375,-0.6287078857421875,0.157501220703125,0.6759490966796875
1774470101767611600,3.529611572265625,-0.666259765625,0.1644134521484375,0.6931915283203125
1774470101777628700,3.539628662109375,-0.8603973388671875,0.1553497314453125,0.5809326171875
1774470101787645700,3.549645751953125,-0.888824462890625,0.197845458984375,0.5018768310546875
1774470101797662700,3.559662841796875,-0.8180999755859375,0.145050048828125,0.4740142822265625
1774470101807679700,3.5696796875,-0.7832794189453125,0.1139373779296875,0.781951904296875
1774470101817696500,3.579696533203125,-0.785247802734375,0.2060699462890625,1.018524169921875
1774470101827713800,3.5897138671875,-0.787872314453125,0.2485504150390625,1.1672210693359375
1774470101837730600,3.59973046875,-0.7690887451171875,0.273681640625,1.236541748046875
1774470101847747800,3.609747802734375,-0.7119598388671875,0.33795166015625,1.2526702880859375
1774470101857764600,3.6197646484375,-0.679901123046875,0.37835693359375,1.2013092041015625
1774470101867782700,3.62978271484375,-0.676910400390625,0.43280029296875,1.046600341796875
1774470101877799700,3.639799560546875,-0.6213531494140625,0.446685791015625,0.7358245849609375
1774470101887816700,3.649816650390625,-0.592987060546875,0.389678955078125,0.6953277587890625
1774470101897833500,3.65983349609375,-0.5709686279296875,0.3627777099609375,0.7125091552734375
1774470101907850800,3.669850830078125,-0.6082611083984375,0.30615234375,0.7090606689453125
1774470101917867800,3.67986767578125,-0.57928466796875,0.245361328125,0.7444915771484375
1774470101927884500,3.689884521484375,-0.50689697265625,0.1793975830078125,0.807952880859375
1774470101937901800,3.69990185546875,-0.4759063720703125,0.127593994140625,0.846527099609375
1774470101947918600,3.709918701171875,-0.4785919189453125,0.0815277099609375,0.8627777099609375
1774470101957936600,3.7199365234375,-0.4854278564453125,0.0740966796875,0.8756561279296875
1774470101967953700,3.72995361328125,-0.5079803466796875,0.103668212890625,0.85430908203125
1774470101977970700,3.739970703125,-0.5733795166015625,0.1189727783203125,0.80572509765625
1774470101987987700,3.74998779296875,-0.650299072265625,0.1248779296875,0.747894287109375
1774470101998004700,3.760004638671875,-0.7043914794921875,0.13861083984375,0.67791748046875
1774470102008021500,3.770021484375,-0.7373504638671875,0.144378662109375,0.629364013671875
1774470102018038800,3.780038818359375,-0.759552001953125,0.1194610595703125,0.603790283203125
1774470102028055600,3.7900556640625,-0.7429656982421875,0.09063720703125,0.59051513671875
1774470102038072600,3.800072509765625,-0.717254638671875,0.0820770263671875,0.5981292724609375
1774470102048090600,3.810090576171875,-0.6842498779296875,0.0654144287109375,0.709930419921875
1774470102058107600,3.820107666015625,-0.6639862060546875,0.0533294677734375,0.7649993896484375
1774470102068124700,3.830124755859375,-0.6659393310546875,0.0435943603515625,0.8080291748046875
1774470102078141700,3.8401416015625,-0.69757080078125,0.0140533447265625,0.863739013671875
1774470102088158700,3.85015869140625,-0.7263641357421875,-0.0116729736328125,0.9226226806640625
1774470102098175700,3.86017578125,-0.6954498291015625,-0.0052642822265625,0.932464599609375
1774470102108192800,3.87019287109375,-0.6723175048828125,0.054718017578125,0.831146240234375
1774470102118209500,3.88020947265625,-0.6735382080078125,0.1329498291015625,0.6481170654296875
1774470102128226800,3.890226806640625,-0.741455078125,0.1931915283203125,0.4883880615234375
1774470102138243600,3.90024365234375,-0.7464447021484375,0.2008819580078125,0.437591552734375
1774470102148262000,3.910261962890625,-0.672760009765625,0.1607666015625,0.441375732421875
1774470102158278700,3.920278564453125,-0.6427459716796875,0.1153411865234375,0.5060577392578125
1774470102168295700,3.930295654296875,-0.6370391845703125,0.05810546875,0.579803466796875
1774470102178312700,3.940312744140625,-0.6434173583984375,0.030364990234375,0.64801025390625
1774470102188329700,3.950329833984375,-0.621551513671875,0.0333404541015625,0.648590087890625
1774470102198346500,3.960346435546875,-0.59478759765625,0.042449951171875,0.7123260498046875
1774470102208363800,3.97036376953125,-0.6097259521484375,0.0471954345703125,0.7486724853515625
1774470102218380800,3.980380859375,-0.6578521728515625,0.0334930419921875,0.74249267578125
1774470102228397600,3.9903974609375,-0.66534423828125,0.0469207763671875,0.752716064453125
1774470102238415600,4.00041552734375,-0.6591339111328125,0.065582275390625,0.7496795654296875
1774470102248432600,4.0104326171875,-0.651580810546875,0.0529632568359375,0.74884033203125
1774470102258450000,4.020449951171875,-0.6762542724609375,0.0408935546875,0.7475128173828125
1774470102268466700,4.030466796875,-0.723785400390625,0.016876220703125,0.72503662109375
1774470102278483700,4.040483642578125,-0.770111083984375,0.0010833740234375,0.6593170166015625
1774470102288500700,4.050500732421875,-0.816650390625,0.0026397705078125,0.5673980712890625
1774470102298517800,4.060517822265625,-0.8867034912109375,-0.0150909423828125,0.49468994140625
1774470102308534500,4.070534423828125,-0.9488677978515625,-0.028106689453125,0.474212646484375
1774470102318551800,4.0805517578125,-0.974853515625,-0.0352935791015625,0.5160675048828125
1774470102328568600,4.090568603515625,-0.95867919921875,-0.05181884765625,0.5950927734375
1774470102338587000,4.1005869140625,-0.946258544921875,-0.0501251220703125,0.6432037353515625
1774470102348603600,4.110603759765625,-1.1615753173828125,-0.0688934326171875,0.378692626953125
1774470102358620700,4.12062060546875,-1.1625213623046875,-0.00946044921875,0.4210357666015625
1774470102368637700,4.1306376953125,-1.109344482421875,-0.0034332275390625,0.4365081787109375
1774470102378654700,4.14065478515625,-1.120147705078125,-0.0033111572265625,0.4716033935546875
1774470102388671700,4.150671630859375,-1.062652587890625,-0.0038909912109375,0.5410308837890625
1774470102398688800,4.160688720703125,-0.966766357421875,0.016998291015625,0.633819580078125
1774470102408705800,4.170705810546875,-0.912567138671875,0.0335540771484375,0.63800048828125
1774470102418722600,4.18072265625,-0.8209228515625,0.0255889892578125,0.6595001220703125
1774470102428740900,4.190740966796875,-0.7977447509765625,0.0181732177734375,0.6146240234375
1774470102438757600,4.200757568359375,-0.8202362060546875,0.0264739990234375,0.6365509033203125
1774470102448774700,4.210774658203125,-0.8497772216796875,-0.015045166015625,0.646514892578125
1774470102458791700,4.220791748046875,-0.8397064208984375,-0.0149688720703125,0.6631011962890625
1774470102468808700,4.23080859375,-0.7791290283203125,0.0098876953125,0.665008544921875
1774470102478825700,4.24082568359375,-0.578826904296875,0.060638427734375,0.6826934814453125
1774470102488842800,4.2508427734375,-0.7811126708984375,0.073455810546875,0.5093536376953125
1774470102498859500,4.260859619140625,-0.8413543701171875,0.1357269287109375,0.5284271240234375
1774470102508876800,4.270876708984375,-0.673583984375,0.153106689453125,0.480438232421875
1774470102518893800,4.280893798828125,-0.5871124267578125,0.1827239990234375,0.448516845703125
1774470102528911600,4.29091162109375,-0.6900482177734375,0.169189453125,0.4386444091796875
1774470102538928600,4.3009287109375,-0.8437347412109375,0.1940155029296875,0.4526824951171875
1774470102548945700,4.310945556640625,-0.9160614013671875,0.2318572998046875,0.4526214599609375
1774470102558962700,4.320962646484375,-0.9109039306640625,0.2880706787109375,0.516998291015625
1774470102568979700,4.330979736328125,-0.902496337890625,0.3053436279296875,0.572784423828125
1774470102578996700,4.340996826171875,-0.962982177734375,0.294708251953125,0.6158447265625
1774470102589013500,4.351013427734375,-0.991973876953125,0.2633819580078125,0.6855621337890625
1774470102599030800,4.36103076171875,-1.0472564697265625,0.1954345703125,0.6283721923828125
1774470102609047600,4.371047607421875,-1.03564453125,0.180755615234375,0.60107421875
1774470102619064600,4.381064697265625,-1.0158233642578125,0.2030029296875,0.493133544921875
1774470102629082600,4.39108251953125,-1.005462646484375,0.214324951171875,0.405426025390625
1774470102639100200,4.40110009765625,-1.015960693359375,0.20428466796875,0.360992431640625
1774470102649117200,4.4111171875,-1.042877197265625,0.1583099365234375,0.3488311767578125
1774470102659134200,4.42113427734375,-1.0907135009765625,0.098846435546875,0.374847412109375
1774470102669151200,4.431151123046875,-1.1349334716796875,0.01385498046875,0.402008056640625
1774470102679168300,4.441168212890625,-1.1229400634765625,-0.004150390625,0.4007110595703125
1774470102689185000,4.45118505859375,-1.01312255859375,-0.0486907958984375,0.297882080078125
1774470102699202300,4.461202392578125,-1.0021514892578125,-0.0749053955078125,0.241729736328125
1774470102709219300,4.47121923828125,-0.8127288818359375,-0.048309326171875,0.173187255859375
1774470102719236000,4.481236083984375,-0.2672119140625,-0.0323486328125,-0.07476806640625
1774470102729254100,4.491254150390625,-0.159759521484375,-0.152374267578125,-0.0632781982421875
1774470102739271200,4.501271240234375,-0.643096923828125,-0.234771728515625,0.3345794677734375
1774470102749288200,4.5112880859375,-0.7949066162109375,-0.19696044921875,0.5679779052734375
1774470102759305200,4.52130517578125,-0.68133544921875,-0.1111297607421875,0.60504150390625
1774470102769322200,4.531322265625,-0.59027099609375,-0.0452880859375,0.353485107421875
1774470102779339000,4.541339111328125,-0.7003173828125,0.0784149169921875,0.1156768798828125
1774470102789356300,4.551356201171875,-0.9347076416015625,0.0867156982421875,0.0567626953125
1774470102799373000,4.561373046875,-1.0233001708984375,-0.031280517578125,0.1065673828125
1774470102809390300,4.571390380859375,-0.915771484375,-0.06475830078125,0.2036895751953125
1774470102819407000,4.581406982421875,-0.7295379638671875,-0.1040496826171875,0.1718292236328125
1774470102829424000,4.591424072265625,-0.6083831787109375,-0.1431121826171875,0.1734466552734375
1774470102839442200,4.601442138671875,-0.6008758544921875,-0.2504730224609375,0.24029541015625
1774470102849459200,4.611459228515625,-0.68292236328125,-0.280242919921875,0.3396453857421875
1774470102859476000,4.62147607421875,-0.7715606689453125,-0.2344207763671875,0.4526214599609375
1774470102869493200,4.6314931640625,-0.804534912109375,-0.2167205810546875,0.3938751220703125
1774470102879510300,4.64151025390625,-0.8505859375,-0.199066162109375,0.33868408203125
1774470102889527000,4.651527099609375,-0.9646453857421875,-0.1408233642578125,0.3836517333984375
1774470102899544300,4.66154443359375,-1.077667236328125,-0.12744140625,0.441864013671875
1774470102909561000,4.67156103515625,-1.1710052490234375,-0.0802001953125,0.506072998046875
1774470102919578000,4.681578125,-1.2163848876953125,-0.0184326171875,0.505889892578125
1774470102929595100,4.69159521484375,-1.249420166015625,0.02001953125,0.46441650390625
1774470102939613200,4.70161328125,-1.3172454833984375,0.02935791015625,0.463836669921875
1774470102949630200,4.711630126953125,-1.34100341796875,0.047027587890625,0.5358428955078125
1774470102959647200,4.721647216796875,-1.2892608642578125,-0.0106964111328125,0.538482666015625
1774470102969664000,4.7316640625,-1.2999420166015625,-0.094146728515625,0.5633544921875
1774470102979681300,4.741681396484375,-1.3032073974609375,-0.1534881591796875,0.64923095703125
1774470102989698000,4.751697998046875,-1.204376220703125,-0.2326202392578125,0.681427001953125
1774470102999715000,4.761715087890625,-1.1322021484375,-0.3065032958984375,0.673004150390625
1774470103009732400,4.771732421875,-1.00701904296875,-0.318023681640625,0.7186279296875
1774470103019749000,4.7817490234375,-0.8092193603515625,-0.3397064208984375,0.6280670166015625
1774470103029766100,4.79176611328125,-0.7831573486328125,-0.3059234619140625,0.59881591796875
1774470103039783200,4.801783203125,-1.1250762939453125,-0.20684814453125,0.5983428955078125
1774470103049801200,4.81180126953125,-1.4920806884765625,-0.0838165283203125,0.4568328857421875
1774470103059818200,4.821818359375,-1.4696502685546875,0.1756744384765625,0.017578125
1774470103069835300,4.831835205078125,-1.2364349365234375,0.414947509765625,-0.8992156982421875
1774470103079852000,4.84185205078125,-0.8857421875,0.1076202392578125,-0.7660064697265625
1774470103089869300,4.851869384765625,-0.9658050537109375,0.1222991943359375,-0.3882293701171875
1774470103099886000,4.861885986328125,-0.8305206298828125,0.1792755126953125,-0.3749847412109375
1774470103109903000,4.871903076171875,-0.7877044677734375,-0.091461181640625,-0.166412353515625
1774470103119920000,4.881920166015625,-0.9715728759765625,-0.14508056640625,0.0291595458984375
1774470103129937200,4.891937255859375,-0.964263916015625,-0.2040252685546875,0.1883544921875
1774470103139954200,4.9019541015625,-0.8155517578125,-0.2415008544921875,0.31793212890625
1774470103149971200,4.91197119140625,-0.6591796875,-0.2172393798828125,0.5137939453125
1774470103159989000,4.921989013671875,-0.547607421875,-0.1696014404296875,0.59796142578125
1774470103170006300,4.93200634765625,-0.4486236572265625,-0.1203765869140625,0.6489105224609375
1774470103180023300,4.942023193359375,-0.43817138671875,-0.089508056640625,0.683807373046875
1774470103190040000,4.9520400390625,-0.5001220703125,-0.04083251953125,0.6876220703125
1774470103200057300,4.962057373046875,-0.5684356689453125,-0.0181427001953125,0.6854705810546875
1774470103210074000,4.97207421875,-0.6153564453125,0.01446533203125,0.6474456787109375
1774470103220091100,4.982091064453125,-0.66851806640625,0.0699462890625,0.6199951171875
1774470103230108200,4.992108154296875,-0.7217254638671875,0.1088104248046875,0.5695953369140625
1774470103240125200,5.002125244140625,-0.772125244140625,0.1204986572265625,0.5447540283203125
1774470103250142200,5.01214208984375,-0.7835235595703125,0.1298675537109375,0.5758514404296875
1774470103260159200,5.0221591796875,-0.780029296875,0.11907958984375,0.58837890625
1774470103270177000,5.032177001953125,-0.8098297119140625,0.072723388671875,0.5840301513671875
1774470103280194300,5.0421943359375,-0.8622894287109375,0.03863525390625,0.566162109375
1774470103290211300,5.05221142578125,-0.9140625,0.0153350830078125,0.5446929931640625
1774470103300228000,5.06222802734375,-0.96258544921875,0.0199127197265625,0.528167724609375
1774470103310245400,5.072245361328125,-1.00579833984375,0.030670166015625,0.491912841796875
1774470103320262100,5.08226220703125,-1.03564453125,0.0364227294921875,0.460113525390625
1774470103330279200,5.092279052734375,-1.060272216796875,0.034576416015625,0.4200897216796875
1774470103340296200,5.102296142578125,-1.0525054931640625,0.035858154296875,0.3980712890625
1774470103350313200,5.112313232421875,-1.043670654296875,0.03271484375,0.368896484375
1774470103360330000,5.122330078125,-1.0405120849609375,0.0180206298828125,0.3489837646484375
1774470103370347300,5.13234716796875,-1.020416259765625,0.01141357421875,0.3497772216796875
1774470103380365000,5.142364990234375,-0.9888153076171875,-0.003326416015625,0.3533477783203125
1774470103390382300,5.15238232421875,-0.956878662109375,-0.0182342529296875,0.35797119140625
1774470103400399000,5.162399169921875,-0.9274749755859375,-0.0374755859375,0.362396240234375
1774470103410416000,5.172416015625,-0.9016265869140625,-0.037445068359375,0.381103515625
1774470103420433400,5.182433349609375,-0.8829498291015625,-0.0623779296875,0.3642578125
1774470103430450200,5.1924501953125,-0.8568572998046875,-0.061370849609375,0.372833251953125
1774470103440467200,5.20246728515625,-0.84210205078125,-0.059051513671875,0.3746185302734375
1774470103450484200,5.212484130859375,-0.8730621337890625,-0.0665740966796875,0.37451171875
1774470103460501200,5.222501220703125,-0.9099273681640625,-0.07452392578125,0.371673583984375
1774470103470518000,5.23251806640625,-0.9307098388671875,-0.1094818115234375,0.3828582763671875
1774470103480535300,5.242535400390625,-0.956787109375,-0.1428070068359375,0.4193572998046875
1774470103490553000,5.252552978515625,-0.998291015625,-0.1828765869140625,0.439910888671875
1774470103500570400,5.2625703125,-1.0185394287109375,-0.212921142578125,0.4582977294921875
1774470103510587100,5.272587158203125,-1.028839111328125,-0.2202301025390625,0.4474945068359375
1774470103520604200,5.282604248046875,-1.0368804931640625,-0.223663330078125,0.412139892578125
1774470103530621200,5.29262109375,-1.0457611083984375,-0.21417236328125,0.37835693359375
1774470103540638200,5.30263818359375,-1.07049560546875,-0.210052490234375,0.3548583984375
1774470103550655200,5.3126552734375,-1.08428955078125,-0.193023681640625,0.371795654296875
1774470103560672300,5.32267236328125,-1.0718841552734375,-0.1837158203125,0.3846588134765625
1774470103570689300,5.332689208984375,-1.0285186767578125,-0.1688079833984375,0.3781585693359375
1774470103580706000,5.3427060546875,-0.9887847900390625,-0.1344757080078125,0.35992431640625
1774470103590723300,5.352723388671875,-1.00439453125,-0.1163787841796875,0.331390380859375
1774470103600740000,5.362739990234375,-1.021331787109375,-0.122314453125,0.3141632080078125
1774470103610758400,5.37275830078125,-1.0288238525390625,-0.11138916015625,0.2981414794921875
1774470103620775200,5.382775146484375,-1.018341064453125,-0.0895538330078125,0.30743408203125
1774470103630792200,5.392792236328125,-0.997100830078125,-0.106597900390625,0.2825775146484375
1774470103640809000,5.40280908203125,-0.9788665771484375,-0.104644775390625,0.2562713623046875
1774470103650826200,5.412826171875,-0.953369140625,-0.074127197265625,0.2560272216796875
1774470103660843000,5.422843017578125,-0.90594482421875,-0.0663604736328125,0.259490966796875
1774470103670860000,5.432860107421875,-0.873443603515625,-0.06365966796875,0.2404327392578125
1774470103680877300,5.442877197265625,-0.841033935546875,-0.0550384521484375,0.227752685546875
1774470103690894000,5.45289404296875,-0.8491668701171875,-0.062652587890625,0.245269775390625
1774470103700911000,5.4629111328125,-0.8780364990234375,-0.093841552734375,0.2467498779296875
1774470103710928100,5.47292822265625,-0.876678466796875,-0.1155853271484375,0.257537841796875
1774470103720946200,5.4829462890625,-0.8372802734375,-0.1237030029296875,0.292266845703125
1774470103730963200,5.492963134765625,-0.8029937744140625,-0.1199493408203125,0.3066253662109375
1774470103740980200,5.502980224609375,-0.7836151123046875,-0.1080474853515625,0.3170623779296875
1774470103750997000,5.5129970703125,-0.776458740234375,-0.101776123046875,0.335723876953125
1774470103761014300,5.52301416015625,-0.7854461669921875,-0.1099395751953125,0.3584747314453125
1774470103771031000,5.533031005859375,-0.7731781005859375,-0.1100006103515625,0.4196624755859375
1774470103781048000,5.543048095703125,-0.7277679443359375,-0.1043548583984375,0.453643798828125
1774470103791065300,5.5530654296875,-0.720733642578125,-0.0950469970703125,0.4463653564453125
1774470103801082000,5.56308203125,-0.77386474609375,-0.1004486083984375,0.445587158203125
1774470103811099100,5.57309912109375,-0.8693389892578125,-0.1241912841796875,0.4709014892578125
1774470103821116200,5.5831162109375,-0.9295501708984375,-0.1471099853515625,0.5061492919921875
1774470103831133200,5.59313330078125,-0.93853759765625,-0.155731201171875,0.5179290771484375
1774470103841151200,5.603151123046875,-0.9336395263671875,-0.12335205078125,0.5070343017578125
1774470103851168300,5.613168212890625,-0.9106597900390625,-0.044952392578125,0.4868927001953125
1774470103861185000,5.62318505859375,-0.9200897216796875,0.016357421875,0.4171142578125
1774470103871202300,5.633202392578125,-0.9466400146484375,0.038909912109375,0.3924407958984375
1774470103881219000,5.643218994140625,-0.955963134765625,0.0352935791015625,0.4174957275390625
1774470103891236000,5.653236083984375,-0.9335784912109375,-0.00262451171875,0.457000732421875
1774470103901253000,5.663253173828125,-0.8918304443359375,-0.0376434326171875,0.51104736328125
1774470103911270100,5.673270263671875,-0.8857879638671875,-0.0625152587890625,0.5109710693359375
1774470103921287200,5.683287109375,-0.9219512939453125,-0.0718994140625,0.4859466552734375
1774470103931304200,5.69330419921875,-0.92669677734375,-0.02557373046875,0.539459228515625
1774470103941321200,5.7033212890625,-0.930999755859375,0.0047149658203125,0.5705108642578125
1774470103951338000,5.713337890625,-0.8838958740234375,0.0139312744140625,0.5319976806640625
1774470103961355300,5.723355224609375,-0.8198089599609375,-0.0037384033203125,0.444244384765625
1774470103971373000,5.733373046875,-0.868560791015625,0.0614776611328125,0.4711761474609375
1774470103981390300,5.743390380859375,-0.91290283203125,0.1241912841796875,0.525787353515625
1774470103991407000,5.753406982421875,-0.9743804931640625,0.058258056640625,0.4651031494140625
1774470104001424100,5.763424072265625,-1.002410888671875,0.0863189697265625,0.473114013671875
1774470104011441200,5.773441162109375,-0.9895172119140625,0.1112060546875,0.4717864990234375
1774470104021458200,5.783458251953125,-0.9646759033203125,0.1490631103515625,0.4892578125
1774470104031475000,5.793474853515625,-0.9622955322265625,0.1524810791015625,0.4954681396484375
1774470104041492200,5.8034921875,-1.0041046142578125,0.1483612060546875,0.4916534423828125
1774470104051509200,5.81350927734375,-0.9743804931640625,0.1526031494140625,0.542694091796875
1774470104061526000,5.823526123046875,-0.878204345703125,0.157470703125,0.5785369873046875
1774470104071543300,5.833543212890625,-0.8250579833984375,0.1475830078125,0.556854248046875
1774470104081560000,5.84356005859375,-0.8157196044921875,0.151824951171875,0.5108489990234375
1774470104091578400,5.853578369140625,-0.798126220703125,0.1176910400390625,0.470458984375
1774470104101595100,5.86359521484375,-0.84039306640625,0.074462890625,0.4864501953125
1774470104111612200,5.873612060546875,-0.8813018798828125,0.052337646484375,0.474029541015625
1774470104121629200,5.883629150390625,-0.8711395263671875,0.0224151611328125,0.458740234375
1774470104131646200,5.893646240234375,-0.836639404296875,0.00738525390625,0.4247894287109375
1774470104141663000,5.9036630859375,-0.842803955078125,-0.0064849853515625,0.379119873046875
1774470104151680300,5.91368017578125,-0.9020233154296875,-0.0498199462890625,0.3480987548828125
1774470104161697000,5.923697021484375,-0.9646759033203125,-0.0909881591796875,0.32635498046875
1774470104171714000,5.933714111328125,-0.9861602783203125,-0.1163787841796875,0.3189849853515625
1774470104181731300,5.9437314453125,-0.98358154296875,-0.1373291015625,0.307403564453125
1774470104191748000,5.953748046875,-0.9758758544921875,-0.157257080078125,0.287872314453125
1774470104201765000,5.96376513671875,-0.9771881103515625,-0.1721038818359375,0.284698486328125
1774470104211783200,5.973783203125,-0.9880828857421875,-0.1737060546875,0.292877197265625
1774470104221800200,5.98380029296875,-1.0092926025390625,-0.1805877685546875,0.27691650390625
1774470104231817200,5.993817138671875,-1.01080322265625,-0.183685302734375,0.262481689453125
1774470104241834200,6.003834228515625,-1.00616455078125,-0.1776580810546875,0.2652740478515625
1774470104251851000,6.01385107421875,-0.982818603515625,-0.186737060546875,0.2515106201171875
1774470104261868300,6.023868408203125,-0.9588775634765625,-0.202728271484375,0.23687744140625
1774470104271885000,6.033885009765625,-0.9544677734375,-0.216888427734375,0.231170654296875
1774470104281902000,6.043902099609375,-0.9508209228515625,-0.23309326171875,0.2264862060546875
1774470104291919000,6.053919189453125,-0.9387664794921875,-0.2357940673828125,0.2297515869140625
1774470104301936000,6.06393603515625,-0.9176483154296875,-0.2389984130859375,0.2292327880859375
1774470104311953200,6.073953125,-0.8955230712890625,-0.247100830078125,0.23016357421875
1774470104321970200,6.08397021484375,-0.8782196044921875,-0.24102783203125,0.233367919921875
1774470104331988200,6.09398828125,-0.8721771240234375,-0.2382354736328125,0.2269134521484375
1774470104342005200,6.104005126953125,-0.870452880859375,-0.2448577880859375,0.222503662109375
1774470104352022300,6.114022216796875,-0.86602783203125,-0.2452545166015625,0.2383270263671875
1774470104362039000,6.1240390625,-0.8916778564453125,-0.2387237548828125,0.23992919921875
1774470104372056300,6.134056396484375,-0.9139404296875,-0.2406463623046875,0.2286224365234375
1774470104382073000,6.144072998046875,-0.88214111328125,-0.2437286376953125,0.255645751953125
1774470104392090000,6.154090087890625,-0.8621368408203125,-0.241851806640625,0.2724151611328125
1774470104402107100,6.164107177734375,-0.8676300048828125,-0.241851806640625,0.2567291259765625
1774470104412124200,6.174124267578125,-0.88201904296875,-0.243316650390625,0.25408935546875
1774470104422141200,6.18414111328125,-0.8861541748046875,-0.243499755859375,0.2599029541015625
1774470104432158200,6.194158203125,-0.87445068359375,-0.2620086669921875,0.2581787109375
1774470104442175200,6.20417529296875,-0.8676605224609375,-0.275115966796875,0.2602386474609375
1774470104452192000,6.21419189453125,-0.8682708740234375,-0.2862396240234375,0.26202392578125
1774470104462210300,6.224210205078125,-0.861968994140625,-0.2875823974609375,0.26806640625
1774470104472227000,6.23422705078125,-0.8526153564453125,-0.2805023193359375,0.2617034912109375
1774470104482244400,6.244244384765625,-0.8782196044921875,-0.2660980224609375,0.23541259765625
1774470104492261000,6.25426123046875,-0.9185943603515625,-0.253204345703125,0.2109222412109375
1774470104502278100,6.264278076171875,-0.9496612548828125,-0.252105712890625,0.1959381103515625
1774470104512295200,6.274295166015625,-0.99969482421875,-0.2477874755859375,0.1935882568359375
1774470104522312200,6.284312255859375,-1.035675048828125,-0.2477569580078125,0.194793701171875
1774470104532329000,6.294328857421875,-1.048675537109375,-0.273956298828125,0.184295654296875
1774470104542346200,6.30434619140625,-1.0389556884765625,-0.2690277099609375,0.195343017578125
1774470104552363300,6.31436328125,-1.0146026611328125,-0.277496337890625,0.1862335205078125
1774470104562380000,6.324380126953125,-0.9851226806640625,-0.2925567626953125,0.1619873046875
1774470104572397300,6.334397216796875,-0.960784912109375,-0.3079071044921875,0.145050048828125
1774470104582414000,6.3444140625,-0.9559173583984375,-0.325164794921875,0.1380615234375
1774470104592432400,6.354432373046875,-0.9699554443359375,-0.3384246826171875,0.131561279296875
1774470104602449200,6.36444921875,-0.9838104248046875,-0.341400146484375,0.119537353515625
1774470104612466200,6.374466064453125,-0.999053955078125,-0.3305206298828125,0.09942626953125
1774470104622483200,6.384483154296875,-1.01214599609375,-0.3170623779296875,0.0781097412109375
1774470104632500200,6.394500244140625,-1.0135955810546875,-0.3054351806640625,0.05535888671875
1774470104642516700,6.404516845703125,-1.0029144287109375,-0.299407958984375,0.03179931640625
1774470104652533800,6.41453369140625,-0.989501953125,-0.2938079833984375,0.00604248046875
1774470104662550800,6.42455078125,-0.9878997802734375,-0.3004302978515625,-0.0203399658203125
1774470104672567600,6.434567626953125,-1.0001220703125,-0.3048858642578125,-0.0435638427734375
1774470104682584800,6.444584716796875,-0.999481201171875,-0.310302734375,-0.0608062744140625
1774470104692601600,6.4546015625,-0.9971771240234375,-0.313262939453125,-0.071746826171875
1774470104702618600,6.46461865234375,-0.998321533203125,-0.31787109375,-0.086944580078125
1774470104712635600,6.4746357421875,-1.0016937255859375,-0.3179931640625,-0.098480224609375
1774470104722652700,6.484652587890625,-0.98846435546875,-0.3239593505859375,-0.1044464111328125
1774470104732670700,6.494670654296875,-0.9697418212890625,-0.3345794677734375,-0.10955810546875
1774470104742687700,6.504687744140625,-0.9628753662109375,-0.349578857421875,-0.103118896484375
1774470104752704500,6.51470458984375,-0.95330810546875,-0.36175537109375,-0.0975799560546875
1774470104762721800,6.5247216796875,-0.9435272216796875,-0.3679656982421875,-0.1109466552734375
1774470104772738800,6.53473876953125,-0.9389801025390625,-0.3739471435546875,-0.1287384033203125
1774470104782755600,6.544755615234375,-0.9462127685546875,-0.3691253662109375,-0.1482696533203125
1774470104792772900,6.55477294921875,-0.95697021484375,-0.3660430908203125,-0.1726226806640625
1774470104802789600,6.56478955078125,-0.959930419921875,-0.352813720703125,-0.177093505859375
1774470104812806700,6.574806640625,-0.9456024169921875,-0.315582275390625,-0.1841278076171875
1774470104822823700,6.58482373046875,-0.9323272705078125,-0.3307037353515625,-0.2239532470703125
1774470104832840700,6.5948408203125,-0.9291534423828125,-0.3419952392578125,-0.2409515380859375
1774470104842857500,6.604857421875,-0.915069580078125,-0.338714599609375,-0.239654541015625
1774470104852874800,6.614874755859375,-0.9122314453125,-0.355194091796875,-0.2612457275390625
1774470104862892500,6.624892578125,-0.9188385009765625,-0.3618621826171875,-0.30584716796875
1774470104872909800,6.634909912109375,-0.93402099609375,-0.3267364501953125,-0.3861541748046875
1774470104882926600,6.644926513671875,-0.9480743408203125,-0.2508544921875,-0.4298553466796875
1774470104892943600,6.654943603515625,-0.9442596435546875,-0.228729248046875,-0.4399566650390625
1774470104902961000,6.6649609375,-0.941162109375,-0.2468719482421875,-0.451873779296875
1774470104912977700,6.674977783203125,-0.94879150390625,-0.267333984375,-0.4657135009765625
1774470104922994700,6.68499462890625,-0.93609619140625,-0.297149658203125,-0.452117919921875
1774470104933011700,6.69501171875,-0.9027557373046875,-0.328948974609375,-0.4240264892578125
1774470104943028700,6.70502880859375,-0.86895751953125,-0.35711669921875,-0.4298858642578125
1774470104953045500,6.71504541015625,-0.849761962890625,-0.37225341796875,-0.4436492919921875
1774470104963062800,6.725062744140625,-0.849822998046875,-0.3800506591796875,-0.4087371826171875
1774470104973079800,6.735079833984375,-0.837188720703125,-0.397430419921875,-0.41552734375
1774470104983096600,6.7450966796875,-0.8348236083984375,-0.409210205078125,-0.41943359375
1774470104993113900,6.75511376953125,-0.830841064453125,-0.4074859619140625,-0.4329376220703125
1774470105003131600,6.765131591796875,-0.82489013671875,-0.423980712890625,-0.452789306640625
1774470105013148700,6.775148681640625,-0.804534912109375,-0.450408935546875,-0.45361328125
1774470105023165700,6.785165771484375,-0.7801666259765625,-0.462310791015625,-0.4548187255859375
1774470105033182700,6.7951826171875,-0.7563629150390625,-0.472259521484375,-0.4574127197265625
1774470105043199700,6.80519970703125,-0.728485107421875,-0.479461669921875,-0.46917724609375
1774470105053216800,6.815216796875,-0.714630126953125,-0.4813232421875,-0.49822998046875
1774470105063233500,6.825233642578125,-0.7156219482421875,-0.4882354736328125,-0.49420166015625
1774470105073250800,6.835250732421875,-0.704833984375,-0.475860595703125,-0.4991455078125
1774470105083267600,6.845267578125,-0.7188262939453125,-0.4556121826171875,-0.550811767578125
1774470105093284600,6.85528466796875,-0.784515380859375,-0.4255828857421875,-0.5889892578125
1774470105103302000,6.865302001953125,-0.8339385986328125,-0.3417205810546875,-0.627288818359375
1774470105113318700,6.875318603515625,-0.8266143798828125,-0.27099609375,-0.6629638671875
1774470105123335700,6.885335693359375,-0.8069915771484375,-0.24566650390625,-0.673553466796875
1774470105133352700,6.895352783203125,-0.76611328125,-0.2286376953125,-0.65667724609375
1774470105143370800,6.905370849609375,-0.716766357421875,-0.2267303466796875,-0.6301116943359375
1774470105153387800,6.9153876953125,-0.6911468505859375,-0.24908447265625,-0.581817626953125
1774470105163404800,6.92540478515625,-0.6953125,-0.284820556640625,-0.5154571533203125
1774470105173421600,6.935421630859375,-0.6998443603515625,-0.30517578125,-0.45965576171875
1774470105183438800,6.94543896484375,-0.713348388671875,-0.336822509765625,-0.3775787353515625
1774470105193455600,6.95545556640625,-0.73876953125,-0.3447418212890625,-0.3219451904296875
1774470105203472600,6.96547265625,-0.7570648193359375,-0.3300018310546875,-0.3243255615234375
1774470105213489700,6.97548974609375,-0.8367767333984375,-0.2539825439453125,-0.2055511474609375
1774470105223506700,6.985506591796875,-1.2261810302734375,-0.1296539306640625,-0.30438232421875
1774470105233523700,6.995523681640625,-1.2372589111328125,-0.300689697265625,-0.46258544921875
1774470105243540700,7.005540771484375,-1.0326995849609375,-0.4221649169921875,-0.3581085205078125
1774470105253557800,7.015557861328125,-0.8062744140625,-0.415924072265625,-0.13262939453125
1774470105263574500,7.025574462890625,-0.6234588623046875,-0.4605560302734375,-0.08294677734375
1774470105273591800,7.035591796875,-0.6024322509765625,-0.4539642333984375,-0.2185821533203125
1774470105283609600,7.045609619140625,-0.576324462890625,-0.34869384765625,-0.2093353271484375
1774470105293627000,7.055626953125,-0.66900634765625,-0.3269500732421875,-0.2972869873046875
1774470105303643600,7.0656435546875,-0.8605804443359375,-0.321533203125,-0.442596435546875
1774470105313660700,7.07566064453125,-1.0764007568359375,-0.3168487548828125,-0.453338623046875
1774470105323677700,7.085677734375,-1.26348876953125,-0.3636322021484375,-0.357635498046875
1774470105333694700,7.09569482421875,-1.30126953125,-0.378753662109375,-0.185638427734375
1774470105343711500,7.10571142578125,-1.1545867919921875,-0.346771240234375,-0.06781005859375
1774470105353728800,7.115728759765625,-0.9390411376953125,-0.3749847412109375,-0.06439208984375
1774470105363745800,7.125745849609375,-0.806396484375,-0.46539306640625,0.03082275390625
1774470105373762600,7.135762451171875,-0.69561767578125,-0.470458984375,0.1720428466796875
1774470105383779800,7.14577978515625,-0.545684814453125,-0.441436767578125,0.2488861083984375
1774470105393796600,7.155796630859375,-0.523681640625,-0.5144500732421875,0.091522216796875
1774470105403813600,7.165813720703125,-0.5806427001953125,-0.6417388916015625,0.1300506591796875
1774470105413830700,7.17583056640625,-0.725128173828125,-0.577667236328125,0.294158935546875
1774470105423847700,7.18584765625,-0.7491455078125,-0.52911376953125,0.214385986328125
1774470105433865700,7.19586572265625,-0.7554473876953125,-0.5949859619140625,0.0818634033203125
1774470105443882800,7.2058828125,-0.827484130859375,-0.5044708251953125,0.1081695556640625
1774470105453899500,7.2158994140625,-0.91583251953125,-0.4458770751953125,0.1428070068359375
1774470105463916800,7.225916748046875,-0.989959716796875,-0.466766357421875,0.173828125
1774470105473933800,7.235933837890625,-1.0062408447265625,-0.562286376953125,0.2164764404296875
1774470105483950600,7.24595068359375,-0.933685302734375,-0.4713592529296875,0.194580078125
1774470105493968000,7.2559677734375,-0.84283447265625,-0.3593292236328125,0.1877593994140625
1774470105503984600,7.265984619140625,-0.8453216552734375,-0.5503387451171875,0.4268646240234375
1774470105514001700,7.276001708984375,-0.7804718017578125,-0.51336669921875,0.6041412353515625
1774470105524018700,7.286018798828125,-0.8449859619140625,-0.4785003662109375,0.4689178466796875
1774470105534035700,7.29603564453125,-0.9793701171875,-0.4165191650390625,0.2681427001953125
1774470105544052500,7.306052490234375,-1.050323486328125,-0.3497772216796875,0.08551025390625
1774470105554069800,7.31606982421875,-1.1278228759765625,-0.31561279296875,-0.033843994140625
1774470105564086800,7.326086669921875,-1.202056884765625,-0.4214324951171875,-0.0324554443359375
1774470105574104800,7.336104736328125,-1.0295257568359375,-0.597686767578125,-0.0055084228515625
1774470105584121600,7.34612158203125,-0.9102630615234375,-0.6217041015625,0.09735107421875
1774470105594138600,7.356138671875,-0.824737548828125,-0.663055419921875,0.196258544921875
1774470105604156000,7.366156005859375,-0.875823974609375,-0.639862060546875,0.1471099853515625
1774470105614172700,7.376172607421875,-0.9586029052734375,-0.6295318603515625,0.09173583984375
1774470105624189700,7.386189697265625,-0.94122314453125,-0.6722412109375,-0.0161590576171875
1774470105634206700,7.396206787109375,-0.916107177734375,-0.7073822021484375,-0.079559326171875
1774470105644224300,7.406224365234375,-0.8428192138671875,-0.7369537353515625,-0.003814697265625
1774470105654241000,7.416240966796875,-0.869873046875,-0.765380859375,0.1255035400390625
1774470105664258000,7.426258056640625,-0.9082183837890625,-0.731903076171875,0.1356353759765625
1774470105674275000,7.436275146484375,-0.9286346435546875,-0.724609375,0.154327392578125
1774470105684292000,7.4462919921875,-0.922515869140625,-0.7402191162109375,0.187225341796875
1774470105694309000,7.45630908203125,-0.9539947509765625,-0.6807861328125,0.169769287109375
1774470105704326100,7.466326171875,-0.973602294921875,-0.60205078125,0.2378387451171875
1774470105714343200,7.47634326171875,-0.97235107421875,-0.5360870361328125,0.4112548828125
1774470105724360000,7.48635986328125,-0.9796905517578125,-0.46014404296875,0.5653228759765625
1774470105734378000,7.4963779296875,-0.99603271484375,-0.37939453125,0.6145172119140625
1774470105744395000,7.50639501953125,-0.9792327880859375,-0.3726043701171875,0.5892181396484375
1774470105754412300,7.516412353515625,-0.8577117919921875,-0.41827392578125,0.4784393310546875
1774470105764429000,7.526428955078125,-0.6751861572265625,-0.48345947265625,0.4435272216796875
1774470105774446000,7.536446044921875,-0.4941864013671875,-0.5056304931640625,0.450927734375
1774470105784463000,7.546463134765625,-0.33489990234375,-0.5378875732421875,0.4888153076171875
1774470105794480000,7.556480224609375,-0.265869140625,-0.6243896484375,0.6224212646484375
1774470105804497000,7.566496826171875,-0.3295135498046875,-0.6701202392578125,0.666259765625
1774470105814514200,7.57651416015625,-0.417327880859375,-0.62066650390625,0.5859527587890625
1774470105824531200,7.58653125,-0.443328857421875,-0.5875396728515625,0.5292205810546875
1774470105834548000,7.5965478515625,-0.4535064697265625,-0.5782470703125,0.4869232177734375
1774470105844565200,7.606565185546875,-0.4715728759765625,-0.54730224609375,0.46673583984375
1774470105854582000,7.61658203125,-0.5727996826171875,-0.4730682373046875,0.500213623046875
1774470105864599000,7.62659912109375,-0.7735748291015625,-0.4043121337890625,0.5507049560546875
1774470105874616000,7.636615966796875,-1.033538818359375,-0.3543853759765625,0.5843353271484375
1774470105884633000,7.646633056640625,-1.28271484375,-0.3270721435546875,0.5873565673828125
1774470105894651100,7.656651123046875,-1.4324188232421875,-0.289764404296875,0.5095977783203125
1774470105904668200,7.666668212890625,-1.4398040771484375,-0.3085479736328125,0.4171142578125
1774470105914685000,7.676684814453125,-1.34716796875,-0.3419036865234375,0.415435791015625
1774470105924702200,7.6867021484375,-1.16082763671875,-0.3808441162109375,0.4443511962890625
1774470105934719000,7.696718994140625,-0.9548187255859375,-0.375030517578125,0.4483184814453125
1774470105944736000,7.706736083984375,-0.7774658203125,-0.3437957763671875,0.5
1774470105954753300,7.716753173828125,-0.625518798828125,-0.3550872802734375,0.5537261962890625
1774470105964770000,7.72677001953125,-0.504150390625,-0.3829193115234375,0.53814697265625
1774470105974787000,7.736787109375,-0.421112060546875,-0.4033050537109375,0.4548187255859375
1774470105984804000,7.74680419921875,-0.390167236328125,-0.4323883056640625,0.3552703857421875
1774470105994821000,7.756821044921875,-0.4028167724609375,-0.449249267578125,0.27557373046875
1774470106004838000,7.766837890625,-0.474090576171875,-0.4586334228515625,0.2587890625
1774470106014855200,7.776855224609375,-0.538604736328125,-0.48052978515625,0.2957763671875
1774470106024872200,7.7868720703125,-0.6256561279296875,-0.5240631103515625,0.2734527587890625
1774470106034889000,7.796888916015625,-0.66656494140625,-0.6962432861328125,0.338653564453125
1774470106044906200,7.80690625,-0.6027374267578125,-0.658782958984375,0.2852325439453125
1774470106054924000,7.816924072265625,-0.52215576171875,-0.4391326904296875,0.24200439453125
1774470106064941000,7.826941162109375,-0.4762420654296875,-0.4540863037109375,0.479034423828125
1774470106074958000,7.8369580078125,-0.5750579833984375,-0.4328155517578125,0.563812255859375
1774470106084975000,7.84697509765625,-0.7519073486328125,-0.352203369140625,0.470794677734375
1774470106094992100,7.8569921875,-0.924041748046875,-0.401336669921875,0.40191650390625
1774470106105009200,7.867009033203125,-1.0952911376953125,-0.504608154296875,0.34112548828125
1774470106115026000,7.87702587890625,-1.207366943359375,-0.5358428955078125,0.28863525390625
1774470106125043200,7.887043212890625,-1.285980224609375,-0.5985870361328125,0.2575225830078125
1774470106135060000,7.89706005859375,-1.2421722412109375,-0.6396331787109375,0.2695159912109375
1774470106145077000,7.907076904296875,-1.043975830078125,-0.628570556640625,0.25372314453125
1774470106155094300,7.91709423828125,-0.8730010986328125,-0.7196197509765625,0.221893310546875
1774470106165111000,7.927111083984375,-0.7407684326171875,-0.8361663818359375,0.1055450439453125
1774470106175128000,7.937128173828125,-0.6311187744140625,-0.9412841796875,0.018280029296875
1774470106185145000,7.94714501953125,-0.452056884765625,-1.0436859130859375,0.0487518310546875
1774470106195162000,7.957162109375,-0.2190399169921875,-1.1327667236328125,0.03997802734375
1774470106205179000,7.967178955078125,0.069427490234375,-1.1809539794921875,0.001708984375
1774470106215196200,7.977196044921875,0.284088134765625,-1.19781494140625,-0.051116943359375
1774470106225214000,7.9872138671875,0.3600311279296875,-1.2599334716796875,-0.12664794921875
1774470106235231200,7.997231201171875,0.310455322265625,-1.236175537109375,-0.182708740234375
1774470106245248000,8.007248046875,0.1605377197265625,-1.1389923095703125,-0.136444091796875
1774470106255265000,8.01726513671875,0.036468505859375,-1.0475006103515625,-0.079193115234375
1774470106265282000,8.027281982421876,-0.005706787109375,-0.95062255859375,-0.01312255859375
1774470106275299000,8.037299072265625,0.0503997802734375,-0.86895751953125,0.0848541259765625
1774470106285316000,8.047316162109375,0.0940093994140625,-0.856903076171875,0.18914794921875
1774470106295333000,8.0573330078125,-0.08612060546875,-0.8347320556640625,0.188934326171875
1774470106305350100,8.06735009765625,-0.32275390625,-0.800933837890625,0.192413330078125
1774470106315367000,8.077366943359374,-0.4733428955078125,-0.8122100830078125,0.2873077392578125
1774470106325384200,8.08738427734375,-0.5167999267578125,-0.79449462890625,0.372222900390625
1774470106335401000,8.09740087890625,-0.48504638671875,-0.8095855712890625,0.4660186767578125
1774470106345418000,8.10741796875,-0.4295196533203125,-0.797119140625,0.485931396484375
1774470106355435000,8.11743505859375,-0.3735504150390625,-0.8128662109375,0.466400146484375
1774470106365452000,8.1274521484375,-0.3161163330078125,-0.841064453125,0.525970458984375
1774470106375469000,8.137468994140624,-0.24114990234375,-0.8061370849609375,0.626312255859375
1774470106385487000,8.147487060546876,-0.2408294677734375,-0.7620391845703125,0.7022552490234375
1774470106395503900,8.15750390625,-0.270355224609375,-0.72088623046875,0.7727813720703125
1774470106405521200,8.167521240234375,-0.2879638671875,-0.639312744140625,0.8786163330078125
1774470106415538200,8.1775380859375,-0.2995147705078125,-0.531646728515625,0.9581298828125
1774470106425555000,8.187554931640625,-0.33489990234375,-0.5008087158203125,1.0066986083984375
1774470106435572200,8.197572265625,-0.330596923828125,-0.540802001953125,0.9706573486328125
1774470106445589000,8.207589111328126,-0.2330474853515625,-0.5956268310546875,0.8929443359375
1774470106455606000,8.21760595703125,-0.01153564453125,-0.63055419921875,0.865570068359375
1774470106465623000,8.227623046875,0.2303466796875,-0.609283447265625,0.8501739501953125
1774470106475640000,8.23764013671875,0.384063720703125,-0.6733856201171875,0.772796630859375
1774470106485657000,8.247656982421875,0.4293060302734375,-0.8101043701171875,0.591705322265625
1774470106495674000,8.257674072265624,0.37371826171875,-0.9333953857421875,0.3846282958984375
1774470106505691100,8.267691162109376,0.26220703125,-1.0039825439453125,0.241943359375
1774470106515708000,8.2777080078125,0.166717529296875,-1.0316009521484375,0.13043212890625
1774470106525725200,8.28772509765625,0.0894775390625,-0.914825439453125,0.0918121337890625
1774470106535742000,8.297741943359375,0.0857696533203125,-0.892578125,0.09564208984375
1774470106545759000,8.307759033203125,0.196685791015625,-0.8155975341796875,0.2066650390625
1774470106555776000,8.31777587890625,0.316009521484375,-0.6288604736328125,0.34332275390625
1774470106565794000,8.3277939453125,0.395294189453125,-0.6071319580078125,0.3873443603515625
1774470106575811000,8.33781103515625,0.36871337890625,-0.58837890625,0.3062286376953125
1774470106585828000,8.347828125,0.084197998046875,-0.4954833984375,0.2765655517578125
1774470106595844900,8.357844970703125,-0.4697113037109375,-0.591522216796875,0.1720733642578125
1774470106605862100,8.367862060546875,-1.0582275390625,-0.8116455078125,0.2153778076171875
1774470106615879200,8.377879150390624,-1.1485595703125,-0.992279052734375,0.3929595947265625
1774470106625896000,8.38789599609375,-1.038482666015625,-1.125701904296875,0.457427978515625
1774470106635913200,8.397913330078126,-0.71893310546875,-1.0769500732421875,0.3966827392578125
1774470106645930500,8.407930419921875,-0.5500640869140625,-0.971343994140625,0.4303436279296875
1774470106655947800,8.41794775390625,-0.3685455322265625,-0.9744720458984375,0.4748687744140625
1774470106665964500,8.427964599609375,-0.2953643798828125,-0.9957427978515625,0.492401123046875
1774470106675981800,8.43798193359375,-0.262054443359375,-0.9843292236328125,0.563507080078125
1774470106685998600,8.44799853515625,-0.2869415283203125,-0.9341888427734375,0.5162353515625
1774470106696015600,8.458015625,-0.363800048828125,-0.99725341796875,0.2774658203125
1774470106706032600,8.46803271484375,-0.107940673828125,-1.2610321044921875,-0.199554443359375
1774470106716049700,8.478049560546875,-0.1402435302734375,-1.4376373291015625,-0.4685516357421875
1774470106726066700,8.488066650390625,-0.582244873046875,-1.2866973876953125,-0.22039794921875
1774470106736083700,8.498083740234375,-0.6311492919921875,-1.0770111083984375,-0.029815673828125
1774470106746101500,8.5081015625,-0.5446014404296875,-1.030242919921875,0.054779052734375
1774470106756118500,8.518118408203126,-0.515167236328125,-0.9941558837890625,0.151153564453125
1774470106766135800,8.5281357421875,-0.505828857421875,-0.915130615234375,0.130706787109375
1774470106776152600,8.538152587890625,-0.42529296875,-0.8766937255859375,0.1066436767578125
1774470106786169600,8.548169677734375,-0.2913055419921875,-0.798797607421875,0.1617584228515625
1774470106796186600,8.5581865234375,-0.2763519287109375,-0.6449737548828125,0.2004547119140625
1774470106806203600,8.56820361328125,-0.261077880859375,-0.5140533447265625,0.261932373046875
1774470106816220700,8.578220703125,-0.35491943359375,-0.4087371826171875,0.409576416015625
1774470106826237700,8.58823779296875,-0.370513916015625,-0.305145263671875,0.3747711181640625
1774470106836254700,8.598254638671875,-0.386993408203125,-0.2801666259765625,0.35565185546875
1774470106846271700,8.608271728515625,-0.7788543701171875,-0.3092193603515625,0.0277557373046875
1774470106856288800,8.618288818359375,-0.8576202392578125,-0.742523193359375,-1.0407562255859375
1774470106866305500,8.628305419921874,0.23675537109375,-1.2083282470703125,-1.464569091796875
1774470106876322800,8.63832275390625,-0.6056976318359375,-1.048980712890625,-0.625030517578125
1774470106886339600,8.648339599609375,-1.0146331787109375,-0.600433349609375,0.0793304443359375
1774470106896356600,8.658356689453125,-0.7711181640625,-0.4611053466796875,0.09942626953125
1774470106906373600,8.66837353515625,-0.55645751953125,-0.476593017578125,0.13250732421875
1774470106916390700,8.678390625,-0.6926422119140625,-0.5988922119140625,0.0841827392578125
1774470106926407700,8.68840771484375,-0.7249755859375,-0.7122344970703125,-0.0423431396484375
1774470106936425700,8.69842578125,-0.50494384765625,-0.6182403564453125,-0.038726806640625
1774470106946442500,8.7084423828125,-0.6210784912109375,-0.5898895263671875,0.1809844970703125
1774470106956459800,8.718459716796875,-0.6924591064453125,-0.648895263671875,0.267120361328125
1774470106966476800,8.728476806640625,-0.6166229248046875,-0.7365875244140625,0.1070556640625
1774470106976493600,8.73849365234375,-0.578857421875,-0.8371429443359375,-0.0628509521484375
1774470106986510800,8.7485107421875,-0.5715484619140625,-0.8628082275390625,-0.0733795166015625
1774470106996527600,8.758527587890624,-0.6439056396484375,-0.914154052734375,0.034149169921875
1774470107006544600,8.768544677734376,-0.6772308349609375,-0.8991241455078125,-0.123748779296875
1774470107016561700,8.778561767578125,-0.6570281982421875,-0.7102203369140625,-0.2052001953125
1774470107026578700,8.78857861328125,-0.689666748046875,-0.7200927734375,-0.049591064453125
1774470107036595500,8.798595458984375,-0.73394775390625,-0.7321624755859375,-0.3335418701171875
1774470107046612700,8.80861279296875,-0.801483154296875,-0.54388427734375,-0.394287109375
1774470107056629800,8.818629638671876,-0.806793212890625,-0.601776123046875,-0.2132568359375
1774470107066646500,8.828646484375,-0.8438720703125,-0.5883636474609375,-0.317138671875
1774470107076663800,8.838663818359375,-0.754547119140625,-0.54168701171875,-0.277191162109375
1774470107086680600,8.8486806640625,-0.7513885498046875,-0.56463623046875,-0.253662109375
1774470107096697600,8.858697509765625,-0.8058624267578125,-0.609832763671875,-0.2625579833984375
1774470107106714600,8.868714599609374,-0.8139801025390625,-0.646759033203125,-0.230133056640625
1774470107116731600,8.878731689453126,-0.8383941650390625,-0.65576171875,-0.227142333984375
1774470107126749700,8.888749755859376,-0.91485595703125,-0.6967010498046875,-0.2747344970703125
1774470107136766700,8.8987666015625,-0.8714599609375,-0.685546875,-0.292327880859375
1774470107146783500,8.908783447265625,-0.94683837890625,-0.7340850830078125,-0.2734222412109375
1774470107156800800,8.91880078125,-0.9141387939453125,-0.7540130615234375,-0.2789154052734375
1774470107170573800,8.93257373046875,-0.77349853515625,-0.8263702392578125,-0.1431732177734375
1774470107180590600,8.942590576171876,-0.6892547607421875,-0.8815155029296875,-0.08392333984375
1774470107190607600,8.952607666015625,-0.567962646484375,-0.875457763671875,-0.0416717529296875
1774470107200624600,8.962624755859375,-0.576629638671875,-0.879730224609375,0.00738525390625
1774470107210641700,8.9726416015625,-0.659912109375,-0.7623291015625,0.0773773193359375
1774470107220658400,8.982658447265624,-0.958160400390625,-0.6409149169921875,0.008270263671875
1774470107230675700,8.99267578125,-1.159912109375,-0.64471435546875,-0.1150665283203125
1774470107240692700,9.002692626953126,-1.235137939453125,-0.471588134765625,-0.0460968017578125
1774470107250709500,9.01270947265625,-0.94866943359375,-0.2627105712890625,-0.0581817626953125
1774470107260726800,9.022726806640625,-0.9099884033203125,-0.330322265625,-0.08221435546875
1774470107270743600,9.03274365234375,-0.9231414794921875,-0.339080810546875,-0.0422210693359375
1774470107280760800,9.0427607421875,-0.9481658935546875,-0.3605804443359375,0.0368194580078125
1774470107290777600,9.052777587890626,-1.1071014404296875,-0.4136810302734375,0.0941162109375
1774470107300794600,9.062794677734376,-1.0058135986328125,-0.425384521484375,-0.0657958984375
1774470107310811600,9.072811767578125,-0.85845947265625,-0.3470458984375,-0.053466796875
1774470107320828700,9.08282861328125,-0.969146728515625,-0.260955810546875,-0.09521484375
1774470107330845700,9.092845703125,-0.949462890625,-0.265106201171875,-0.0843048095703125
1774470107340863700,9.10286376953125,-0.977294921875,-0.288909912109375,-0.1215057373046875
1774470107350880500,9.112880615234374,-0.9353485107421875,-0.3190460205078125,-0.112518310546875
1774470107360897500,9.1228974609375,-0.9732818603515625,-0.3611602783203125,-0.0411224365234375
1774470107370914800,9.132914794921875,-1.0536651611328125,-0.2852020263671875,-0.1152801513671875
1774470107380931600,9.142931640625,-0.93597412109375,-0.362060546875,-0.28466796875
1774470107390948600,9.152948486328125,-0.9763031005859375,-0.33184814453125,-0.143157958984375
1774470107400965600,9.162965576171874,-0.9611663818359375,-0.3308868408203125,-0.190460205078125
1774470107410982700,9.172982666015624,-0.9450225830078125,-0.34375,-0.2011566162109375
1774470107420999700,9.182999755859376,-0.9530487060546875,-0.350250244140625,-0.1541290283203125
1774470107431016700,9.1930166015625,-0.98394775390625,-0.3711700439453125,-0.128265380859375
1774470107441033700,9.20303369140625,-1.017333984375,-0.360870361328125,-0.1172943115234375
1774470107451050800,9.21305078125,-1.02008056640625,-0.3523712158203125,-0.11956787109375
1774470107461067800,9.22306787109375,-0.99627685546875,-0.320526123046875,-0.154296875
1774470107471084500,9.23308447265625,-0.938507080078125,-0.2829437255859375,-0.194976806640625
1774470107481101800,9.243101806640626,-0.9449005126953125,-0.26904296875,-0.1750335693359375
1774470107491118600,9.25311865234375,-0.9664459228515625,-0.306671142578125,-0.1698455810546875
1774470107501135600,9.263135498046875,-0.913238525390625,-0.32733154296875,-0.1613311767578125
1774470107511152600,9.273152587890625,-0.855712890625,-0.33514404296875,-0.1717529296875
1774470107521169700,9.283169677734374,-0.790435791015625,-0.3481292724609375,-0.1590576171875
1774470107531186700,9.293186767578124,-0.729766845703125,-0.3477783203125,-0.153106689453125
1774470107541203700,9.30320361328125,-0.74749755859375,-0.352447509765625,-0.09490966796875
1774470107551221500,9.313221435546875,-0.774505615234375,-0.4566650390625,-0.0419464111328125
1774470107561238800,9.32323876953125,-0.805908203125,-0.4864044189453125,-0.024566650390625
1774470107571255800,9.333255859375,-0.8735504150390625,-0.44091796875,-0.0089569091796875
1774470107581272600,9.3432724609375,-0.97113037109375,-0.4401397705078125,-0.0014801025390625
1774470107591289900,9.353289794921874,-1.0488433837890625,-0.4563446044921875,0.0101318359375
1774470107601306600,9.363306640625,-1.0466156005859375,-0.42840576171875,0.0046539306640625
1774470107611323600,9.37332373046875,-0.9835205078125,-0.4393310546875,0.023223876953125
1774470107621340700,9.383340576171875,-0.930511474609375,-0.4579925537109375,0.0238800048828125
1774470107631357700,9.393357666015625,-0.8894805908203125,-0.4240570068359375,0.0065155029296875
1774470107641374500,9.40337451171875,-0.894805908203125,-0.376556396484375,-0.0132293701171875
1774470107651391000,9.413390869140626,-0.9674835205078125,-0.3349151611328125,-0.017333984375
1774470107661408000,9.423407958984376,-1.0267486572265625,-0.31536865234375,-0.0401611328125
1774470107671425000,9.433425048828125,-1.0107879638671875,-0.3127288818359375,-0.03387451171875
1774470107681442000,9.443442138671875,-1.027923583984375,-0.30126953125,-0.0115509033203125
1774470107691458800,9.453458740234375,-1.109710693359375,-0.2451019287109375,-0.052490234375
1774470107701476000,9.46347607421875,-1.12176513671875,-0.169647216796875,-0.088104248046875
1774470107711493000,9.4734931640625,-1.077392578125,-0.2415008544921875,-0.07611083984375
1774470107721510000,9.483510009765626,-1.084503173828125,-0.22381591796875,-0.0648956298828125
1774470107731527200,9.493527099609375,-1.093963623046875,-0.224853515625,-0.0998077392578125
1774470107741544000,9.5035439453125,-1.083343505859375,-0.2317962646484375,-0.0684814453125
1774470107751562200,9.513562255859375,-1.1194305419921875,-0.271881103515625,-0.059814453125
1774470107761579000,9.5235791015625,-1.1299896240234375,-0.3730926513671875,-0.0175933837890625
1774470107771596000,9.533595947265624,-1.0890960693359375,-0.5060882568359375,0.0248870849609375
1774470107781613000,9.543613037109376,-0.9392242431640625,-0.48455810546875,-0.04217529296875
1774470107791630000,9.553630126953125,-0.852569580078125,-0.5485076904296875,-0.0613555908203125
1774470107801646800,9.563646728515625,-0.827423095703125,-0.568389892578125,-0.057403564453125
1774470107811664100,9.5736640625,-0.7664642333984375,-0.51287841796875,-0.07830810546875
1774470107821681000,9.583680908203124,-0.6863555908203125,-0.48858642578125,-0.0863800048828125
1774470107831698000,9.593697998046874,-0.6708831787109375,-0.49884033203125,-0.0824127197265625
1774470107841715200,9.603715087890626,-0.66937255859375,-0.473175048828125,-0.0955657958984375
1774470107851732000,9.61373193359375,-0.6723175048828125,-0.4073638916015625,-0.1291656494140625
1774470107861749000,9.6237490234375,-0.7270660400390625,-0.39202880859375,-0.1523895263671875
1774470107871766000,9.63376611328125,-0.81243896484375,-0.4212646484375,-0.1257171630859375
1774470107881783000,9.643782958984374,-0.8878631591796875,-0.5073394775390625,-0.112335205078125
1774470107891799800,9.6537998046875,-0.938873291015625,-0.50885009765625,-0.158477783203125
1774470107901817000,9.663817138671876,-0.9583282470703125,-0.5525360107421875,-0.19024658203125
1774470107911834000,9.673834228515625,-0.9219818115234375,-0.578125,-0.2047119140625
1774470107921851000,9.683850830078125,-0.87847900390625,-0.6160430908203125,-0.2028350830078125
1774470107931869000,9.693868896484375,-0.8819122314453125,-0.675933837890625,-0.16046142578125
1774470107941886000,9.703885986328125,-0.847442626953125,-0.7246856689453125,-0.1467437744140625
1774470107951903200,9.7139033203125,-0.7476654052734375,-0.7680511474609375,-0.1240692138671875
1774470107961920000,9.723919921875,-0.6242828369140625,-0.7638397216796875,-0.1133880615234375
1774470107971937000,9.73393701171875,-0.4776153564453125,-0.742431640625,-0.0947723388671875
1774470107981954000,9.7439541015625,-0.4347381591796875,-0.6970367431640625,-0.103302001953125
1774470107991971000,9.75397119140625,-0.4945831298828125,-0.6144561767578125,-0.123809814453125
1774470108001987800,9.76398779296875,-0.526092529296875,-0.571197509765625,-0.110321044921875
1774470108012005000,9.774005126953124,-0.5267181396484375,-0.562347412109375,-0.1159820556640625
1774470108022022000,9.78402197265625,-0.5792999267578125,-0.552703857421875,-0.0761871337890625
1774470108032039000,9.794038818359375,-0.8559112548828125,-0.65618896484375,-0.0642547607421875
1774470108042056200,9.80405615234375,-0.7999267578125,-0.6737518310546875,0.0339202880859375
1774470108052073000,9.814072998046875,-0.4816741943359375,-0.6732635498046875,-0.145477294921875
1774470108062090000,9.824090087890625,-0.4884796142578125,-0.6671905517578125,-0.215118408203125
1774470108072107000,9.83410693359375,-0.773773193359375,-0.683929443359375,0.1035308837890625
1774470108082124000,9.8441240234375,-0.87713623046875,-0.537841796875,0.0540771484375
1774470108092140800,9.854140869140625,-1.034332275390625,-0.42535400390625,-0.0123443603515625
1774470108102159000,9.8641591796875,-1.04254150390625,-0.3822784423828125,-0.1107025146484375
1774470108112175900,9.87417578125,-1.0709991455078125,-0.4153900146484375,-0.1096038818359375
1774470108122193200,9.884193115234375,-1.0202789306640625,-0.4527435302734375,-0.089447021484375
1774470108132210000,9.8942099609375,-0.92095947265625,-0.4980926513671875,-0.078887939453125
1774470108142227000,9.90422705078125,-0.895782470703125,-0.510955810546875,-0.07257080078125
1774470108152244000,9.914243896484376,-0.84490966796875,-0.4930572509765625,-0.03338623046875
1774470108162261000,9.924260986328125,-0.8291473388671875,-0.566497802734375,-0.0158233642578125
1774470108172278000,9.934278076171875,-0.8406524658203125,-0.59857177734375,-0.0127105712890625
1774470108182295000,9.944294921875,-0.850555419921875,-0.6072235107421875,-0.0490264892578125
1774470108192312000,9.95431201171875,-0.8596343994140625,-0.588043212890625,-0.077392578125
1774470108202328800,9.964328857421876,-0.836029052734375,-0.5728302001953125,-0.1102752685546875
1774470108212346000,9.97434619140625,-0.8359222412109375,-0.5683746337890625,-0.1208953857421875
1774470108222363000,9.98436279296875,-0.829620361328125,-0.5554656982421875,-0.1247100830078125
1774470108232380000,9.9943798828125,-0.8345947265625,-0.5353546142578125,-0.1174163818359375
1774470108242397200,10.004397216796875,-0.855499267578125,-0.4735107421875,-0.1099700927734375
1774470108252415000,10.0144150390625,-0.863861083984375,-0.4534149169921875,-0.1154022216796875
1774470108262432000,10.024431884765624,-0.87152099609375,-0.4334716796875,-0.107147216796875
1774470108272449000,10.034448974609376,-0.893157958984375,-0.397491455078125,-0.116180419921875
1774470108282466000,10.044466064453125,-0.8315887451171875,-0.3928375244140625,-0.11700439453125
1774470108292483000,10.054483154296875,-0.732757568359375,-0.427032470703125,-0.14691162109375
1774470108302500000,10.0645,-0.671051025390625,-0.451019287109375,-0.1791229248046875
1774470108312516900,10.074516845703124,-0.71356201171875,-0.4755401611328125,-0.101837158203125
1774470108322534100,10.0845341796875,-0.796661376953125,-0.509613037109375,-0.0568695068359375
1774470108332551000,10.094551025390626,-0.8369903564453125,-0.5424346923828125,-0.031585693359375
1774470108342568000,10.10456787109375,-0.830963134765625,-0.55078125,-0.01593017578125
1774470108352585000,10.1145849609375,-0.7722625732421875,-0.5749359130859375,-0.0048065185546875
1774470108362602000,10.12460205078125,-0.72705078125,-0.6077880859375,0.025299072265625
1774470108372620000,10.1346201171875,-0.63641357421875,-0.63720703125,0.0506744384765625
1774470108382637000,10.144636962890624,-0.59942626953125,-0.74932861328125,-0.0029449462890625
1774470108392653800,10.15465380859375,-0.5752105712890625,-0.7620849609375,0.0529937744140625
1774470108402671000,10.164671142578126,-0.5771026611328125,-0.787384033203125,0.0789337158203125
1774470108412688100,10.174688232421875,-0.66534423828125,-0.7924957275390625,0.1004180908203125
1774470108422705000,10.184704833984375,-0.7737274169921875,-0.794586181640625,0.15142822265625
1774470108432722200,10.19472216796875,-0.8713226318359375,-0.806243896484375,0.17510986328125
1774470108442739000,10.204739013671874,-0.9342193603515625,-0.775543212890625,0.1931610107421875
1774470108452756000,10.214755859375,-0.924407958984375,-0.7662811279296875,0.20166015625
1774470108462773000,10.22477294921875,-0.8362579345703125,-0.7460174560546875,0.1545562744140625
1774470108472790000,10.2347900390625,-0.7776947021484375,-0.67144775390625,0.1450042724609375
1774470108482807000,10.24480712890625,-0.7994537353515625,-0.630035400390625,0.1043853759765625
1774470108492825000,10.2548251953125,-0.832000732421875,-0.5796356201171875,0.0594329833984375
1774470108502841900,10.264841796875,-0.789276123046875,-0.583343505859375,-0.00634765625
1774470108512859100,10.274859130859374,-0.797088623046875,-0.550994873046875,-0.013427734375
1774470108522876000,10.2848759765625,-0.893707275390625,-0.508758544921875,0.038848876953125
1774470108532893000,10.294892822265625,-0.8484039306640625,-0.5326995849609375,0.0458221435546875
1774470108542910200,10.30491015625,-0.8203125,-0.5212860107421875,0.12799072265625
1774470108552927000,10.314927001953125,-0.9067840576171875,-0.5150909423828125,0.12628173828125
1774470108562944000,10.324944091796874,-0.9421844482421875,-0.472076416015625,0.0297698974609375
1774470108572961000,10.3349609375,-0.844451904296875,-0.4626312255859375,0.0182952880859375
1774470108582978000,10.34497802734375,-0.8671875,-0.484283447265625,0.0469207763671875
1774470108592994800,10.354994873046875,-0.867706298828125,-0.5113983154296875,0.0093231201171875
1774470108603013000,10.36501318359375,-0.823333740234375,-0.5187835693359375,0.0162506103515625
1774470108613030000,10.37502978515625,-0.8323974609375,-0.5151214599609375,0.029754638671875
1774470108623047200,10.385047119140625,-0.8494110107421875,-0.534912109375,0.0187530517578125
1774470108633064000,10.39506396484375,-0.8267059326171875,-0.529998779296875,0.0160369873046875
1774470108643081000,10.4050810546875,-0.7935943603515625,-0.515960693359375,-0.0051422119140625
1774470108653098500,10.415098388671876,-0.785064697265625,-0.5212249755859375,0.0028839111328125
1774470108663115800,10.42511572265625,-0.8251495361328125,-0.533843994140625,0.007232666015625
1774470108673132500,10.435132568359375,-0.8724822998046875,-0.530914306640625,0.023040771484375
1774470108683149600,10.445149658203125,-0.8179779052734375,-0.548675537109375,0.008148193359375
1774470108693166800,10.455166748046874,-0.8388671875,-0.5710906982421875,0.0353851318359375
1774470108703183600,10.46518359375,-0.89300537109375,-0.572357177734375,0.0091094970703125
1774470108713201700,10.47520166015625,-0.8802947998046875,-0.578094482421875,0.039764404296875
1774470108723218700,10.48521875,-0.847320556640625,-0.6185150146484375,0.0312347412109375
1774470108733235700,10.495235595703125,-0.8552398681640625,-0.6240386962890625,0.0437774658203125
1774470108743252700,10.505252685546875,-0.820281982421875,-0.617828369140625,0.025360107421875
1774470108753269800,10.515269775390625,-0.8199615478515625,-0.6177215576171875,0.0274200439453125
1774470108763286500,10.52528662109375,-0.83404541015625,-0.60284423828125,0.020782470703125
1774470108773303800,10.5353037109375,-0.8472900390625,-0.58172607421875,-0.00494384765625
1774470108783320600,10.545320556640625,-0.8489532470703125,-0.5983734130859375,-0.0122833251953125
1774470108793337600,10.555337646484375,-0.8427581787109375,-0.5931396484375,-0.02215576171875
1774470108803354600,10.565354736328125,-0.8405914306640625,-0.583770751953125,-0.03448486328125
1774470108813372700,10.57537255859375,-0.828826904296875,-0.569580078125,-0.035064697265625
1774470108823389400,10.585389404296874,-0.8136444091796875,-0.556976318359375,-0.0302581787109375
1774470108833406700,10.59540673828125,-0.801422119140625,-0.54718017578125,-0.03875732421875
1774470108843423500,10.605423583984376,-0.7985076904296875,-0.5399169921875,-0.02972412109375
1774470108853440800,10.615440673828125,-0.7865753173828125,-0.5240478515625,-0.0226898193359375
1774470108863457800,10.625457763671875,-0.769744873046875,-0.5070953369140625,0.0098114013671875
1774470108873474600,10.635474609375,-0.7788848876953125,-0.508331298828125,0.0323333740234375
1774470108883491800,10.645491943359374,-0.7902374267578125,-0.5235443115234375,0.011474609375
1774470108893508600,10.655508544921876,-0.8136138916015625,-0.51318359375,0.008087158203125
1774470108903526700,10.665526611328126,-0.8248291015625,-0.5133819580078125,0.020416259765625
1774470108913543700,10.675543701171875,-0.816619873046875,-0.52081298828125,0.0326080322265625
1774470108923560700,10.685560791015625,-0.812896728515625,-0.519561767578125,0.0501251220703125
1774470108933577500,10.695577392578125,-0.8166351318359375,-0.5044097900390625,0.0503997802734375
1774470108943594800,10.7055947265625,-0.8194122314453125,-0.517303466796875,0.011383056640625
1774470108953611500,10.715611572265624,-0.8182830810546875,-0.5283966064453125,0.018341064453125
1774470108963628500,10.725628662109376,-0.830078125,-0.5352783203125,0.0390167236328125
1774470108973645600,10.7356455078125,-0.8361358642578125,-0.5258331298828125,0.07379150390625
1774470108983662600,10.74566259765625,-0.8454742431640625,-0.5388031005859375,0.0761871337890625
1774470108993680000,10.755679931640625,-0.836151123046875,-0.5717315673828125,0.0791778564453125
1774470109003697700,10.76569775390625,-0.819671630859375,-0.6148681640625,0.04132080078125
1774470109013714400,10.77571435546875,-0.802734375,-0.67364501953125,-0.054443359375
1774470109023731700,10.785731689453126,-0.7963409423828125,-0.7203369140625,-0.05108642578125
1774470109033748700,10.795748779296876,-0.7912750244140625,-0.75518798828125,-0.0152130126953125
1774470109043765500,10.805765625,-0.8018798828125,-0.7100677490234375,0.009674072265625
1774470109053782800,10.81578271484375,-0.802764892578125,-0.6670379638671875,-0.0198974609375
1774470109063799600,10.825799560546875,-0.80352783203125,-0.63739013671875,-0.052398681640625
1774470109073816600,10.835816650390624,-0.81854248046875,-0.605712890625,-0.0502166748046875
1774470109083833600,10.84583349609375,-0.8384857177734375,-0.5867156982421875,-0.032073974609375
1774470109093851600,10.8558515625,-0.8645782470703125,-0.5850982666015625,-0.0101776123046875
1774470109103868700,10.86586865234375,-0.906585693359375,-0.5840301513671875,0.0020599365234375
1774470109113885700,10.8758857421875,-0.92108154296875,-0.5764312744140625,0.0118560791015625
1774470109123902500,10.88590234375,-0.92279052734375,-0.57659912109375,0.0154876708984375
1774470109133919700,10.895919677734375,-0.9244232177734375,-0.5707244873046875,0.01531982421875
1774470109143936500,10.9059365234375,-0.89300537109375,-0.569091796875,0.0186920166015625
1774470109153953500,10.91595361328125,-0.822601318359375,-0.5716552734375,0.0224761962890625
1774470109163970800,10.925970703125,-0.728607177734375,-0.5893402099609375,0.0423583984375
1774470109173987600,10.935987548828125,-0.7813568115234375,-0.58306884765625,0.06414794921875
1774470109184005600,10.946005615234375,-0.7744903564453125,-0.5385894775390625,0.0262603759765625
1774470109194022700,10.956022705078125,-0.748809814453125,-0.532012939453125,0.0363311767578125
1774470109204039700,10.966039794921874,-0.7136077880859375,-0.527984619140625,0.026336669921875
1774470109214056700,10.976056640625,-0.7190399169921875,-0.501434326171875,0.0021820068359375
1774470109224073700,10.98607373046875,-0.7426910400390625,-0.46917724609375,-0.018035888671875
1774470109234090500,10.996090576171875,-0.7444610595703125,-0.4619293212890625,-0.0409393310546875
1774470109244107800,11.006107666015625,-0.74957275390625,-0.4598846435546875,-0.0323028564453125
1774470109254124500,11.01612451171875,-0.7845306396484375,-0.4810028076171875,0.008697509765625
1774470109264141600,11.0261416015625,-0.8542633056640625,-0.5103759765625,0.014129638671875
1774470109274159600,11.03615966796875,-0.8402557373046875,-0.543121337890625,-0.021820068359375
1774470109284176600,11.0461767578125,-0.828125,-0.5537567138671875,0.01214599609375
1774470109294193700,11.056193603515625,-0.8502197265625,-0.5662994384765625,0.0424041748046875
1774470109304210700,11.066210693359375,-0.866058349609375,-0.593902587890625,0.03753662109375
1774470109314227500,11.0762275390625,-0.864959716796875,-0.5801849365234375,0.04168701171875
1774470109324244700,11.08624462890625,-0.8541717529296875,-0.560577392578125,0.0399627685546875
1774470109334261800,11.09626171875,-0.843994140625,-0.5388031005859375,0.027587890625
1774470109344278500,11.106278564453126,-0.8439788818359375,-0.529815673828125,0.0278167724609375
1774470109354295800,11.1162958984375,-0.8484039306640625,-0.555877685546875,0.028289794921875
1774470109364313600,11.126313720703125,-0.841339111328125,-0.582611083984375,0.025970458984375
1774470109374331000,11.136330810546875,-0.8217315673828125,-0.57806396484375,0.02630615234375
1774470109384347600,11.14634765625,-0.8722686767578125,-0.5359344482421875,0.04681396484375
1774470109394364700,11.15636474609375,-0.899627685546875,-0.524749755859375,0.0383148193359375
1774470109404381700,11.166381591796876,-0.8875885009765625,-0.55364990234375,0.029052734375
1774470109414398700,11.176398681640626,-0.8636322021484375,-0.5693359375,0.023773193359375
1774470109424415500,11.18641552734375,-0.8575286865234375,-0.5773468017578125,0.0639495849609375
1774470109434432800,11.196432861328125,-0.8744659423828125,-0.5841827392578125,0.0891265869140625
1774470109444449500,11.206449462890625,-0.8712310791015625,-0.5888671875,0.065643310546875
1774470109454467600,11.216467529296875,-0.798248291015625,-0.5804443359375,0.0070037841796875
1774470109464484600,11.226484619140624,-0.6758575439453125,-0.5782928466796875,-0.0097198486328125
1774470109474501600,11.236501708984376,-0.583221435546875,-0.58270263671875,0.0304718017578125
1774470109484518400,11.246518310546875,-0.61236572265625,-0.6214599609375,0.074859619140625
1774470109494535700,11.25653564453125,-0.765228271484375,-0.619140625,0.126434326171875
1774470109504552700,11.266552734375,-0.78216552734375,-0.592742919921875,0.06365966796875
1774470109514569700,11.27656982421875,-0.7493743896484375,-0.5336761474609375,0.0609283447265625
1774470109524586800,11.286586669921874,-0.773406982421875,-0.52545166015625,0.0393524169921875
1774470109534603500,11.296603515625,-0.814483642578125,-0.522979736328125,0.0685577392578125
1774470109544621800,11.306621826171876,-0.876495361328125,-0.5225372314453125,0.099578857421875
1774470109554638600,11.316638671875,-0.90631103515625,-0.530426025390625,0.0439605712890625
1774470109564655600,11.326655517578125,-0.949951171875,-0.51190185546875,0.0370635986328125
1774470109574672600,11.336672607421875,-0.9655303955078125,-0.491058349609375,0.039764404296875
1774470109584689700,11.346689697265624,-0.94683837890625,-0.4627532958984375,-0.00262451171875
1774470109594706400,11.35670654296875,-0.934539794921875,-0.435577392578125,-0.0433502197265625
1774470109604723700,11.3667236328125,-0.9265594482421875,-0.4123687744140625,-0.046173095703125
1774470109614740700,11.37674072265625,-0.9102935791015625,-0.377532958984375,-0.052825927734375
1774470109624757500,11.386757568359375,-0.9055328369140625,-0.363189697265625,-0.0853118896484375
1774470109634775600,11.396775634765625,-0.89349365234375,-0.3466033935546875,-0.135101318359375
1774470109644792600,11.40679248046875,-0.906341552734375,-0.322906494140625,-0.12353515625
1774470109654808600,11.41680859375,-0.944549560546875,-0.3189544677734375,-0.1091156005859375
1774470109664825300,11.426825439453125,-0.92828369140625,-0.3256378173828125,-0.14886474609375
1774470109674842600,11.436842529296875,-0.9333038330078125,-0.3095855712890625,-0.144561767578125
1774470109684859400,11.446859375,-0.9486846923828125,-0.305999755859375,-0.1168060302734375
1774470109694876400,11.45687646484375,-0.95709228515625,-0.3253173828125,-0.092864990234375
1774470109704893700,11.466893798828124,-0.948760986328125,-0.3475189208984375,-0.0715789794921875
1774470109714910500,11.476910400390626,-0.933990478515625,-0.3657684326171875,-0.073883056640625
1774470109724928500,11.486928466796876,-0.9284210205078125,-0.398468017578125,-0.065673828125
1774470109734945500,11.496945556640625,-0.92852783203125,-0.43182373046875,-0.025360107421875
1774470109744962600,11.506962646484375,-0.9338836669921875,-0.4505767822265625,0.003814697265625
1774470109754979600,11.5169794921875,-0.92926025390625,-0.4792938232421875,0.0141754150390625
1774470109764996600,11.52699658203125,-0.9219818115234375,-0.4986419677734375,0.0249786376953125
1774470109775013400,11.537013427734376,-0.9369964599609375,-0.5145721435546875,0.0357818603515625
1774470109785030700,11.54703076171875,-0.9339141845703125,-0.5061798095703125,0.0291595458984375
1774470109795047400,11.55704736328125,-0.93804931640625,-0.4259490966796875,0.0316009521484375
1774470109805064400,11.567064453125,-0.9524383544921875,-0.45697021484375,0.002899169921875
1774470109815082500,11.57708251953125,-0.9262542724609375,-0.42376708984375,-0.0048828125
1774470109825099500,11.587099609375,-0.92767333984375,-0.3543548583984375,0.03643798828125
1774470109835116500,11.597116455078124,-0.96527099609375,-0.345916748046875,0.0105743408203125
1774470109845133600,11.607133544921876,-0.969970703125,-0.35516357421875,-0.01495361328125
1774470109855150300,11.617150390625,-0.9611663818359375,-0.370025634765625,0.0059356689453125
1774470109865167600,11.627167724609375,-0.9326324462890625,-0.373931884765625,0.001556396484375
1774470109875184600,11.6371845703125,-0.8816986083984375,-0.3082122802734375,-0.033172607421875
1774470109885201400,11.647201416015625,-0.8587799072265625,-0.263458251953125,-0.0637054443359375
1774470109895218700,11.65721875,-0.83453369140625,-0.285125732421875,-0.0785675048828125
1774470109905236500,11.667236572265624,-0.8317108154296875,-0.353851318359375,-0.0980072021484375
1774470109915253800,11.677253662109376,-0.782928466796875,-0.3646697998046875,-0.1174468994140625
1774470109925270500,11.6872705078125,-0.760467529296875,-0.366455078125,-0.09417724609375
1774470109935287600,11.69728759765625,-0.76214599609375,-0.37249755859375,-0.09820556640625
1774470109945304600,11.7073046875,-0.797210693359375,-0.389404296875,-0.1172637939453125
1774470109955321600,11.717321533203124,-0.8392791748046875,-0.40960693359375,-0.1085357666015625
1774470109965338400,11.72733837890625,-0.8439788818359375,-0.3960113525390625,-0.062835693359375
1774470109975355600,11.737355712890626,-0.8226776123046875,-0.4245758056640625,0.001312255859375
1774470109985372400,11.747372314453125,-0.790069580078125,-0.378265380859375,0.0027313232421875
1774470109995390500,11.757390380859375,-0.8028717041015625,-0.37872314453125,0.0017242431640625
1774470110005407500,11.767407470703125,-0.8395843505859375,-0.3321380615234375,0.0887908935546875
1774470110015424500,11.777424560546875,-0.9998931884765625,-0.3020477294921875,0.1751861572265625
1774470110025441500,11.787441650390624,-1.06658935546875,-0.330810546875,0.1624298095703125
1774470110035458600,11.79745849609375,-1.103546142578125,-0.3273162841796875,0.16461181640625
1774470110045475600,11.8074755859375,-1.1546783447265625,-0.3070831298828125,0.2270050048828125
1774470110055492600,11.81749267578125,-1.0700531005859375,-0.2813720703125,0.28253173828125
1774470110065509600,11.827509521484375,-1.0186309814453125,-0.2724761962890625,0.3093109130859375
1774470110075526400,11.8375263671875,-0.9466552734375,-0.296875,0.254302978515625
1774470110085544700,11.847544677734374,-0.938873291015625,-0.3459014892578125,0.1865997314453125
1774470110095561500,11.8575615234375,-0.911468505859375,-0.34576416015625,0.1524200439453125
1774470110105578500,11.86757861328125,-0.92047119140625,-0.3458709716796875,0.1650543212890625
1774470110115595500,11.877595458984375,-0.917205810546875,-0.324981689453125,0.215576171875
1774470110125612500,11.887612548828125,-0.911224365234375,-0.323028564453125,0.24261474609375
1774470110135629300,11.89762939453125,-0.86883544921875,-0.3103179931640625,0.2074737548828125
1774470110145646600,11.907646484375,-0.83392333984375,-0.304473876953125,0.145782470703125
1774470110155663600,11.91766357421875,-0.8316650390625,-0.379180908203125,0.1099853515625
1774470110165680400,11.927680419921876,-0.83953857421875,-0.4100189208984375,0.1102447509765625
1774470110175698400,11.937698486328125,-0.8159942626953125,-0.362579345703125,0.1195220947265625
1774470110185715500,11.947715576171875,-0.782318115234375,-0.3630828857421875,0.109039306640625
1774470110195732500,11.957732421875,-0.7649383544921875,-0.4019622802734375,0.0977630615234375
1774470110205749500,11.96774951171875,-0.7619171142578125,-0.4428253173828125,0.092529296875
1774470110215766500,11.9777666015625,-0.7504730224609375,-0.4666595458984375,0.104156494140625
1774470110225783600,11.987783447265626,-0.77294921875,-0.4920654296875,0.08953857421875
1774470110235800600,11.997800537109375,-0.8216094970703125,-0.5088043212890625,0.1059112548828125
1774470110245817300,12.0078173828125,-0.8710479736328125,-0.4842681884765625,0.1401214599609375
1774470110255834600,12.017834716796875,-0.9713287353515625,-0.4370574951171875,0.1305694580078125
1774470110265851400,12.027851318359374,-1.105072021484375,-0.3641510009765625,0.04266357421875
1774470110275869700,12.03786962890625,-1.1170654296875,-0.3333282470703125,0.0164642333984375
1774470110285886500,12.047886474609374,-1.1182098388671875,-0.30218505859375,-0.0127105712890625
1774470110295903500,12.057903564453126,-1.096710205078125,-0.204376220703125,0.03948974609375
1774470110305920500,12.06792041015625,-1.1136627197265625,-0.1624755859375,0.0269012451171875
1774470110315937500,12.0779375,-1.1315460205078125,-0.1370391845703125,0.0340576171875
1774470110325954600,12.08795458984375,-1.1067352294921875,-0.1044921875,0.0511322021484375
1774470110335971600,12.0979716796875,-1.1137847900390625,-0.1041717529296875,0.0455169677734375
1774470110345988600,12.107988525390626,-1.1262969970703125,-0.1221771240234375,0.07269287109375
1774470110356005400,12.11800537109375,-1.1313629150390625,-0.1215057373046875,0.093505859375
1774470110366022700,12.128022705078125,-1.1576995849609375,-0.1771240234375,0.115478515625
1774470110376040400,12.13804052734375,-1.1817779541015625,-0.174285888671875,0.094512939453125
1774470110386057700,12.1480576171875,-1.1480712890625,-0.2142791748046875,0.086578369140625
1774470110396074500,12.158074462890625,-1.212646484375,-0.1875762939453125,0.081787109375
1774470110406091500,12.168091552734374,-1.1643218994140625,-0.1226348876953125,0.09429931640625
1774470110416108500,12.178108642578126,-1.0648040771484375,-0.06329345703125,0.0578155517578125
1774470110426125600,12.18812548828125,-1.02978515625,-0.139739990234375,0.0716705322265625
1774470110436142300,12.198142333984375,-1.039642333984375,-0.2715301513671875,0.100921630859375
1774470110446159600,12.20815966796875,-0.9461822509765625,-0.343536376953125,0.06146240234375
1774470110456176600,12.2181767578125,-0.930511474609375,-0.4160919189453125,0.0224151611328125
1774470110466194700,12.228194580078124,-0.9743194580078125,-0.3931427001953125,0.0098876953125
1774470110476211500,12.23821142578125,-0.9698944091796875,-0.30609130859375,0.0223388671875
1774470110486228500,12.248228515625,-0.9455413818359375,-0.2597808837890625,0.0088043212890625
1774470110496245500,12.25824560546875,-0.8978729248046875,-0.2196502685546875,-0.0009613037109375
1774470110506262500,12.268262451171875,-0.922943115234375,-0.240509033203125,-0.019439697265625
1774470110516279600,12.278279541015625,-0.9586029052734375,-0.359588623046875,-0.1192626953125
1774470110526296600,12.288296630859374,-1.0083465576171875,-0.4564208984375,-0.04815673828125
1774470110536313600,12.298313720703124,-1.0103759765625,-0.45001220703125,0.0135955810546875
1774470110546330400,12.308330322265626,-0.984283447265625,-0.317169189453125,0.0725860595703125
1774470110556348700,12.3183486328125,-0.97857666015625,-0.2301025390625,0.19012451171875
1774470110566365400,12.328365478515625,-0.962982177734375,-0.06976318359375,0.3167877197265625
1774470110576382700,12.3383828125,-0.95501708984375,0.047576904296875,0.353759765625
1774470110586399500,12.3483994140625,-1.00286865234375,0.1712188720703125,0.3192901611328125
1774470110596416500,12.35841650390625,-1.024993896484375,0.25421142578125,0.2564849853515625
1774470110606433500,12.36843359375,-1.089630126953125,0.2965850830078125,0.1957550048828125
1774470110616450600,12.378450439453125,-1.1193084716796875,0.2979736328125,0.1542205810546875
1774470110626467600,12.388467529296875,-1.1321258544921875,0.2567901611328125,0.119873046875
1774470110636484600,12.398484619140625,-1.118377685546875,0.128875732421875,-0.0132293701171875
1774470110646501600,12.408501708984375,-1.137664794921875,0.09844970703125,-0.0733184814453125
1774470110656519000,12.418518798828124,-1.0883026123046875,0.106109619140625,-0.058258056640625
1774470110666537000,12.428536865234374,-1.01409912109375,0.0909423828125,-0.041961669921875
1774470110676554000,12.438553955078126,-1.1986083984375,0.1598663330078125,0.0286865234375
1774470110686571000,12.448571044921875,-1.0280303955078125,0.098236083984375,0.09942626953125
1774470110696588000,12.458588134765625,-0.7787628173828125,-0.0615997314453125,0.1981353759765625
1774470110706605000,12.46860498046875,-0.703155517578125,-0.0842437744140625,0.2020416259765625
1774470110716622000,12.4786220703125,-0.7828826904296875,-0.055877685546875,0.122711181640625
1774470110726639000,12.48863916015625,-0.917449951171875,-0.05487060546875,0.0982666015625
1774470110736656000,12.49865576171875,-1.0951995849609375,-0.1295623779296875,0.12158203125
1774470110746673200,12.508673095703125,-1.28759765625,-0.21014404296875,0.1363983154296875
1774470110756690000,12.51868994140625,-1.3148956298828125,-0.2339019775390625,0.1592254638671875
1774470110766708200,12.528708251953125,-1.1053466796875,-0.256622314453125,0.1814117431640625
1774470110776725000,12.53872509765625,-0.81829833984375,-0.2604827880859375,0.205596923828125
1774470110786742000,12.548741943359374,-0.6499176025390625,-0.27044677734375,0.18328857421875
1774470110796759000,12.558759033203126,-0.7352294921875,-0.2153778076171875,0.0546722412109375
1774470110806776000,12.568776123046876,-1.0434417724609375,-0.1765594482421875,-0.0245819091796875
1774470110816793000,12.57879296875,-1.24884033203125,-0.153839111328125,-0.0717315673828125
1774470110826810000,12.58881005859375,-1.3349609375,-0.1060943603515625,-0.15228271484375
1774470110836827100,12.5988271484375,-1.283294677734375,-0.165863037109375,-0.264556884765625
1774470110846844000,12.608843994140624,-1.220428466796875,-0.3914794921875,-0.104400634765625
1774470110856861200,12.618861083984376,-1.0430755615234375,-0.3459625244140625,-0.06219482421875
1774470110866879000,12.62887890625,-0.873779296875,-0.3335418701171875,-0.2260589599609375
1774470110876896000,12.63889599609375,-0.82080078125,-0.4025115966796875,-0.18572998046875
1774470110886913000,12.6489130859375,-0.856964111328125,-0.3818206787109375,-0.108062744140625
1774470110896930000,12.658929931640625,-0.9128265380859375,-0.077728271484375,-0.047821044921875
1774470110906947000,12.668947021484374,-0.9093780517578125,0.2222442626953125,0.0659332275390625
1774470110916964000,12.678964111328124,-0.90960693359375,0.2430877685546875,0.1149444580078125
1774470110926980900,12.68898095703125,-0.897796630859375,0.1976165771484375,0.10760498046875
1774470110936998100,12.698998046875,-0.86474609375,0.0396270751953125,0.0218658447265625
1774470110947015200,12.70901513671875,-0.82342529296875,-0.17626953125,-0.0123443603515625
1774470110957032000,12.719031982421875,-0.8013763427734375,-0.3152923583984375,0.0757293701171875
1774470110967049200,12.72904931640625,-0.8381195068359375,-0.3380584716796875,0.1857757568359375
1774470110977067000,12.73906689453125,-0.7652130126953125,-0.343170166015625,0.2351226806640625
1774470110987084000,12.749083984375,-0.7208709716796875,-0.3280181884765625,0.28314208984375
1774470110997101000,12.75910107421875,-0.702972412109375,-0.288818359375,0.2953033447265625
1774470111007118000,12.7691181640625,-0.7095184326171875,-0.317138671875,0.296661376953125
1774470111017134800,12.779134765625,-0.7060546875,-0.3100128173828125,0.3357086181640625
1774470111027152100,12.789152099609375,-0.77545166015625,-0.386383056640625,0.3524169921875
1774470111037169000,12.7991689453125,-0.707000732421875,-0.442840576171875,0.3691253662109375
1774470111047186200,12.809186279296876,-0.67620849609375,-0.4849090576171875,0.4231719970703125
1774470111057203000,12.819202880859375,-0.6493682861328125,-0.506866455078125,0.47930908203125
1774470111067220000,12.829219970703125,-0.6224517822265625,-0.484893798828125,0.525909423828125
1774470111077238000,12.839238037109375,-0.6177825927734375,-0.522308349609375,0.557159423828125
1774470111087255000,12.849255126953125,-0.6664886474609375,-0.5132293701171875,0.596466064453125
1774470111097271800,12.859271728515624,-0.776092529296875,-0.4664306640625,0.642974853515625
1774470111107289000,12.8692890625,-0.8721466064453125,-0.4384918212890625,0.64422607421875
1774470111117306000,12.87930615234375,-0.918792724609375,-0.41058349609375,0.660858154296875
1774470111127323000,12.889322998046875,-0.986480712890625,-0.3751220703125,0.665283203125
1774470111137340200,12.899340087890625,-1.0150146484375,-0.3186492919921875,0.6426849365234375
