time,seconds_elapsed,z,y,x
1774472496993675500,0.061675537109375,-1.066436767578125,-0.133758544921875,0.245941162109375
1774472497003693600,0.071693603515625,-1.1389312744140625,-0.136016845703125,0.244598388671875
1774472497013711400,0.08171142578125,-1.16497802734375,-0.1421051025390625,0.2397003173828125
1774472497023729700,0.091729736328125,-1.13995361328125,-0.1517486572265625,0.233734130859375
1774472497033747500,0.10174755859375,-1.058319091796875,-0.1859283447265625,0.197967529296875
1774472497043765500,0.111765625,-0.9542694091796875,-0.2262115478515625,0.1911468505859375
1774472497053783600,0.121783447265625,-0.8515625,-0.265655517578125,0.1855621337890625
1774472497063801600,0.131801513671875,-0.8236083984375,-0.2977142333984375,0.1858062744140625
1774472497073819600,0.141819580078125,-0.8522186279296875,-0.281280517578125,0.18927001953125
1774472497083836700,0.151836669921875,-0.8672943115234375,-0.2422943115234375,0.1696014404296875
1774472497093854500,0.1618544921875,-0.8844146728515625,-0.224273681640625,0.1910552978515625
1774472497103872500,0.17187255859375,-0.906982421875,-0.2146148681640625,0.2189178466796875
1774472497113890600,0.181890625,-0.9252777099609375,-0.200653076171875,0.227569580078125
1774472497123908600,0.19190869140625,-0.968353271484375,-0.19189453125,0.1901092529296875
1774472497133926700,0.2019267578125,-0.9726715087890625,-0.1951141357421875,0.129425048828125
1774472497143944400,0.2119443359375,-0.92401123046875,-0.2130126953125,0.113800048828125
1774472497153962500,0.22196240234375,-0.86419677734375,-0.237884521484375,0.1469573974609375
1774472497163980500,0.23198046875,-0.7884979248046875,-0.2433624267578125,0.1776123046875
1774472497173998600,0.24199853515625,-0.7042694091796875,-0.2523193359375,0.180023193359375
1774472497184016400,0.252016357421875,-0.6922454833984375,-0.2792205810546875,0.2167205810546875
1774472497194034700,0.26203466796875,-0.715850830078125,-0.2939300537109375,0.2205810546875
1774472497204051500,0.272051513671875,-0.70758056640625,-0.2830657958984375,0.223968505859375
1774472497214069500,0.282069580078125,-0.773956298828125,-0.27459716796875,0.2669830322265625
1774472497224087600,0.292087646484375,-0.8813323974609375,-0.2571563720703125,0.299835205078125
1774472497234105600,0.302105712890625,-0.96307373046875,-0.23858642578125,0.2932281494140625
1774472497244123400,0.312123291015625,-1.011749267578125,-0.237823486328125,0.2884063720703125
1774472497254141700,0.3221416015625,-1.0038604736328125,-0.2448883056640625,0.3126983642578125
1774472497264159500,0.332159423828125,-0.965789794921875,-0.2963409423828125,0.3219757080078125
1774472497274177500,0.342177490234375,-0.880340576171875,-0.358062744140625,0.3303070068359375
1774472497284195600,0.352195556640625,-0.8327178955078125,-0.3778839111328125,0.340179443359375
1774472497294213600,0.362213623046875,-0.8475494384765625,-0.369140625,0.3067779541015625
1774472497304231700,0.372231689453125,-0.97637939453125,-0.371856689453125,0.265625
1774472497314249500,0.38224951171875,-1.1542510986328125,-0.342681884765625,0.233673095703125
1774472497324267500,0.392267578125,-1.2570648193359375,-0.290863037109375,0.232635498046875
1774472497334285600,0.40228564453125,-1.26605224609375,-0.2564697265625,0.2376861572265625
1774472497344302600,0.412302490234375,-1.2234344482421875,-0.2244873046875,0.24822998046875
1774472497354320600,0.422320556640625,-1.1061248779296875,-0.211334228515625,0.246917724609375
1774472497364338700,0.432338623046875,-0.9851531982421875,-0.2281341552734375,0.2092437744140625
1774472497374356500,0.4423564453125,-0.9431610107421875,-0.26580810546875,0.1623992919921875
1774472497384374500,0.45237451171875,-0.922576904296875,-0.3109588623046875,0.139892578125
1774472497394392600,0.462392578125,-0.9167938232421875,-0.31805419921875,0.13861083984375
1774472497404410600,0.47241064453125,-0.95343017578125,-0.2917633056640625,0.13922119140625
1774472497414428400,0.482428466796875,-1.01031494140625,-0.27081298828125,0.205657958984375
1774472497424446500,0.492446533203125,-1.038116455078125,-0.22601318359375,0.2827911376953125
1774472497434464500,0.502464599609375,-1.06005859375,-0.1526031494140625,0.34039306640625
1774472497444482600,0.512482666015625,-1.05999755859375,-0.087646484375,0.374053955078125
1774472497454500400,0.522500244140625,-1.053558349609375,-0.05792236328125,0.398895263671875
1774472497464518700,0.5325185546875,-1.011077880859375,-0.032806396484375,0.4278564453125
1774472497474536700,0.54253662109375,-0.9350738525390625,-0.015350341796875,0.4520263671875
1774472497484554500,0.552554443359375,-0.867767333984375,-0.0112762451171875,0.490997314453125
1774472497494572500,0.562572509765625,-0.8438720703125,-0.0255889892578125,0.4507293701171875
1774472497504589600,0.572589599609375,-0.860260009765625,-0.1015777587890625,0.326904296875
1774472497514607400,0.582607421875,-0.9282073974609375,-0.1986541748046875,0.3023529052734375
1774472497524625700,0.592625732421875,-0.9937896728515625,-0.259246826171875,0.2940521240234375
1774472497534643700,0.602643798828125,-1.036773681640625,-0.2757415771484375,0.271331787109375
1774472497544661500,0.61266162109375,-1.0401611328125,-0.265106201171875,0.2713470458984375
1774472497554679600,0.622679443359375,-1.0191497802734375,-0.23260498046875,0.2934417724609375
1774472497564697600,0.632697509765625,-0.977447509765625,-0.1912841796875,0.3348236083984375
1774472497574715600,0.642715576171875,-0.920379638671875,-0.14923095703125,0.3769683837890625
1774472497584733400,0.6527333984375,-0.8729705810546875,-0.115325927734375,0.38836669921875
1774472497594751500,0.66275146484375,-0.8762054443359375,-0.0962066650390625,0.3745269775390625
1774472497604769500,0.67276953125,-0.975982666015625,-0.1010589599609375,0.3459320068359375
1774472497614787600,0.68278759765625,-1.0747528076171875,-0.1130218505859375,0.321929931640625
1774472497624805400,0.692805419921875,-1.1391143798828125,-0.08221435546875,0.3243408203125
1774472497634823700,0.70282373046875,-1.128265380859375,-0.0715789794921875,0.3566436767578125
1774472497644841500,0.712841552734375,-1.0550537109375,-0.075592041015625,0.359588623046875
1774472497654859500,0.722859619140625,-0.97259521484375,-0.0663299560546875,0.3680419921875
1774472497664877600,0.732877685546875,-0.8995819091796875,-0.0577392578125,0.3431396484375
1774472497674894600,0.74289453125,-0.85711669921875,-0.0807952880859375,0.299560546875
1774472497684912400,0.752912353515625,-0.8666839599609375,-0.1109771728515625,0.2389068603515625
1774472497694930400,0.762930419921875,-0.905609130859375,-0.1585235595703125,0.15576171875
1774472497704948500,0.772948486328125,-0.920135498046875,-0.21234130859375,0.0856781005859375
1774472497714966500,0.782966552734375,-0.914337158203125,-0.235565185546875,0.0472259521484375
1774472497724984600,0.792984619140625,-0.9239349365234375,-0.2408447265625,0.0485382080078125
1774472497735002600,0.803002685546875,-0.911590576171875,-0.2522430419921875,0.069854736328125
1774472497745020700,0.813020751953125,-0.8719024658203125,-0.2558441162109375,0.0923004150390625
1774472497755038500,0.82303857421875,-0.8453216552734375,-0.255615234375,0.1197052001953125
1774472497765056500,0.833056396484375,-0.8409423828125,-0.25811767578125,0.1142578125
1774472497775075000,0.843074951171875,-0.8778839111328125,-0.272979736328125,0.0964813232421875
1774472497785093000,0.853093017578125,-0.933746337890625,-0.294189453125,0.079010009765625
1774472497795111000,0.86311083984375,-0.9470977783203125,-0.30718994140625,0.0586090087890625
1774472497805129000,0.87312890625,-0.9122772216796875,-0.3202362060546875,0.0460662841796875
1774472497815147000,0.88314697265625,-0.857879638671875,-0.3222503662109375,0.052703857421875
1774472497825165000,0.8931650390625,-0.8138275146484375,-0.315582275390625,0.067138671875
1774472497835182800,0.903182861328125,-0.8035888671875,-0.31280517578125,0.0771484375
1774472497845201000,0.913200927734375,-0.840545654296875,-0.316680908203125,0.065765380859375
1774472497855219000,0.923218994140625,-0.894866943359375,-0.317474365234375,0.0785064697265625
1774472497865237000,0.933237060546875,-0.934234619140625,-0.2980804443359375,0.105804443359375
1774472497875255000,0.943255126953125,-0.9623870849609375,-0.2808380126953125,0.120697021484375
1774472497885273000,0.953273193359375,-0.9759063720703125,-0.282196044921875,0.1324920654296875
1774472497895291100,0.963291015625,-0.9834442138671875,-0.2760162353515625,0.1391143798828125
1774472497905309000,0.973308837890625,-0.9808502197265625,-0.273223876953125,0.146575927734375
1774472497915326200,0.983326171875,-0.9716339111328125,-0.278594970703125,0.150390625
1774472497925344000,0.993343994140625,-0.972564697265625,-0.2801666259765625,0.151275634765625
1774472497935362000,1.003362060546875,-0.9870147705078125,-0.3087615966796875,0.139617919921875
1774472497945380000,1.013380126953125,-0.9867706298828125,-0.3566131591796875,0.1141815185546875
1774472497955398100,1.023398193359375,-0.9536285400390625,-0.37603759765625,0.1147918701171875
1774472497965416000,1.033416015625,-0.904083251953125,-0.3717041015625,0.127288818359375
1774472497975434000,1.04343408203125,-0.88330078125,-0.3562774658203125,0.1498870849609375
1774472497985452000,1.0534521484375,-0.8882598876953125,-0.3351287841796875,0.1714324951171875
1774472497995470000,1.063469970703125,-0.9193267822265625,-0.3319091796875,0.1650238037109375
1774472498005487900,1.07348779296875,-0.95068359375,-0.3349761962890625,0.1609039306640625
1774472498015506000,1.083505859375,-0.9504241943359375,-0.3249664306640625,0.1746673583984375
1774472498025524000,1.09352392578125,-0.943450927734375,-0.31634521484375,0.194183349609375
1774472498035542000,1.1035419921875,-0.9600372314453125,-0.309783935546875,0.214324951171875
1774472498045559800,1.113559814453125,-0.97906494140625,-0.31097412109375,0.20947265625
1774472498055578000,1.123578125,-1.000762939453125,-0.312591552734375,0.2046661376953125
1774472498065596200,1.13359619140625,-1.015716552734375,-0.308013916015625,0.2069244384765625
1774472498075614000,1.143614013671875,-1.00689697265625,-0.2922210693359375,0.2078094482421875
1774472498085632000,1.153632080078125,-0.9795989990234375,-0.2761993408203125,0.2199554443359375
1774472498095650000,1.163650146484375,-0.9482574462890625,-0.2644195556640625,0.2247467041015625
1774472498105668000,1.173668212890625,-0.922760009765625,-0.263092041015625,0.2189788818359375
1774472498115686000,1.183685791015625,-0.9105072021484375,-0.2736968994140625,0.2075042724609375
1774472498125704000,1.193703857421875,-0.9019927978515625,-0.2872467041015625,0.1885223388671875
1774472498135722000,1.203721923828125,-0.9068145751953125,-0.29339599609375,0.177093505859375
1774472498145740000,1.213739990234375,-0.926239013671875,-0.290283203125,0.1711578369140625
1774472498155757800,1.2237578125,-0.9446258544921875,-0.2837982177734375,0.1695098876953125
1774472498165776100,1.233776123046875,-0.9468841552734375,-0.274139404296875,0.179229736328125
1774472498175794000,1.2437939453125,-0.9397430419921875,-0.2617950439453125,0.1876678466796875
1774472498185812000,1.25381201171875,-0.9405364990234375,-0.257110595703125,0.190277099609375
1774472498195830000,1.263830078125,-0.94244384765625,-0.2624053955078125,0.1787567138671875
1774472498205848000,1.27384814453125,-0.9454193115234375,-0.27178955078125,0.1640472412109375
1774472498215866000,1.2838662109375,-0.94903564453125,-0.27490234375,0.168701171875
1774472498225884000,1.2938837890625,-0.933624267578125,-0.27862548828125,0.171295166015625
1774472498235902000,1.30390185546875,-0.9234161376953125,-0.2794189453125,0.17169189453125
1774472498245920000,1.313919921875,-0.9180450439453125,-0.2762908935546875,0.1693572998046875
1774472498255938000,1.32393798828125,-0.9156646728515625,-0.27716064453125,0.171478271484375
1774472498265955800,1.333955810546875,-0.9199981689453125,-0.283905029296875,0.1615142822265625
1774472498275974100,1.34397412109375,-0.930816650390625,-0.2873687744140625,0.1484375
1774472498285992000,1.353991943359375,-0.940460205078125,-0.2973480224609375,0.1434478759765625
1774472498296010000,1.364010009765625,-0.9419403076171875,-0.30401611328125,0.1387939453125
1774472498306027800,1.37402783203125,-0.9294586181640625,-0.3085479736328125,0.1387176513671875
1774472498316046000,1.384046142578125,-0.915313720703125,-0.3126373291015625,0.1446380615234375
1774472498326064000,1.394064208984375,-0.9036865234375,-0.319061279296875,0.1427459716796875
1774472498336082000,1.40408203125,-0.8995513916015625,-0.3282318115234375,0.1370849609375
1774472498346100000,1.414099853515625,-0.90728759765625,-0.3262176513671875,0.1336822509765625
1774472498356118000,1.424117919921875,-0.923126220703125,-0.327178955078125,0.126556396484375
1774472498366136000,1.434135986328125,-0.9365386962890625,-0.331329345703125,0.1307525634765625
1774472498376153900,1.44415380859375,-0.9365081787109375,-0.3272247314453125,0.131591796875
1774472498386172200,1.454172119140625,-0.9396514892578125,-0.325469970703125,0.125762939453125
1774472498396190000,1.46418994140625,-0.9491729736328125,-0.3243255615234375,0.121826171875
1774472498406208000,1.4742080078125,-0.963958740234375,-0.3262786865234375,0.1181793212890625
1774472498416225800,1.484225830078125,-0.9676513671875,-0.3255462646484375,0.1258544921875
1774472498426244000,1.494244140625,-0.9687652587890625,-0.32122802734375,0.1361541748046875
1774472498436262000,1.504261962890625,-0.971954345703125,-0.317108154296875,0.143310546875
1774472498446280000,1.514280029296875,-0.9697113037109375,-0.317413330078125,0.14276123046875
1774472498456298200,1.52429833984375,-0.9632568359375,-0.320831298828125,0.13702392578125
1774472498466316000,1.53431591796875,-0.954864501953125,-0.3214111328125,0.137786865234375
1774472498476334000,1.544333984375,-0.9447784423828125,-0.32635498046875,0.139312744140625
1774472498486352000,1.554351806640625,-0.9415740966796875,-0.3291015625,0.1343841552734375
1774472498496370200,1.5643701171875,-0.9457244873046875,-0.329010009765625,0.1372833251953125
1774472498506388000,1.574387939453125,-0.9368133544921875,-0.32513427734375,0.1519775390625
1774472498516406000,1.584406005859375,-0.929107666015625,-0.3178558349609375,0.16058349609375
1774472498526423800,1.594423828125,-0.935791015625,-0.3084869384765625,0.1678619384765625
1774472498536442000,1.604442138671875,-0.9507598876953125,-0.303192138671875,0.171417236328125
1774472498546460000,1.6144599609375,-0.9597015380859375,-0.30389404296875,0.1685791015625
1774472498556478000,1.62447802734375,-0.9682769775390625,-0.300811767578125,0.1711273193359375
1774472498566496000,1.63449609375,-0.9622955322265625,-0.299163818359375,0.1856536865234375
1774472498576514000,1.64451416015625,-0.9569091796875,-0.2924346923828125,0.1920928955078125
1774472498586532000,1.654531982421875,-0.95660400390625,-0.28668212890625,0.19244384765625
1774472498596550000,1.6645498046875,-0.967559814453125,-0.2452239990234375,0.1858062744140625
1774472498606568200,1.674568115234375,-1.0084381103515625,-0.20257568359375,0.166107177734375
1774472498616586000,1.6845859375,-1.02734375,-0.2708587646484375,0.2317962646484375
1774472498626604000,1.69460400390625,-1.039947509765625,-0.27447509765625,0.27874755859375
1774472498636621000,1.70462109375,-1.0157928466796875,-0.2390289306640625,0.2376708984375
1774472498646640000,1.71464013671875,-0.9855499267578125,-0.2113800048828125,0.2410125732421875
1774472498656657000,1.724656982421875,-0.9789276123046875,-0.199493408203125,0.2665252685546875
1774472498666676000,1.734676025390625,-0.9957275390625,-0.1986846923828125,0.2901763916015625
1774472498676693000,1.74469287109375,-0.997100830078125,-0.1944427490234375,0.2991485595703125
1774472498686712000,1.754712158203125,-0.962554931640625,-0.196136474609375,0.33477783203125
1774472498696728800,1.764728759765625,-0.91033935546875,-0.20635986328125,0.3592529296875
1774472498706747100,1.7747470703125,-0.844512939453125,-0.2114715576171875,0.340576171875
1774472498716765000,1.784764892578125,-0.8141326904296875,-0.266143798828125,0.1769256591796875
1774472498726783000,1.794782958984375,-0.8583984375,-0.2329254150390625,0.325469970703125
1774472498736801000,1.804801025390625,-0.8804779052734375,-0.2578125,0.36944580078125
1774472498746819000,1.814819091796875,-0.9249420166015625,-0.2876434326171875,0.397186279296875
1774472498756836900,1.8248369140625,-0.9745941162109375,-0.23260498046875,0.378173828125
1774472498766855000,1.83485498046875,-1.0176849365234375,-0.1765594482421875,0.3360137939453125
1774472498776873500,1.84487353515625,-1.0419769287109375,-0.1520843505859375,0.2931671142578125
1774472498786891800,1.854891845703125,-1.0623779296875,-0.0980377197265625,0.317535400390625
1774472498796909600,1.86490966796875,-1.0416259765625,-0.04144287109375,0.371734619140625
1774472498806927600,1.874927734375,-0.97784423828125,-0.0810699462890625,0.2940826416015625
1774472498816945700,1.884945556640625,-0.95941162109375,-0.1585845947265625,0.2944183349609375
1774472498826963700,1.894963623046875,-0.9275665283203125,-0.2617950439453125,0.335296630859375
1774472498836981500,1.9049814453125,-0.88275146484375,-0.3406219482421875,0.363800048828125
1774472498846999600,1.91499951171875,-0.8335113525390625,-0.3852081298828125,0.354827880859375
1774472498857017600,1.925017578125,-0.8003692626953125,-0.416046142578125,0.2716064453125
1774472498867035600,1.93503564453125,-0.8079681396484375,-0.4658966064453125,0.1905517578125
1774472498877053700,1.9450537109375,-0.8385467529296875,-0.5421142578125,0.1522674560546875
1774472498887071500,1.955071533203125,-0.8275909423828125,-0.585418701171875,0.132598876953125
1774472498897089800,1.96508984375,-0.7779998779296875,-0.6143798828125,0.142333984375
1774472498907107600,1.975107666015625,-0.719207763671875,-0.650970458984375,0.1807861328125
1774472498917125600,1.985125732421875,-0.694488525390625,-0.6522216796875,0.2546234130859375
1774472498927143700,1.995143798828125,-0.7238006591796875,-0.6131439208984375,0.3038330078125
1774472498937161700,2.00516162109375,-0.7780914306640625,-0.5843505859375,0.2835235595703125
1774472498947179500,2.015179443359375,-0.8040008544921875,-0.6115570068359375,0.26019287109375
1774472498957197600,2.025197509765625,-0.7792816162109375,-0.628448486328125,0.293731689453125
1774472498967215600,2.035215576171875,-0.7005462646484375,-0.6142578125,0.319427490234375
1774472498977233700,2.045233642578125,-0.6548309326171875,-0.5860443115234375,0.3516998291015625
1774472498987251500,2.05525146484375,-0.7015380859375,-0.5166168212890625,0.43414306640625
1774472498997269500,2.06526953125,-0.7763214111328125,-0.42340087890625,0.512054443359375
1774472499007287800,2.075287841796875,-0.8331298828125,-0.36163330078125,0.5381011962890625
1774472499017305600,2.0853056640625,-0.8544769287109375,-0.343170166015625,0.53277587890625
1774472499027323600,2.09532373046875,-0.827850341796875,-0.377655029296875,0.5118255615234375
1774472499037341700,2.105341796875,-0.7651824951171875,-0.441680908203125,0.50927734375
1774472499047359700,2.11535986328125,-0.6951446533203125,-0.4945831298828125,0.5108642578125
1774472499057377500,2.12537744140625,-0.6705474853515625,-0.5283203125,0.5182952880859375
1774472499067395600,2.1353955078125,-0.6826171875,-0.555938720703125,0.483489990234375
1774472499077413600,2.14541357421875,-0.684814453125,-0.5736083984375,0.43804931640625
1774472499087431700,2.155431640625,-0.642669677734375,-0.55487060546875,0.46685791015625
1774472499097449500,2.165449462890625,-0.5648956298828125,-0.5279693603515625,0.5131988525390625
1774472499107467800,2.1754677734375,-0.53814697265625,-0.5930938720703125,0.4975128173828125
1774472499117485600,2.185485595703125,-0.57568359375,-0.5725555419921875,0.5145111083984375
1774472499127503600,2.195503662109375,-0.6177978515625,-0.485931396484375,0.49029541015625
1774472499137521700,2.205521728515625,-0.6771087646484375,-0.462371826171875,0.512420654296875
1774472499147539700,2.215539794921875,-0.69329833984375,-0.5144195556640625,0.5077972412109375
1774472499157557800,2.225557861328125,-0.627960205078125,-0.5878143310546875,0.463348388671875
1774472499167575600,2.235575439453125,-0.547698974609375,-0.7119903564453125,0.368316650390625
1774472499177593600,2.245593505859375,-0.4533233642578125,-0.81536865234375,0.295135498046875
1774472499187611600,2.255611572265625,-0.46014404296875,-0.8256988525390625,0.2558135986328125
1774472499197629700,2.265629638671875,-0.5832366943359375,-0.77099609375,0.29974365234375
1774472499207647500,2.2756474609375,-0.724639892578125,-0.6399993896484375,0.3744659423828125
1774472499217665800,2.285665771484375,-0.8068084716796875,-0.5130767822265625,0.5056915283203125
1774472499227683600,2.29568359375,-0.781982421875,-0.4262237548828125,0.6616668701171875
1774472499237701600,2.30570166015625,-0.677764892578125,-0.380950927734375,0.7449188232421875
1774472499247719400,2.315719482421875,-0.5812835693359375,-0.34979248046875,0.737152099609375
1774472499257737700,2.32573779296875,-0.615814208984375,-0.3795318603515625,0.73675537109375
1774472499267755500,2.335755615234375,-0.72088623046875,-0.4170989990234375,0.7006378173828125
1774472499277773600,2.345773681640625,-0.8004302978515625,-0.4016571044921875,0.64544677734375
1774472499287791600,2.35579150390625,-0.7724761962890625,-0.4739532470703125,0.5330657958984375
1774472499297809700,2.3658095703125,-0.7480010986328125,-0.5675201416015625,0.506561279296875
1774472499307827700,2.37582763671875,-0.709808349609375,-0.5544586181640625,0.478607177734375
1774472499317845500,2.385845458984375,-0.6580657958984375,-0.5518951416015625,0.4465484619140625
1774472499327863800,2.39586376953125,-0.6253204345703125,-0.543365478515625,0.3953399658203125
1774472499337881600,2.405881591796875,-0.59698486328125,-0.538330078125,0.34490966796875
1774472499347899600,2.415899658203125,-0.5914154052734375,-0.548187255859375,0.31951904296875
1774472499357917400,2.42591748046875,-0.58575439453125,-0.539581298828125,0.3209228515625
1774472499367935700,2.435935791015625,-0.5670928955078125,-0.5206451416015625,0.365570068359375
1774472499377953500,2.44595361328125,-0.55645751953125,-0.502166748046875,0.4269866943359375
1774472499387971600,2.4559716796875,-0.563232421875,-0.44342041015625,0.4957427978515625
1774472499397989600,2.46598974609375,-0.6080322265625,-0.350799560546875,0.5446624755859375
1774472499408007700,2.476007568359375,-0.71063232421875,-0.3116455078125,0.590484619140625
1774472499418025700,2.486025634765625,-0.8155975341796875,-0.322235107421875,0.570159912109375
1774472499428043500,2.49604345703125,-0.8771514892578125,-0.36688232421875,0.58203125
1774472499438061800,2.506061767578125,-0.8792572021484375,-0.4086151123046875,0.576446533203125
1774472499448079600,2.51607958984375,-0.851470947265625,-0.4427337646484375,0.585723876953125
1774472499458097700,2.52609765625,-0.814422607421875,-0.452545166015625,0.61810302734375
1774472499468115500,2.536115478515625,-0.764862060546875,-0.435333251953125,0.63751220703125
1774472499478133800,2.5461337890625,-0.7370758056640625,-0.4056396484375,0.6825103759765625
1774472499488151600,2.556151611328125,-0.7265472412109375,-0.3479461669921875,0.7158203125
1774472499498169600,2.566169677734375,-0.7107391357421875,-0.2976837158203125,0.709503173828125
1774472499508187600,2.576187744140625,-0.6941375732421875,-0.2987060546875,0.7937164306640625
1774472499518205700,2.586205810546875,-0.665740966796875,-0.2965240478515625,0.78228759765625
1774472499528223500,2.596223388671875,-0.6585693359375,-0.29901123046875,0.7425537109375
1774472499538241500,2.606241455078125,-0.66534423828125,-0.336639404296875,0.716644287109375
1774472499548259800,2.616259765625,-0.6686248779296875,-0.3613128662109375,0.6768341064453125
1774472499558277600,2.626277587890625,-0.7003021240234375,-0.3755035400390625,0.633056640625
1774472499568295700,2.636295654296875,-0.7635040283203125,-0.3953094482421875,0.599578857421875
1774472499578313500,2.6463134765625,-0.8267669677734375,-0.39837646484375,0.5675811767578125
1774472499588331800,2.656331787109375,-0.8475494384765625,-0.3993377685546875,0.545379638671875
1774472499598349600,2.666349609375,-0.8278045654296875,-0.3974609375,0.5354766845703125
1774472499608367600,2.67636767578125,-0.78887939453125,-0.392120361328125,0.5396881103515625
1774472499618385700,2.6863857421875,-0.746490478515625,-0.3777618408203125,0.558013916015625
1774472499628403700,2.69640380859375,-0.71282958984375,-0.360443115234375,0.5827789306640625
1774472499638421500,2.70642138671875,-0.68499755859375,-0.3366241455078125,0.576416015625
1774472499648439600,2.716439453125,-0.68304443359375,-0.3201751708984375,0.572052001953125
1774472499658456600,2.72645654296875,-0.6976165771484375,-0.3311767578125,0.58172607421875
1774472499668474600,2.736474609375,-0.7115478515625,-0.330108642578125,0.5634918212890625
1774472499678492700,2.74649267578125,-0.7271575927734375,-0.3292388916015625,0.54058837890625
1774472499688510700,2.7565107421875,-0.741302490234375,-0.3441009521484375,0.52178955078125
1774472499698528500,2.766528564453125,-0.751678466796875,-0.3540802001953125,0.5126190185546875
1774472499708546600,2.776546630859375,-0.7526092529296875,-0.351165771484375,0.5056304931640625
1774472499718564600,2.786564697265625,-0.75079345703125,-0.3477020263671875,0.5027618408203125
1774472499728582700,2.796582763671875,-0.7440643310546875,-0.3423614501953125,0.5067901611328125
1774472499738600700,2.8066005859375,-0.7384033203125,-0.3388214111328125,0.5034332275390625
1774472499748618500,2.816618408203125,-0.741363525390625,-0.3354034423828125,0.503326416015625
1774472499758636800,2.82663671875,-0.751220703125,-0.3315582275390625,0.5027313232421875
1774472499768654600,2.836654541015625,-0.7596435546875,-0.338104248046875,0.491790771484375
1774472499778671600,2.846671630859375,-0.7643280029296875,-0.3457794189453125,0.4853668212890625
1774472499788690000,2.85668994140625,-0.7663116455078125,-0.346893310546875,0.4847412109375
1774472499798707700,2.866707763671875,-0.7676849365234375,-0.3493804931640625,0.4801483154296875
1774472499808725800,2.876725830078125,-0.7790374755859375,-0.35614013671875,0.4892120361328125
1774472499818743800,2.886743896484375,-0.78363037109375,-0.353271484375,0.505950927734375
1774472499828761900,2.896761962890625,-0.77764892578125,-0.346221923828125,0.5191192626953125
1774472499838779600,2.906779541015625,-0.7699432373046875,-0.337646484375,0.5332794189453125
1774472499848797700,2.916797607421875,-0.7666473388671875,-0.331573486328125,0.538360595703125
1774472499858816000,2.92681591796875,-0.7738037109375,-0.333831787109375,0.5338134765625
1774472499868833800,2.936833740234375,-0.7857818603515625,-0.3350372314453125,0.50994873046875
1774472499878851800,2.946851806640625,-0.8123016357421875,-0.34625244140625,0.48162841796875
1774472499888870000,2.956869873046875,-0.849151611328125,-0.3546600341796875,0.45867919921875
1774472499898888000,2.966887939453125,-0.8642425537109375,-0.3546905517578125,0.4488677978515625
1774472499908905700,2.97690576171875,-0.851470947265625,-0.34307861328125,0.440521240234375
1774472499918923800,2.986923828125,-0.823516845703125,-0.336029052734375,0.44244384765625
1774472499928941800,2.99694189453125,-0.7952423095703125,-0.3372955322265625,0.452362060546875
1774472499938960000,3.0069599609375,-0.7700347900390625,-0.338104248046875,0.456756591796875
1774472499948977700,3.016977783203125,-0.75201416015625,-0.34136962890625,0.4670257568359375
1774472499958995700,3.02699560546875,-0.734893798828125,-0.338897705078125,0.4782562255859375
1774472499969013800,3.037013671875,-0.7286376953125,-0.3370208740234375,0.4813232421875
1774472499979031800,3.04703173828125,-0.7504119873046875,-0.3350830078125,0.489410400390625
1774472499989049900,3.0570498046875,-0.77642822265625,-0.3251495361328125,0.49176025390625
1774472499999068000,3.06706787109375,-0.8039093017578125,-0.3090362548828125,0.4981842041015625
1774472500009086000,3.0770859375,-0.84112548828125,-0.2908782958984375,0.5185699462890625
1774472500019103700,3.087103759765625,-0.8643798828125,-0.267852783203125,0.535430908203125
1774472500029121800,3.097121826171875,-0.873199462890625,-0.250946044921875,0.5529937744140625
1774472500039139800,3.107139892578125,-0.8725433349609375,-0.2399444580078125,0.574798583984375
1774472500049158000,3.117157958984375,-0.857391357421875,-0.23590087890625,0.5776214599609375
1774472500059175700,3.12717578125,-0.8388519287109375,-0.2452545166015625,0.558380126953125
1774472500069193700,3.13719384765625,-0.829254150390625,-0.2633209228515625,0.5390777587890625
1774472500079211800,3.147211669921875,-0.83203125,-0.283355712890625,0.5113372802734375
1774472500089229800,3.157229736328125,-0.8392486572265625,-0.2978973388671875,0.4836883544921875
1774472500099247600,3.16724755859375,-0.846405029296875,-0.3045501708984375,0.457061767578125
1774472500109265000,3.177264892578125,-0.854461669921875,-0.310211181640625,0.444000244140625
1774472500119282700,3.18728271484375,-0.8515472412109375,-0.30718994140625,0.4488983154296875
1774472500129300700,3.19730078125,-0.844879150390625,-0.29412841796875,0.449188232421875
1774472500139318800,3.20731884765625,-0.84637451171875,-0.281158447265625,0.4505767822265625
1774472500149336800,3.2173369140625,-0.85272216796875,-0.2625732421875,0.4483795166015625
1774472500159354600,3.227354736328125,-0.8701324462890625,-0.2577667236328125,0.4386749267578125
1774472500169372700,3.23737255859375,-0.89178466796875,-0.260498046875,0.4278411865234375
1774472500179391000,3.247390869140625,-0.8835296630859375,-0.2582550048828125,0.4167022705078125
1774472500189408800,3.25740869140625,-0.855499267578125,-0.2609710693359375,0.39849853515625
1774472500199426800,3.2674267578125,-0.8614044189453125,-0.27606201171875,0.3953399658203125
1774472500209444900,3.27744482421875,-0.876068115234375,-0.2903900146484375,0.403350830078125
1774472500219463000,3.287462890625,-0.8879241943359375,-0.2844085693359375,0.405487060546875
1774472500229480700,3.297480712890625,-0.8966217041015625,-0.2777557373046875,0.4016876220703125
1774472500239498800,3.307498779296875,-0.8864288330078125,-0.2761993408203125,0.4091033935546875
1774472500249516800,3.317516845703125,-0.8636016845703125,-0.2609405517578125,0.41583251953125
1774472500259534800,3.327534912109375,-0.856292724609375,-0.24481201171875,0.4234466552734375
1774472500269552600,3.337552734375,-0.87249755859375,-0.2379150390625,0.4259796142578125
1774472500279571000,3.347571044921875,-0.9047698974609375,-0.248046875,0.4104156494140625
1774472500289588700,3.357588623046875,-0.931640625,-0.26763916015625,0.3799285888671875
1774472500299606800,3.367606689453125,-0.945587158203125,-0.286468505859375,0.3542022705078125
1774472500309624800,3.377624755859375,-0.95233154296875,-0.3165740966796875,0.325408935546875
1774472500319643000,3.387642822265625,-0.9548492431640625,-0.320465087890625,0.29937744140625
1774472500329661000,3.397660888671875,-0.933746337890625,-0.2463836669921875,0.2148590087890625
1774472500339678700,3.4076787109375,-0.9342193603515625,-0.2817230224609375,0.2626190185546875
1774472500349696800,3.41769677734375,-0.91387939453125,-0.34716796875,0.3338623046875
1774472500359714800,3.42771484375,-0.85467529296875,-0.373687744140625,0.3343658447265625
1774472500369732900,3.43773291015625,-0.7704925537109375,-0.3835906982421875,0.338134765625
1774472500379750700,3.447750732421875,-0.676483154296875,-0.3805084228515625,0.330841064453125
1774472500389769000,3.45776904296875,-0.6685638427734375,-0.3689727783203125,0.36651611328125
1774472500399786800,3.467786865234375,-0.6829071044921875,-0.3297882080078125,0.38653564453125
1774472500409804800,3.4778046875,-0.73291015625,-0.305908203125,0.4388580322265625
1774472500419822600,3.487822509765625,-0.7813720703125,-0.2885894775390625,0.515869140625
1774472500429841000,3.4978408203125,-0.815277099609375,-0.2534942626953125,0.5525970458984375
1774472500439858700,3.507858642578125,-0.874725341796875,-0.1984100341796875,0.5596466064453125
1774472500449876700,3.517876708984375,-0.899993896484375,-0.147613525390625,0.554107666015625
1774472500459894800,3.527894775390625,-0.86260986328125,-0.120330810546875,0.519317626953125
1774472500469911800,3.537911865234375,-0.8158416748046875,-0.1192474365234375,0.489349365234375
1774472500479929600,3.5479296875,-0.766571044921875,-0.1448211669921875,0.4710235595703125
1774472500489948000,3.557947998046875,-0.7099151611328125,-0.1806640625,0.4358367919921875
1774472500499966000,3.567966064453125,-0.7040252685546875,-0.2404632568359375,0.3913116455078125
1774472500509983700,3.577983642578125,-0.70208740234375,-0.320953369140625,0.3546295166015625
1774472500520001800,3.588001708984375,-0.7183380126953125,-0.3839569091796875,0.326904296875
1774472500530019800,3.598019775390625,-0.7569732666015625,-0.404449462890625,0.3129730224609375
1774472500540038000,3.608037841796875,-0.838287353515625,-0.3962249755859375,0.30621337890625
1774472500550055700,3.6180556640625,-0.89947509765625,-0.388671875,0.3057708740234375
1774472500560073700,3.62807373046875,-0.9319000244140625,-0.35491943359375,0.30963134765625
1774472500570091800,3.638091796875,-0.894927978515625,-0.2350006103515625,0.327606201171875
1774472500580109800,3.64810986328125,-0.902618408203125,-0.261505126953125,0.434234619140625
1774472500590127600,3.658127685546875,-0.9136199951171875,-0.2877349853515625,0.4222412109375
1774472500600146000,3.66814599609375,-0.9635467529296875,-0.2808685302734375,0.395538330078125
1774472500610163700,3.678163818359375,-1.02410888671875,-0.2872467041015625,0.386199951171875
1774472500620181800,3.688181640625,-1.1014862060546875,-0.2673187255859375,0.338043212890625
1774472500630199800,3.69819970703125,-1.1414947509765625,-0.2775421142578125,0.33270263671875
1774472500640217900,3.7082177734375,-1.1071319580078125,-0.2988739013671875,0.32708740234375
1774472500650236000,3.71823583984375,-1.012603759765625,-0.3183441162109375,0.31903076171875
1774472500660253700,3.728253662109375,-0.91265869140625,-0.3278961181640625,0.322509765625
1774472500670272000,3.73827197265625,-0.8601226806640625,-0.30999755859375,0.312530517578125
1774472500680289800,3.748289794921875,-0.9011993408203125,-0.2894287109375,0.30462646484375
1774472500690307800,3.758307861328125,-0.966278076171875,-0.2919769287109375,0.30126953125
1774472500700325600,3.76832568359375,-1.0498199462890625,-0.2750396728515625,0.3265380859375
1774472500710344000,3.778343994140625,-1.0989990234375,-0.2619476318359375,0.4053955078125
1774472500720361700,3.78836181640625,-1.1247100830078125,-0.170166015625,0.39630126953125
1774472500730379800,3.7983798828125,-1.133819580078125,-0.1065521240234375,0.38140869140625
1774472500740397600,3.8083974609375,-1.15185546875,-0.1006011962890625,0.404693603515625
1774472500750416000,3.818415771484375,-1.169921875,-0.097900390625,0.405364990234375
1774472500760434000,3.828433837890625,-1.1688385009765625,-0.0821380615234375,0.380615234375
1774472500770451700,3.83845166015625,-1.1526031494140625,-0.0877532958984375,0.34930419921875
1774472500780470000,3.848469970703125,-1.1363525390625,-0.1279296875,0.31524658203125
1774472500790488000,3.858488037109375,-1.1182708740234375,-0.1670989990234375,0.31402587890625
1774472500800506000,3.868506103515625,-1.0798797607421875,-0.2071533203125,0.3209381103515625
1774472500810524000,3.87852392578125,-0.979400634765625,-0.2191162109375,0.1864471435546875
1774472500820542200,3.888542236328125,-0.9258270263671875,-0.2277069091796875,0.2277069091796875
1774472500830560000,3.89856005859375,-0.889739990234375,-0.281707763671875,0.312744140625
1774472500840578000,3.908578125,-0.8422698974609375,-0.277587890625,0.34765625
1774472500850595800,3.918595947265625,-0.80157470703125,-0.2624359130859375,0.362213134765625
1774472500860614100,3.9286142578125,-0.73175048828125,-0.2564849853515625,0.3323211669921875
1774472500870632000,3.9386318359375,-0.64495849609375,-0.2424163818359375,0.3236083984375
1774472500880650000,3.94864990234375,-0.5826873779296875,-0.23516845703125,0.3816375732421875
1774472500890668000,3.95866796875,-0.5582427978515625,-0.1834564208984375,0.3957061767578125
1774472500900686000,3.96868603515625,-0.56134033203125,-0.0937347412109375,0.3306732177734375
1774472500910703900,3.978703857421875,-0.52423095703125,0.0538787841796875,0.2368621826171875
1774472500920722000,3.988721923828125,-0.581787109375,-0.0870361328125,0.3745269775390625
1774472500930739000,3.998739013671875,-0.576202392578125,-0.12677001953125,0.4025115966796875
1774472500940757000,4.008757080078125,-0.5980224609375,-0.1160430908203125,0.320587158203125
1774472500950774800,4.01877490234375,-0.6689605712890625,-0.1351165771484375,0.269622802734375
1774472500960793000,4.02879296875,-0.7261199951171875,-0.1587066650390625,0.284881591796875
1774472500970811000,4.038810791015625,-0.857818603515625,-0.2420196533203125,0.11566162109375
1774472500980829000,4.048828857421875,-0.83355712890625,-0.3581390380859375,0.0814666748046875
1774472500990847200,4.05884716796875,-0.738067626953125,-0.409088134765625,0.1600189208984375
1774472501000865000,4.068864990234375,-0.6512451171875,-0.336639404296875,0.098114013671875
1774472501010883000,4.078883056640625,-0.584747314453125,-0.2081756591796875,0.119110107421875
1774472501020900900,4.08890087890625,-0.6117401123046875,-0.0724639892578125,0.2903289794921875
1774472501030919200,4.098919189453125,-0.6819000244140625,0.1111602783203125,0.4542388916015625
1774472501040937000,4.10893701171875,-0.82171630859375,0.207489013671875,0.5777130126953125
1774472501050955000,4.118955078125,-0.963897705078125,0.2388916015625,0.5515594482421875
1774472501060973000,4.12897314453125,-1.183990478515625,0.173248291015625,0.3770751953125
1774472501070991000,4.1389912109375,-1.40191650390625,-0.016082763671875,0.2884521484375
1774472501081009000,4.1490087890625,-1.71710205078125,-0.2017364501953125,0.296356201171875
1774472501091027000,4.15902685546875,-1.9263458251953125,-0.2940216064453125,0.1717987060546875
1774472501101045000,4.169044921875,-1.9937744140625,-0.275665283203125,0.008209228515625
1774472501111063000,4.17906298828125,-1.8091278076171875,-0.24163818359375,-0.0693511962890625
1774472501121081000,4.1890810546875,-1.5339508056640625,-0.2508392333984375,0.0474090576171875
1774472501131099000,4.199098876953125,-1.32122802734375,-0.228363037109375,0.033233642578125
1774472501141117200,4.2091171875,-1.1888427734375,-0.1746368408203125,-0.020965576171875
1774472501151135000,4.219135009765625,-1.0633544921875,-0.1580657958984375,0.019439697265625
1774472501161153000,4.229153076171875,-0.9214324951171875,-0.09002685546875,0.1653900146484375
1774472501171171000,4.239171142578125,-0.967193603515625,-0.0283966064453125,0.2887115478515625
1774472501181189000,4.249189208984375,-0.95538330078125,0.0021514892578125,0.397979736328125
1774472501191207000,4.25920703125,-0.8277740478515625,0.10772705078125,0.415863037109375
1774472501201225000,4.269224853515625,-0.6583709716796875,0.0691375732421875,0.3749542236328125
1774472501211243000,4.279242919921875,-0.5926055908203125,-0.07635498046875,0.42218017578125
1774472501221261000,4.289260986328125,-0.64093017578125,-0.1605072021484375,0.45037841796875
1774472501231278800,4.29927880859375,-0.796051025390625,-0.250946044921875,0.486114501953125
1774472501241297000,4.309296875,-0.91693115234375,-0.313690185546875,0.4967803955078125
1774472501251315200,4.319315185546875,-0.9356689453125,-0.312744140625,0.5103302001953125
1774472501261333000,4.3293330078125,-0.9022216796875,-0.251312255859375,0.50299072265625
1774472501271351000,4.33935107421875,-0.8043212890625,-0.191680908203125,0.490447998046875
1774472501281369000,4.349369140625,-0.701995849609375,-0.177093505859375,0.4217987060546875
1774472501291387100,4.35938720703125,-0.6800689697265625,-0.0923919677734375,0.330413818359375
1774472501301404000,4.36940380859375,-0.766571044921875,0.1228485107421875,0.342559814453125
1774472501311422200,4.379422119140625,-0.6939849853515625,0.0286865234375,0.27117919921875
1774472501321440000,4.38943994140625,-0.7375335693359375,0.030914306640625,0.219573974609375
1774472501331458000,4.3994580078125,-0.8927154541015625,0.0323638916015625,0.1580963134765625
1774472501341475800,4.409475830078125,-1.037139892578125,-0.0293426513671875,0.012359619140625
1774472501351494100,4.419494140625,-1.0945892333984375,-0.077392578125,-0.126861572265625
1774472501361512000,4.429511962890625,-1.0477447509765625,-0.111175537109375,-0.2237548828125
1774472501371530000,4.439530029296875,-0.9606475830078125,-0.18646240234375,-0.29119873046875
1774472501381548000,4.449548095703125,-0.9252777099609375,-0.276947021484375,-0.3239288330078125
1774472501391566000,4.459566162109375,-0.977630615234375,-0.25347900390625,-0.3717193603515625
1774472501401583900,4.469583984375,-1.0247344970703125,-0.176513671875,-0.3756103515625
1774472501411602000,4.479601806640625,-1.0381927490234375,-0.152374267578125,-0.3188018798828125
1774472501421620000,4.489619873046875,-1.0411224365234375,-0.077880859375,-0.2835693359375
1774472501431638000,4.499637939453125,-1.0778350830078125,0.00201416015625,-0.2089691162109375
1774472501441656000,4.509656005859375,-1.2630767822265625,0.042083740234375,-0.157379150390625
1774472501451674000,4.519674072265625,-1.4069671630859375,0.0723724365234375,-0.21112060546875
1774472501461692200,4.529692138671875,-1.44207763671875,0.045166015625,-0.3458709716796875
1774472501471710000,4.5397099609375,-1.39642333984375,-0.06591796875,-0.40521240234375
1774472501481728000,4.54972802734375,-1.3112945556640625,-0.171234130859375,-0.390594482421875
1774472501491746000,4.55974609375,-1.052215576171875,-0.1918182373046875,-0.431243896484375
1774472501501764000,4.56976416015625,-0.79180908203125,-0.1407623291015625,-0.43865966796875
1774472501511782000,4.579781982421875,-0.1595611572265625,-0.01483154296875,-0.261962890625
1774472501521800000,4.589800048828125,0.0301055908203125,0.1049957275390625,-0.16290283203125
1774472501531818000,4.59981787109375,-0.9999847412109375,0.1775054931640625,-0.147613525390625
1774472501541836000,4.6098359375,-1.4515380859375,0.0479736328125,-0.115753173828125
1774472501551853800,4.619853759765625,-1.2139892578125,0.0535125732421875,0.0018310546875
1774472501561872100,4.6298720703125,-0.888397216796875,0.1302642822265625,-0.2096405029296875
1774472501571890200,4.63989013671875,-0.9110565185546875,0.0411834716796875,-0.3880615234375
1774472501581908000,4.649907958984375,-0.8256683349609375,0.0560760498046875,-0.2556304931640625
1774472501591926000,4.659926025390625,-0.960052490234375,0.054168701171875,-0.0751953125
1774472501601944000,4.669944091796875,-1.0416717529296875,0.117889404296875,0.043792724609375
1774472501611960800,4.6799609375,-0.9696197509765625,0.3564453125,-0.14312744140625
1774472501621979000,4.689978759765625,-0.9669647216796875,0.385894775390625,-0.0800933837890625
1774472501631997200,4.6999970703125,-1.006378173828125,0.16119384765625,0.0508575439453125
1774472501642015000,4.710014892578125,-1.145599365234375,0.1879119873046875,0.002716064453125
1774472501652033000,4.720032958984375,-1.1217041015625,0.1414642333984375,0.0897674560546875
1774472501662051000,4.730051025390625,-1.3180999755859375,0.1663360595703125,0.1395416259765625
1774472501672069000,4.740069091796875,-1.0293121337890625,0.0727691650390625,0.1371917724609375
1774472501682087000,4.7500869140625,-0.8455047607421875,0.061798095703125,0.1337738037109375
1774472501692105000,4.76010498046875,-0.816375732421875,0.069549560546875,0.174560546875
1774472501702123000,4.770123046875,-0.89581298828125,0.035675048828125,0.2484130859375
1774472501712141000,4.78014111328125,-0.95562744140625,-0.0059814453125,0.1904144287109375
1774472501722158800,4.790158935546875,-0.921295166015625,0.0668792724609375,0.2347412109375
1774472501732177000,4.800177001953125,-0.8892364501953125,0.18023681640625,0.267120361328125
1774472501742195000,4.81019482421875,-0.87200927734375,0.218505859375,0.21490478515625
1774472501752213000,4.820212890625,-0.847381591796875,0.190765380859375,0.169036865234375
1774472501762231000,4.83023095703125,-0.7941131591796875,0.148468017578125,0.1898193359375
1774472501772249000,4.8402490234375,-0.849609375,0.1310272216796875,0.1196441650390625
1774472501782268400,4.850268310546875,-0.969482421875,0.121246337890625,0.08599853515625
1774472501792286700,4.86028662109375,-1.1209869384765625,0.115570068359375,0.110992431640625
1774472501802304800,4.8703046875,-1.1729888916015625,0.079986572265625,0.16925048828125
1774472501812322600,4.880322509765625,-1.0959625244140625,0.045257568359375,0.1623382568359375
1774472501822340600,4.890340576171875,-1.0374298095703125,0.1074371337890625,0.044708251953125
1774472501832358700,4.900358642578125,-0.9851837158203125,0.104217529296875,0.013427734375
1774472501842376700,4.910376708984375,-0.9822845458984375,0.1101531982421875,-0.042388916015625
1774472501852394500,4.92039453125,-1.0787506103515625,0.1439971923828125,-0.1724853515625
1774472501862412800,4.930412841796875,-1.20977783203125,0.16229248046875,-0.207611083984375
1774472501872430600,4.9404306640625,-1.2269287109375,0.16143798828125,-0.26739501953125
1774472501882448600,4.95044873046875,-1.178466796875,0.154327392578125,-0.4566650390625
1774472501892465700,4.960465576171875,-1.115142822265625,0.1076507568359375,-0.530853271484375
1774472501902483700,4.970483642578125,-1.141754150390625,0.072784423828125,-0.4430999755859375
1774472501912501500,4.98050146484375,-1.1562347412109375,0.0590057373046875,-0.3011322021484375
1774472501922519800,4.990519775390625,-1.1155242919921875,0.0745086669921875,-0.1135101318359375
1774472501932537600,5.00053759765625,-1.1784515380859375,0.2339935302734375,0.0230255126953125
1774472501942555600,5.0105556640625,-1.0732269287109375,0.5158843994140625,0.193511962890625
1774472501952573400,5.020573486328125,-1.1829681396484375,0.434112548828125,0.228240966796875
1774472501962591700,5.030591796875,-1.0940704345703125,0.31988525390625,0.039306640625
1774472501972609500,5.040609619140625,-0.9373779296875,0.2313079833984375,-0.0758209228515625
1774472501982627600,5.050627685546875,-0.8643646240234375,0.158050537109375,-0.07696533203125
1774472501992645600,5.060645751953125,-0.8117828369140625,0.1419677734375,0.02923583984375
1774472502002663700,5.07066357421875,-0.7848358154296875,0.173095703125,0.1193084716796875
1774472502012681700,5.080681640625,-0.778900146484375,0.184967041015625,0.144805908203125
1774472502022699500,5.090699462890625,-0.81011962890625,0.17364501953125,0.165924072265625
1774472502032717800,5.1007177734375,-0.808380126953125,0.1965484619140625,0.199310302734375
1774472502042735600,5.110735595703125,-0.84722900390625,0.2142486572265625,0.20941162109375
1774472502052753700,5.120753662109375,-0.8612823486328125,0.17852783203125,0.1612701416015625
1774472502062771500,5.130771484375,-0.87005615234375,0.1720733642578125,0.1891632080078125
1774472502072789800,5.140789794921875,-1.0010223388671875,0.19708251953125,0.206695556640625
1774472502082807600,5.1508076171875,-1.1647796630859375,0.169189453125,0.20855712890625
1774472502092825600,5.16082568359375,-1.239654541015625,0.1259002685546875,0.2349395751953125
1774472502102843600,5.17084375,-1.0464019775390625,0.0645904541015625,0.2999114990234375
1774472502112861700,5.18086181640625,-0.471588134765625,0.1446990966796875,0.0662384033203125
1774472502122879700,5.190879638671875,-0.550750732421875,0.131317138671875,-0.011322021484375
1774472502132897500,5.2008974609375,-1.025482177734375,0.076080322265625,0.1502227783203125
1774472502142914600,5.21091455078125,-1.2041168212890625,0.1824188232421875,0.37109375
1774472502152932600,5.2209326171875,-1.38189697265625,0.2558746337890625,0.505157470703125
1774472502162950400,5.230950439453125,-1.3935546875,0.2440185546875,0.331390380859375
1774472502172968700,5.24096875,-1.288482666015625,0.1910552978515625,0.1480255126953125
1774472502182986800,5.25098681640625,-1.0615081787109375,0.0692901611328125,0.12884521484375
1774472502193004500,5.261004638671875,-0.94683837890625,-0.045379638671875,0.14111328125
1774472502203022600,5.271022705078125,-0.9927825927734375,-0.117156982421875,0.129852294921875
1774472502213040600,5.28104052734375,-1.017974853515625,-0.1171112060546875,0.1331024169921875
1774472502223058700,5.29105859375,-0.9754791259765625,-0.034088134765625,0.1602020263671875
1774472502233076500,5.301076416015625,-0.9329833984375,-0.012054443359375,0.1741180419921875
1774472502243094800,5.3110947265625,-0.9308624267578125,-0.0485992431640625,0.1759490966796875
1774472502253112600,5.321112548828125,-0.9454498291015625,-0.0586700439453125,0.172454833984375
1774472502263130600,5.331130615234375,-0.96697998046875,-0.04364013671875,0.175018310546875
1774472502273148400,5.3411484375,-0.963134765625,-0.02105712890625,0.20257568359375
1774472502283166700,5.351166748046875,-0.9554290771484375,-0.0105133056640625,0.233154296875
1774472502293184500,5.3611845703125,-0.973419189453125,-0.0084381103515625,0.2584686279296875
1774472502303202600,5.37120263671875,-0.9920501708984375,0.0204010009765625,0.28045654296875
1774472502313220900,5.381220947265625,-0.9968719482421875,0.0537109375,0.2670135498046875
1774472502323238700,5.39123876953125,-0.98004150390625,0.0661163330078125,0.263916015625
1774472502333256700,5.401256591796875,-0.943084716796875,0.0653533935546875,0.2161102294921875
1774472502343274500,5.4112744140625,-0.9480743408203125,0.04632568359375,0.152740478515625
1774472502353292800,5.421292724609375,-1.008514404296875,0.0399932861328125,0.099639892578125
1774472502363310600,5.431310546875,-1.030548095703125,0.0509796142578125,0.014862060546875
1774472502373328600,5.44132861328125,-0.963775634765625,0.0568084716796875,0.0106964111328125
1774472502383346400,5.451346435546875,-0.9575347900390625,0.0350494384765625,0.0992431640625
1774472502393364700,5.46136474609375,-1.0428619384765625,0.0262603759765625,0.1445770263671875
1774472502403381500,5.471381591796875,-1.0796966552734375,0.0635223388671875,0.13433837890625
1774472502413399800,5.48139990234375,-1.134429931640625,0.0746612548828125,0.1117095947265625
1774472502423417600,5.49141748046875,-1.1427154541015625,0.0638275146484375,0.09088134765625
1774472502433435600,5.501435546875,-0.9961395263671875,0.0704193115234375,0.07171630859375
1774472502443453400,5.511453369140625,-0.848663330078125,0.06024169921875,0.0342254638671875
1774472502453471700,5.5214716796875,-0.846954345703125,0.0500030517578125,-0.077606201171875
1774472502463489500,5.531489501953125,-0.9296417236328125,0.0041351318359375,-0.031402587890625
1774472502473507600,5.541507568359375,-0.954437255859375,0.0106353759765625,0.0596771240234375
1774472502483525600,5.551525634765625,-0.7829132080078125,0.037994384765625,0.1558685302734375
1774472502493543700,5.561543701171875,-0.512237548828125,0.0782623291015625,0.2754974365234375
1774472502503561700,5.571561767578125,-0.54388427734375,0.0540008544921875,0.261993408203125
1774472502513579500,5.58157958984375,-0.7520599365234375,0.0828857421875,0.17657470703125
1774472502523597800,5.591597900390625,-0.7263336181640625,0.216400146484375,0.094024658203125
1774472502533615600,5.60161572265625,-1.0632171630859375,0.09722900390625,0.128936767578125
1774472502543633700,5.611633544921875,-1.2668304443359375,-0.1068267822265625,0.154388427734375
1774472502553651500,5.6216513671875,-1.0693359375,-0.04022216796875,0.21405029296875
1774472502563669800,5.631669677734375,-0.97637939453125,-0.0399322509765625,0.2089691162109375
1774472502573687600,5.6416875,-0.943206787109375,-0.007171630859375,0.1881256103515625
1774472502583705600,5.65170556640625,-0.998626708984375,0.0187835693359375,0.008514404296875
1774472502593723600,5.6617236328125,-1.089111328125,-0.011474609375,0.230621337890625
1774472502603741700,5.67174169921875,-0.9619293212890625,-0.00360107421875,0.288848876953125
1774472502613759500,5.681759521484375,-1.105224609375,-0.0562591552734375,0.1361541748046875
1774472502623777500,5.691777587890625,-1.16192626953125,-0.0821990966796875,0.150360107421875
1774472502633795800,5.7017958984375,-0.9807586669921875,-0.05487060546875,0.1711273193359375
1774472502643813600,5.711813720703125,-0.931488037109375,0.0148773193359375,0.244873046875
1774472502653830700,5.72183056640625,-1.047393798828125,0.0996856689453125,0.2678375244140625
1774472502663848700,5.7318486328125,-1.1683502197265625,0.139434814453125,0.140777587890625
1774472502673866500,5.741866455078125,-1.15771484375,0.1181182861328125,0.104156494140625
1774472502683884500,5.751884521484375,-1.1257781982421875,0.102325439453125,0.1521453857421875
1774472502693902800,5.76190283203125,-1.0400543212890625,0.070556640625,0.112060546875
1774472502703920600,5.771920654296875,-1.03369140625,0.074462890625,0.0214996337890625
1774472502713938700,5.781938720703125,-1.0652008056640625,0.026275634765625,0.09466552734375
1774472502723956500,5.79195654296875,-0.944610595703125,0.0303192138671875,0.0917816162109375
1774472502733974800,5.801974853515625,-0.8987884521484375,0.085906982421875,0.0809326171875
1774472502743992600,5.81199267578125,-0.84967041015625,0.1177978515625,0.13800048828125
1774472502754010600,5.8220107421875,-0.94451904296875,0.1587677001953125,0.18182373046875
1774472502764028700,5.832028564453125,-1.0673828125,0.206207275390625,0.1495208740234375
1774472502774046700,5.842046630859375,-1.110107421875,0.24407958984375,0.128448486328125
1774472502784063000,5.85206298828125,-1.1504364013671875,0.1769866943359375,0.08514404296875
1774472502794080800,5.862080810546875,-1.159027099609375,0.117034912109375,-0.041351318359375
1774472502804098800,5.872098876953125,-1.196380615234375,0.1068267822265625,-0.0810089111328125
1774472502814116600,5.88211669921875,-1.2530670166015625,0.1427154541015625,0.008392333984375
1774472502824135000,5.892135009765625,-1.2291259765625,0.157318115234375,0.0499114990234375
1774472502834152700,5.902152587890625,-1.188385009765625,0.1396026611328125,0.0609130859375
1774472502844170800,5.912170654296875,-1.1072998046875,0.036712646484375,0.0904998779296875
1774472502854188800,5.922188720703125,-0.9725494384765625,-0.054046630859375,0.07080078125
1774472502864206800,5.932206787109375,-0.903656005859375,-0.0409088134765625,0.0381317138671875
1774472502874225000,5.942224853515625,-0.84954833984375,-0.032470703125,0.103607177734375
1774472502884242700,5.95224267578125,-0.7692413330078125,-0.02734375,0.175323486328125
1774472502894261000,5.962260986328125,-0.755157470703125,0.00067138671875,0.1839752197265625
1774472502904277800,5.97227783203125,-0.8086090087890625,0.03033447265625,0.1776123046875
1774472502914295800,5.9822958984375,-0.7976531982421875,0.02935791015625,0.2020416259765625
1774472502924313900,5.99231396484375,-0.7779541015625,0.018829345703125,0.2379608154296875
1774472502934332000,6.002331787109375,-0.8118438720703125,0.0169677734375,0.2351226806640625
1774472502944349700,6.012349609375,-0.854400634765625,0.029541015625,0.2664642333984375
1774472502954368000,6.022367919921875,-0.926239013671875,0.0903778076171875,0.2859039306640625
1774472502964385800,6.0323857421875,-0.9912567138671875,0.1233673095703125,0.2879791259765625
1774472502974403800,6.04240380859375,-0.988250732421875,0.123260498046875,0.285919189453125
1774472502984421600,6.052421630859375,-0.9344024658203125,0.1159820556640625,0.2841949462890625
1774472502994440000,6.06243994140625,-0.908782958984375,0.0892791748046875,0.275787353515625
1774472503004457700,6.072457763671875,-0.9045562744140625,0.0468292236328125,0.250885009765625
1774472503014475800,6.082475830078125,-0.94097900390625,0.012603759765625,0.225616455078125
1774472503024493600,6.09249365234375,-0.946044921875,-0.01129150390625,0.2007598876953125
1774472503034512000,6.102511962890625,-0.9204864501953125,-0.02593994140625,0.17999267578125
1774472503044529700,6.11252978515625,-0.9835662841796875,-0.0373382568359375,0.1669769287109375
1774472503054547700,6.122547607421875,-0.9146881103515625,-0.048675537109375,0.139068603515625
1774472503064566000,6.13256591796875,-0.807769775390625,-0.043182373046875,0.151275634765625
1774472503074583800,6.142583740234375,-0.607818603515625,0.0111846923828125,0.1759185791015625
1774472503084601900,6.152601806640625,-0.7821197509765625,0.0137939453125,0.1389617919921875
1774472503094619600,6.16261962890625,-0.8795013427734375,0.0117340087890625,0.1231689453125
1774472503104638000,6.172637939453125,-1.11639404296875,0.0542755126953125,0.0197296142578125
1774472503114655700,6.18265576171875,-1.4255218505859375,0.086334228515625,-0.110626220703125
1774472503124673800,6.192673828125,-1.530364990234375,0.0829925537109375,-0.14447021484375
1774472503134691800,6.20269189453125,-1.4236297607421875,0.04150390625,-0.115325927734375
1774472503144710000,6.2127099609375,-1.3285980224609375,-0.0050811767578125,-0.0760345458984375
1774472503154727700,6.222727783203125,-1.2351226806640625,-0.0021820068359375,-0.0472412109375
1774472503164745000,6.232744873046875,-1.07403564453125,0.0371246337890625,0.0056304931640625
1774472503174762800,6.2427626953125,-1.005126953125,0.063262939453125,0.0798187255859375
1774472503184780800,6.25278076171875,-1.038360595703125,0.0948486328125,0.1207427978515625
1774472503194798600,6.262798583984375,-1.073516845703125,0.115264892578125,0.131378173828125
1774472503204817000,6.27281689453125,-1.07720947265625,0.0920867919921875,0.110321044921875
1774472503214834700,6.282834716796875,-1.041595458984375,0.0687255859375,0.1222991943359375
1774472503224852700,6.292852783203125,-1.009246826171875,0.0659637451171875,0.1158447265625
1774472503234870800,6.302870849609375,-0.9215240478515625,0.0736846923828125,0.1138763427734375
1774472503244888800,6.312888916015625,-0.8428955078125,0.107177734375,0.16619873046875
1774472503254907000,6.322906982421875,-0.921905517578125,0.104095458984375,0.2364349365234375
1774472503264924700,6.332924560546875,-1.0655670166015625,0.084228515625,0.217010498046875
1774472503274943000,6.34294287109375,-1.140777587890625,0.0662078857421875,0.1210784912109375
1774472503284960800,6.352960693359375,-1.1507720947265625,0.0050811767578125,0.1175537109375
1774472503294978800,6.362978759765625,-1.1287994384765625,-0.0405426025390625,0.157623291015625
1774472503304996600,6.37299658203125,-0.92706298828125,-0.01129150390625,0.117950439453125
1774472503315015000,6.383014892578125,-0.5219268798828125,0.0888214111328125,0.144683837890625
1774472503325032700,6.39303271484375,-0.4150543212890625,0.1399993896484375,0.2282867431640625
1774472503335050800,6.40305078125,-0.4798736572265625,0.0606231689453125,0.251373291015625
1774472503345068800,6.41306884765625,-0.5296173095703125,-0.04364013671875,0.1466827392578125
1774472503355086800,6.4230869140625,-0.7900390625,-0.10772705078125,0.111328125
1774472503365104600,6.433104736328125,-1.10882568359375,-0.05804443359375,0.097015380859375
1774472503375122700,6.443122802734375,-1.27130126953125,0.0156707763671875,0.029388427734375
1774472503385141000,6.45314111328125,-1.2877960205078125,0.04791259765625,-0.0599822998046875
1774472503395158800,6.46315869140625,-1.2350616455078125,0.0125732421875,-0.123779296875
1774472503405176800,6.4731767578125,-1.07781982421875,-0.0048980712890625,-0.1960906982421875
1774472503415194600,6.483194580078125,-0.91595458984375,-0.050537109375,-0.265533447265625
1774472503425213000,6.493212890625,-0.8698883056640625,-0.093597412109375,-0.339996337890625
1774472503435229700,6.503229736328125,-0.9372711181640625,-0.09600830078125,-0.331085205078125
1774472503445248000,6.513248046875,-1.03192138671875,-0.06500244140625,-0.316741943359375
1774472503455265800,6.523265869140625,-1.0794677734375,-0.0093231201171875,-0.2475128173828125
1774472503465283800,6.533283935546875,-1.095001220703125,0.0082244873046875,-0.1667938232421875
1774472503475301600,6.543301513671875,-1.0293121337890625,0.0085296630859375,-0.1130218505859375
1774472503485320000,6.55331982421875,-0.9743804931640625,0.0102691650390625,-0.081268310546875
1774472503495337700,6.563337646484375,-1.04608154296875,-0.00048828125,-0.030303955078125
1774472503505355800,6.573355712890625,-1.1105194091796875,0.0438995361328125,0.0074615478515625
1774472503515373800,6.583373779296875,-1.0881500244140625,0.1107025146484375,0.023834228515625
1774472503525392000,6.593391845703125,-1.0414276123046875,0.138153076171875,0.066375732421875
1774472503535409700,6.60340966796875,-1.0296783447265625,0.1308746337890625,0.1155853271484375
1774472503545427700,6.613427734375,-1.05181884765625,0.1060943603515625,0.1363067626953125
1774472503555446000,6.623446044921875,-1.07196044921875,0.0984649658203125,0.1539306640625
1774472503565463800,6.6334638671875,-1.068267822265625,0.0840606689453125,0.1627655029296875
1774472503575481900,6.64348193359375,-1.045379638671875,0.0712432861328125,0.1769256591796875
1774472503585499600,6.653499755859375,-0.9257965087890625,0.0597991943359375,0.2141571044921875
1774472503595518000,6.66351806640625,-0.744659423828125,0.0580902099609375,0.297332763671875
1774472503605535700,6.67353564453125,-0.6981048583984375,0.0729827880859375,0.3442535400390625
1774472503615553800,6.6835537109375,-0.7814178466796875,0.099212646484375,0.3409881591796875
1774472503625571800,6.69357177734375,-0.89532470703125,0.115875244140625,0.3014678955078125
1774472503635590000,6.70358984375,-0.979888916015625,0.1075439453125,0.23760986328125
1774472503645607700,6.713607666015625,-1.074462890625,0.065521240234375,0.1580352783203125
1774472503655625700,6.723625732421875,-1.271697998046875,0.01922607421875,0.1034088134765625
1774472503665643800,6.733643798828125,-1.4151763916015625,0.0228729248046875,0.0674896240234375
1774472503675661800,6.743661865234375,-1.19195556640625,0.136566162109375,0.06854248046875
1774472503685678800,6.753678955078125,-1.0046234130859375,0.173828125,0.0953826904296875
1774472503695697000,6.76369677734375,-0.9228973388671875,0.1154632568359375,0.08587646484375
1774472503705714700,6.773714599609375,-0.7898406982421875,0.0955963134765625,0.060150146484375
1774472503715732700,6.783732666015625,-0.5958251953125,0.0254058837890625,0.0325469970703125
1774472503725750800,6.793750732421875,-0.583709716796875,-0.0141754150390625,-0.0045013427734375
1774472503735768800,6.803768798828125,-0.7830963134765625,0.036376953125,0.0047149658203125
1774472503745787000,6.813786865234375,-1.0107574462890625,0.128875732421875,0.043975830078125
1774472503755804700,6.8238046875,-1.1056365966796875,0.18951416015625,0.03131103515625
1774472503765823000,6.833822998046875,-1.1270599365234375,0.1518096923828125,-0.01007080078125
1774472503775840800,6.8438408203125,-1.2049102783203125,0.0682830810546875,0.0333404541015625
1774472503785859600,6.853859619140625,-1.2785491943359375,0.0511627197265625,0.0478057861328125
1774472503795877400,6.86387744140625,-1.2749176025390625,0.0733184814453125,0.0224151611328125
1774472503805895700,6.873895751953125,-1.128631591796875,0.088836669921875,-0.0015411376953125
1774472503815913500,6.88391357421875,-0.8872222900390625,0.103668212890625,-0.015655517578125
1774472503825931500,6.893931640625,-0.7064666748046875,0.05548095703125,-0.074951171875
1774472503835949300,6.90394921875,-0.615081787109375,-0.0578155517578125,-0.207977294921875
1774472503845967600,6.913967529296875,-0.6768951416015625,-0.106689453125,-0.2741851806640625
1774472503855985400,6.9239853515625,-0.883026123046875,-0.0485992431640625,-0.210296630859375
1774472503866003500,6.93400341796875,-1.120361328125,0.0766143798828125,-0.112884521484375
1774472503876021500,6.944021484375,-1.268707275390625,0.236785888671875,-0.013519287109375
1774472503886039600,6.95403955078125,-1.526885986328125,0.3948822021484375,0.40087890625
1774472503896057600,6.9640576171875,-1.4242095947265625,0.3503570556640625,0.147979736328125
1774472503906075400,6.974075439453125,-0.978485107421875,0.345428466796875,0.096588134765625
1774472503916093700,6.98409375,-0.771026611328125,0.274078369140625,0.284881591796875
1774472503926111500,6.994111572265625,-0.6851654052734375,0.2508087158203125,0.252899169921875
1774472503936129500,7.004129638671875,-0.716339111328125,0.1627960205078125,0.0570068359375
1774472503946147300,7.014147216796875,-0.8939971923828125,0.151092529296875,0.0448760986328125
1774472503956164600,7.02416455078125,-1.0861358642578125,0.105010986328125,0.0506591796875
1774472503966182400,7.034182373046875,-1.2061767578125,0.0782470703125,0.0054473876953125
1774472503976200700,7.04420068359375,-1.17694091796875,0.06170654296875,-0.046844482421875
1774472503986218500,7.054218505859375,-1.053955078125,0.048065185546875,-0.0375518798828125
1774472503996236500,7.064236572265625,-0.9587249755859375,0.0625457763671875,-0.004364013671875
1774472504006254300,7.07425439453125,-0.9457550048828125,0.0705108642578125,-0.007171630859375
1774472504016272600,7.084272705078125,-1.0546875,0.053741455078125,0.0167694091796875
1774472504026290400,7.09429052734375,-1.1464385986328125,0.0390625,0.0771942138671875
1774472504036308500,7.10430859375,-1.113922119140625,0.0242919921875,0.0719451904296875
1774472504046326300,7.114326171875,-1.089569091796875,-0.001434326171875,0.0341949462890625
1774472504056344600,7.124344482421875,-1.0577392578125,0.0835418701171875,0.008514404296875
1774472504066362600,7.134362548828125,-1.0341644287109375,0.1797943115234375,0.0076751708984375
1774472504076380400,7.14438037109375,-1.063751220703125,0.202545166015625,0.026580810546875
1774472504086398700,7.154398681640625,-1.1338348388671875,0.2034912109375,0.0402984619140625
1774472504096416500,7.16441650390625,-1.15924072265625,0.220733642578125,0.035980224609375
1774472504106434600,7.1744345703125,-1.1325225830078125,0.2380523681640625,0.06396484375
1774472504116452400,7.184452392578125,-0.98504638671875,0.246551513671875,0.062744140625
1774472504126470700,7.194470703125,-0.8202667236328125,0.2349700927734375,-0.0062103271484375
1774472504136488400,7.204488525390625,-0.7185211181640625,0.18426513671875,-0.035247802734375
1774472504146506500,7.214506591796875,-0.75006103515625,0.1129302978515625,-0.074920654296875
1774472504156524500,7.224524658203125,-0.8539276123046875,0.0304412841796875,-0.12420654296875
1774472504166542600,7.23454248046875,-0.8891754150390625,-0.0308685302734375,-0.083709716796875
1774472504176560400,7.244560302734375,-0.8249969482421875,-0.00469970703125,0.028656005859375
1774472504186578400,7.254578369140625,-0.7024993896484375,0.059356689453125,0.1108856201171875
1774472504196596500,7.264596435546875,-0.6258087158203125,-0.0296173095703125,0.173828125
1774472504206614500,7.274614501953125,-0.499725341796875,-0.122711181640625,0.2779541015625
1774472504216632600,7.284632568359375,-0.6241302490234375,0.002899169921875,0.507843017578125
1774472504226650400,7.294650390625,-0.9251708984375,0.2178802490234375,0.6751251220703125
1774472504236667400,7.30466748046875,-1.15704345703125,0.5419769287109375,0.690338134765625
1774472504246685400,7.314685546875,-1.4420928955078125,0.5827484130859375,0.5602264404296875
1774472504256703500,7.324703369140625,-1.5890960693359375,0.4341888427734375,0.536712646484375
1774472504266721500,7.334721435546875,-1.69952392578125,0.341400146484375,0.30755615234375
1774472504276739600,7.344739501953125,-1.75274658203125,0.245025634765625,0.119232177734375
1774472504286757400,7.35475732421875,-1.6612548828125,0.1078338623046875,-0.0230712890625
1774472504296775700,7.364775634765625,-1.4541473388671875,0.060882568359375,-0.12518310546875
1774472504306793500,7.37479345703125,-1.263702392578125,0.022216796875,-0.1703338623046875
1774472504316811500,7.3848115234375,-1.0502166748046875,-0.0255584716796875,-0.0986328125
1774472504326829300,7.394829345703125,-0.8902435302734375,0.020050048828125,0.0174407958984375
1774472504336847600,7.40484765625,-0.8444061279296875,0.078338623046875,0.045257568359375
1774472504346865400,7.414865478515625,-0.894012451171875,0.066802978515625,0.057098388671875
1774472504356883500,7.424883544921875,-0.86822509765625,0.1506805419921875,0.1858062744140625
1774472504366901500,7.434901611328125,-0.709259033203125,0.21844482421875,0.2489166259765625
1774472504376919600,7.44491943359375,-0.5324554443359375,0.1653289794921875,0.2187347412109375
1774472504386937600,7.4549375,-0.79443359375,0.0809783935546875,0.234954833984375
1774472504396955400,7.464955322265625,-1.044464111328125,-0.0009918212890625,0.249603271484375
1774472504406973700,7.4749736328125,-0.931610107421875,-0.028045654296875,0.1097564697265625
1774472504416991500,7.484991455078125,-0.7380523681640625,-0.1072998046875,-0.0443572998046875
1774472504427009500,7.495009521484375,-0.664703369140625,-0.172454833984375,-0.121551513671875
1774472504437027300,7.50502734375,-0.69268798828125,-0.1155242919921875,-0.2117462158203125
1774472504447045600,7.515045654296875,-0.9969329833984375,-0.035247802734375,-0.24395751953125
1774472504457063400,7.5250634765625,-0.5929107666015625,-0.2412872314453125,-0.1949310302734375
1774472504467081500,7.53508154296875,-0.58013916015625,-0.12457275390625,-0.321319580078125
1774472504477099500,7.545099609375,-0.6204833984375,-0.0200042724609375,-0.248321533203125
1774472504487117600,7.55511767578125,-0.526885986328125,0.0402679443359375,-0.1501922607421875
1774472504497135400,7.56513525390625,-0.4598236083984375,0.0779266357421875,-0.13739013671875
1774472504507153400,7.5751533203125,-0.4921112060546875,0.2285614013671875,-0.0673370361328125
1774472504517171500,7.58517138671875,-0.57598876953125,0.2345428466796875,-0.019073486328125
1774472504527189500,7.595189453125,-0.6926727294921875,0.126495361328125,-0.0264129638671875
1774472504537206500,7.60520654296875,-0.852020263671875,0.1283416748046875,0.0120086669921875
1774472504547224600,7.615224609375,-1.045013427734375,0.1863555908203125,-0.0244140625
1774472504557242400,7.625242431640625,-1.2213897705078125,0.20440673828125,-0.084228515625
1774472504567260400,7.635260498046875,-1.4075927734375,0.180023193359375,-0.1786346435546875
1774472504577278700,7.64527880859375,-1.6585540771484375,0.146209716796875,-0.2678070068359375
1774472504587296500,7.655296630859375,-1.756134033203125,0.1035919189453125,-0.29779052734375
1774472504597314600,7.665314453125,-1.561859130859375,0.1233978271484375,-0.3163909912109375
1774472504607332400,7.675332275390625,-1.28643798828125,0.16326904296875,-0.2880401611328125
1774472504617350700,7.6853505859375,-1.0539093017578125,0.165740966796875,-0.243011474609375
1774472504627368400,7.695368408203125,-0.8750152587890625,0.17730712890625,-0.32391357421875
1774472504637386500,7.705386474609375,-0.774322509765625,0.15167236328125,-0.4882965087890625
1774472504647404500,7.715404541015625,-0.7497711181640625,0.0291748046875,-0.5711669921875
1774472504657422600,7.725422607421875,-0.85528564453125,-0.0058746337890625,-0.50225830078125
1774472504667440400,7.7354404296875,-0.9732208251953125,-0.0391845703125,-0.5042877197265625
1774472504677458400,7.74545849609375,-0.9344635009765625,-0.0477752685546875,-0.5562744140625
1774472504687476500,7.7554765625,-0.9337005615234375,-0.075836181640625,-0.518646240234375
1774472504697494500,7.76549462890625,-1.251922607421875,0.0458984375,-0.3502960205078125
1774472504707512600,7.7755126953125,-1.35833740234375,0.2876129150390625,-0.1300811767578125
1774472504717530400,7.7855302734375,-0.95098876953125,0.3545684814453125,-0.0389404296875
1774472504727548700,7.795548583984375,-0.564483642578125,0.514801025390625,-0.007781982421875
1774472504737566500,7.80556640625,0.0306243896484375,0.5940399169921875,-0.0396270751953125
1774472504747584500,7.81558447265625,-1.451416015625,0.3660430908203125,-0.187530517578125
1774472504757602600,7.8256025390625,-1.610809326171875,0.1743011474609375,-0.2902679443359375
1774472504767620600,7.83562060546875,-0.9096527099609375,0.148651123046875,-0.4424285888671875
1774472504777638400,7.845638427734375,-0.8470611572265625,0.1474151611328125,-0.5602569580078125
1774472504787656200,7.85565625,-0.8106689453125,0.173492431640625,-0.66436767578125
1774472504797674000,7.865674072265625,-0.7125396728515625,0.111358642578125,-0.60858154296875
1774472504807692000,7.875692138671875,-0.6505889892578125,0.0327606201171875,-0.5933685302734375
1774472504817710000,7.8857099609375,-0.600677490234375,0.20751953125,-0.624053955078125
1774472504827727000,7.89572705078125,-0.6978607177734375,0.241119384765625,-0.522064208984375
1774472504837745000,7.905744873046875,-0.8441314697265625,0.250640869140625,-0.5313720703125
1774472504847763000,7.915762939453125,-0.9777984619140625,0.330963134765625,-0.520050048828125
1774472504857781000,7.925781005859375,-1.0664215087890625,0.39190673828125,-0.4786529541015625
1774472504867799000,7.935799072265625,-1.109405517578125,0.45361328125,-0.3615264892578125
1774472504877817000,7.945817138671875,-1.1444091796875,0.5170440673828125,-0.2131805419921875
1774472504887835100,7.955835205078125,-1.132659912109375,0.5695648193359375,-0.1269073486328125
1774472504897853200,7.965853271484375,-1.0766143798828125,0.58892822265625,-0.0566864013671875
1774472504907871000,7.97587109375,-0.99261474609375,0.58392333984375,-0.08056640625
1774472504917889000,7.985888916015625,-0.9206085205078125,0.51873779296875,-0.1914825439453125
1774472504927907000,7.995906982421875,-0.8381195068359375,0.4864044189453125,-0.3015594482421875
1774472504937925000,8.005925048828125,-0.8026580810546875,0.4122161865234375,-0.383087158203125
1774472504947943000,8.01594287109375,-0.8028106689453125,0.4053192138671875,-0.4363555908203125
1774472504957961000,8.0259609375,-0.854949951171875,0.4251861572265625,-0.5287322998046875
1774472504967979000,8.03597900390625,-0.912841796875,0.3897552490234375,-0.6181793212890625
1774472504977997000,8.0459970703125,-1.004058837890625,0.3408660888671875,-0.6815643310546875
1774472504988014800,8.056014892578125,-0.9786834716796875,0.3591156005859375,-0.67010498046875
1774472504998033200,8.066033203125,-0.7785491943359375,0.4033966064453125,-0.62933349609375
1774472505008051200,8.07605126953125,-0.5970458984375,0.4162445068359375,-0.590911865234375
1774472505018069000,8.086069091796874,-0.5050811767578125,0.3875732421875,-0.5703887939453125
1774472505028087000,8.096087158203124,-0.496795654296875,0.3530426025390625,-0.56689453125
1774472505038105000,8.10610498046875,-0.5107421875,0.2908935546875,-0.5181121826171875
1774472505048123100,8.116123046875,-0.6083221435546875,0.23468017578125,-0.4582977294921875
1774472505058141000,8.126140869140626,-0.7733154296875,0.213836669921875,-0.3935699462890625
1774472505068159000,8.136158935546876,-0.8966217041015625,0.197967529296875,-0.326446533203125
1774472505078177000,8.146177001953125,-0.9232330322265625,0.1916656494140625,-0.2924957275390625
1774472505088195000,8.156195068359375,-0.8917388916015625,0.1895294189453125,-0.257171630859375
1774472505098212900,8.166212890625,-0.8956451416015625,0.21929931640625,-0.1988983154296875
1774472505108231200,8.176231201171875,-0.9236907958984375,0.227081298828125,-0.09405517578125
1774472505118249000,8.1862490234375,-0.907257080078125,0.183013916015625,-0.025787353515625
1774472505128267000,8.19626708984375,-0.876861572265625,0.130126953125,0.001556396484375
1774472505138284000,8.206283935546875,-0.9346771240234375,0.1272125244140625,0.0271759033203125
1774472505148302000,8.216302001953125,-1.0214996337890625,0.1660614013671875,-0.027862548828125
1774472505158319900,8.22631982421875,-1.0986785888671875,0.225860595703125,-0.1135101318359375
1774472505168338200,8.236338134765624,-1.26202392578125,0.2418212890625,-0.1881561279296875
1774472505178356000,8.24635595703125,-1.4256591796875,0.17071533203125,-0.2361602783203125
1774472505188374000,8.2563740234375,-1.5859375,0.17327880859375,-0.2855682373046875
1774472505198392000,8.26639208984375,-1.6557769775390625,0.2371826171875,-0.3437957763671875
1774472505208410000,8.27641015625,-1.5971832275390625,0.337646484375,-0.426361083984375
1774472505218428200,8.28642822265625,-1.5127410888671875,0.5059051513671875,-0.3940582275390625
1774472505228446000,8.296446044921876,-1.4015960693359375,0.596527099609375,-0.4459075927734375
1774472505238464000,8.306464111328125,-0.9616241455078125,0.4416046142578125,-0.452301025390625
1774472505248482000,8.31648193359375,-0.607086181640625,0.3911285400390625,-0.5753936767578125
1774472505258500000,8.3265,-0.5387725830078125,0.2939910888671875,-0.8531951904296875
1774472505268518000,8.336517822265625,-0.5264434814453125,0.1261749267578125,-1.05596923828125
1774472505278536200,8.3465361328125,-0.547698974609375,-0.0391998291015625,-1.145416259765625
1774472505288554000,8.356553955078125,-0.6481170654296875,-0.1324005126953125,-1.06439208984375
1774472505298572000,8.366572021484375,-0.7867889404296875,-0.1040496826171875,-0.8810272216796875
1774472505308589800,8.37658984375,-0.875701904296875,-0.0317230224609375,-0.815704345703125
1774472505318608100,8.386608154296875,-0.96197509765625,0.038116455078125,-0.7769622802734375
1774472505328626200,8.396626220703125,-0.868499755859375,0.0666046142578125,-0.6022796630859375
1774472505338644000,8.40664404296875,-0.6641082763671875,0.07208251953125,-0.4704742431640625
1774472505348662000,8.416662109375,-0.4984588623046875,0.088653564453125,-0.458099365234375
1774472505358680000,8.42668017578125,-0.41357421875,0.1118927001953125,-0.4556884765625
1774472505368698000,8.436697998046874,-0.37420654296875,0.1365814208984375,-0.4681396484375
1774472505378716000,8.4467158203125,-0.420379638671875,0.143402099609375,-0.470794677734375
1774472505388734200,8.456734130859376,-0.55584716796875,0.087066650390625,-0.45513916015625
1774472505398752000,8.466751953125,-0.6366424560546875,0.0491485595703125,-0.468109130859375
1774472505408770000,8.47677001953125,-0.6236724853515625,0.0854339599609375,-0.4982147216796875
1774472505418787800,8.486787841796875,-0.5904693603515625,0.1645050048828125,-0.5067901611328125
1774472505428806100,8.49680615234375,-0.570465087890625,0.2411651611328125,-0.4494476318359375
1774472505438824000,8.506823974609375,-0.5961456298828125,0.3428192138671875,-0.383544921875
1774472505448842000,8.516842041015625,-0.60845947265625,0.4521026611328125,-0.3632049560546875
1774472505458859000,8.52685888671875,-0.5900115966796875,0.5152435302734375,-0.3207855224609375
1774472505468877000,8.536876953125,-0.5728759765625,0.5618743896484375,-0.3237762451171875
1774472505478894800,8.546894775390625,-0.6109466552734375,0.5845184326171875,-0.4024810791015625
1774472505488913200,8.5569130859375,-0.6920928955078125,0.56536865234375,-0.470001220703125
1774472505498931000,8.566930908203124,-0.697296142578125,0.520263671875,-0.5497589111328125
1774472505508949000,8.576948974609374,-0.7750244140625,0.52838134765625,-0.5865936279296875
1774472505518967000,8.586967041015624,-1.1287384033203125,0.8459014892578125,-0.610015869140625
1774472505528985000,8.596985107421874,-1.02459716796875,0.8628082275390625,-0.787506103515625
1774472505539003100,8.607003173828126,-0.712432861328125,0.544464111328125,-0.6290740966796875
1774472505549021000,8.61702099609375,-0.55938720703125,0.5003509521484375,-0.8495941162109375
1774472505559039200,8.627039306640626,-0.3962860107421875,0.4963836669921875,-1.1533203125
1774472505569057000,8.63705712890625,-0.063201904296875,0.30328369140625,-1.1987152099609375
1774472505579075000,8.647074951171875,-0.628509521484375,0.23150634765625,-0.9936676025390625
1774472505589092900,8.6570927734375,-0.92181396484375,0.364990234375,-0.9200592041015625
1774472505599111200,8.667111083984375,-0.848480224609375,0.551300048828125,-0.87371826171875
1774472505609129000,8.67712890625,-0.83544921875,0.59515380859375,-0.75384521484375
1774472505619147000,8.68714697265625,-0.78851318359375,0.5684051513671875,-0.75103759765625
1774472505629165000,8.6971650390625,-0.66021728515625,0.4972381591796875,-0.779876708984375
1774472505639183000,8.70718310546875,-0.6085205078125,0.405059814453125,-0.823150634765625
1774472505649201200,8.717201171875,-0.5986328125,0.3615570068359375,-0.849517822265625
1774472505659219000,8.727218994140625,-0.5731353759765625,0.379791259765625,-0.82855224609375
1774472505669237200,8.7372373046875,-0.555877685546875,0.400909423828125,-0.8800048828125
1774472505679255000,8.747255126953124,-0.556793212890625,0.399444580078125,-0.952789306640625
1774472505689273000,8.757273193359374,-0.5026092529296875,0.34490966796875,-1.01348876953125
1774472505699291000,8.767290771484374,-0.4790496826171875,0.2919464111328125,-1.0994720458984375
1774472505709309200,8.77730908203125,-0.4775238037109375,0.3187255859375,-1.1164398193359375
1774472505719327000,8.787326904296876,-0.4282684326171875,0.31591796875,-1.0236053466796875
1774472505729345000,8.797344970703126,-0.3478851318359375,0.3155975341796875,-0.972320556640625
1774472505739362000,8.807362060546875,-0.297210693359375,0.3223724365234375,-0.9375762939453125
1774472505749380000,8.817380126953125,-0.3082275390625,0.2957763671875,-0.86944580078125
1774472505759398000,8.82739794921875,-0.320465087890625,0.2976226806640625,-0.8082275390625
1774472505769416200,8.837416259765625,-0.2408294677734375,0.343231201171875,-0.7249603271484375
1774472505779434000,8.84743408203125,-0.2783050537109375,0.347259521484375,-0.6507720947265625
1774472505789452500,8.85745263671875,-0.425140380859375,0.27593994140625,-0.561004638671875
1774472505799470300,8.86747021484375,-0.456939697265625,0.2494659423828125,-0.51800537109375
1774472505809488600,8.877488525390625,-0.4706268310546875,0.3477020263671875,-0.4475250244140625
1774472505819506700,8.887506591796875,-0.4987945556640625,0.3867034912109375,-0.4324493408203125
1774472505829524500,8.8975244140625,-0.47454833984375,0.4024658203125,-0.4980926513671875
1774472505839542500,8.90754248046875,-0.47943115234375,0.4928131103515625,-0.48382568359375
1774472505849560600,8.917560546875,-0.524322509765625,0.5181732177734375,-0.5064697265625
1774472505859578600,8.92757861328125,-0.489959716796875,0.49468994140625,-0.56610107421875
1774472505869596400,8.937596435546874,-0.4412841796875,0.3985443115234375,-0.7133941650390625
1774472505879614500,8.947614501953124,-0.39556884765625,0.285400390625,-0.8955535888671875
1774472505889632500,8.957632568359376,-0.3156585693359375,0.15679931640625,-1.00592041015625
1774472505899650600,8.967650634765626,-0.2286224365234375,0.109375,-1.0630950927734375
1774472505909668400,8.97766845703125,-0.230194091796875,0.0988922119140625,-1.152435302734375
1774472505919686700,8.987686767578126,-0.3927154541015625,0.0594635009765625,-1.2111358642578125
1774472505929704400,8.997704345703125,-0.5564422607421875,0.0326995849609375,-1.1603240966796875
1774472505939722500,9.007722412109375,-0.61273193359375,0.0518798828125,-1.1085662841796875
1774472505949740500,9.017740478515625,-0.552764892578125,0.0583953857421875,-1.12408447265625
1774472505959758600,9.027758544921875,-0.4571075439453125,0.0437774658203125,-1.1570892333984375
1774472505969776600,9.037776611328125,-0.3865509033203125,0.0513763427734375,-1.0985565185546875
1774472505979794400,9.04779443359375,-0.3006134033203125,0.1253204345703125,-1.048614501953125
1774472505989812700,9.057812744140625,-0.249969482421875,0.154022216796875,-1.024383544921875
1774472505999830500,9.06783056640625,-0.27008056640625,0.2056427001953125,-0.9324951171875
1774472506009848600,9.0778486328125,-0.2625579833984375,0.204437255859375,-0.814910888671875
1774472506019866400,9.087866455078125,-0.323394775390625,0.138031005859375,-0.7923736572265625
1774472506029883600,9.097883544921874,-0.37493896484375,0.09515380859375,-0.8152618408203125
1774472506039901400,9.1079013671875,-0.3058319091796875,0.1224365234375,-0.8099517822265625
1774472506049919500,9.11791943359375,-0.3026580810546875,0.183685302734375,-0.8126220703125
1774472506059937500,9.1279375,-0.3404388427734375,0.217376708984375,-0.82196044921875
1774472506069955600,9.13795556640625,-0.2305145263671875,0.237762451171875,-0.851165771484375
1774472506079973400,9.147973388671875,-0.0179290771484375,0.282012939453125,-0.806976318359375
1774472506089991700,9.15799169921875,-0.056121826171875,0.3210906982421875,-0.7459716796875
1774472506100009500,9.168009521484375,-0.1652374267578125,0.322174072265625,-0.72369384765625
1774472506110027500,9.178027587890625,-0.0534820556640625,0.2572479248046875,-0.7333984375
1774472506120045600,9.188045654296875,0.0522613525390625,0.2057647705078125,-0.7599334716796875
1774472506130063600,9.198063720703125,-0.06585693359375,0.1966552734375,-0.79296875
1774472506140081700,9.20808154296875,-0.25701904296875,0.182830810546875,-0.8023529052734375
1774472506150099500,9.218099365234375,-0.3473968505859375,0.1658782958984375,-0.838897705078125
1774472506160117500,9.228117431640625,-0.4504241943359375,0.1525421142578125,-0.8240966796875
1774472506170135600,9.238135498046875,-0.7087860107421875,0.1985931396484375,-0.8125762939453125
1774472506180153600,9.248153564453125,-0.5796051025390625,0.2394866943359375,-0.835601806640625
1774472506190171400,9.25817138671875,-0.606842041015625,0.2379913330078125,-0.77850341796875
1774472506200189700,9.268189697265624,-0.7384490966796875,0.219482421875,-0.7817230224609375
1774472506210207500,9.27820751953125,-0.78448486328125,0.1655426025390625,-0.8425445556640625
1774472506220225500,9.2882255859375,-0.801727294921875,0.1212310791015625,-0.8539886474609375
1774472506230243300,9.298243408203126,-0.830780029296875,0.1025238037109375,-0.847259521484375
1774472506240261600,9.30826171875,-0.95166015625,0.04400634765625,-0.82623291015625
1774472506250279400,9.318279541015626,-1.056732177734375,-0.0187225341796875,-0.802520751953125
1774472506260297500,9.32829736328125,-1.0340576171875,-0.056182861328125,-0.762786865234375
1774472506270315500,9.3383154296875,-0.9996185302734375,-0.081298828125,-0.657562255859375
1774472506280333600,9.34833349609375,-0.9744415283203125,-0.10333251953125,-0.566650390625
1774472506290351600,9.3583515625,-0.92047119140625,-0.1106109619140625,-0.5434722900390625
1774472506300369400,9.368369384765625,-0.887786865234375,-0.0885162353515625,-0.5167083740234375
1774472506310386700,9.37838671875,-0.7264556884765625,-0.0723724365234375,-0.4909820556640625
1774472506320404500,9.388404541015625,-0.6554412841796875,-0.0386199951171875,-0.5723114013671875
1774472506330422500,9.398422607421875,-0.5915374755859375,-0.0035552978515625,-0.5206298828125
1774472506340440600,9.408440673828125,-0.493438720703125,0.04034423828125,-0.5852203369140625
1774472506350458600,9.418458740234374,-0.6274261474609375,0.026458740234375,-0.639923095703125
1774472506360476400,9.428476318359374,-0.56689453125,-0.006103515625,-0.666015625
1774472506370494700,9.43849462890625,-0.6490478515625,0.0142059326171875,-0.65216064453125
1774472506380512500,9.448512451171876,-0.47576904296875,0.0626068115234375,-0.684600830078125
1774472506390530600,9.458530517578126,-0.5250091552734375,0.126678466796875,-0.8691558837890625
1774472506400548400,9.46854833984375,-0.6414642333984375,0.188232421875,-0.9944915771484375
1774472506410566700,9.478566650390626,-0.7875823974609375,0.2425689697265625,-0.9031982421875
1774472506420584400,9.48858447265625,-0.82476806640625,0.2260284423828125,-0.782684326171875
1774472506430602500,9.4986025390625,-0.7783355712890625,0.2393341064453125,-0.797271728515625
1774472506440620500,9.50862060546875,-0.7756195068359375,0.3488006591796875,-0.894866943359375
1774472506450638600,9.518638671875,-0.8304901123046875,0.314178466796875,-0.8339385986328125
1774472506460656600,9.52865673828125,-0.781280517578125,0.168792724609375,-0.7572021484375
1774472506470674400,9.53867431640625,-0.737945556640625,0.057464599609375,-0.8448486328125
1774472506480692700,9.548692626953125,-0.68487548828125,-0.05084228515625,-0.9525299072265625
1774472506490710500,9.55871044921875,-0.613555908203125,-0.13568115234375,-1.0214691162109375
1774472506500728600,9.568728515625,-0.6196136474609375,-0.1831207275390625,-1.033233642578125
1774472506510746400,9.578746337890625,-0.7131195068359375,-0.22064208984375,-1.1140594482421875
1774472506520764700,9.5887646484375,-0.6776885986328125,-0.1923370361328125,-1.09588623046875
1774472506530782500,9.598782470703124,-0.58819580078125,-0.11602783203125,-1.03521728515625
1774472506540800500,9.608800537109374,-0.6601715087890625,-0.05169677734375,-0.99456787109375
1774472506550818600,9.618818603515624,-0.69525146484375,-0.0202789306640625,-0.941162109375
1774472506560836600,9.628836669921874,-0.6155242919921875,0.0039215087890625,-0.8664398193359375
1774472506570854400,9.6388544921875,-0.5572967529296875,0.016265869140625,-0.8385162353515625
1774472506580872400,9.64887255859375,-0.5656585693359375,-0.013336181640625,-0.86199951171875
1774472506590890800,9.658890869140626,-0.68035888671875,-0.063079833984375,-0.9326171875
1774472506600907500,9.668907470703125,-0.678619384765625,-0.09344482421875,-0.9833526611328125
1774472506610925300,9.67892529296875,-0.478790283203125,-0.0368499755859375,-0.955291748046875
1774472506620943600,9.688943603515625,-0.4492034912109375,-0.0931854248046875,-0.647247314453125
1774472506630961700,9.698961669921875,-0.4394378662109375,-0.14410400390625,-0.4889678955078125
1774472506640979500,9.7089794921875,-0.3760986328125,-0.134124755859375,-0.4981536865234375
1774472506650997800,9.718997802734375,-0.3905181884765625,-0.1405487060546875,-0.4622039794921875
1774472506661015600,9.729015625,-0.495635986328125,-0.198272705078125,-0.2945709228515625
1774472506671033600,9.73903369140625,-0.682098388671875,-0.2359771728515625,-0.1444091796875
1774472506681051400,9.749051513671875,-0.8671875,-0.2574462890625,-0.109039306640625
1774472506691069700,9.759069580078124,-0.9595489501953125,-0.30322265625,-0.1292266845703125
1774472506701087500,9.76908740234375,-1.06695556640625,-0.3657684326171875,-0.1984100341796875
1774472506711105500,9.77910546875,-1.1097259521484375,-0.4153594970703125,-0.37518310546875
1774472506721123600,9.78912353515625,-1.0731353759765625,-0.43450927734375,-0.4663848876953125
1774472506731141600,9.7991416015625,-1.0115814208984375,-0.448577880859375,-0.5231170654296875
1774472506741159400,9.809159423828126,-0.9096221923828125,-0.4359283447265625,-0.563262939453125
1774472506751177500,9.819177490234376,-0.79345703125,-0.4281005859375,-0.643310546875
1774472506761195800,9.82919580078125,-0.6516876220703125,-0.4300689697265625,-0.72674560546875
1774472506771213600,9.839213623046875,-0.5867156982421875,-0.44146728515625,-0.7992706298828125
1774472506781231600,9.849231689453125,-0.69775390625,-0.4283294677734375,-0.84930419921875
1774472506791248600,9.85924853515625,-0.9130096435546875,-0.3539581298828125,-0.7781829833984375
1774472506801266700,9.8692666015625,-1.1155548095703125,-0.27880859375,-0.6395721435546875
1774472506811284500,9.879284423828125,-1.242889404296875,-0.22357177734375,-0.5397186279296875
1774472506821302500,9.889302490234375,-1.265167236328125,-0.2062835693359375,-0.4859771728515625
1774472506831320600,9.899320556640625,-1.166015625,-0.223297119140625,-0.5136871337890625
1774472506841338600,9.909338623046875,-1.020416259765625,-0.257110595703125,-0.5982208251953125
1774472506851356700,9.919356689453124,-0.9048004150390625,-0.320953369140625,-0.6948394775390625
1774472506861374700,9.929374755859374,-0.8791656494140625,-0.3913726806640625,-0.765411376953125
1774472506871392800,9.939392822265624,-0.953460693359375,-0.424835205078125,-0.7813720703125
1774472506881409500,9.949409423828126,-1.02655029296875,-0.444580078125,-0.7649078369140625
1774472506891427600,9.959427490234376,-1.05072021484375,-0.467376708984375,-0.7617645263671875
1774472506901445600,9.969445556640625,-1.01104736328125,-0.479034423828125,-0.781707763671875
1774472506911463700,9.979463623046875,-0.9686126708984375,-0.4646148681640625,-0.79119873046875
1774472506921481700,9.989481689453125,-0.9833221435546875,-0.4333953857421875,-0.7537841796875
1774472506931499800,9.999499755859375,-1.006378173828125,-0.3702850341796875,-0.6702423095703125
1774472506941517600,10.009517578125,-0.9644775390625,-0.306793212890625,-0.6026763916015625
1774472506951535600,10.01953564453125,-0.913421630859375,-0.257537841796875,-0.5424346923828125
1774472506961553700,10.0295537109375,-0.86773681640625,-0.20330810546875,-0.4536895751953125
1774472506971571700,10.03957177734375,-0.817718505859375,-0.1428375244140625,-0.35821533203125
1774472506981589500,10.049589599609375,-0.81341552734375,-0.0879364013671875,-0.28558349609375
1774472506991607600,10.059607666015625,-0.7913360595703125,-0.0648651123046875,-0.2252197265625
1774472507001625600,10.06962548828125,-0.739288330078125,-0.0500335693359375,-0.182220458984375
1774472507011643600,10.0796435546875,-0.664031982421875,-0.0246429443359375,-0.143035888671875
1774472507021661400,10.089661376953124,-0.5511932373046875,-0.021270751953125,-0.153045654296875
1774472507031679700,10.0996796875,-0.4411163330078125,-0.062774658203125,-0.2257080078125
1774472507041697800,10.10969775390625,-0.40570068359375,-0.1247406005859375,-0.3264617919921875
1774472507051715600,10.119715576171876,-0.4750518798828125,-0.175506591796875,-0.3929595947265625
1774472507061733600,10.129733642578126,-0.61993408203125,-0.2296295166015625,-0.4482574462890625
1774472507071751700,10.139751708984376,-0.773223876953125,-0.2912139892578125,-0.46697998046875
1774472507081769700,10.149769775390626,-0.8396148681640625,-0.2905426025390625,-0.461334228515625
1774472507091787500,10.15978759765625,-0.8079833984375,-0.2510986328125,-0.4627685546875
1774472507101805600,10.1698056640625,-0.770416259765625,-0.2411041259765625,-0.45843505859375
1774472507111823600,10.17982373046875,-0.7385101318359375,-0.221282958984375,-0.4840545654296875
1774472507121841700,10.189841552734375,-0.680572509765625,-0.1983184814453125,-0.5141143798828125
1774472507131859500,10.199859375,-0.6281890869140625,-0.1837005615234375,-0.538299560546875
1774472507141877800,10.209877685546875,-0.60980224609375,-0.196258544921875,-0.5740966796875
1774472507151895600,10.2198955078125,-0.6099700927734375,-0.2346954345703125,-0.6354827880859375
1774472507161913600,10.22991357421875,-0.6301116943359375,-0.2708740234375,-0.7016754150390625
1774472507171931600,10.239931640625,-0.686492919921875,-0.3118743896484375,-0.7480010986328125
1774472507181948700,10.24994873046875,-0.72100830078125,-0.326812744140625,-0.7717132568359375
1774472507191966500,10.259966552734374,-0.7109375,-0.314361572265625,-0.7893218994140625
1774472507201984800,10.26998486328125,-0.712310791015625,-0.3109130859375,-0.781036376953125
1774472507212002600,10.28000244140625,-0.7306671142578125,-0.2969512939453125,-0.7779388427734375
1774472507222020600,10.2900205078125,-0.745849609375,-0.27191162109375,-0.7831878662109375
1774472507232038700,10.30003857421875,-0.755523681640625,-0.2520599365234375,-0.762359619140625
1774472507242056700,10.310056640625,-0.7425537109375,-0.25018310546875,-0.745452880859375
1774472507252074800,10.32007470703125,-0.6981964111328125,-0.2521820068359375,-0.7543487548828125
1774472507262092500,10.330092529296875,-0.659942626953125,-0.262939453125,-0.7594146728515625
1774472507272110600,10.340110595703125,-0.649871826171875,-0.26776123046875,-0.76971435546875
1774472507282128600,10.350128662109375,-0.661163330078125,-0.2745361328125,-0.7545166015625
1774472507292146700,10.360146728515625,-0.6414031982421875,-0.274658203125,-0.742950439453125
1774472507302164500,10.37016455078125,-0.58123779296875,-0.2682952880859375,-0.739501953125
1774472507312182800,10.380182861328125,-0.526092529296875,-0.2684478759765625,-0.7280120849609375
1774472507322200600,10.39020068359375,-0.4918670654296875,-0.271087646484375,-0.72772216796875
1774472507332218600,10.400218505859375,-0.4788360595703125,-0.2789154052734375,-0.7216339111328125
1774472507342236400,10.410236328125,-0.4905853271484375,-0.2694549560546875,-0.718658447265625
1774472507352254700,10.420254638671874,-0.5493621826171875,-0.2542877197265625,-0.7125244140625
1774472507362272800,10.430272705078124,-0.6221466064453125,-0.2522735595703125,-0.6840972900390625
1774472507372290600,10.44029052734375,-0.64404296875,-0.24658203125,-0.6734619140625
1774472507382308600,10.45030859375,-0.63885498046875,-0.2313690185546875,-0.6771392822265625
1774472507392326700,10.46032666015625,-0.6354827880859375,-0.235992431640625,-0.6626129150390625
1774472507402344700,10.4703447265625,-0.6053924560546875,-0.2454376220703125,-0.6668701171875
1774472507412362500,10.480362548828126,-0.5600738525390625,-0.24945068359375,-0.67913818359375
1774472507422380800,10.490380859375,-0.5362548828125,-0.260406494140625,-0.6757049560546875
1774472507432398600,10.500398681640625,-0.5404052734375,-0.26507568359375,-0.681732177734375
1774472507442416600,10.510416748046875,-0.548248291015625,-0.2672271728515625,-0.6874237060546875
1774472507452434400,10.520434326171875,-0.534820556640625,-0.263336181640625,-0.6928253173828125
1774472507462452700,10.53045263671875,-0.512054443359375,-0.262725830078125,-0.6977691650390625
1774472507472469500,10.540469482421875,-0.4947967529296875,-0.2659759521484375,-0.6949615478515625
1774472507482487600,10.550487548828125,-0.4429779052734375,-0.2528533935546875,-0.69873046875
1774472507492505600,10.560505615234375,-0.365325927734375,-0.225860595703125,-0.712860107421875
1774472507502523600,10.570523681640625,-0.3403472900390625,-0.191375732421875,-0.7033538818359375
1774472507512541400,10.58054150390625,-0.388458251953125,-0.1494140625,-0.6679534912109375
1774472507522559700,10.590559814453124,-0.44635009765625,-0.12127685546875,-0.6401214599609375
1774472507532577500,10.60057763671875,-0.433563232421875,-0.0859527587890625,-0.6207122802734375
1774472507542595600,10.610595703125,-0.660980224609375,0.0123443603515625,-0.71075439453125
1774472507552613600,10.620613525390626,-2.201202392578125,0.1303863525390625,-1.2773284912109375
1774472507562631700,10.630631591796876,-1.278289794921875,-0.2496795654296875,-0.61737060546875
1774472507572649700,10.640649658203126,-0.7974395751953125,-0.166839599609375,-0.528533935546875
1774472507582667500,10.65066748046875,-0.9818115234375,-0.1491241455078125,-0.7385711669921875
1774472507592685800,10.660685791015625,-0.7224884033203125,-0.1739349365234375,-0.68548583984375
1774472507602703600,10.67070361328125,-0.73583984375,-0.2281646728515625,-0.705322265625
1774472507612721700,10.6807216796875,-0.7112274169921875,-0.302764892578125,-0.7504119873046875
1774472507622739500,10.690739501953125,-0.66156005859375,-0.29779052734375,-0.7270660400390625
1774472507632757800,10.7007578125,-0.622467041015625,-0.188507080078125,-0.6192169189453125
1774472507642775600,10.710775634765625,-0.5570831298828125,-0.173004150390625,-0.812103271484375
1774472507652793600,10.720793701171875,-0.645294189453125,-0.2634735107421875,-0.78790283203125
1774472507662811400,10.730811279296875,-0.6709747314453125,-0.2978057861328125,-0.8214874267578125
1774472507672829700,10.74082958984375,-0.6826019287109375,-0.3346099853515625,-0.8391876220703125
1774472507682847700,10.75084765625,-0.6900177001953125,-0.341522216796875,-0.8577117919921875
1774472507692865500,10.760865478515624,-0.6863861083984375,-0.30712890625,-0.8591461181640625
1774472507702883800,10.7708837890625,-0.6722869873046875,-0.2827301025390625,-0.8557891845703125
1774472507712901600,10.780901611328124,-0.6463470458984375,-0.295166015625,-0.8531646728515625
1774472507722919700,10.790919677734376,-0.6757965087890625,-0.3453216552734375,-0.8350830078125
1774472507732937500,10.8009375,-0.679931640625,-0.357635498046875,-0.8025970458984375
1774472507742955800,10.810955810546876,-0.6530609130859375,-0.3641815185546875,-0.772430419921875
1774472507752973600,10.8209736328125,-0.6773529052734375,-0.3272857666015625,-0.7670135498046875
1774472507762991600,10.83099169921875,-0.676177978515625,-0.15863037109375,-0.71429443359375
1774472507773008600,10.841008544921875,-0.6691436767578125,-0.2010040283203125,-0.8130950927734375
1774472507783026700,10.851026611328125,-0.6829833984375,-0.2630462646484375,-0.7640838623046875
1774472507793045500,10.86104541015625,-0.6949310302734375,-0.3447113037109375,-0.7347259521484375
1774472507803063300,10.871063232421875,-0.6899871826171875,-0.43475341796875,-0.72515869140625
1774472507813081600,10.88108154296875,-0.696136474609375,-0.577606201171875,-0.677490234375
1774472507823099400,10.891099365234375,-0.7194061279296875,-0.649505615234375,-0.6599578857421875
1774472507833117400,10.901117431640625,-0.7660369873046875,-0.475860595703125,-0.6553955078125
1774472507843135200,10.91113525390625,-0.7388153076171875,-0.343658447265625,-0.5888824462890625
1774472507853153500,10.921153564453125,-0.7299652099609375,-0.2814788818359375,-0.5558624267578125
1774472507863171300,10.93117138671875,-0.7111663818359375,-0.2231292724609375,-0.5413970947265625
1774472507873189400,10.941189453125,-0.6540679931640625,-0.1766815185546875,-0.4857635498046875
1774472507883207400,10.95120751953125,-0.6602325439453125,-0.18536376953125,-0.449310302734375
1774472507893225500,10.9612255859375,-0.6288604736328125,-0.2341461181640625,-0.3328704833984375
1774472507903243300,10.9712431640625,-0.61553955078125,-0.3411102294921875,-0.230224609375
1774472507913261300,10.98126123046875,-0.6443328857421875,-0.4493408203125,-0.2501678466796875
1774472507923279600,10.991279541015626,-0.6492919921875,-0.5017242431640625,-0.2601318359375
1774472507933297400,11.00129736328125,-0.689483642578125,-0.498199462890625,-0.3029022216796875
1774472507943315500,11.0113154296875,-0.7259674072265625,-0.4975433349609375,-0.3461761474609375
1774472507953333500,11.02133349609375,-0.7909393310546875,-0.48492431640625,-0.416107177734375
1774472507963351600,11.0313515625,-0.8425140380859375,-0.44140625,-0.436920166015625
1774472507973369300,11.041369384765625,-0.8511810302734375,-0.4216461181640625,-0.3690032958984375
1774472507983387400,11.051387451171875,-0.8095855712890625,-0.38458251953125,-0.3428192138671875
1774472507993405400,11.061405517578125,-0.8321380615234375,-0.368896484375,-0.34820556640625
1774472508003423500,11.071423583984375,-0.794097900390625,-0.397918701171875,-0.3542327880859375
1774472508013441300,11.081441162109375,-0.757476806640625,-0.459716796875,-0.3471527099609375
1774472508023459300,11.091459228515625,-0.7941741943359375,-0.5171356201171875,-0.35247802734375
1774472508033477400,11.101477294921875,-0.82421875,-0.503265380859375,-0.38616943359375
1774472508043495400,11.111495361328124,-0.819854736328125,-0.4965667724609375,-0.38153076171875
1774472508053513500,11.121513427734374,-0.8484954833984375,-0.530426025390625,-0.3956756591796875
1774472508063531500,11.131531494140624,-0.8172454833984375,-0.53082275390625,-0.388153076171875
1774472508073548300,11.14154833984375,-0.8242034912109375,-0.5330963134765625,-0.383453369140625
1774472508083566300,11.15156640625,-0.8473358154296875,-0.552398681640625,-0.400909423828125
1774472508093584600,11.161584716796876,-0.8547821044921875,-0.5455322265625,-0.4286956787109375
1774472508103602400,11.1716025390625,-0.86944580078125,-0.513763427734375,-0.4539337158203125
1774472508113620500,11.181620361328125,-0.877105712890625,-0.477081298828125,-0.471771240234375
1774472508123638300,11.19163818359375,-0.87548828125,-0.4405059814453125,-0.477142333984375
1774472508133656600,11.201656494140625,-0.8575592041015625,-0.41119384765625,-0.4769744873046875
1774472508143674400,11.21167431640625,-0.8502349853515625,-0.38934326171875,-0.4784393310546875
1774472508153692400,11.2216923828125,-0.83612060546875,-0.3704833984375,-0.468994140625
1774472508163710500,11.23171044921875,-0.825653076171875,-0.3666229248046875,-0.460052490234375
1774472508173728500,11.241728515625,-0.81365966796875,-0.3782806396484375,-0.4572906494140625
1774472508183746300,11.251746337890625,-0.787200927734375,-0.3814697265625,-0.4439544677734375
1774472508193764400,11.261764404296875,-0.782257080078125,-0.374603271484375,-0.424407958984375
1774472508203782400,11.271782470703124,-0.776611328125,-0.3672332763671875,-0.39300537109375
1774472508213800400,11.281800537109374,-0.7582550048828125,-0.359954833984375,-0.3558807373046875
1774472508223818200,11.291818359375,-0.732208251953125,-0.3613433837890625,-0.314178466796875
1774472508233836300,11.301836181640626,-0.708831787109375,-0.3729705810546875,-0.2758941650390625
1774472508243854600,11.3118544921875,-0.6846466064453125,-0.3813323974609375,-0.242218017578125
1774472508253872400,11.321872314453126,-0.671356201171875,-0.381744384765625,-0.2178497314453125
1774472508263890400,11.331890380859376,-0.6888580322265625,-0.3788604736328125,-0.2127685546875
1774472508273908500,11.341908447265626,-0.7147674560546875,-0.3875732421875,-0.2054595947265625
1774472508283926500,11.351926513671875,-0.71966552734375,-0.4004974365234375,-0.195953369140625
1774472508293944300,11.3619443359375,-0.72357177734375,-0.4070281982421875,-0.1767120361328125
1774472508303962400,11.37196240234375,-0.705322265625,-0.419677734375,-0.1660003662109375
1774472508313980400,11.38198046875,-0.7268829345703125,-0.445159912109375,-0.1653289794921875
1774472508323998500,11.39199853515625,-0.7560882568359375,-0.47821044921875,-0.154937744140625
1774472508334016300,11.402016357421875,-0.7721405029296875,-0.49560546875,-0.132965087890625
1774472508344034600,11.41203466796875,-0.7610321044921875,-0.5039215087890625,-0.097564697265625
1774472508354052400,11.42205224609375,-0.73712158203125,-0.52435302734375,-0.0578460693359375
1774472508364070400,11.4320703125,-0.7502899169921875,-0.5570220947265625,-0.033843994140625
1774472508374088400,11.44208837890625,-0.774871826171875,-0.58306884765625,-0.01611328125
1774472508384106500,11.4521064453125,-0.7866668701171875,-0.6020355224609375,0.0046844482421875
1774472508394124500,11.46212451171875,-0.7844085693359375,-0.6087188720703125,0.024444580078125
1774472508405394400,11.47339453125,-0.806488037109375,-0.6205291748046875,0.0387420654296875
1774472508415411500,11.483411376953125,-0.8167572021484375,-0.6205596923828125,0.0527801513671875
1774472508425429200,11.49342919921875,-0.819549560546875,-0.6323394775390625,0.0586700439453125
1774472508435447600,11.503447509765625,-0.824066162109375,-0.6523590087890625,0.051239013671875
1774472508445465300,11.51346533203125,-0.9145050048828125,-0.8548431396484375,0.4641571044921875
1774472508455483400,11.5234833984375,-0.708984375,-0.512603759765625,0.5327911376953125
1774472508465501200,11.533501220703124,-0.7692413330078125,-0.7758636474609375,-0.0857391357421875
1774472508475519500,11.54351953125,-0.977142333984375,-0.7712554931640625,0.1251068115234375
1774472508485537500,11.55353759765625,-0.8395538330078125,-0.6391754150390625,0.140380859375
1774472508495555300,11.563555419921874,-0.8048248291015625,-0.57330322265625,0.247650146484375
1774472508505573600,11.57357373046875,-0.8398590087890625,-0.6596527099609375,0.1526336669921875
1774472508515591400,11.58359130859375,-0.811981201171875,-0.652008056640625,0.043121337890625
1774472508525609500,11.593609375,-0.7746429443359375,-0.586395263671875,0.0197296142578125
1774472508535627300,11.603627197265626,-0.7880096435546875,-0.5935516357421875,0.11602783203125
1774472508545645600,11.6136455078125,-0.76171875,-0.6664581298828125,0.2293701171875
1774472508555663400,11.623663330078125,-0.8014068603515625,-0.77099609375,0.02996826171875
1774472508565681400,11.633681396484375,-0.85858154296875,-0.8094329833984375,-0.1279296875
1774472508575699500,11.643699462890625,-0.878387451171875,-0.75634765625,-0.2144317626953125
1774472508585717500,11.653717529296875,-0.861572265625,-0.706390380859375,-0.256744384765625
1774472508595735300,11.6637353515625,-0.869873046875,-0.690765380859375,-0.2828216552734375
1774472508605753300,11.67375341796875,-0.87274169921875,-0.6821441650390625,-0.3203277587890625
1774472508615771600,11.683771728515625,-0.859466552734375,-0.6680908203125,-0.348052978515625
1774472508625789400,11.69378955078125,-0.842987060546875,-0.6477203369140625,-0.3726654052734375
1774472508635807500,11.703807373046875,-0.846435546875,-0.638427734375,-0.4158782958984375
1774472508645825300,11.7138251953125,-0.8647003173828125,-0.638763427734375,-0.460418701171875
1774472508655843600,11.723843505859374,-0.8680419921875,-0.6655426025390625,-0.48028564453125
1774472508665861400,11.733861328125,-0.9085235595703125,-0.7066192626953125,-0.4835357666015625
1774472508675879400,11.74387939453125,-0.9286346435546875,-0.707244873046875,-0.4754638671875
1774472508685897500,11.7538974609375,-0.90618896484375,-0.6767425537109375,-0.473968505859375
1774472508695915500,11.76391552734375,-0.9214935302734375,-0.6297760009765625,-0.4686126708984375
1774472508705933300,11.773933349609376,-0.9116363525390625,-0.580413818359375,-0.4636688232421875
1774472508715951400,11.783951416015626,-0.89617919921875,-0.54083251953125,-0.4428558349609375
1774472508725969400,11.793969482421875,-0.869140625,-0.5175018310546875,-0.4469146728515625
1774472508735987500,11.803987548828125,-0.87481689453125,-0.5202484130859375,-0.4564666748046875
1774472508746005500,11.814005615234375,-0.863494873046875,-0.5225677490234375,-0.448822021484375
1774472508756023300,11.824023193359375,-0.835693359375,-0.5278472900390625,-0.4207916259765625
1774472508766041600,11.83404150390625,-0.81964111328125,-0.5292205810546875,-0.4011688232421875
1774472508776059400,11.844059326171875,-0.8392791748046875,-0.5010986328125,-0.3904876708984375
1774472508786076400,11.854076416015625,-0.84539794921875,-0.5614166259765625,-0.3439483642578125
1774472508796094000,11.864093994140624,-0.8345794677734375,-0.63201904296875,-0.2368621826171875
1774472508806112000,11.874112060546874,-0.765533447265625,-0.567626953125,-0.1713714599609375
1774472508816130000,11.884130126953124,-0.8331451416015625,-0.486968994140625,-0.1453399658203125
1774472508826148000,11.894148193359374,-0.825042724609375,-0.4502105712890625,-0.1213531494140625
1774472508836166000,11.904165771484376,-0.775115966796875,-0.42437744140625,-0.1058807373046875
1774472508846184000,11.914183837890626,-0.75933837890625,-0.3985443115234375,-0.0919342041015625
1774472508856202000,11.924201904296876,-0.771453857421875,-0.3547210693359375,-0.0872650146484375
1774472508866220000,11.934219970703126,-0.76055908203125,-0.3519134521484375,-0.086822509765625
1774472508876238000,11.944238037109375,-0.740814208984375,-0.3618927001953125,-0.085906982421875
1774472508886255900,11.954255859375,-0.7395172119140625,-0.3673248291015625,-0.0889739990234375
1774472508896274200,11.964274169921875,-0.7644195556640625,-0.368133544921875,-0.0825347900390625
1774472508906292000,11.9742919921875,-0.775177001953125,-0.3719635009765625,-0.0606231689453125
1774472508916310000,11.98431005859375,-0.7853240966796875,-0.3842926025390625,-0.057586669921875
1774472508926328000,11.994328125,-0.80242919921875,-0.3843231201171875,-0.0647430419921875
1774472508936346000,12.00434619140625,-0.8160552978515625,-0.3839263916015625,-0.0769805908203125
1774472508946364000,12.014364013671875,-0.8354644775390625,-0.3754119873046875,-0.08514404296875
1774472508956382000,12.0243818359375,-0.85015869140625,-0.3429107666015625,-0.10888671875
1774472508966400000,12.03439990234375,-0.8525390625,-0.3399810791015625,-0.14227294921875
1774472508976418000,12.04441796875,-0.88690185546875,-0.340545654296875,-0.184783935546875
1774472508986435800,12.054435791015624,-0.931365966796875,-0.3250732421875,-0.2184906005859375
1774472508996454000,12.064453857421874,-0.9644012451171875,-0.3162994384765625,-0.237274169921875
1774472509006472200,12.07447216796875,-1.0047760009765625,-0.315673828125,-0.23797607421875
1774472509016490000,12.084489990234376,-1.050445556640625,-0.2715606689453125,-0.1848602294921875
1774472509026508000,12.094508056640626,-1.02667236328125,-0.2115936279296875,-0.1886138916015625
1774472509036526000,12.104526123046876,-0.993438720703125,-0.154449462890625,-0.2047882080078125
1774472509046544100,12.114544189453126,-0.9912261962890625,-0.1378173828125,-0.204437255859375
1774472509056562000,12.12456201171875,-0.9775238037109375,-0.1182403564453125,-0.217498779296875
1774472509066580000,12.134580078125,-0.990966796875,-0.085113525390625,-0.1988525390625
1774472509076598000,12.144597900390625,-0.9820098876953125,-0.058349609375,-0.152801513671875
1774472509086616000,12.154615966796875,-0.9674224853515625,-0.0560455322265625,-0.1241912841796875
1774472509096633900,12.1646337890625,-0.9760589599609375,-0.049774169921875,-0.0901947021484375
1774472509106652000,12.17465185546875,-0.9807586669921875,-0.0333404541015625,-0.0759429931640625
1774472509116670000,12.184669921875,-0.9737548828125,-0.017974853515625,-0.112091064453125
1774472509126688000,12.19468798828125,-1.0148468017578125,-0.0259552001953125,-0.13897705078125
1774472509136706000,12.2047060546875,-1.089996337890625,-0.0217132568359375,-0.1545562744140625
1774472509146724000,12.21472412109375,-1.1318817138671875,0.00555419921875,-0.1507110595703125
1774472509156742100,12.2247421875,-1.1181182861328125,0.0399017333984375,-0.140350341796875
1774472509166760000,12.234760009765624,-1.0904693603515625,0.0752410888671875,-0.1232757568359375
1774472509176778000,12.244778076171874,-1.0576934814453125,0.1032257080078125,-0.1100921630859375
1774472509186796000,12.254796142578124,-1.0457305908203125,0.147003173828125,-0.0779876708984375
1774472509196814000,12.26481396484375,-1.026092529296875,0.183563232421875,-0.034271240234375
1774472509206831900,12.274831787109376,-1.006683349609375,0.1691131591796875,0.0019378662109375
1774472509216850000,12.284849853515626,-1.025238037109375,0.1342315673828125,-0.001434326171875
1774472509226868000,12.294867919921876,-1.0601043701171875,0.124786376953125,-0.0103302001953125
1774472509236886000,12.304885986328125,-1.060821533203125,0.140045166015625,-0.01153564453125
1774472509246903800,12.31490380859375,-1.027191162109375,0.17706298828125,-0.0197601318359375
1774472509256922000,12.324922119140625,-0.999176025390625,0.204132080078125,-0.042327880859375
1774472509266940200,12.334940185546875,-0.9912567138671875,0.2092132568359375,-0.0996246337890625
1774472509276958000,12.3449580078125,-0.9603424072265625,0.21258544921875,-0.170501708984375
1774472509286976000,12.35497607421875,-0.9051666259765625,0.216949462890625,-0.1815338134765625
1774472509296994000,12.364994140625,-0.8618011474609375,0.261932373046875,-0.1840057373046875
1774472509307012000,12.37501220703125,-0.7693328857421875,0.31085205078125,-0.1815185546875
1774472509317030000,12.38502978515625,-0.6463165283203125,0.3256378173828125,-0.1874542236328125
1774472509327048000,12.3950478515625,-0.585113525390625,0.3116607666015625,-0.1661529541015625
1774472509337066000,12.40506591796875,-0.504180908203125,0.265380859375,-0.1089019775390625
1774472509347084000,12.415083984375,-0.636474609375,0.2556915283203125,-0.111572265625
1774472509357101800,12.425101806640624,-0.9647369384765625,0.2826690673828125,-0.180694580078125
1774472509367120100,12.4351201171875,-1.049713134765625,0.2983551025390625,-0.1182861328125
1774472509377138000,12.445137939453126,-1.0776519775390625,0.303680419921875,-0.1002655029296875
1774472509387156000,12.455156005859376,-1.05670166015625,0.302581787109375,-0.1542816162109375
1774472509397174000,12.465174072265626,-1.034759521484375,0.3086090087890625,-0.1759796142578125
1774472509407192000,12.475192138671876,-1.0095977783203125,0.3430023193359375,-0.1460113525390625
1774472509417210000,12.485210205078126,-0.981842041015625,0.35260009765625,-0.1069488525390625
1774472509427228000,12.495227783203125,-0.9817047119140625,0.370330810546875,-0.138458251953125
1774472509437246200,12.50524609375,-0.9521484375,0.40478515625,-0.1548919677734375
1774472509447264000,12.515263916015625,-0.9167022705078125,0.4253082275390625,-0.1486968994140625
1774472509457282000,12.525281982421875,-0.8647003173828125,0.404296875,-0.1815643310546875
1774472509467299800,12.5352998046875,-0.787200927734375,0.411590576171875,-0.1994476318359375
1774472509477318100,12.545318115234375,-0.7350921630859375,0.4107666015625,-0.2064056396484375
1774472509487336000,12.5553359375,-0.8122406005859375,0.395355224609375,-0.2401275634765625
1774472509497354000,12.56535400390625,-0.928192138671875,0.392608642578125,-0.1995086669921875
1774472509507371800,12.575371826171875,-0.9591827392578125,0.400909423828125,-0.185546875
1774472509517390000,12.58539013671875,-0.903411865234375,0.43072509765625,-0.1966705322265625
1774472509527407900,12.595407958984374,-0.81201171875,0.4603271484375,-0.1922760009765625
1774472509537426000,12.605426025390624,-0.7714385986328125,0.4463653564453125,-0.254058837890625
1774472509547445000,12.615445068359374,-0.7586517333984375,0.452056884765625,-0.3459320068359375
1774472509557463000,12.625463134765624,-0.806427001953125,0.4609832763671875,-0.4136199951171875
1774472509567481000,12.635481201171874,-0.8833465576171875,0.475830078125,-0.414642333984375
1774472509577499000,12.645498779296876,-0.8347015380859375,0.5044403076171875,-0.383026123046875
1774472509587517000,12.655516845703126,-0.79547119140625,0.57818603515625,-0.391998291015625
1774472509597535000,12.665534912109376,-0.81915283203125,0.6142120361328125,-0.405120849609375
1774472509607553000,12.675552978515626,-0.8339385986328125,0.6163787841796875,-0.376861572265625
1774472509617571000,12.685571044921875,-0.825103759765625,0.5808563232421875,-0.34539794921875
1774472509627588900,12.6955888671875,-0.8199920654296875,0.5513763427734375,-0.3623809814453125
1774472509637607200,12.705607177734375,-0.7722320556640625,0.569671630859375,-0.3992767333984375
1774472509647625000,12.715625,-0.7113494873046875,0.6309814453125,-0.4367828369140625
1774472509657643000,12.72564306640625,-0.6859283447265625,0.7358551025390625,-0.4300994873046875
1774472509667661000,12.7356611328125,-0.63580322265625,0.8174285888671875,-0.4295196533203125
1774472509677679000,12.74567919921875,-0.6161956787109375,0.8606414794921875,-0.4824676513671875
1774472509687697000,12.75569677734375,-0.679473876953125,0.8637847900390625,-0.5489349365234375
1774472509697715000,12.76571484375,-0.7303619384765625,0.8475494384765625,-0.59881591796875
1774472509707733000,12.77573291015625,-0.7623291015625,0.830047607421875,-0.6560516357421875
1774472509717751000,12.7857509765625,-0.8303985595703125,0.7923583984375,-0.718719482421875
1774472509727768800,12.795768798828124,-0.834503173828125,0.65936279296875,-0.7672882080078125
1774472509737787100,12.805787109375,-0.7615966796875,0.5340118408203125,-0.8376922607421875
1774472509747805200,12.81580517578125,-0.753662109375,0.53948974609375,-0.8129425048828125
1774472509757823000,12.825822998046876,-0.7342681884765625,0.543609619140625,-0.7457427978515625
1774472509767841000,12.835841064453126,-0.732666015625,0.4935150146484375,-0.7110137939453125
1774472509777859000,12.845859130859376,-0.711273193359375,0.48065185546875,-0.6675872802734375
1774472509787877000,12.855877197265626,-0.6056671142578125,0.576019287109375,-0.6809234619140625
1774472509797895000,12.86589501953125,-0.5720367431640625,0.5205230712890625,-0.73486328125
1774472509807913000,12.875912841796875,-0.527587890625,0.4845123291015625,-0.7562408447265625
1774472509817931800,12.885931884765625,-0.52789306640625,0.4972381591796875,-0.747222900390625
1774472509827950000,12.8959501953125,-0.5723419189453125,0.4681396484375,-0.771087646484375
1774472509837968100,12.905968017578125,-0.5835723876953125,0.4412994384765625,-0.8019256591796875
1774472509847986000,12.91598583984375,-0.519134521484375,0.392852783203125,-0.7918548583984375
1774472509858004000,12.92600390625,-0.4984893798828125,0.35406494140625,-0.781402587890625
1774472509868022000,12.93602197265625,-0.5572662353515625,0.365325927734375,-0.752532958984375
