time,seconds_elapsed,z,y,x
1774472496991171600,0.059171630859375,0.1269848495721817,0.5789496302604675,-0.02959810569882393
1774472497001189400,0.069189453125,0.21356181800365448,0.6223344206809998,0.15013010799884796
1774472497011207700,0.079207763671875,0.3331603705883026,0.7735236287117004,0.3395130932331085
1774472497021225500,0.0892255859375,0.4663996696472168,0.9540364146232605,0.5046631693840027
1774472497031243500,0.099243408203125,0.5600731372833252,1.05344557762146,0.5796215534210205
1774472497041261300,0.10926123046875,0.6026999950408936,1.0627669095993042,0.5190585851669312
1774472497051279600,0.119279541015625,0.5950250029563904,1.0124475955963135,0.36189723014831543
1774472497061297700,0.129297607421875,0.49897438287734985,0.9672638177871704,0.14726588129997253
1774472497071315500,0.1393154296875,0.31634944677352905,0.9238747954368591,-0.043117910623550415
1774472497081332500,0.14933251953125,0.1508939117193222,0.8491821885108948,-0.15083052217960358
1774472497091350500,0.1593505859375,0.0951552763581276,0.7095715403556824,-0.17644506692886353
1774472497101368300,0.169368408203125,0.1787170171737671,0.581381618976593,-0.11829788237810135
1774472497111386600,0.17938671875,0.3625448942184448,0.5553606748580933,-0.012025769799947739
1774472497121404700,0.18940478515625,0.5543548464775085,0.7110304236412048,0.09782642871141434
1774472497131422500,0.19942236328125,0.6911206841468811,0.879637598991394,0.16567525267601013
1774472497141440500,0.2094404296875,0.7254503965377808,0.8483409285545349,0.16074120998382568
1774472497151458600,0.21945849609375,0.6501796245574951,0.733416736125946,0.08699402213096619
1774472497161476600,0.2294765625,0.5468143224716187,0.6578513979911804,-0.01678803563117981
1774472497171494400,0.239494384765625,0.4868314266204834,0.6700398921966553,-0.15762051939964294
1774472497181512700,0.2495126953125,0.47508955001831055,0.5976969599723816,-0.40079694986343384
1774472497191530500,0.259530517578125,0.47426772117614746,0.41190046072006226,-0.6816941499710083
1774472497201547500,0.269547607421875,0.4752810299396515,0.17818012833595276,-0.9052401185035706
1774472497211565600,0.279565673828125,0.4504079222679138,0.040048882365226746,-1.0280930995941162
1774472497221583600,0.28958349609375,0.4073163568973541,0.025439046323299408,-1.0534240007400513
1774472497231601400,0.299601318359375,0.3639068305492401,0.0882534310221672,-0.9746615290641785
1774472497241619700,0.30961962890625,0.3430388569831848,0.21799758076667786,-0.8123557567596436
1774472497251637500,0.319637451171875,0.343700647354126,0.4347684979438782,-0.6322709321975708
1774472497261655600,0.329655517578125,0.3385002911090851,0.5274736881256104,-0.4680340588092804
1774472497271673300,0.33967333984375,0.3094361424446106,0.44715407490730286,-0.3961254954338074
1774472497281691600,0.349691650390625,0.21497862040996552,0.33801931142807007,-0.4193360209465027
1774472497291709700,0.359709716796875,0.029522471129894257,0.07221587002277374,-0.4712197184562683
1774472497301727500,0.3697275390625,-0.26442474126815796,-0.32252585887908936,-0.45210835337638855
1774472497311745500,0.37974560546875,-0.5807251930236816,-0.3519822657108307,-0.2701217532157898
1774472497321763600,0.389763671875,-0.7333059310913086,-0.23084253072738647,0.10989055037498474
1774472497331781600,0.39978173828125,-0.6700366735458374,-0.22960735857486725,0.564713180065155
1774472497341798700,0.409798583984375,-0.5157395005226135,-0.15575844049453735,0.8959510326385498
1774472497351816700,0.419816650390625,-0.3655220568180084,-0.12532170116901398,0.9972203969955444
1774472497361834500,0.42983447265625,-0.2637408375740051,-0.2055579572916031,0.8794956207275391
1774472497371852500,0.4398525390625,-0.2536461055278778,-0.2265218198299408,0.6507785320281982
1774472497381870600,0.44987060546875,-0.3409959375858307,-0.20703281462192535,0.4222215414047241
1774472497391888600,0.459888671875,-0.5417101383209229,-0.14337953925132751,0.21170905232429504
1774472497401906400,0.469906494140625,-0.8375101089477539,-0.11541581153869629,0.044623393565416336
1774472497411924500,0.479924560546875,-1.105804681777954,-0.016162725165486336,-0.06626290827989578
1774472497421942500,0.489942626953125,-1.245841145515442,0.12894172966480255,-0.08608854562044144
1774472497431960600,0.499960693359375,-1.2290855646133423,0.3029297888278961,-0.02870727889239788
1774472497441978400,0.509978271484375,-1.0945115089416504,0.5611985921859741,0.06703362613916397
1774472497451996700,0.51999658203125,-0.8687873482704163,0.876282811164856,0.13625077903270721
1774472497462014500,0.530014404296875,-0.5803491473197937,1.206527829170227,0.10772539675235748
1774472497472032500,0.540032470703125,-0.235097736120224,1.3820672035217285,-0.05191299691796303
1774472497482050600,0.550050537109375,0.15248967707157135,1.395585298538208,-0.30461955070495605
1774472497492068600,0.560068603515625,0.4842252731323242,1.1861677169799805,-0.5601309537887573
1774472497502085400,0.57008544921875,0.6393123269081116,0.7049392461776733,-0.6769113540649414
1774472497512103700,0.580103759765625,0.597074031829834,0.3094497323036194,-0.5705766677856445
1774472497522121500,0.59012158203125,0.39653244614601135,0.0491664819419384,-0.3024437427520752
1774472497532139500,0.600139404296875,0.07599862664937973,-0.18387342989444733,0.04747777059674263
1774472497542157600,0.610157470703125,-0.24537406861782074,-0.3268926441669464,0.40509504079818726
1774472497552175600,0.620175537109375,-0.46745508909225464,-0.2920590341091156,0.6753965616226196
1774472497562193700,0.630193603515625,-0.539604127407074,-0.31575316190719604,0.7738903760910034
1774472497572211500,0.64021142578125,-0.48313790559768677,-0.3945513069629669,0.7025850415229797
1774472497582229500,0.6502294921875,-0.3582921028137207,-0.6534569263458252,0.5301538705825806
1774472497592247600,0.66024755859375,-0.26222681999206543,-0.9661058783531189,0.44991496205329895
1774472497602265600,0.670265625,-0.21821701526641846,-1.0386415719985962,0.4988745152950287
1774472497612283400,0.680283447265625,-0.2009378969669342,-0.9266069531440735,0.6564532518386841
1774472497622301700,0.6903017578125,-0.17732924222946167,-0.7315778136253357,0.902061939239502
1774472497632319500,0.700319580078125,-0.10231970995664597,-0.6393152475357056,1.1491435766220093
1774472497642337500,0.710337646484375,0.03815271332859993,-0.6553895473480225,1.3284838199615479
1774472497652355300,0.720355224609375,0.19657830893993378,-0.6712129712104797,1.3657073974609375
1774472497662373600,0.73037353515625,0.37105265259742737,-0.7258309721946716,1.2378559112548828
1774472497672390400,0.740390380859375,0.5163286328315735,-0.7781503796577454,1.0681326389312744
1774472497682408400,0.750408447265625,0.5402368903160095,-0.7389923334121704,0.9176195859909058
1774472497692426500,0.760426513671875,0.4672321677207947,-0.6036674976348877,0.7749537825584412
1774472497702444500,0.770444580078125,0.35641032457351685,-0.41212549805641174,0.6591704487800598
1774472497712462300,0.78046240234375,0.2497488409280777,-0.18606334924697876,0.5458646416664124
1774472497722480600,0.790480712890625,0.1846095323562622,0.023324230685830116,0.4225829541683197
1774472497732498700,0.800498779296875,0.18435333669185638,0.09965841472148895,0.3110162019729614
1774472497742516500,0.8105166015625,0.23034612834453583,0.07737308740615845,0.2279447466135025
1774472497752534500,0.820534423828125,0.28175151348114014,-0.020134562626481056,0.1778552234172821
1774472497762552600,0.830552490234375,0.3197425901889801,-0.15333150327205658,0.15231789648532867
1774472497772571100,0.840571044921875,0.33490583300590515,-0.20929037034511566,0.1366872787475586
1774472497782589000,0.8505888671875,0.3435557782649994,-0.11455267667770386,0.12918168306350708
1774472497792607000,0.86060693359375,0.32056015729904175,0.012455337680876255,0.12398692220449448
1774472497802625000,0.870625,0.2784377634525299,0.10257750749588013,0.07388141751289368
1774472497812643000,0.88064306640625,0.22738894820213318,0.14066550135612488,-0.04530729353427887
1774472497822660900,0.890660888671875,0.16602252423763275,0.11319739371538162,-0.22117365896701813
1774472497832679000,0.900678955078125,0.08590158820152283,0.041911229491233826,-0.38535434007644653
1774472497842697000,0.910697021484375,-0.0013145363191142678,-0.008851548656821251,-0.47193077206611633
1774472497852715000,0.920715087890625,-0.06390121579170227,-0.05399426072835922,-0.4654771387577057
1774472497862732800,0.93073291015625,-0.08396387845277786,-0.0571218766272068,-0.39045536518096924
1774472497872751000,0.940751220703125,-0.0752745121717453,-0.09884881228208542,-0.2906680405139923
1774472497882769200,0.95076904296875,-0.043301668018102646,-0.15360447764396667,-0.1891491562128067
1774472497892787000,0.960786865234375,-0.008900283835828304,-0.16924068331718445,-0.1020885482430458
1774472497902805000,0.970804931640625,0.03260508179664612,-0.1705983728170395,-0.03844139724969864
1774472497912822000,0.980822021484375,0.08099418133497238,-0.20034454762935638,0.032270852476358414
1774472497922840000,0.990840087890625,0.11012783646583557,-0.2419029027223587,0.10825909674167633
1774472497932858000,1.000858154296875,0.09796278178691864,-0.2979677617549896,0.20708927512168884
1774472497942876200,1.010876220703125,0.019964653998613358,-0.32249975204467773,0.28950583934783936
1774472497952894000,1.02089404296875,-0.09418296068906784,-0.30688217282295227,0.2995252013206482
1774472497962912000,1.030912109375,-0.17922914028167725,-0.3227365016937256,0.2173115462064743
1774472497972930000,1.040929931640625,-0.21364010870456696,-0.2911980152130127,0.07940667122602463
1774472497982948000,1.050947998046875,-0.2104879915714264,-0.2580517828464508,-0.06803577393293381
1774472497992966000,1.0609658203125,-0.20098982751369476,-0.20076079666614532,-0.17718330025672913
1774472498002984000,1.07098388671875,-0.19218727946281433,-0.10840317606925964,-0.2401857078075409
1774472498013002000,1.081001953125,-0.1874934583902359,-0.09596221894025803,-0.2718709409236908
1774472498023020000,1.09102001953125,-0.196580708026886,-0.13612321019172668,-0.26233282685279846
1774472498033037800,1.101037841796875,-0.2178867906332016,-0.19376201927661896,-0.2034282237291336
1774472498043056000,1.11105615234375,-0.24224859476089478,-0.2916795313358307,-0.09469348192214966
1774472498053074000,1.121073974609375,-0.26535096764564514,-0.3585917055606842,0.04716538265347481
1774472498063092000,1.131092041015625,-0.273837149143219,-0.3284290134906769,0.17565837502479553
1774472498073110000,1.141110107421875,-0.24714800715446472,-0.26650387048721313,0.25411882996559143
1774472498083128000,1.151128173828125,-0.18946526944637299,-0.18726949393749237,0.28768372535705566
1774472498093146000,1.16114599609375,-0.12052135169506073,-0.1649703085422516,0.27791789174079895
1774472498103164000,1.171163818359375,-0.06519338488578796,-0.16684117913246155,0.22141574323177338
1774472498113182000,1.181181884765625,-0.037944450974464417,-0.13823989033699036,0.13821379840373993
1774472498123200000,1.191199951171875,-0.0436880923807621,-0.13531574606895447,0.054796136915683746
1774472498133218000,1.201218017578125,-0.08022665977478027,-0.1513833999633789,-0.007693073246628046
1774472498143235800,1.21123583984375,-0.13183926045894623,-0.15219299495220184,-0.025857962667942047
1774472498153254100,1.221254150390625,-0.16926439106464386,-0.13456366956233978,0.002424808219075203
1774472498163272000,1.23127197265625,-0.17714282870292664,-0.11000559478998184,0.0507020577788353
1774472498173290000,1.2412900390625,-0.16774453222751617,-0.1108093410730362,0.0896926000714302
1774472498183307800,1.251307861328125,-0.15001852810382843,-0.10898081213235855,0.10883833467960358
1774472498193326000,1.261326171875,-0.14639396965503693,-0.12047554552555084,0.1174565851688385
1774472498203344100,1.27134423828125,-0.15707217156887054,-0.12976917624473572,0.13087359070777893
1774472498213362000,1.28136181640625,-0.16915707290172577,-0.1061091274023056,0.1436477154493332
1774472498223380000,1.2913798828125,-0.16388240456581116,-0.11562620103359222,0.14755377173423767
1774472498233398000,1.30139794921875,-0.14454519748687744,-0.12198475748300552,0.13268135488033295
1774472498243416000,1.311416015625,-0.11213692277669907,-0.12988662719726562,0.10337965190410614
1774472498253433900,1.321433837890625,-0.07362069189548492,-0.15326492488384247,0.07736323028802872
1774472498263452200,1.3314521484375,-0.054250720888376236,-0.14580699801445007,0.06632735580205917
1774472498273470000,1.341469970703125,-0.05192844569683075,-0.1245879977941513,0.07343533635139465
1774472498283488000,1.351488037109375,-0.05319291353225708,-0.08056940883398056,0.0894305482506752
1774472498293505800,1.361505859375,-0.06028144806623459,-0.05663478374481201,0.10705214738845825
1774472498303524000,1.371524169921875,-0.0692930519580841,-0.05114734172821045,0.11345252394676208
1774472498313542000,1.3815419921875,-0.0820208340883255,-0.06305752694606781,0.10090317577123642
1774472498323560000,1.391559814453125,-0.0876355767250061,-0.11251509189605713,0.0655481144785881
1774472498333578000,1.401577880859375,-0.07907005399465561,-0.14261600375175476,0.023382021114230156
1774472498343596000,1.411595947265625,-0.07810891419649124,-0.16996772587299347,-0.007363107521086931
1774472498353614000,1.421614013671875,-0.0796346440911293,-0.17008571326732635,-0.026699520647525787
1774472498363631900,1.4316318359375,-0.07470619678497314,-0.15008537471294403,-0.02701191045343876
1774472498373650200,1.441650146484375,-0.06572122126817703,-0.13639380037784576,-0.02250451035797596
1774472498383668000,1.45166796875,-0.059242017567157745,-0.1453939527273178,-0.020739100873470306
1774472498393686000,1.46168603515625,-0.055992696434259415,-0.14151611924171448,-0.015427691861987114
1774472498403703800,1.471703857421875,-0.052626725286245346,-0.10040010511875153,0.008378570899367332
1774472498413722000,1.48172216796875,-0.047984570264816284,-0.0817292183637619,0.04785167798399925
1774472498423740000,1.491739990234375,-0.040835846215486526,-0.07621300965547562,0.0874161347746849
1774472498433758000,1.501758056640625,-0.02448909729719162,-0.054845936596393585,0.11851945519447327
1774472498443776000,1.51177587890625,0.004572381265461445,-0.009524528868496418,0.13424435257911682
1774472498453794000,1.5217939453125,0.03804352134466171,0.033798977732658386,0.12786582112312317
1774472498463812000,1.53181201171875,0.06245352327823639,0.08860629796981812,0.09556034207344055
1774472498473830000,1.541829833984375,0.07986100763082504,0.15188540518283844,0.045043107122182846
1774472498483848200,1.55184814453125,0.0838533565402031,0.19577589631080627,-0.019577164202928543
1774472498493866000,1.561865966796875,0.08966889977455139,0.24952301383018494,-0.08605872094631195
1774472498503884000,1.571884033203125,0.10580206662416458,0.28424689173698425,-0.15605618059635162
1774472498513901800,1.58190185546875,0.12763838469982147,0.29311203956604004,-0.23026889562606812
1774472498523920100,1.591920166015625,0.14995461702346802,0.3220912218093872,-0.2851446568965912
1774472498533938000,1.60193798828125,0.17503279447555542,0.36559075117111206,-0.31183138489723206
1774472498543956000,1.6119560546875,0.19239261746406555,0.4036571979522705,-0.310564249753952
1774472498553974000,1.62197412109375,0.21548914909362793,0.42128652334213257,-0.27725663781166077
1774472498563992000,1.631991943359375,0.24696238338947296,0.4090237319469452,-0.23033440113067627
1774472498574009900,1.642009765625,0.27622199058532715,0.4028950035572052,-0.18097618222236633
1774472498584028000,1.65202783203125,0.3085530400276184,0.44006845355033875,-0.13638074696063995
1774472498594046200,1.662046142578125,0.28306207060813904,0.42254939675331116,-0.0848294049501419
1774472498604064000,1.67206396484375,0.2662854790687561,0.5880848169326782,0.03302745893597603
1774472498614082000,1.68208203125,0.3964346945285797,0.8452364802360535,0.15185824036598206
1774472498624100000,1.69210009765625,0.5717596411705017,0.9584964513778687,0.24851207435131073
1774472498634116900,1.702116943359375,0.7001309394836426,1.1083303689956665,0.2886520326137543
1774472498644136000,1.712135986328125,0.7879343032836914,1.2502249479293823,0.27440014481544495
1774472498654153200,1.7221533203125,0.8765347003936768,1.3973419666290283,0.22635483741760254
1774472498664172000,1.732172119140625,0.9939447045326233,1.6305251121520996,0.18006856739521027
1774472498674189000,1.74218896484375,1.1393743753433228,1.9127932786941528,0.12073121219873428
1774472498684207900,1.752207763671875,1.2833194732666016,2.1066102981567383,0.02155456133186817
1774472498694225200,1.76222509765625,1.3961416482925415,2.12280011177063,-0.1119433119893074
1774472498704243000,1.772242919921875,1.4519962072372437,1.8483645915985107,-0.24170450866222382
1774472498714261000,1.782260986328125,1.1994949579238892,0.9172022342681885,-0.3329736888408661
1774472498724279000,1.792279052734375,0.9337378144264221,0.4163876175880432,-0.35786759853363037
1774472498734297000,1.802297119140625,0.8214251399040222,0.8763565421104431,-0.28104153275489807
1774472498744315000,1.81231494140625,0.8958913683891296,1.0548990964889526,-0.11107805371284485
1774472498754333000,1.8223330078125,1.0196024179458618,0.8732121586799622,0.11323308199644089
1774472498764351000,1.83235107421875,1.1046022176742554,0.9973652958869934,0.3394662141799927
1774472498774369800,1.842369873046875,1.1445318460464478,1.309801459312439,0.5270187854766846
1774472498784387600,1.8523876953125,1.1736769676208496,1.6682182550430298,0.6331388354301453
1774472498794405600,1.862405517578125,1.248749017715454,1.9266172647476196,0.707652747631073
1774472498804423700,1.872423583984375,1.445713996887207,1.9528571367263794,0.7552831172943115
1774472498814441700,1.882441650390625,1.69190514087677,1.7416801452636719,0.7566573023796082
1774472498824459500,1.89245947265625,1.9253400564193726,1.7130872011184692,0.7317956686019897
1774472498834477600,1.9024775390625,2.1423990726470947,1.8537113666534424,0.6597321033477783
1774472498844495600,1.91249560546875,2.3139243125915527,1.7605087757110596,0.5173693895339966
1774472498854513700,1.922513671875,2.3698737621307373,1.4692484140396118,0.34073787927627563
1774472498864531500,1.932531494140625,2.2422842979431152,1.4307678937911987,0.1966496706008911
1774472498874549500,1.942549560546875,1.9898625612258911,1.447806715965271,0.09483782947063446
1774472498884567800,1.95256787109375,1.643571138381958,1.419104814529419,0.0044080642983317375
1774472498894585600,1.962585693359375,1.3053507804870605,1.3838895559310913,-0.07880134135484695
1774472498904603600,1.972603759765625,1.061521053314209,1.3661608695983887,-0.18479275703430176
1774472498914621700,1.98262158203125,0.925439178943634,1.3548551797866821,-0.3173140287399292
1774472498924639700,1.9926396484375,0.8604910373687744,1.2871142625808716,-0.43535465002059937
1774472498934657500,2.002657470703125,0.8273115158081055,1.2960315942764282,-0.47378993034362793
1774472498944675600,2.012675537109375,0.7938653826713562,1.3421721458435059,-0.39772820472717285
1774472498954693600,2.022693603515625,0.6774858236312866,1.2868421077728271,-0.3006458580493927
1774472498964711700,2.032711669921875,0.4609476327896118,1.0902858972549438,-0.27244696021080017
1774472498974729500,2.0427294921875,0.25623124837875366,0.8955435752868652,-0.2964942455291748
1774472498984747800,2.052747802734375,0.14370231330394745,0.8106425404548645,-0.31943845748901367
1774472498994765600,2.062765625,0.17354488372802734,0.8712499737739563,-0.3197380602359772
1774472499004783600,2.07278369140625,0.30489999055862427,0.989928126335144,-0.2780414819717407
1774472499014801700,2.0828017578125,0.45809486508369446,1.1794307231903076,-0.2113143801689148
1774472499024819700,2.09281982421875,0.5434079170227051,1.360671877861023,-0.1726607233285904
1774472499034837800,2.102837646484375,0.5421444773674011,1.465346097946167,-0.18785831332206726
1774472499044855600,2.11285546875,0.47055259346961975,1.3879878520965576,-0.22959192097187042
1774472499054873600,2.12287353515625,0.3480037748813629,1.1824954748153687,-0.24287310242652893
1774472499064891600,2.1328916015625,0.2152039259672165,0.9994662404060364,-0.18960295617580414
1774472499074909700,2.14290966796875,0.09202846139669418,0.896903395652771,-0.09375552088022232
1774472499084927500,2.152927490234375,-0.0021193434949964285,0.839145302772522,-0.05229436233639717
1774472499094945800,2.16294580078125,-0.02990037389099598,0.5340162515640259,-0.08166903257369995
1774472499104963600,2.172963623046875,-0.045639123767614365,0.2656276822090149,-0.08315107971429825
1774472499114981600,2.182981689453125,-0.11308154463768005,0.2086552083492279,-0.04418184235692024
1774472499124999400,2.19299951171875,-0.1841229647397995,0.12244362384080887,0.011755725368857384
1774472499135017700,2.203017822265625,-0.14082209765911102,0.12173948436975479,0.08770401775836945
1774472499145035800,2.213035888671875,-0.030397586524486542,0.26293203234672546,0.1514105647802353
1774472499155053600,2.223053466796875,0.058771971613168716,0.49140220880508423,0.14753353595733643
1774472499165071600,2.233071533203125,-0.0171480942517519,0.44059044122695923,0.054299190640449524
1774472499175089700,2.243089599609375,-0.27798768877983093,0.24455328285694122,-0.11907073110342026
1774472499185107700,2.253107666015625,-0.6551839709281921,-0.007706655655056238,-0.2516564726829529
1774472499195125500,2.26312548828125,-0.9701988697052002,-0.1112423688173294,-0.24102060496807098
1774472499205143800,2.273143798828125,-1.1342283487319946,-0.08678602427244186,-0.11106792837381363
1774472499215161600,2.28316162109375,-1.0764414072036743,0.09797343611717224,0.04152507334947586
1774472499225179600,2.2931796875,-0.8422180414199829,0.26479172706604004,0.10995526611804962
1774472499235197400,2.303197509765625,-0.5331240892410278,0.301748663187027,0.0561482235789299
1774472499245215700,2.3132158203125,-0.26135969161987305,0.15395627915859222,-0.0829489454627037
1774472499255233500,2.323233642578125,-0.023194268345832825,-0.08394496887922287,-0.17628182470798492
1774472499265251600,2.33325146484375,0.14960600435733795,-0.17208494246006012,-0.1377839595079422
1774472499275269600,2.34326953125,0.2301889955997467,-0.09514489024877548,-0.03399578481912613
1774472499285287700,2.35328759765625,0.26036927103996277,-0.047618649899959564,0.05342274531722069
1774472499295305700,2.3633056640625,0.16831018030643463,0.05019179731607437,0.09397044032812119
1774472499305323500,2.373323486328125,-0.03731195256114006,0.054305315017700195,0.06830155849456787
1774472499315341800,2.383341796875,-0.19088633358478546,0.059351738542318344,0.03844832256436348
1774472499325359600,2.393359619140625,-0.32997816801071167,0.0514669194817543,-0.005133775528520346
1774472499335377700,2.403377685546875,-0.48918354511260986,0.0079159801825881,-0.07708573341369629
1774472499345395500,2.4133955078125,-0.6533860564231873,-0.004590490832924843,-0.17393317818641663
1774472499355413800,2.423413818359375,-0.7844700217247009,-0.02467898093163967,-0.25593483448028564
1774472499365431600,2.433431640625,-0.8624692559242249,-0.08701559156179428,-0.339439332485199
1774472499375449600,2.44344970703125,-0.8836032748222351,-0.19547656178474426,-0.45409107208251953
1774472499385467600,2.453467529296875,-0.854691207408905,-0.30777621269226074,-0.5740475654602051
1774472499395485700,2.463485595703125,-0.7989161014556885,-0.4727345108985901,-0.6507641673088074
1774472499405503500,2.47350341796875,-0.6594498157501221,-0.5990074872970581,-0.6339489817619324
1774472499415521500,2.483521484375,-0.5435966849327087,-0.5424315929412842,-0.5236288905143738
1774472499425539800,2.493539794921875,-0.4696471095085144,-0.3994810879230499,-0.3665867745876312
1774472499435557600,2.5035576171875,-0.4477977454662323,-0.31498509645462036,-0.2257407158613205
1774472499445575700,2.51357568359375,-0.4481700658798218,-0.27416470646858215,-0.11937406659126282
1774472499455593500,2.523593505859375,-0.4864804446697235,-0.20180955529212952,-0.06510256975889206
1774472499465611800,2.53361181640625,-0.5334937572479248,-0.15312376618385315,-0.06476567685604095
1774472499475629600,2.543629638671875,-0.5176932215690613,-0.11506000906229019,-0.08517029136419296
1774472499485647600,2.553647705078125,-0.44230684638023376,-0.05050605162978172,-0.1134653091430664
1774472499495665700,2.563665771484375,-0.324571430683136,-0.032104939222335815,-0.15782664716243744
1774472499505683700,2.57368359375,-0.09641122072935104,0.11756177991628647,-0.20458322763442993
1774472499515701500,2.583701416015625,0.11356864124536514,0.11334440112113953,-0.24324993789196014
1774472499525719600,2.593719482421875,0.2812649607658386,-0.010151171125471592,-0.2730821371078491
1774472499535737600,2.603737548828125,0.42425113916397095,-0.06079250946640968,-0.2909998893737793
1774472499545755600,2.613755615234375,0.5247505903244019,-0.09922166168689728,-0.31797584891319275
1774472499555773700,2.623773681640625,0.57292640209198,-0.19147755205631256,-0.33092519640922546
1774472499565791500,2.63379150390625,0.5852658748626709,-0.20481812953948975,-0.2979901432991028
1774472499575809800,2.643809814453125,0.5678245425224304,-0.10518527776002884,-0.22467385232448578
1774472499585827600,2.65382763671875,0.5412161350250244,0.05766249820590019,-0.14618916809558868
1774472499595845600,2.663845703125,0.5109178423881531,0.16665662825107574,-0.09635103493928909
1774472499605863700,2.67386376953125,0.4819011390209198,0.23468521237373352,-0.08991391211748123
1774472499615881700,2.6838818359375,0.4609433710575104,0.266743004322052,-0.11814475059509277
1774472499625899500,2.6938994140625,0.45825305581092834,0.27881112694740295,-0.173736110329628
1774472499635917600,2.70391748046875,0.4682212769985199,0.1887587308883667,-0.23392701148986816
1774472499645935600,2.713935546875,0.49481505155563354,0.04773236811161041,-0.27391889691352844
1774472499655952600,2.72395263671875,0.5149784088134766,-0.03785869851708412,-0.29597678780555725
1774472499665970700,2.733970703125,0.49946147203445435,-0.09329399466514587,-0.3129033148288727
1774472499675988700,2.74398876953125,0.465637743473053,-0.12020044028759003,-0.3324221670627594
1774472499686006500,2.754006591796875,0.41835516691207886,-0.12957529723644257,-0.34855079650878906
1774472499696024600,2.764024658203125,0.3560129702091217,-0.12452275305986404,-0.36917272210121155
1774472499706042600,2.774042724609375,0.29359540343284607,-0.11419767886400223,-0.3901245892047882
1774472499716060700,2.784060791015625,0.2453855276107788,-0.1274154782295227,-0.4070582985877991
1774472499726078500,2.794078369140625,0.21668118238449097,-0.1767934113740921,-0.4177258610725403
1774472499736096500,2.804096435546875,0.1991005837917328,-0.23961685597896576,-0.424506276845932
1774472499746114800,2.81411474609375,0.18347448110580444,-0.29785671830177307,-0.4276685118675232
1774472499756132600,2.824132568359375,0.16653971374034882,-0.34934574365615845,-0.426526814699173
1774472499766150700,2.834150634765625,0.14890159666538239,-0.37949860095977783,-0.41217318177223206
1774472499776168000,2.84416796875,0.12405776232481003,-0.3923608660697937,-0.4003165066242218
1774472499786185700,2.854185791015625,0.0966021716594696,-0.4006555378437042,-0.39447540044784546
1774472499796203800,2.864203857421875,0.0677923634648323,-0.42751723527908325,-0.3905507028102875
1774472499806221800,2.874221923828125,0.02966921217739582,-0.4377443194389343,-0.3728303015232086
1774472499816239900,2.884239990234375,-0.0057553574442863464,-0.43824711441993713,-0.3552608788013458
1774472499826257700,2.894257568359375,-0.026749055832624435,-0.4479069411754608,-0.3530171811580658
1774472499836275700,2.904275634765625,-0.031024228781461716,-0.47190573811531067,-0.35731205344200134
1774472499846293800,2.914293701171875,-0.02219611592590809,-0.5099673867225647,-0.3611643314361572
1774472499856311800,2.924311767578125,-0.021164141595363617,-0.5480108857154846,-0.3533886969089508
1774472499866329900,2.934329833984375,-0.03603629767894745,-0.5876603126525879,-0.32021236419677734
1774472499876348000,2.944347900390625,-0.06320267170667648,-0.5994386672973633,-0.2670775055885315
1774472499886366000,2.954365966796875,-0.114532969892025,-0.5550661683082581,-0.18822823464870453
1774472499896383700,2.9643837890625,-0.1618986278772354,-0.41588908433914185,-0.11815860122442245
1774472499906401800,2.97440185546875,-0.20356856286525726,-0.26865729689598083,-0.08372365683317184
1774472499916419800,2.984419921875,-0.21380123496055603,-0.1619899719953537,-0.08175185322761536
1774472499926438000,2.99443798828125,-0.2126438170671463,-0.102623850107193,-0.1020755022764206
1774472499936455700,3.00445556640625,-0.21623988449573517,-0.0816088393330574,-0.1280391961336136
1774472499946473700,3.0144736328125,-0.22348769009113312,-0.07614270597696304,-0.16555780172348022
1774472499956491800,3.02449169921875,-0.22882865369319916,-0.09812070429325104,-0.22016991674900055
1774472499966509800,3.034509765625,-0.23958569765090942,-0.15654167532920837,-0.2817467153072357
1774472499976527600,3.044527587890625,-0.25691142678260803,-0.18092131614685059,-0.3362690806388855
1774472499986546000,3.0545458984375,-0.27595195174217224,-0.16257905960083008,-0.3705857992172241
1774472499996564000,3.06456396484375,-0.2864554524421692,-0.156664177775383,-0.3804951310157776
1774472500006581800,3.074581787109375,-0.2867974042892456,-0.10118627548217773,-0.365595281124115
1774472500016599800,3.084599853515625,-0.2639506757259369,-0.008195345290005207,-0.3372821509838104
1774472500026617900,3.094617919921875,-0.20940808951854706,0.08188368380069733,-0.31332701444625854
1774472500036636000,3.104635986328125,-0.13199931383132935,0.1324312835931778,-0.30279022455215454
1774472500046653700,3.11465380859375,-0.04369768127799034,0.15270619094371796,-0.2957155406475067
1774472500056671700,3.124671630859375,0.04053570702672005,0.14814072847366333,-0.29437118768692017
1774472500066689800,3.134689697265625,0.10133141279220581,0.09411797672510147,-0.30174893140792847
1774472500076707800,3.144707763671875,0.1352797895669937,0.02093324437737465,-0.30431514978408813
1774472500086725600,3.1547255859375,0.14401762187480927,-0.014171745628118515,-0.3023257851600647
1774472500096744000,3.164743896484375,0.12454193085432053,-0.03296221047639847,-0.29692542552948
1774472500106760700,3.1747607421875,0.0945531353354454,-0.07008880376815796,-0.29107311367988586
1774472500116778800,3.18477880859375,0.07218445092439651,-0.10855470597743988,-0.2821595072746277
1774472500126796800,3.194796875,0.06333423405885696,-0.1662108153104782,-0.271526038646698
1774472500136814800,3.20481494140625,0.0685790628194809,-0.21844792366027832,-0.25190919637680054
1774472500146832600,3.21483251953125,0.08456681668758392,-0.27133509516716003,-0.22098830342292786
1774472500156850700,3.2248505859375,0.10889772325754166,-0.33912160992622375,-0.16891871392726898
1774472500166868700,3.23486865234375,0.12712839245796204,-0.3529713749885559,-0.10631658881902695
1774472500176886800,3.24488671875,0.13245125114917755,-0.34271472692489624,-0.05934534966945648
1774472500186904800,3.25490478515625,0.1261853724718094,-0.3249663710594177,-0.0468231663107872
1774472500196923000,3.2649228515625,0.09765225648880005,-0.33328554034233093,-0.05944175645709038
1774472500206941000,3.27494091796875,0.052141230553388596,-0.33587148785591125,-0.06285858899354935
1774472500216958700,3.284958740234375,-0.007476824801415205,-0.33004581928253174,-0.04573899134993553
1774472500226976800,3.294976806640625,-0.06787864863872528,-0.3441126346588135,-0.0003741741238627583
1774472500236994800,3.304994873046875,-0.10749450325965881,-0.3480040431022644,0.050936948508024216
1774472500247012900,3.315012939453125,-0.13829129934310913,-0.35356447100639343,0.08296918869018555
1774472500257030700,3.32503076171875,-0.14545413851737976,-0.4021186828613281,0.09901925921440125
1774472500267049000,3.335049072265625,-0.12243510037660599,-0.4546806812286377,0.1195029616355896
1774472500277066800,3.345066650390625,-0.0800439715385437,-0.4583057761192322,0.1670161485671997
1774472500287084800,3.355084716796875,-0.06255578994750977,-0.4158177077770233,0.22865501046180725
1774472500297102600,3.3651025390625,-0.0971534475684166,-0.40025392174720764,0.3009073734283447
1774472500307121000,3.375120849609375,-0.16307787597179413,-0.25909388065338135,0.37718483805656433
1774472500317139000,3.385138916015625,-0.26723650097846985,-0.1628698706626892,0.4271462559700012
1774472500327156700,3.39515673828125,-0.5089886784553528,0.30380356311798096,0.4147402048110962
1774472500337174800,3.4051748046875,-0.6135774254798889,0.48297998309135437,0.3877543807029724
1774472500347192800,3.41519287109375,-0.6124149560928345,0.6020475029945374,0.37065157294273376
1774472500357211000,3.4252109375,-0.6389179229736328,0.6582309007644653,0.3425706624984741
1774472500367228700,3.435228759765625,-0.7399497032165527,0.6087461709976196,0.2632122039794922
1774472500377247000,3.4452470703125,-0.8940210342407227,0.427603542804718,0.15581196546554565
1774472500387264800,3.4552646484375,-1.0278632640838623,0.3206557631492615,0.0284699909389019
1774472500397282800,3.46528271484375,-1.0923879146575928,0.12458080798387527,-0.08282776921987534
1774472500407300600,3.475300537109375,-1.0426640510559082,-0.08072414249181747,-0.11211615055799484
1774472500417319000,3.48531884765625,-0.9021905660629272,-0.35510164499282837,-0.06595718115568161
1774472500427336700,3.495336669921875,-0.7227185368537903,-0.6878465414047241,0.04394268989562988
1774472500437354800,3.505354736328125,-0.5440787672996521,-0.9012981057167053,0.214251309633255
1774472500447372800,3.515372802734375,-0.3778671324253082,-0.9890226721763611,0.3926905691623688
1774472500457390800,3.525390869140625,-0.1869661509990692,-1.081243872642517,0.5304175019264221
1774472500467407600,3.53540771484375,0.049185656011104584,-1.1472591161727905,0.6188360452651978
1774472500477426000,3.545426025390625,0.29302388429641724,-1.2043591737747192,0.626200795173645
1774472500487443700,3.555443603515625,0.4598842263221741,-1.2443324327468872,0.5290534496307373
1774472500497461800,3.565461669921875,0.495565801858902,-1.1393873691558838,0.3573181927204132
1774472500507479800,3.575479736328125,0.40792277455329895,-1.04745614528656,0.13354021310806274
1774472500517497900,3.585497802734375,0.23318105936050415,-1.0386381149291992,-0.08495909720659256
1774472500527516000,3.595515869140625,0.018492458388209343,-1.0692440271377563,-0.22447891533374786
1774472500537533700,3.60553369140625,-0.19832906126976013,-1.1617648601531982,-0.23014399409294128
1774472500547551700,3.6155517578125,-0.39437687397003174,-1.1333526372909546,-0.1670188158750534
1774472500557569800,3.62556982421875,-0.5562784075737,-1.1314364671707153,-0.1114698052406311
1774472500567587800,3.635587890625,-0.5164055824279785,-1.4207069873809814,-0.09867304563522339
1774472500577605600,3.645605712890625,-0.3588436543941498,-1.576856017112732,-0.09462451189756393
1774472500587624000,3.6556240234375,-0.30294203758239746,-1.5186164379119873,-0.12022414803504944
1774472500597641700,3.665641845703125,-0.2923884391784668,-1.5091487169265747,-0.12463327497243881
1774472500607659800,3.67565966796875,-0.23279969394207,-1.3191536664962769,-0.15331125259399414
1774472500617677600,3.685677490234375,-0.17898093163967133,-1.1396249532699585,-0.15910443663597107
1774472500627695900,3.69569580078125,-0.14445757865905762,-0.897050142288208,-0.1019122526049614
1774472500637714000,3.7057138671875,-0.15729375183582306,-0.6861125826835632,-0.05855545401573181
1774472500647731700,3.715731689453125,-0.18925674259662628,-0.5916979312896729,-0.07537970691919327
1774472500657750000,3.72575,-0.21387633681297302,-0.5647675395011902,-0.17490950226783752
1774472500667767800,3.735767822265625,-0.23314084112644196,-0.6262660026550293,-0.3057985305786133
1774472500677785900,3.745785888671875,-0.2410815954208374,-0.6714649200439453,-0.36251160502433777
1774472500687803600,3.7558037109375,-0.22977541387081146,-0.5965246558189392,-0.35151275992393494
1774472500697822000,3.765822021484375,-0.187466561794281,-0.5151246190071106,-0.3011441230773926
1774472500707839700,3.77583984375,-0.09214457124471664,-0.4214865267276764,-0.21089918911457062
1774472500717857800,3.78585791015625,-0.008466455154120922,-0.3414883613586426,-0.07746016979217529
1774472500727875600,3.79587548828125,0.13233806192874908,-0.255678653717041,0.08212682604789734
1774472500737894000,3.805893798828125,0.38731682300567627,-0.14982011914253235,0.24420493841171265
1774472500747911700,3.81591162109375,0.7023107409477234,0.012522716075181961,0.3848392963409424
1774472500757929700,3.8259296875,0.971919059753418,0.21948681771755219,0.5019065141677856
1774472500767948000,3.835947998046875,1.1707488298416138,0.4107670187950134,0.5978317260742188
1774472500777966000,3.845966064453125,1.3143563270568848,0.57009357213974,0.6953814625740051
1774472500787984000,3.85598388671875,1.4221669435501099,0.8086331486701965,0.8026559948921204
1774472500798002000,3.866001953125,1.5023994445800781,1.237682580947876,0.8838133811950684
1774472500808020200,3.876020263671875,1.401177167892456,0.934486448764801,0.912370502948761
1774472500818038000,3.8860380859375,1.2895691394805908,0.7015386819839478,0.9337644577026367
1774472500828056000,3.89605615234375,1.2839184999465942,0.6290069818496704,0.9761092662811279
1774472500838073900,3.906073974609375,1.315758466720581,0.44175371527671814,1.0005656480789185
1774472500848092200,3.916092041015625,1.3453525304794312,0.3511955738067627,0.9945161938667297
1774472500858110000,3.92610986328125,1.3854999542236328,0.35267630219459534,0.9235137104988098
1774472500868128000,3.9361279296875,1.4610415697097778,0.2988263666629791,0.7428472638130188
1774472500878146000,3.94614599609375,1.606938123703003,0.4412759244441986,0.42823949456214905
1774472500888164000,3.9561640625,1.8029334545135498,0.6991482377052307,0.05296201631426811
1774472500898182000,3.966181884765625,1.884459137916565,1.3283724784851074,-0.365520715713501
1774472500908200000,3.976199951171875,1.873455286026001,2.143270969390869,-0.9106298685073853
1774472500918218000,3.986218017578125,2.2210588455200195,2.756632089614868,-1.5525827407836914
1774472500928235000,3.996235107421875,2.6438398361206055,3.529819965362549,-2.316575765609741
1774472500938252800,4.006252685546875,2.8223249912261963,3.9642717838287354,-2.9882588386535645
1774472500948271000,4.01627099609375,2.720926284790039,4.176513671875,-3.379465103149414
1774472500958289000,4.026288818359375,2.4732446670532227,3.993217945098877,-3.4940004348754883
1774472500968307000,4.036306884765625,2.20021915435791,2.776756763458252,-3.177577018737793
1774472500978325000,4.046324951171875,1.9551589488983154,1.6092443466186523,-2.6411283016204834
1774472500988343000,4.056343017578125,1.617026686668396,0.6219354867935181,-2.096033811569214
1774472500998361000,4.066361083984375,1.2198460102081299,-0.3319249451160431,-1.8084511756896973
1774472501008379000,4.07637890625,0.9912200570106506,-1.2279894351959229,-2.0069148540496826
1774472501018397200,4.086397216796875,0.928134560585022,-1.8091236352920532,-2.406831741333008
1774472501028415000,4.0964150390625,1.0456923246383667,-2.3137588500976562,-2.8298232555389404
1774472501038433000,4.10643310546875,1.419874668121338,-2.795361280441284,-3.1553947925567627
1774472501048451000,4.116451171875,1.81770920753479,-2.83461594581604,-3.437908172607422
1774472501058469000,4.12646923828125,2.1334779262542725,-2.2495081424713135,-3.4507813453674316
1774472501068487000,4.13648681640625,2.3103795051574707,-1.6092859506607056,-3.170654296875
1774472501078505000,4.1465048828125,2.3723740577697754,-1.0373553037643433,-2.381350517272949
1774472501088523000,4.15652294921875,2.189596176147461,-0.9564144015312195,-1.2506763935089111
1774472501098541000,4.166541015625,1.7225602865219116,-1.076358675956726,0.021512215957045555
1774472501108558800,4.176558837890625,1.2046962976455688,-1.1084736585617065,0.9013361930847168
1774472501118577000,4.186576904296875,0.8789997696876526,-0.8164759278297424,1.3008759021759033
1774472501128595200,4.19659521484375,0.6738284826278687,-0.4966401159763336,1.4076178073883057
1774472501138613000,4.206613037109375,0.4574567675590515,-0.2993803024291992,1.4620990753173828
1774472501148631000,4.216631103515625,0.3067396879196167,-0.2510061264038086,1.4411234855651855
1774472501158649000,4.226649169921875,0.36047855019569397,-0.17964352667331696,1.2031389474868774
1774472501168667100,4.236667236328125,0.5857660174369812,0.21053992211818695,1.0211819410324097
1774472501178685000,4.246684814453125,0.8723735213279724,0.5656737685203552,0.8327217102050781
1774472501188703000,4.256702880859375,0.9829642176628113,0.9078300595283508,0.3124726712703705
1774472501198721000,4.266720947265625,1.20802640914917,1.150132179260254,-0.27283233404159546
1774472501208739000,4.276739013671875,1.5855129957199097,1.1783331632614136,-0.7784504890441895
1774472501218756900,4.2867568359375,1.906625509262085,0.8118460178375244,-1.031761646270752
1774472501228775000,4.29677490234375,1.974949598312378,0.2614031136035919,-0.8802487850189209
1774472501238793000,4.30679296875,1.7772501707077026,-0.34838274121284485,-0.47385385632514954
1774472501248811000,4.31681103515625,1.5664846897125244,-0.9193349480628967,-0.09009953588247299
1774472501258829000,4.3268291015625,1.5285707712173462,-1.1883608102798462,0.1193530261516571
1774472501268847000,4.33684716796875,1.616527795791626,-1.2820377349853516,0.08177262544631958
1774472501278865200,4.346865234375,1.6862062215805054,-1.3830994367599487,-0.14659583568572998
1774472501288883000,4.356883056640625,1.6073609590530396,-1.3806601762771606,-0.39900490641593933
1774472501298900000,4.36689990234375,1.6077964305877686,-1.325497031211853,-0.4601137936115265
1774472501308918000,4.37691796875,1.616952657699585,-1.4157425165176392,-0.5967766046524048
1774472501318936000,4.38693603515625,1.7207045555114746,-1.7878389358520508,-0.6431275606155396
1774472501328953900,4.396953857421875,1.8592848777770996,-2.0298967361450195,-0.5458710789680481
1774472501338972200,4.40697216796875,1.901848554611206,-1.9375401735305786,-0.33962175250053406
1774472501348990000,4.416989990234375,1.810165524482727,-1.6084142923355103,-0.15737684071063995
1774472501359008000,4.427008056640625,1.5635485649108887,-1.3452174663543701,-0.10862341523170471
1774472501369026000,4.437026123046875,1.2399967908859253,-1.2073326110839844,-0.21179348230361938
1774472501379044000,4.447044189453125,0.9035437107086182,-1.133691668510437,-0.39267271757125854
1774472501389062000,4.457061767578125,0.52474045753479,-0.8893328309059143,-0.5611967444419861
1774472501399080000,4.467079833984375,0.16665741801261902,-0.5914555788040161,-0.6599076390266418
1774472501409098000,4.477097900390625,-0.07556186616420746,-0.44262775778770447,-0.7145335674285889
1774472501419116000,4.487115966796875,-0.253033310174942,-0.33935701847076416,-0.7184076905250549
1774472501429133800,4.4971337890625,-0.2803349792957306,-0.4282192587852478,-0.6185428500175476
1774472501439152000,4.507152099609375,-0.18784978985786438,-0.38325390219688416,-0.331630676984787
1774472501449170200,4.517170166015625,-0.04232348874211311,0.025482190772891045,0.0001174454009742476
1774472501459188000,4.52718798828125,0.02327789179980755,0.5807997584342957,0.27666008472442627
1774472501469206000,4.5372060546875,-0.03791036456823349,0.9836696982383728,0.4625098407268524
1774472501479224000,4.54722412109375,-0.2668766975402832,1.1251144409179688,0.5580933690071106
1774472501489242000,4.5572421875,-0.6459707617759705,1.461166262626648,0.19639800488948822
1774472501499260000,4.567260009765625,-0.9822350740432739,1.322342872619629,-0.28493666648864746
1774472501509278000,4.57727783203125,-1.0971693992614746,0.22172707319259644,-1.6032533645629883
1774472501519296000,4.5872958984375,-0.959370493888855,-1.1796010732650757,-2.811190128326416
1774472501529314000,4.59731396484375,-0.6831138730049133,-0.9414689540863037,-3.301370620727539
1774472501539331800,4.607331787109375,-0.859109103679657,0.6206129193305969,-2.8133466243743896
1774472501549350100,4.61735009765625,-1.0896104574203491,0.5131293535232544,-2.043344497680664
1774472501559368000,4.627367919921875,-0.9777897000312805,0.033063944429159164,-1.4578132629394531
1774472501569386000,4.637385986328125,-0.9507748484611511,0.8324958682060242,-0.8119855523109436
1774472501579404000,4.647404052734375,-0.9810158610343933,0.3624868392944336,-0.29550009965896606
1774472501589422000,4.657422119140625,-1.0489275455474854,0.4408636689186096,-0.06769542396068573
1774472501599440100,4.667440185546875,-0.8749631643295288,0.25006815791130066,0.002704173792153597
1774472501609457000,4.677456787109375,-0.7003831267356873,0.7175251245498657,-0.06922940164804459
1774472501619475000,4.687474853515625,-0.4955202639102936,0.41980767250061035,-0.011680091731250286
1774472501629493000,4.697492919921875,-0.3976711928844452,0.09201034903526306,-0.057024404406547546
1774472501639511000,4.707510986328125,-0.29865166544914246,0.05343286320567131,0.05609842389822006
1774472501649529000,4.717529052734375,-0.2191917449235916,-0.00013928332191426307,0.11938045918941498
1774472501659547100,4.727547119140625,-0.11624404788017273,0.30939459800720215,0.351844847202301
1774472501669565000,4.73756494140625,-0.17425675690174103,0.3655548095703125,0.06432625651359558
1774472501679583000,4.7475830078125,-0.33551836013793945,0.6465497016906738,-0.4087699353694916
1774472501689601000,4.75760107421875,-0.35360679030418396,0.6119789481163025,-0.7107244729995728
1774472501699619000,4.767619140625,-0.3621821701526642,0.44469037652015686,-0.6971505880355835
1774472501709636900,4.777636962890625,-0.38701722025871277,0.3152706027030945,-0.6265456676483154
1774472501719655000,4.787655029296875,-0.17166469991207123,0.2403143346309662,-0.6076292395591736
1774472501729673000,4.7976728515625,0.1261608600616455,0.12520825862884521,-0.5950289964675903
1774472501739691000,4.80769091796875,0.3390409052371979,-0.04236290231347084,-0.670221745967865
1774472501749708800,4.817708740234375,0.4651027023792267,-0.20088383555412292,-0.8998696208000183
1774472501759727000,4.82772705078125,0.5469381809234619,-0.3200019598007202,-1.2131258249282837
1774472501769745200,4.8377451171875,0.49200302362442017,-0.3003009855747223,-1.4586740732192993
1774472501779764700,4.8477646484375,0.4029967188835144,-0.2655262053012848,-1.5268772840499878
1774472501789782500,4.857782470703125,0.353939950466156,-0.1852356344461441,-1.3175197839736938
1774472501799800600,4.867800537109375,0.47850266098976135,-0.19395029544830322,-1.0219366550445557
1774472501809818600,4.877818603515625,0.5910773873329163,-0.1026076003909111,-0.8035438656806946
1774472501819836700,4.887836669921875,0.5301088690757751,0.020322848111391068,-0.6028144955635071
1774472501829854700,4.897854736328125,0.5366379022598267,0.03371615335345268,-0.5693652033805847
1774472501839872500,4.90787255859375,0.5400475263595581,-0.0012423646403476596,-0.5932364463806152
1774472501849890800,4.917890869140625,0.41270872950553894,-0.026268621906638145,-0.504482090473175
1774472501859908600,4.92790869140625,0.2895367443561554,-0.010172742418944836,-0.36871466040611267
1774472501869926700,4.9379267578125,0.34063613414764404,0.07444387674331665,-0.2463195025920868
1774472501879944400,4.9479443359375,0.13423795998096466,0.17398510873317719,-0.030044451355934143
1774472501889961700,4.957961669921875,-0.17954392731189728,-0.035171836614608765,0.11470234394073486
1774472501899979500,4.9679794921875,-0.4040742516517639,0.027720045298337936,0.22418490052223206
1774472501909997800,4.977997802734375,-0.6013026237487793,0.1543371081352234,0.29740265011787415
1774472501920015600,4.988015625,-0.6790919303894043,0.2050684690475464,0.3125874698162079
1774472501930033700,4.99803369140625,-0.5160630941390991,0.3002908527851105,0.45808473229408264
1774472501940051500,5.008051513671875,-0.14298565685749054,0.14255395531654358,0.5390363335609436
1774472501950069800,5.01806982421875,0.182237446308136,0.4232652485370636,0.8846808075904846
1774472501960087600,5.028087646484375,0.20379947125911713,0.40172773599624634,0.9850990176200867
1774472501970105600,5.038105712890625,0.06359708309173584,0.6478453278541565,0.9556412696838379
1774472501980123400,5.048123291015625,-0.0942857563495636,0.9531940817832947,0.829584002494812
1774472501990141700,5.0581416015625,-0.197382852435112,1.020342230796814,0.702038049697876
1774472502000159700,5.06815966796875,-0.2969411313533783,0.8230438232421875,0.6096788048744202
1774472502010177500,5.078177490234375,-0.4304347336292267,0.5353869795799255,0.5400373935699463
1774472502020195800,5.08819580078125,-0.545207142829895,0.5089277029037476,0.43745750188827515
1774472502030213600,5.098213623046875,-0.6094377636909485,0.6840528845787048,0.2261737436056137
1774472502040231700,5.108231689453125,-0.7293881773948669,0.7482060194015503,0.10657251626253128
1774472502050249500,5.11824951171875,-0.8739114999771118,0.553502082824707,0.0461544468998909
1774472502060267800,5.128267822265625,-0.9764719605445862,0.32410404086112976,0.004795554094016552
1774472502070285600,5.13828564453125,-1.055391788482666,0.2972226142883301,0.08604221045970917
1774472502080303600,5.1483037109375,-1.1062060594558716,0.5319445729255676,0.31036823987960815
1774472502090321700,5.15832177734375,-1.0295040607452393,0.767492413520813,0.5871122479438782
1774472502100339700,5.168339599609375,-0.8052017092704773,0.728351354598999,0.550074577331543
1774472502110357500,5.178357421875,-0.8845918774604797,0.07442016899585724,-0.04334161430597305
1774472502120375600,5.18837548828125,-1.001565933227539,-0.4639892280101776,-0.531315267086029
1774472502130393900,5.198393798828125,-0.9147931933403015,-0.06453265249729156,-0.6460173726081848
1774472502140410600,5.20841064453125,-0.5308231115341187,-0.011579157784581184,-0.30837196111679077
1774472502150428400,5.218428466796875,-0.07165447622537613,0.22018642723560333,0.33851492404937744
1774472502160446700,5.22844677734375,0.2172470986843109,0.7120304703712463,0.9823524951934814
1774472502170464500,5.238464599609375,0.2957022190093994,1.1281498670578003,1.247037649154663
1774472502180482600,5.248482666015625,0.3097970187664032,1.100584626197815,1.099163293838501
1774472502190500900,5.2585009765625,0.2825707197189331,0.8728217482566833,0.8056514859199524
1774472502200518700,5.2685185546875,0.19716979563236237,0.6642531156539917,0.6325132846832275
1774472502210536700,5.27853662109375,0.09840593487024307,0.47659796476364136,0.552013635635376
1774472502220554500,5.288554443359375,0.067086361348629,0.24288934469223022,0.4869653880596161
1774472502230572800,5.29857275390625,0.0856989249587059,0.04554271697998047,0.43416956067085266
1774472502240590600,5.308590576171875,0.0842331200838089,-0.1120556965470314,0.4218505620956421
1774472502250608600,5.318608642578125,0.030248183757066727,-0.3157672882080078,0.4527227282524109
1774472502260626400,5.32862646484375,-0.0643014907836914,-0.44044768810272217,0.5029731392860413
1774472502270644700,5.338644775390625,-0.15643994510173798,-0.3979990482330322,0.5334500670433044
1774472502280662500,5.34866259765625,-0.22925396263599396,-0.3142934739589691,0.5458417534828186
1774472502290680600,5.3586806640625,-0.21338604390621185,-0.2535662353038788,0.5923560261726379
1774472502300698600,5.36869873046875,-0.11085487902164459,-0.3390480875968933,0.6929433345794678
1774472502310716700,5.378716552734375,-0.02960875816643238,-0.4863251745700836,0.7567098140716553
1774472502320734700,5.388734619140625,-0.03130119666457176,-0.5982988476753235,0.735059380531311
1774472502330752500,5.39875244140625,-0.11476226896047592,-0.641227126121521,0.6485625505447388
1774472502340770800,5.408770751953125,-0.2296110838651657,-0.7051315307617188,0.5379140377044678
1774472502350788600,5.41878857421875,-0.34669509530067444,-0.6602215766906738,0.4424525201320648
1774472502360806700,5.428806640625,-0.50681471824646,-0.40818536281585693,0.3060954809188843
1774472502370824400,5.438824462890625,-0.5461437702178955,-0.1383107304573059,0.09190116077661514
1774472502380842800,5.4488427734375,-0.3537634015083313,0.16246001422405243,-0.02840793877840042
1774472502390860500,5.458860595703125,-0.08010202646255493,0.38546326756477356,0.030069218948483467
1774472502400877800,5.4688779296875,0.07820052653551102,0.4821533262729645,0.19441714882850647
1774472502410895600,5.4788955078125,0.17839716374874115,0.6946150064468384,0.39702457189559937
1774472502420913700,5.48891357421875,0.20177173614501953,0.8479419350624084,0.5805289149284363
1774472502430931500,5.498931396484375,0.17676864564418793,0.7263561487197876,0.6215083003044128
1774472502440949800,5.50894970703125,0.11567945778369904,0.39583441615104675,0.4446256458759308
1774472502450967600,5.518967529296875,0.0011837751371785998,0.05193670094013214,0.3145392835140228
1774472502460985600,5.528985595703125,-0.01098447386175394,-0.12083800137042999,0.485965371131897
1774472502471003600,5.539003662109375,-0.09568977355957031,-0.35720473527908325,0.6091288328170776
1774472502481021700,5.549021728515625,-0.10183022171258926,-0.09246867895126343,0.2419590950012207
1774472502491039500,5.55903955078125,0.006354302167892456,-0.04417917877435684,-0.5368602275848389
1774472502501057500,5.5690576171875,0.12472941726446152,-0.013551228679716587,-1.0750211477279663
1774472502511075800,5.579075927734375,0.18009227514266968,0.5752995014190674,-1.271828293800354
1774472502521093600,5.58909375,0.197906956076622,0.8711724281311035,-1.2700141668319702
1774472502531111700,5.599111572265625,0.17013683915138245,0.39905789494514465,-0.8519151210784912
1774472502541129500,5.60912939453125,-0.07842743396759033,0.540348470211029,-0.2837419807910919
1774472502551147800,5.619147705078125,-0.3669971823692322,0.42129984498023987,0.007415572181344032
1774472502561165600,5.62916552734375,-0.5744595527648926,0.4255276024341583,-0.1511911153793335
1774472502571183600,5.63918359375,-0.690759003162384,0.44222721457481384,-0.4023975133895874
1774472502581201700,5.64920166015625,-0.818903386592865,0.338545024394989,-0.5613389611244202
1774472502591219700,5.6592197265625,-0.6092058420181274,-0.08466242253780365,-0.6440783143043518
1774472502601237500,5.669237548828125,-0.4271436035633087,-0.46644148230552673,-0.8518352508544922
1774472502611255600,5.679255615234375,-0.3389892578125,-0.6243847608566284,-0.8887261152267456
1774472502621273600,5.689273681640625,-0.35191890597343445,-0.5240544676780701,-0.8994251489639282
1774472502631291600,5.699291748046875,-0.3817574679851532,-0.6415629386901855,-1.0215294361114502
1774472502641309700,5.709309814453125,-0.3026866316795349,-0.7184361815452576,-1.139441728591919
1774472502651326700,5.71932666015625,-0.20741550624370575,-0.5485547184944153,-1.1240534782409668
1774472502661344500,5.729344482421875,-0.20604237914085388,-0.25807973742485046,-0.9171133041381836
1774472502671362600,5.739362548828125,-0.2267063856124878,-0.03683285042643547,-0.6748996376991272
1774472502681380600,5.749380615234375,-0.24057932198047638,0.0851748138666153,-0.4958513081073761
1774472502691398700,5.759398681640625,-0.3062025308609009,0.0968242809176445,-0.43320736289024353
1774472502701416700,5.769416748046875,-0.48047927021980286,-0.010351973585784435,-0.36899030208587646
1774472502711434500,5.7794345703125,-0.5575039982795715,-0.08766593784093857,-0.2643325924873352
1774472502721452800,5.789452880859375,-0.6765300035476685,-0.3010852634906769,-0.237264484167099
1774472502731470600,5.799470703125,-0.8590127229690552,-0.4816704988479614,-0.2808532416820526
1774472502741488600,5.809488525390625,-0.9928003549575806,-0.5908814072608948,-0.4161332845687866
1774472502751506700,5.819506591796875,-1.013635277748108,-0.5584853887557983,-0.42628633975982666
1774472502761524700,5.829524658203125,-0.821000337600708,-0.4072399437427521,-0.20080900192260742
1774472502771542500,5.83954248046875,-0.4982718527317047,-0.26198315620422363,0.12949460744857788
1774472502781558800,5.849558837890625,-0.11894290149211884,0.010686466470360756,0.4596661329269409
1774472502791576800,5.859576904296875,0.15187528729438782,0.2593974769115448,0.7537038922309875
1774472502801594600,5.8695947265625,0.29328009486198425,0.33081600069999695,1.0190309286117554
1774472502811613000,5.879613037109375,0.42930474877357483,0.415542870759964,1.3163573741912842
1774472502821630700,5.889630615234375,0.47303733229637146,0.326738178730011,1.6081706285476685
1774472502831648800,5.899648681640625,0.41992616653442383,0.1983756721019745,1.8698575496673584
1774472502841666800,5.909666748046875,0.31157201528549194,0.3036879897117615,2.0901691913604736
1774472502851684900,5.919684814453125,0.20380985736846924,0.26841306686401367,2.2530767917633057
1774472502861702700,5.92970263671875,0.04193919524550438,-0.0309898741543293,2.2250030040740967
1774472502871720700,5.939720703125,-0.05140220373868942,-0.021683990955352783,1.9737619161605835
1774472502881739000,5.949739013671875,-0.07514002174139023,0.046666305512189865,1.4468823671340942
1774472502891756800,5.9597568359375,-0.10832300782203674,0.12204388529062271,0.9227075576782227
1774472502901773600,5.969773681640625,-0.20561547577381134,0.13725239038467407,0.6179795861244202
1774472502911791900,5.9797919921875,-0.39571964740753174,-0.008097341284155846,0.5010015964508057
1774472502921810000,5.989809814453125,-0.5485685467720032,-0.17393611371517181,0.3048893213272095
1774472502931827700,5.99982763671875,-0.6378750205039978,-0.2555665373802185,0.04983626678586006
1774472502941846000,6.009845947265625,-0.6242949962615967,-0.2541404068470001,-0.17553666234016418
1774472502951863800,6.01986376953125,-0.5210437178611755,-0.14553402364253998,-0.32921144366264343
1774472502961881900,6.0298818359375,-0.3368142545223236,0.015379754826426506,-0.39889705181121826
1774472502971899600,6.039899658203125,-0.087868332862854,0.0955217257142067,-0.40369951725006104
1774472502981918000,6.04991796875,0.17057013511657715,0.04355227202177048,-0.3929600715637207
1774472502991935700,6.059935791015625,0.3906953036785126,-0.06547194719314575,-0.3843676447868347
1774472503001953800,6.069953857421875,0.5357630252838135,-0.16706621646881104,-0.3949268162250519
1774472503011971800,6.079971923828125,0.5950908064842224,-0.23096877336502075,-0.40295279026031494
1774472503021990000,6.089989990234375,0.5732462406158447,-0.2610137462615967,-0.4852849245071411
1774472503032007700,6.100007568359375,0.5177313089370728,-0.2764424979686737,-0.6381535530090332
1774472503042025700,6.110025634765625,0.46357643604278564,-0.25606080889701843,-0.7399121522903442
1774472503052043800,6.120043701171875,0.42944592237472534,-0.23729856312274933,-0.9029895067214966
1774472503062061800,6.130061767578125,0.453607976436615,-0.47598305344581604,-1.180085301399231
1774472503072080000,6.140079833984375,0.539839506149292,-0.7805845141410828,-1.6199511289596558
1774472503082097700,6.15009765625,0.546024739742279,-0.872779905796051,-1.8833414316177368
1774472503092116000,6.160115966796875,0.35783615708351135,-1.1096813678741455,-1.9959076642990112
1774472503102133800,6.1701337890625,0.06488952040672302,-1.0442235469818115,-1.7120314836502075
1774472503112151800,6.18015185546875,-0.2626129686832428,-0.5654814839363098,-1.045522689819336
1774472503122169900,6.190169921875,-0.5037800669670105,-0.1764804869890213,-0.2659246325492859
1774472503132188000,6.20018798828125,-0.5939842462539673,-0.08674128353595734,0.3975721299648285
1774472503142205700,6.210205810546875,-0.5552864074707031,-0.0917685329914093,0.9334542155265808
1774472503152223700,6.2202236328125,-0.41287916898727417,-0.07558157294988632,1.2543531656265259
1774472503162240800,6.23024072265625,-0.21545825898647308,-0.08212096989154816,1.2860692739486694
1774472503172258800,6.2402587890625,0.007241667713969946,-0.2737268805503845,1.1601797342300415
1774472503182276600,6.250276611328125,0.25106605887413025,-0.2407819777727127,0.9855461716651917
1774472503192295000,6.260294921875,0.42287030816078186,-0.06769009679555893,0.8399831056594849
1774472503202312700,6.270312744140625,0.532138466835022,0.04745939373970032,0.7017413377761841
1774472503212330800,6.280330810546875,0.6495146155357361,0.20597979426383972,0.5674263834953308
1774472503222348800,6.290348876953125,0.7867507934570312,0.3086952567100525,0.46595144271850586
1774472503232366800,6.300366943359375,0.9523333311080933,0.3335108458995819,0.3061463534832001
1774472503242385000,6.310385009765625,1.165291666984558,-0.062374427914619446,0.16627658903598785
1774472503252402700,6.320402587890625,1.4036672115325928,-0.536405622959137,0.13279719650745392
1774472503262421000,6.3304208984375,1.56100594997406,-0.4787362217903137,0.2202223837375641
1774472503272438800,6.340438720703125,1.6121482849121094,-0.24235431849956512,0.37069737911224365
1774472503282456800,6.350456787109375,1.6331241130828857,-0.026273416355252266,0.5424622297286987
1774472503292474600,6.360474609375,1.6667710542678833,0.25360989570617676,0.6914340853691101
1774472503302493000,6.370492919921875,1.6349155902862549,0.38696157932281494,0.5938159227371216
1774472503312510700,6.3805107421875,1.6756165027618408,0.036197151988744736,0.14275288581848145
1774472503322528800,6.39052880859375,1.8626664876937866,-0.3089567720890045,-0.3212006688117981
1774472503332546800,6.400546875,1.9334427118301392,-0.6364043951034546,-0.6292218565940857
1774472503342564900,6.41056494140625,1.8234493732452393,-0.7755079865455627,-0.9660478234291077
1774472503352582700,6.420582763671875,1.7604999542236328,-0.7518268823623657,-1.1410335302352905
1774472503362600700,6.4306005859375,1.710129976272583,-0.3098963499069214,-1.0687243938446045
1774472503372618800,6.44061865234375,1.5720953941345215,0.3845362365245819,-0.8227231502532959
1774472503382636800,6.45063671875,1.3977364301681519,0.8766553401947021,-0.49498364329338074
1774472503392654800,6.46065478515625,1.242475152015686,1.2400434017181396,-0.2338593602180481
1774472503402672600,6.470672607421875,1.132332444190979,1.3145666122436523,-0.12742187082767487
1774472503412691000,6.48069091796875,0.9741470217704773,1.0669834613800049,-0.17645199596881866
1774472503422708700,6.490708740234375,0.6964113116264343,0.7531880140304565,-0.34268438816070557
1774472503432726000,6.50072607421875,0.367572158575058,0.5070935487747192,-0.4526641368865967
1774472503442743800,6.510743896484375,-0.005215534474700689,0.4033421277999878,-0.4361836910247803
1774472503452761900,6.520761962890625,-0.25507864356040955,0.32078441977500916,-0.3460626006126404
1774472503462779600,6.530779541015625,-0.35899436473846436,0.3113192617893219,-0.24866759777069092
1774472503472798000,6.5407978515625,-0.39152756333351135,0.24727849662303925,-0.2114049196243286
1774472503482815700,6.550815673828125,-0.4376058280467987,0.09850793331861496,-0.24664227664470673
1774472503492833800,6.560833740234375,-0.5261045694351196,-0.012546950951218605,-0.2620662450790405
1774472503502851800,6.570851806640625,-0.6697338819503784,-0.028981050476431847,-0.16154415905475616
1774472503512870000,6.580869873046875,-0.8213194012641907,-0.07070080190896988,-0.012321380898356438
1774472503522887700,6.5908876953125,-0.8989055156707764,-0.18062996864318848,0.09778781235218048
1774472503532905700,6.60090576171875,-0.8702225089073181,-0.2918179929256439,0.14749251306056976
1774472503542923800,6.610923828125,-0.7917455434799194,-0.32483506202697754,0.1851368248462677
1774472503552941800,6.62094189453125,-0.7143468856811523,-0.2957320511341095,0.24789048731327057
1774472503562960000,6.6309599609375,-0.6467816829681396,-0.2933330833911896,0.3274044990539551
1774472503572977700,6.640977783203125,-0.5772388577461243,-0.2926020324230194,0.37725380063056946
1774472503582996000,6.650995849609375,-0.48950204253196716,-0.34578776359558105,0.3374890983104706
1774472503593013800,6.661013671875,-0.3474471867084503,-0.529220700263977,0.14041677117347717
1774472503603031800,6.67103173828125,-0.18459807336330414,-0.7416304349899292,-0.12036209553480148
1774472503613049900,6.6810498046875,-0.0603427030146122,-0.7669342160224915,-0.33174464106559753
1774472503623068000,6.69106787109375,0.0038333539851009846,-0.6821026802062988,-0.46312132477760315
1774472503633085700,6.701085693359375,0.033121202141046524,-0.5126947164535522,-0.5226280689239502
1774472503643103700,6.711103759765625,0.04761385917663574,-0.2975078523159027,-0.5205321311950684
1774472503653121800,6.721121826171875,0.060623932629823685,0.03720435872673988,-0.3754929304122925
1774472503663139800,6.731139892578125,0.040828656405210495,0.35162779688835144,-0.05698126181960106
1774472503673157600,6.74115771484375,0.115522600710392,0.3448391556739807,0.2258853316307068
1774472503683175000,6.7511748046875,0.2668260931968689,0.23992551863193512,0.32395118474960327
1774472503693192700,6.761192626953125,0.3719474673271179,0.047747280448675156,0.2617618441581726
1774472503703210800,6.771210693359375,0.4491860568523407,-0.24411332607269287,0.05235934630036354
1774472503713228800,6.781228759765625,0.4178299903869629,-0.554410994052887,-0.3635968565940857
1774472503723246800,6.791246826171875,0.2979973256587982,-0.768688440322876,-0.7770864367485046
1774472503733264600,6.8012646484375,0.22675645351409912,-0.9675256013870239,-0.9226457476615906
1774472503743282700,6.81128271484375,0.33626988530158997,-0.9420642256736755,-0.758831799030304
1774472503753301000,6.821301025390625,0.49403101205825806,-0.7909114360809326,-0.4984462857246399
1774472503763318800,6.83131884765625,0.5896489024162292,-0.596177339553833,-0.29389846324920654
1774472503773336800,6.8413369140625,0.5527853965759277,-0.25232943892478943,-0.17264926433563232
1774472503783355400,6.85135546875,0.3517007827758789,0.06292330473661423,-0.06035948172211647
1774472503793373700,6.861373779296875,0.08184000849723816,0.3519258201122284,0.03743445873260498
1774472503803391500,6.8713916015625,-0.11672155559062958,0.40937525033950806,0.079723060131073
1774472503813409500,6.881409423828125,-0.14387807250022888,0.173832505941391,-0.018672220408916473
1774472503823427300,6.89142724609375,-0.1131846085190773,-0.20085853338241577,-0.2901788353919983
1774472503833445600,6.901445556640625,-0.1728609949350357,-0.5410030484199524,-0.6984222531318665
1774472503843463400,6.91146337890625,-0.2318689227104187,-0.7601306438446045,-1.0816857814788818
1774472503853481500,6.9214814453125,-0.23635607957839966,-0.7905524373054504,-1.1888444423675537
1774472503863499500,6.93149951171875,-0.2032655030488968,-0.4064668118953705,-0.9493053555488586
1774472503873517600,6.941517578125,-0.10102541744709015,-0.2773969769477844,-0.4506012499332428
1774472503883535400,6.951535400390625,0.015731824561953545,0.35878345370292664,0.3479859232902527
1774472503893553400,6.961553466796875,-0.08058192580938339,0.8954053521156311,0.8520927429199219
1774472503903571700,6.97157177734375,-0.0019361181184649467,0.7120435237884521,0.922900915145874
1774472503913589500,6.981589599609375,0.2911633849143982,0.33300140500068665,0.5248349905014038
1774472503923607600,6.991607666015625,0.42992767691612244,-0.3850323557853699,0.07799413055181503
1774472503933625300,7.001625244140625,0.3359018564224243,-0.5687044858932495,-0.37473154067993164
1774472503943643600,7.0116435546875,0.33755913376808167,-0.6435885429382324,-0.6492038369178772
1774472503953660400,7.021660400390625,0.385133296251297,-0.4630824327468872,-0.6586084961891174
1774472503963678700,7.0316787109375,0.38848596811294556,-0.05447549372911453,-0.44756072759628296
1774472503973696500,7.041696533203125,0.3703695237636566,0.2742057144641876,-0.23067902028560638
1774472503983714600,7.051714599609375,0.3913315534591675,0.4913769066333771,-0.1355799287557602
1774472503993732400,7.061732421875,0.4804811179637909,0.6467974185943604,-0.17827360332012177
1774472504003750700,7.071750732421875,0.5609560012817383,0.811506450176239,-0.24350027740001678
1774472504013768400,7.0817685546875,0.6783928871154785,0.9918594360351562,-0.11851412802934647
1774472504023786500,7.091786376953125,0.8009502291679382,1.064147710800171,0.1577073335647583
1774472504033804500,7.101804443359375,0.8608905076980591,1.0896075963974,0.3842374086380005
1774472504043822600,7.111822509765625,0.7875481247901917,1.1457643508911133,0.5325339436531067
1774472504053840400,7.12184033203125,0.6579307317733765,1.2188668251037598,0.5529065728187561
1774472504063858400,7.1318583984375,0.5512421131134033,1.1661287546157837,0.5102219581604004
1774472504073876700,7.141876708984375,0.5348721742630005,0.9785037040710449,0.5290734171867371
1774472504083894500,7.15189453125,0.5849491953849792,0.8956868648529053,0.6752700805664062
1774472504093912600,7.16191259765625,0.6549426913261414,0.9167450070381165,0.8815529346466064
1774472504103930400,7.171930419921875,0.7240466475486755,0.9833429455757141,1.0274749994277954
1774472504113948700,7.18194873046875,0.778328537940979,0.9949766993522644,0.9240037202835083
1774472504123966500,7.191966552734375,0.7341431975364685,1.0038809776306152,0.603645920753479
1774472504133984500,7.201984619140625,0.644062876701355,0.9609028697013855,0.1959889531135559
1774472504144002600,7.21200244140625,0.5498889684677124,0.938152551651001,-0.11668960005044937
1774472504154020600,7.2220205078125,0.45511478185653687,0.9719216823577881,-0.28694042563438416
1774472504164038400,7.232038330078125,0.3862997591495514,1.1276841163635254,-0.3932833671569824
1774472504174056400,7.242056396484375,0.326772540807724,1.2657512426376343,-0.5572975873947144
1774472504184074500,7.252074462890625,-0.027829233556985855,1.4341531991958618,-0.7455844283103943
1774472504194092500,7.262092529296875,-1.041639804840088,1.050004005432129,-0.9949012994766235
1774472504204110300,7.2721103515625,-1.7605830430984497,0.26843544840812683,-1.392297625541687
1774472504214128400,7.28212841796875,-1.5272152423858643,-0.5208455920219421,-1.6112337112426758
1774472504224146700,7.292146728515625,-0.7986196875572205,-1.646677017211914,-1.7550127506256104
1774472504234163500,7.30216357421875,-0.06758703291416168,-1.8715087175369263,-1.444368600845337
1774472504244181500,7.312181396484375,0.13703268766403198,-1.859325885772705,-0.9281715750694275
1774472504254199600,7.322199462890625,0.10759410262107849,-1.6164847612380981,-0.36892345547676086
1774472504264217600,7.332217529296875,0.13232368230819702,-1.246004343032837,0.17621071636676788
1774472504274235400,7.3422353515625,0.18721063435077667,-0.7372362017631531,0.8100864887237549
1774472504284253700,7.352253662109375,0.23463433980941772,-0.17257976531982422,1.524009346961975
1774472504294271500,7.362271484375,0.2708040773868561,-0.047331031411886215,2.11956524848938
1774472504304289500,7.37228955078125,0.299350768327713,-0.08195984363555908,2.440016746520996
1774472504314307300,7.382307373046875,0.3412798345088959,-0.34586846828460693,2.4911561012268066
1774472504324325600,7.39232568359375,0.46307843923568726,-0.6780056357383728,2.329699754714966
1774472504334343400,7.402343505859375,0.5584864616394043,-0.9831548929214478,2.008344888687134
1774472504344361500,7.412361572265625,0.5936553478240967,-1.37398099899292,1.723742961883545
1774472504354379500,7.422379638671875,0.8502863645553589,-1.8471072912216187,1.492342472076416
1774472504364397600,7.4323974609375,1.2716256380081177,-2.0860085487365723,1.1891483068466187
1774472504374415400,7.442415283203125,1.6448018550872803,-2.5058977603912354,0.7850205302238464
1774472504384433400,7.452433349609375,1.88252592086792,-2.4267706871032715,0.5315227508544922
1774472504394451700,7.46245166015625,1.8076910972595215,-1.9529646635055542,0.641825258731842
1774472504404469500,7.472469482421875,1.3951959609985352,-1.770567774772644,0.8355830311775208
1774472504414487600,7.482487548828125,1.0670892000198364,-1.7992907762527466,0.7112607955932617
1774472504424505600,7.492505615234375,0.9060137867927551,-1.7902098894119263,0.3543444871902466
1774472504434523600,7.502523681640625,0.7058804035186768,-1.7914719581604004,0.039796680212020874
1774472504444541400,7.51254150390625,0.5045201778411865,-1.7157585620880127,0.07289338111877441
1774472504454559500,7.5225595703125,0.32106590270996094,-1.721258521080017,-0.32719942927360535
1774472504464577500,7.53257763671875,0.06071341410279274,-1.814449667930603,-0.6874678730964661
1774472504474595600,7.542595703125,-0.08716659247875214,-1.652461051940918,-1.0038000345230103
1774472504484613400,7.55261328125,-0.10299429297447205,-1.5615029335021973,-1.449660062789917
1774472504494631400,7.56263134765625,0.004232561681419611,-1.5240432024002075,-1.9410595893859863
1774472504504649500,7.5726494140625,0.2100355178117752,-1.4671330451965332,-2.4390461444854736
1774472504514667500,7.58266748046875,0.43634241819381714,-1.4688172340393066,-2.8324804306030273
1774472504524685300,7.592685302734375,0.5727202296257019,-1.4053032398223877,-2.9477717876434326
1774472504534702600,7.60270263671875,0.8748878240585327,-1.1602942943572998,-2.9205594062805176
1774472504544720400,7.612720458984375,1.1165279150009155,-0.8362011313438416,-2.6607048511505127
1774472504554738400,7.622738525390625,1.1696974039077759,-0.6211569905281067,-2.2568624019622803
1774472504564756500,7.632756591796875,1.0897420644760132,-0.579663097858429,-1.7576082944869995
1774472504574774500,7.6427744140625,0.9836294651031494,-0.18423934280872345,-1.075548529624939
1774472504584792600,7.65279248046875,0.8770809173583984,0.7145615220069885,-0.30568721890449524
1774472504594810400,7.662810302734375,0.8068288564682007,1.0730408430099487,0.1848822385072708
1774472504604828700,7.67282861328125,0.7284219861030579,1.0088685750961304,0.32622283697128296
1774472504614846500,7.682846435546875,0.4782557785511017,0.8503971099853516,0.2545720934867859
1774472504624864500,7.692864501953125,0.2617168426513672,0.7594717741012573,-0.08213081955909729
1774472504634882600,7.702882568359375,0.0627848207950592,0.7251697182655334,-0.4726804494857788
1774472504644900600,7.712900634765625,-0.1925409585237503,0.4458986520767212,-0.7228775024414062
1774472504654918400,7.72291845703125,-0.41889500617980957,0.20750631392002106,-0.6729261875152588
1774472504664936400,7.7329365234375,-0.7629652619361877,0.1570844203233719,-0.5081961154937744
1774472504674954500,7.74295458984375,-1.1589975357055664,0.2589772343635559,-0.5305799841880798
1774472504684972500,7.75297265625,-1.5986682176589966,0.2513534128665924,-0.6418076753616333
1774472504694990300,7.762990234375,-1.6457618474960327,-0.36519715189933777,-0.06348682940006256
1774472504705008400,7.77300830078125,-1.5233211517333984,0.023850470781326294,0.14259310066699982
1774472504715026700,7.783026611328125,-1.241863489151001,-0.6688891053199768,0.07840213179588318
1774472504725044500,7.79304443359375,-0.9577611088752747,-2.344301223754883,-0.33687523007392883
1774472504735062500,7.8030625,-0.5428952574729919,-2.946159601211548,-0.9995424151420593
1774472504745080600,7.81308056640625,-0.28479763865470886,-2.2508957386016846,-0.37971988320350647
1774472504755098600,7.8230986328125,-0.11447065323591232,-1.960801362991333,0.1550298035144806
1774472504765116400,7.833116455078125,-0.08176650106906891,-1.9985545873641968,0.0826975405216217
1774472504775134500,7.843134521484375,-0.18248751759529114,-1.7287989854812622,-0.13264966011047363
1774472504785152000,7.853152099609375,-0.40303054451942444,-1.4913182258605957,-0.5359870195388794
1774472504795170000,7.863170166015625,-0.6103565692901611,-1.1297811269760132,-1.1150416135787964
1774472504805187800,7.873187744140625,-0.894670844078064,-1.089087724685669,-1.648270606994629
1774472504815206100,7.8832060546875,-0.9335623383522034,-1.534542441368103,-1.6571122407913208
1774472504825223000,7.893222900390625,-0.9293755888938904,-1.8003853559494019,-1.4819806814193726
1774472504835241000,7.903240966796875,-0.9551286101341248,-1.6362600326538086,-1.3966785669326782
1774472504845259000,7.913259033203125,-0.9657657742500305,-1.2701536417007446,-1.3209779262542725
1774472504855277000,7.923277099609375,-0.9513524770736694,-0.7203946709632874,-1.2105140686035156
1774472504865294800,7.933294921875,-0.8867197036743164,-0.26447373628616333,-1.062337040901184
1774472504875313200,7.943313232421875,-0.7428698539733887,0.16451065242290497,-0.8731945753097534
1774472504885331200,7.953331298828125,-0.5889412760734558,0.4234263598918915,-0.6556792855262756
1774472504895349000,7.963348876953125,-0.38613998889923096,0.4134671986103058,-0.3858446478843689
1774472504905367000,7.973366943359375,-0.16547630727291107,0.3974083364009857,-0.17869038879871368
1774472504915385000,7.983385009765625,-0.0034320156555622816,0.5371074080467224,0.0041010016575455666
1774472504925403100,7.993403076171875,0.07277460396289825,0.8333723545074463,0.14907310903072357
1774472504935421000,8.0034208984375,0.05549468472599983,1.0302563905715942,0.32810837030410767
1774472504945439000,8.01343896484375,0.023935426026582718,0.9405328631401062,0.5409631133079529
1774472504955457000,8.02345703125,-0.02623027190566063,0.9431046843528748,0.784906268119812
1774472504965475000,8.03347509765625,-0.11320219188928604,1.0184217691421509,1.0440890789031982
1774472504975492900,8.043492919921874,-0.3050003945827484,1.2371339797973633,1.3781530857086182
1774472504985511200,8.05351123046875,-0.511897087097168,1.570786476135254,1.6345481872558594
1774472504995529000,8.063529052734374,-0.6004213690757751,1.7326380014419556,1.5989006757736206
1774472505005547000,8.073547119140626,-0.6136250495910645,1.7305452823638916,1.3168460130691528
1774472505015565000,8.08356494140625,-0.611108660697937,1.7240053415298462,0.8724861741065979
1774472505025583000,8.0935830078125,-0.5896166563034058,1.8204213380813599,0.39697903394699097
1774472505035601200,8.10360107421875,-0.5628058314323425,1.7107049226760864,0.048344362527132034
1774472505045619000,8.113618896484375,-0.5048021674156189,1.454149842262268,-0.0861082524061203
1774472505055637200,8.12363720703125,-0.42681869864463806,1.2127399444580078,0.012803412973880768
1774472505065655000,8.133655029296875,-0.3177417516708374,0.8381497859954834,0.28543174266815186
1774472505075673000,8.143673095703125,-0.21438314020633698,0.3818674683570862,0.5852314829826355
1774472505085691000,8.15369091796875,-0.1574982851743698,-0.19909977912902832,0.7320079207420349
1774472505095709200,8.163709228515625,-0.049547843635082245,-0.7154664993286133,0.7622731328010559
1774472505105727000,8.17372705078125,0.13887345790863037,-1.135548710823059,0.7517906427383423
1774472505115745000,8.1837451171875,0.34196558594703674,-1.513624668121338,0.666862428188324
1774472505125762800,8.1937626953125,0.5182114839553833,-1.9915677309036255,0.5360245704650879
1774472505135780000,8.203780029296874,0.6621763706207275,-2.6076889038085938,0.5174751281738281
1774472505145798000,8.2137978515625,0.7324864864349365,-3.0952742099761963,0.5502746105194092
1774472505155816200,8.223816162109374,0.7454637885093689,-3.562530040740967,0.41909340023994446
1774472505165834000,8.233833984375,0.7690809965133667,-3.7267377376556396,0.323300302028656
1774472505175852000,8.24385205078125,0.8570041656494141,-3.4796197414398193,0.46850064396858215
1774472505185869800,8.253869873046876,1.053818702697754,-3.2739222049713135,0.891379714012146
1774472505195888000,8.26388818359375,1.3348370790481567,-2.969921350479126,1.289315104484558
1774472505205906200,8.27390625,1.5830985307693481,-2.2674148082733154,1.5867371559143066
1774472505215924000,8.283924072265625,1.8452813625335693,-1.6151502132415771,1.7059687376022339
1774472505225942000,8.29394189453125,2.4217259883880615,-0.508298933506012,1.5018292665481567
1774472505235960000,8.3039599609375,3.337538957595825,-0.26856887340545654,0.6645606756210327
1774472505245978000,8.31397802734375,3.9464848041534424,-0.11225996166467667,-0.41623449325561523
1774472505255996000,8.323995849609375,3.990006446838379,-0.15725886821746826,-1.3287099599838257
1774472505266014200,8.33401416015625,3.5101840496063232,-0.6202046871185303,-1.9294154644012451
1774472505276032000,8.344031982421875,2.700140953063965,-1.4312890768051147,-2.174724817276001
1774472505286050000,8.354050048828125,1.8465520143508911,-2.1371407508850098,-2.0626912117004395
1774472505296067800,8.36406787109375,1.1002814769744873,-2.2164344787597656,-1.685040831565857
1774472505306086100,8.374086181640624,0.8820493221282959,-1.890775442123413,-1.2241486310958862
1774472505316104000,8.38410400390625,1.0783042907714844,-1.1353620290756226,-0.6687559485435486
1774472505326122000,8.3941220703125,1.2390636205673218,-0.8007643222808838,-0.2540533244609833
1774472505336140000,8.40414013671875,1.2301580905914307,-0.6874052882194519,-0.13650324940681458
1774472505346158000,8.414157958984376,1.2290773391723633,-0.49924495816230774,-0.3210126459598541
1774472505356176100,8.424176025390626,1.2375898361206055,-0.12240634113550186,-0.6156210899353027
1774472505366194000,8.43419384765625,1.1631180047988892,0.016145680099725723,-0.8831042051315308
1774472505376212200,8.444212158203126,1.0184977054595947,-0.18064939975738525,-0.9774125814437866
1774472505386230000,8.45422998046875,0.893093466758728,-0.4687800109386444,-0.7701936364173889
1774472505396248000,8.464248046875,0.7356308698654175,-0.9048643708229065,-0.4312957525253296
1774472505406265900,8.474265869140625,0.5389904975891113,-1.238817811012268,-0.2115279585123062
1774472505416284200,8.4842841796875,0.3531615138053894,-1.193752408027649,-0.21074286103248596
1774472505426302000,8.494302001953125,0.2516261041164398,-1.0402642488479614,-0.30179980397224426
1774472505436320000,8.504320068359375,0.27457189559936523,-0.9834491610527039,-0.3092779517173767
1774472505446338000,8.514338134765625,0.371008962392807,-1.0543153285980225,-0.22941987216472626
1774472505456355000,8.52435498046875,0.5326346158981323,-1.2823879718780518,-0.11418622732162476
1774472505466372900,8.534372802734374,0.7643551826477051,-1.489871621131897,-0.00968538410961628
1774472505476391200,8.54439111328125,0.9599406719207764,-1.7063056230545044,0.1605023294687271
1774472505486409000,8.554408935546874,1.080938696861267,-1.8679965734481812,0.43588677048683167
1774472505496427000,8.564427001953124,1.128688097000122,-1.945119023323059,0.6292921900749207
1774472505506445000,8.574445068359376,1.072059988975525,-2.016416311264038,0.8505294919013977
1774472505516463000,8.584463134765626,0.8788447380065918,-1.8623546361923218,1.660813808441162
1774472505526481200,8.594481201171876,0.8489848375320435,-1.3183965682983398,2.0747735500335693
1774472505536499000,8.6044990234375,0.9655032157897949,-1.289405345916748,1.9490021467208862
1774472505546517200,8.614517333984375,0.8014605045318604,-0.9861571192741394,1.4295138120651245
1774472505556535000,8.62453515625,0.34724822640419006,-0.6525359749794006,0.6222640872001648
1774472505566553000,8.634552978515625,-0.2804796099662781,-0.6281965374946594,-0.49612000584602356
1774472505576571000,8.64457080078125,-0.8181720972061157,-1.37650728225708,-0.471509724855423
1774472505586589200,8.654589111328125,-1.11464524269104,-1.5342705249786377,-0.21551604568958282
1774472505596607000,8.66460693359375,-1.0717921257019043,-1.3299914598464966,-0.09480800479650497
1774472505606625000,8.674625,-0.8618510961532593,-0.8989881277084351,-0.0466439351439476
1774472505616643000,8.68464306640625,-0.7135189175605774,-0.5071276426315308,0.006976949516683817
1774472505626661000,8.6946611328125,-0.6679610013961792,-0.4550553858280182,0.031973112374544144
1774472505636679000,8.704678955078125,-0.7043491005897522,-0.6049919128417969,0.07830652594566345
1774472505646697000,8.714697021484374,-0.7708855271339417,-0.7803661227226257,0.15832918882369995
1774472505656715300,8.72471533203125,-0.7938563823699951,-0.9021229147911072,0.22348634898662567
1774472505666733000,8.734733154296874,-0.842369019985199,-0.9838438630104065,0.2718016803264618
1774472505676751000,8.744751220703124,-0.8952133655548096,-1.0667020082473755,0.3342975676059723
1774472505686769000,8.754768798828126,-1.0045185089111328,-1.1773654222488403,0.35532960295677185
1774472505696787200,8.764787109375,-1.223333716392517,-1.188301920890808,0.356772243976593
1774472505706805000,8.774804931640626,-1.4401581287384033,-1.0936331748962402,0.3338133990764618
1774472505716823000,8.784822998046875,-1.517880916595459,-1.0512828826904297,0.3261552155017853
1774472505726841000,8.794841064453125,-1.5646705627441406,-1.2023320198059082,0.3541676700115204
1774472505736858000,8.804858154296875,-1.6051732301712036,-1.430768609046936,0.4195610582828522
1774472505746876000,8.8148759765625,-1.598491907119751,-1.5789066553115845,0.49767476320266724
1774472505756894200,8.824894287109375,-1.545090913772583,-1.637587308883667,0.4977400004863739
1774472505766912000,8.834912109375,-1.375469446182251,-1.7365261316299438,0.2819259464740753
1774472505776930000,8.844929931640625,-1.1181864738464355,-1.717535376548767,0.03165140375494957
1774472505786948400,8.8549482421875,-0.9302592277526855,-1.87166428565979,0.20070300996303558
1774472505796966700,8.864966552734375,-0.7019370794296265,-2.2070915699005127,0.40258553624153137
1774472505806984400,8.874984375,-0.3592314124107361,-2.5333378314971924,0.5464122295379639
1774472505817002500,8.88500244140625,0.07368860393762589,-2.780416488647461,0.7748270034790039
1774472505827020500,8.8950205078125,0.4767244756221771,-3.054588556289673,0.8959795236587524
1774472505837038600,8.90503857421875,0.9670065641403198,-2.8964104652404785,0.8271951675415039
1774472505847056600,8.915056640625,1.488132357597351,-2.522019386291504,0.764889657497406
1774472505857074400,8.925074462890626,1.8972787857055664,-2.2221672534942627,0.7149223685264587
1774472505867092700,8.9350927734375,2.086832284927368,-1.903209924697876,0.6655558943748474
1774472505877110500,8.945110595703126,1.972853183746338,-1.615525722503662,0.6320770382881165
1774472505887128600,8.955128662109376,1.6874380111694336,-1.4249334335327148,0.538712203502655
1774472505897146400,8.965146484375,1.3029673099517822,-1.2340776920318604,0.371754914522171
1774472505907164700,8.97516455078125,0.8533090353012085,-0.8626961708068848,0.20796091854572296
1774472505917182500,8.985182373046875,0.3969326913356781,-0.17832446098327637,0.14363253116607666
1774472505927200500,8.995200439453125,-0.03459739312529564,0.6272716522216797,0.2455144226551056
1774472505937218300,9.00521826171875,-0.3285147547721863,1.4068139791488647,0.40844395756721497
1774472505947236600,9.015236572265625,-0.6124982833862305,2.310094118118286,0.4631916284561157
1774472505957254700,9.025254638671875,-0.9426040053367615,3.086275815963745,0.3710305392742157
1774472505967272400,9.0352724609375,-1.1834049224853516,3.5388267040252686,0.26593154668807983
1774472505977290800,9.045290771484375,-1.3636444807052612,3.6576309204101562,0.1835583746433258
1774472505987308500,9.05530859375,-1.5806750059127808,3.552158832550049,0.14786189794540405
1774472505997326600,9.06532666015625,-1.7497076988220215,3.3083696365356445,0.17398270964622498
1774472506007344400,9.075344482421874,-1.7299857139587402,2.9040706157684326,0.18667800724506378
1774472506017362700,9.08536279296875,-1.7794400453567505,2.5458505153656006,0.24590323865413666
1774472506027379500,9.09537939453125,-1.9215420484542847,2.2835402488708496,0.27813521027565
1774472506037397500,9.1053974609375,-1.982948660850525,2.157806873321533,0.17045748233795166
1774472506047415600,9.11541552734375,-1.9789621829986572,2.0244381427764893,0.13926148414611816
1774472506057433600,9.12543359375,-1.9846768379211426,1.882652997970581,0.1533709168434143
1774472506067451400,9.135451416015625,-2.027026891708374,1.69675874710083,0.046716637909412384
1774472506077469700,9.1454697265625,-1.973657488822937,1.0655666589736938,-0.22169111669063568
1774472506087487500,9.155487548828125,-1.8477842807769775,0.7535132169723511,-0.20165614783763885
1774472506097505500,9.165505615234375,-1.6631674766540527,0.40354853868484497,-0.1573994755744934
1774472506107523300,9.1755234375,-1.528794527053833,0.0492359884083271,-0.2079010009765625
1774472506117541600,9.185541748046875,-1.4299215078353882,-0.24270318448543549,-0.4456597566604614
1774472506127559700,9.1955595703125,-1.3543294668197632,-0.4017711281776428,-0.5814852118492126
1774472506137577500,9.205577392578125,-1.267519474029541,-0.6489052772521973,-0.499074250459671
1774472506147595500,9.215595458984374,-1.183830976486206,-0.7990140914916992,-0.3668006360530853
1774472506157613600,9.225613525390624,-1.0452622175216675,-0.7121673822402954,-0.2639951705932617
1774472506167631600,9.235631591796874,-0.836605966091156,-0.5638253092765808,-0.04012904316186905
1774472506177649400,9.2456494140625,-0.6411882638931274,-0.4991035461425781,0.03147643432021141
1774472506187667700,9.255667724609374,-0.34742987155914307,-0.3635252118110657,0.05384432151913643
1774472506197685500,9.265685546875,-0.10068772733211517,-0.1275307983160019,0.10740528255701065
1774472506207703600,9.27570361328125,0.03073927015066147,0.15766499936580658,0.0454082265496254
1774472506217721300,9.285721435546876,0.14008067548274994,0.38430720567703247,-0.08475323766469955
1774472506227739600,9.29573974609375,0.256241112947464,0.48889511823654175,-0.21771128475666046
1774472506237757400,9.30575732421875,0.34277012944221497,0.6473345756530762,-0.21886682510375977
1774472506247775500,9.315775390625,0.3711610436439514,0.8217177987098694,-0.09231608361005783
1774472506257793500,9.32579345703125,0.39407408237457275,0.9248114228248596,0.02196628600358963
1774472506267811600,9.3358115234375,0.48553794622421265,0.9965993762016296,0.10859252512454987
1774472506277829600,9.34582958984375,0.590708315372467,1.0212678909301758,0.2113037258386612
1774472506287847400,9.355847412109375,0.667009711265564,1.0757964849472046,0.2816165089607239
1774472506297865700,9.36586572265625,0.7755010724067688,1.2253819704055786,0.38708779215812683
1774472506307882500,9.375882568359375,0.8349944949150085,1.2907832860946655,0.38677355647087097
1774472506317900500,9.385900634765624,0.8412861824035645,1.332428216934204,0.44688695669174194
1774472506327918600,9.395918701171874,0.898849368095398,1.1267781257629395,0.4741087257862091
1774472506337936600,9.4059365234375,0.9038867354393005,0.8644120097160339,0.5634660124778748
1774472506347954400,9.415954345703126,0.8011387586593628,0.6811844110488892,0.7873377203941345
1774472506357972700,9.42597265625,0.5796779990196228,0.5064496397972107,0.9106346368789673
1774472506367990500,9.435990478515626,0.39795324206352234,0.5351792573928833,1.0167427062988281
1774472506378008600,9.446008544921876,0.2117181122303009,0.4719550311565399,0.8603917360305786
1774472506388026400,9.4560263671875,0.02659565769135952,0.9407989382743835,0.6548500061035156
1774472506398044700,9.466044677734375,-0.13011272251605988,1.4475287199020386,0.4848654866218567
1774472506408062500,9.4760625,-0.07272294163703918,1.7774509191513062,0.5222850441932678
1774472506418080500,9.48608056640625,0.12637045979499817,1.7669727802276611,0.6921603679656982
1774472506428098600,9.4960986328125,0.2816886603832245,1.6057215929031372,0.9169458150863647
1774472506438116600,9.50611669921875,0.36787575483322144,1.574655532836914,1.1660113334655762
1774472506448134700,9.516134765625,0.5944750905036926,1.3923962116241455,1.409021258354187
1774472506458152400,9.52615234375,0.7973421812057495,1.3557212352752686,1.4335055351257324
1774472506468170800,9.536170654296875,0.7517136931419373,1.4609462022781372,1.2934826612472534
1774472506478188500,9.5461884765625,0.5106377005577087,1.5705435276031494,1.1066374778747559
1774472506488206600,9.55620654296875,0.19135157763957977,1.7020411491394043,0.880552351474762
1774472506498224400,9.566224365234374,-0.14319124817848206,1.798807144165039,0.7046425938606262
1774472506508242700,9.57624267578125,-0.534601628780365,1.9519513845443726,0.647718608379364
1774472506518260500,9.586260498046874,-0.8920833468437195,1.9555141925811768,0.6579768061637878
1774472506528278500,9.596278564453126,-1.1750577688217163,1.9274483919143677,0.667818009853363
1774472506538296600,9.606296630859376,-1.4185420274734497,2.1294567584991455,0.7730509638786316
1774472506548314600,9.616314697265626,-1.5656193494796753,2.0964677333831787,0.8938287496566772
1774472506558332400,9.62633251953125,-1.6628764867782593,2.0536017417907715,1.0182572603225708
1774472506568350500,9.6363505859375,-1.7688697576522827,2.0089704990386963,1.0711201429367065
1774472506578368500,9.646368408203125,-1.9121354818344116,2.0388805866241455,1.1017435789108276
1774472506588386600,9.656386474609375,-2.0964810848236084,2.3220677375793457,1.1876031160354614
1774472506598403300,9.6664033203125,-2.2767302989959717,2.7514801025390625,1.222662091255188
1774472506608421600,9.676421630859375,-2.3118255138397217,2.528951644897461,1.0789192914962769
1774472506618439400,9.686439453125,-2.0930590629577637,1.9843937158584595,0.9309148788452148
1774472506628457500,9.69645751953125,-1.7845706939697266,1.826607584953308,0.5787141919136047
1774472506638475800,9.706475830078125,-1.5648726224899292,1.5637900829315186,-0.0028415927663445473
1774472506648493600,9.71649365234375,-1.3985451459884644,1.090867042541504,-0.56315016746521
1774472506658511600,9.72651171875,-1.2010481357574463,0.44557347893714905,-0.9630597829818726
1774472506668529400,9.736529296875,-1.0088776350021362,-0.22836312651634216,-1.0949783325195312
1774472506678547700,9.746547607421874,-0.8065569996833801,-0.679928719997406,-1.0379416942596436
1774472506688565500,9.7565654296875,-0.6444519758224487,-0.8384597897529602,-0.9250087738037109
1774472506698583600,9.76658349609375,-0.5804173350334167,-0.8886803388595581,-0.7075079083442688
1774472506708601600,9.7766015625,-0.6452213525772095,-0.8395958542823792,-0.44960764050483704
1774472506718619600,9.78661962890625,-0.7362463474273682,-0.935465395450592,-0.17072327435016632
1774472506728637400,9.796637451171875,-0.747093141078949,-1.114576816558838,0.11254838109016418
1774472506738655500,9.806655517578125,-0.6785361766815186,-1.1903607845306396,0.2585069239139557
1774472506748673500,9.816673583984375,-0.6307739615440369,-1.2698420286178589,0.2620667815208435
1774472506758691600,9.826691650390625,-0.6913949847221375,-1.3948860168457031,0.04091813787817955
1774472506768709600,9.836709716796875,-0.8750705122947693,-1.5912216901779175,-0.264386385679245
1774472506778727400,9.8467275390625,-1.169548511505127,-1.9752521514892578,-0.4230135679244995
1774472506788744700,9.85674462890625,-1.4173449277877808,-2.1079835891723633,-0.29296502470970154
1774472506798762500,9.866762451171875,-1.4297281503677368,-2.2150115966796875,0.07533949613571167
1774472506808780500,9.876780517578124,-1.1862523555755615,-2.1670050621032715,0.5298505425453186
1774472506818798600,9.886798583984374,-0.844691812992096,-1.9874827861785889,0.8977598547935486
1774472506828816600,9.896816650390624,-0.595790684223175,-1.7865514755249023,1.06786048412323
1774472506838834400,9.90683447265625,-0.45025211572647095,-1.63966965675354,1.004573106765747
1774472506848852700,9.916852783203124,-0.3936479687690735,-1.4942232370376587,0.7240200042724609
1774472506858870800,9.926870849609376,-0.44086846709251404,-1.309496283531189,0.4044787585735321
1774472506868888600,9.936888671875,-0.5340170860290527,-1.0065717697143555,0.1564418077468872
1774472506878905600,9.946905517578125,-0.6232185959815979,-0.4915577471256256,-0.08005116134881973
1774472506888923600,9.956923583984375,-0.7295950651168823,0.024658741429448128,-0.2819347381591797
1774472506898941400,9.96694140625,-0.8978027105331421,0.3819601535797119,-0.4695983827114105
1774472506908959700,9.976959716796875,-1.0883729457855225,0.4964537024497986,-0.608723521232605
1774472506918977800,9.986977783203125,-1.1926356554031372,0.5385995507240295,-0.6322365403175354
1774472506928995600,9.99699560546875,-1.2392737865447998,0.6321191191673279,-0.5753868818283081
1774472506939013600,10.007013671875,-1.2624051570892334,0.6349955797195435,-0.49400225281715393
1774472506949031700,10.01703173828125,-1.2389954328536987,0.6348161101341248,-0.34506097435951233
1774472506959049700,10.0270498046875,-1.1548746824264526,0.4252474308013916,-0.17614147067070007
1774472506969067500,10.037067626953124,-1.0079516172409058,0.12888021767139435,-0.017258616164326668
1774472506979085600,10.04708544921875,-0.8128249645233154,-0.11062557995319366,0.16167758405208588
1774472506989103600,10.057103515625,-0.5591999292373657,-0.33835941553115845,0.3462548851966858
1774472506999121700,10.06712158203125,-0.26294082403182983,-0.5352189540863037,0.4706804156303406
1774472507009139500,10.077139404296876,0.0977523922920227,-0.6407272815704346,0.4717249274253845
1774472507019157800,10.08715771484375,0.4576690196990967,-0.6619893908500671,0.29904183745384216
1774472507029175600,10.097175537109376,0.7278293967247009,-0.7991304993629456,-0.009437710046768188
1774472507039193600,10.107193603515626,0.8346804976463318,-1.0581390857696533,-0.3222462236881256
1774472507049211600,10.117211669921875,0.7890043258666992,-1.3571325540542603,-0.5127354860305786
1774472507059229700,10.127229736328125,0.6384201645851135,-1.6410406827926636,-0.47668319940567017
1774472507069247700,10.137247802734375,0.4599745273590088,-1.7056512832641602,-0.23993350565433502
1774472507079265500,10.147265625,0.25466158986091614,-1.5675197839736938,-0.0049489522352814674
1774472507089283600,10.15728369140625,0.06425781548023224,-1.4706069231033325,0.12547244131565094
1774472507099301600,10.167301513671875,-0.04626097157597542,-1.3778427839279175,0.213149294257164
1774472507109319700,10.177319580078125,-0.06344635039567947,-1.3357950448989868,0.27909794449806213
1774472507119337500,10.18733740234375,0.02058463729918003,-1.3879708051681519,0.31445780396461487
1774472507129355800,10.197355712890625,0.17265565693378448,-1.5352282524108887,0.2866719663143158
1774472507139373600,10.20737353515625,0.30696341395378113,-1.665815830230713,0.2480630725622177
1774472507149391600,10.2173916015625,0.35721084475517273,-1.7995096445083618,0.2179272621870041
1774472507159409400,10.227409423828124,0.2818085253238678,-1.9484565258026123,0.20364446938037872
1774472507169427700,10.237427734375,0.11858736723661423,-1.9520044326782227,0.23690548539161682
1774472507179444500,10.247444580078126,-0.07467450201511383,-1.7987929582595825,0.27809980511665344
1774472507189462800,10.257462890625,-0.26250407099723816,-1.6812293529510498,0.2486332505941391
1774472507199480600,10.26748046875,-0.3817814588546753,-1.5298627614974976,0.20233845710754395
1774472507209498600,10.27749853515625,-0.4576623737812042,-1.462141752243042,0.19765742123126984
1774472507219516400,10.287516357421875,-0.5206410884857178,-1.356124997138977,0.20971567928791046
1774472507229534700,10.29753466796875,-0.5468308329582214,-1.1498475074768066,0.20134243369102478
1774472507239552800,10.307552734375,-0.5177792310714722,-0.9195815324783325,0.1734761744737625
1774472507249570600,10.317570556640625,-0.47972479462623596,-0.7569888830184937,0.10403984785079956
1774472507259588600,10.327588623046875,-0.4709446132183075,-0.6456429362297058,0.01962137222290039
1774472507269606700,10.337606689453125,-0.4927076995372772,-0.6099738478660583,-0.036376383155584335
1774472507279624700,10.347624755859375,-0.5177507400512695,-0.47471192479133606,-0.049009621143341064
1774472507289642500,10.357642578125,-0.528621256351471,-0.2757633924484253,-0.06991890072822571
1774472507299660800,10.367660888671875,-0.5278201699256897,-0.1602775603532791,-0.1446879357099533
1774472507309678600,10.3776787109375,-0.5336945652961731,-0.12714916467666626,-0.27299371361732483
1774472507319696600,10.387696533203124,-0.5367923378944397,-0.1469510942697525,-0.4167141318321228
1774472507329714400,10.39771435546875,-0.5400475263595581,-0.1740381121635437,-0.5416262149810791
1774472507339732700,10.407732666015624,-0.550144374370575,-0.2563313841819763,-0.6359109282493591
1774472507349750500,10.41775048828125,-0.5403279662132263,-0.2986873686313629,-0.6625321507453918
1774472507359768600,10.4277685546875,-0.49437084794044495,-0.1892458200454712,-0.6393600106239319
1774472507369786600,10.43778662109375,-0.4742109775543213,-0.07868842035531998,-0.6074097752571106
1774472507379804700,10.4478046875,-0.4632757902145386,-0.008539692498743534,-0.581521213054657
1774472507389822700,10.45782275390625,-0.4023756682872772,0.08003837615251541,-0.5514586567878723
1774472507399840500,10.467840576171875,-0.3203599154949188,0.10015882551670074,-0.5334839224815369
1774472507409858800,10.47785888671875,-0.2580629587173462,0.05625128746032715,-0.5586004257202148
1774472507419876600,10.487876708984375,-0.21975712478160858,-0.0345931313931942,-0.6056763529777527
1774472507429894700,10.497894775390625,-0.19951337575912476,-0.13185150921344757,-0.6473872661590576
1774472507439912400,10.507912353515625,-0.194844052195549,-0.17409296333789825,-0.6762610077857971
1774472507449930800,10.5179306640625,-0.20740830898284912,-0.22925369441509247,-0.7316475510597229
1774472507459948500,10.527948486328125,-0.21960079669952393,-0.28426608443260193,-0.8254110813140869
1774472507469965800,10.5379658203125,-0.2293120175600052,-0.2821621894836426,-0.9422823190689087
1774472507479983600,10.547983642578124,-0.2449176013469696,-0.2808487117290497,-1.130490779876709
1774472507490001700,10.558001708984374,-0.27465394139289856,-0.4189716875553131,-1.4069530963897705
1774472507500019500,10.56801953125,-0.30233830213546753,-0.5788588523864746,-1.70633864402771
1774472507510037800,10.578037841796874,-0.2771357297897339,-0.61986243724823,-1.9429876804351807
1774472507520055600,10.5880556640625,-0.21375222504138947,-0.6305092573165894,-2.0107555389404297
1774472507530073600,10.598073486328126,-0.08374762535095215,-0.6822789907455444,-2.0825915336608887
1774472507540091400,10.60809130859375,-0.03652578592300415,-0.23285801708698273,-1.7765531539916992
1774472507550109700,10.618109619140625,-0.4733119010925293,2.000072956085205,-0.1376606673002243
1774472507560127700,10.628127685546875,-0.23654675483703613,0.9099174737930298,-0.11771571636199951
1774472507570145500,10.6381455078125,0.08496469259262085,0.7811072468757629,-0.12360076606273651
1774472507580163800,10.648163818359375,0.4322321116924286,0.7928022742271423,-0.20408202707767487
1774472507590181600,10.658181640625,0.8041484355926514,0.5792801380157471,-0.27834346890449524
1774472507600199700,10.66819970703125,0.995983362197876,0.3866923153400421,-0.17136749625205994
1774472507610217500,10.678217529296875,0.9721502065658569,0.37713396549224854,-0.0990445613861084
1774472507620235800,10.68823583984375,0.91013503074646,0.22232522070407867,-0.11901161074638367
1774472507630253600,10.698253662109375,0.8602250218391418,-0.07110133767127991,-0.17393717169761658
1774472507640271600,10.708271728515625,0.5298020839691162,-0.3000791370868683,-0.31482985615730286
1774472507650289400,10.718289306640624,0.19136010110378265,-0.32067522406578064,-0.3782506287097931
1774472507660307700,10.7283076171875,-0.1393056958913803,-0.23477309942245483,-0.4644201397895813
1774472507670325500,10.738325439453124,-0.3703197240829468,0.1352427750825882,-0.5476276874542236
1774472507680343600,10.748343505859374,-0.5015107989311218,0.5636894702911377,-0.5855300426483154
1774472507690361900,10.75836181640625,-0.5551822781562805,0.9326723217964172,-0.5857971906661987
1774472507700379600,10.768379638671876,-0.5576866865158081,1.1590503454208374,-0.5339792370796204
1774472507710397700,10.778397705078126,-0.5575436949729919,1.3296643495559692,-0.4435412287712097
1774472507720415500,10.78841552734375,-0.5438054800033569,1.4727901220321655,-0.3093101680278778
1774472507730433800,10.798433837890625,-0.5051582455635071,1.4853259325027466,-0.19498759508132935
1774472507740451600,10.80845166015625,-0.44157180190086365,1.4371663331985474,-0.13660605251789093
1774472507750469600,10.8184697265625,-0.39216458797454834,1.5529824495315552,-0.05452928692102432
1774472507760487700,10.82848779296875,-0.44896262884140015,1.9477661848068237,-0.021880798041820526
1774472507770504700,10.838504638671875,-0.4519493579864502,1.5519973039627075,0.0888555720448494
1774472507780522500,10.8485224609375,-0.3042784035205841,1.456233024597168,0.19726327061653137
1774472507790541300,10.858541259765625,-0.14047110080718994,1.4394694566726685,0.2983190417289734
1774472507800559600,10.8685595703125,-0.06828611344099045,1.4028233289718628,0.43877336382865906
1774472507810577400,10.878577392578125,-0.04075169190764427,1.4651799201965332,0.54304438829422
1774472507820595500,10.888595458984375,-0.1110125407576561,1.5178031921386719,0.6873027682304382
1774472507830613200,10.89861328125,-0.33917805552482605,1.6281501054763794,0.7588618993759155
1774472507840631600,10.908631591796874,-0.6188272833824158,1.9606324434280396,0.7376711368560791
1774472507850649300,10.9186494140625,-0.8400326371192932,2.15057110786438,0.7488457560539246
1774472507860667400,10.92866748046875,-0.9196742177009583,2.152333974838257,0.7746118307113647
1774472507870685400,10.938685546875,-0.8572190999984741,2.2278597354888916,0.7992569804191589
1774472507880703500,10.948703369140626,-0.6849860548973083,2.1567649841308594,0.870384693145752
1774472507890721300,10.95872119140625,-0.39658117294311523,1.889151930809021,0.9234215617179871
1774472507900739300,10.9687392578125,-0.10901276767253876,1.609952449798584,0.9795026779174805
1774472507910757400,10.97875732421875,0.17378564178943634,1.2499173879623413,0.9959234595298767
1774472507920775400,10.988775390625,0.38516366481781006,0.8431227207183838,0.9972177147865295
1774472507930793500,10.99879345703125,0.44724753499031067,0.5682426691055298,0.9966850876808167
1774472507940811500,11.0088115234375,0.36058908700942993,0.40520262718200684,0.9964712262153625
1774472507950829600,11.01882958984375,0.12704795598983765,0.5892601013183594,1.0359065532684326
1774472507960847400,11.028847412109375,-0.14600114524364471,0.5441530346870422,1.128372073173523
1774472507970865400,11.038865478515625,-0.3822280764579773,0.5559527277946472,1.131609320640564
1774472507980883500,11.048883544921875,-0.5334668755531311,0.8334812521934509,1.112857460975647
1774472507990901500,11.058901611328125,-0.6584503054618835,0.7210436463356018,1.1681969165802002
1774472508000919300,11.068919189453124,-0.7484715580940247,0.6800544261932373,1.2128536701202393
1774472508010937300,11.078937255859374,-0.7814223170280457,0.5869638919830322,1.2117244005203247
1774472508020955400,11.088955322265624,-0.7498939633369446,0.6969791054725647,1.184486985206604
1774472508030973400,11.098973388671874,-0.6881579160690308,0.6198784112930298,1.0374802350997925
1774472508040991200,11.1089912109375,-0.6370787024497986,0.5795794725418091,0.7647453546524048
1774472508051009500,11.119009521484376,-0.6472679972648621,0.5454047322273254,0.4629034698009491
1774472508061027600,11.129027587890626,-0.669772744178772,0.3672480583190918,0.10758371651172638
1774472508071044400,11.13904443359375,-0.6810888051986694,0.22745685279369354,-0.16930539906024933
1774472508081062400,11.1490625,-0.6921992301940918,0.1524510532617569,-0.28076401352882385
1774472508091080400,11.15908056640625,-0.7167764902114868,0.1727864295244217,-0.26967915892601013
1774472508101098500,11.169098388671875,-0.7561622262001038,0.24130183458328247,-0.18901625275611877
1774472508111116300,11.1791162109375,-0.8074818849563599,0.34700828790664673,-0.11277634650468826
1774472508121134600,11.189134521484375,-0.8435837030410767,0.43819040060043335,-0.0558004155755043
1774472508131152400,11.19915234375,-0.8780098557472229,0.5235202312469482,-0.01653982885181904
1774472508141170400,11.20917041015625,-0.9135121703147888,0.6138796806335449,0.042574092745780945
1774472508151188500,11.2191884765625,-0.9467852115631104,0.7284640073776245,0.12068939954042435
1774472508161206500,11.22920654296875,-0.9617292284965515,0.8511654734611511,0.20228280127048492
1774472508171224300,11.239224365234374,-0.9456453323364258,0.9510398507118225,0.2496977150440216
1774472508181242400,11.249242431640624,-0.8946101069450378,1.0496209859848022,0.2621709108352661
1774472508191260400,11.259260498046874,-0.8263083100318909,1.1757237911224365,0.2848770022392273
1774472508201278500,11.269278564453124,-0.748508870601654,1.3018718957901,0.3207351267337799
1774472508211296300,11.279296142578126,-0.6576455235481262,1.3832423686981201,0.3743498921394348
1774472508221314300,11.289314208984376,-0.5384906530380249,1.4129337072372437,0.44009190797805786
1774472508231332400,11.299332275390626,-0.4034894108772278,1.4084113836288452,0.5128457546234131
1774472508241350400,11.309350341796875,-0.2574664354324341,1.3435554504394531,0.565675675868988
1774472508251368400,11.319368408203125,-0.10416767746210098,1.2937822341918945,0.5927535891532898
1774472508261386500,11.329386474609375,0.017618674784898758,1.2328435182571411,0.6253248453140259
1774472508271404500,11.339404541015625,0.11246263235807419,1.2314515113830566,0.6727035641670227
1774472508281422300,11.34942236328125,0.18765325844287872,1.185396671295166,0.7241103053092957
1774472508291440400,11.3594404296875,0.264499306678772,1.103040337562561,0.7730136513710022
1774472508301458400,11.36945849609375,0.3312535583972931,0.9913886189460754,0.8189521431922913
1774472508311476500,11.3794765625,0.3470948338508606,0.9844231009483337,0.9059211015701294
1774472508321494300,11.389494384765625,0.307458758354187,1.0512689352035522,1.0058187246322632
1774472508331512600,11.3995126953125,0.25404053926467896,1.1058800220489502,1.0741082429885864
1774472508341530400,11.4095302734375,0.22555962204933167,1.0522202253341675,1.06952702999115
1774472508351548400,11.41954833984375,0.24342596530914307,0.9376193881034851,1.0027318000793457
1774472508361566200,11.429566162109374,0.29373788833618164,0.8703047633171082,0.901384174823761
1774472508371584500,11.43958447265625,0.3920607268810272,0.7991573810577393,0.7845456600189209
1774472508381602600,11.4496025390625,0.5451967120170593,0.6175806522369385,0.6553064584732056
1774472508391620400,11.459620361328126,0.7354915738105774,0.35634851455688477,0.5431221127510071
1774472508405394400,11.47339453125,0.9992294907569885,0.00965555664151907,0.4676971435546875
1774472508415411500,11.483411376953125,1.1992629766464233,-0.2375510334968567,0.4271009862422943
1774472508425429200,11.49342919921875,1.4062901735305786,-0.49466726183891296,0.3760990500450134
1774472508435447600,11.503447509765625,1.1470428705215454,-0.7440767884254456,0.3413466811180115
1774472508445465300,11.51346533203125,-1.9208842515945435,-0.17830342054367065,0.02924257330596447
1774472508455483400,11.5234833984375,-1.5658001899719238,-0.47437503933906555,-0.26526308059692383
1774472508465501200,11.533501220703124,-0.9808944463729858,-0.7236602306365967,0.09971567243337631
1774472508475519500,11.54351953125,-0.5017507076263428,-0.6694856882095337,0.34893402457237244
1774472508485537500,11.55353759765625,-0.4469711184501648,-0.7269796133041382,0.10882475227117538
1774472508495555300,11.563555419921874,-0.15439888834953308,-0.7289077043533325,-0.07960721105337143
1774472508505573600,11.57357373046875,0.5143280625343323,-0.8318175673484802,0.1252545863389969
1774472508515591400,11.58359130859375,1.3808990716934204,-1.1558020114898682,0.32436370849609375
1774472508525609500,11.593609375,1.9246878623962402,-1.5393809080123901,0.27441903948783875
1774472508535627300,11.603627197265626,1.3741083145141602,-1.5948818922042847,0.04565377160906792
1774472508545645600,11.6136455078125,1.0814396142959595,-1.7001670598983765,-0.2977914810180664
1774472508555663400,11.623663330078125,1.1392015218734741,-1.7255885601043701,-0.27084267139434814
1774472508565681400,11.633681396484375,1.3959180116653442,-1.707944631576538,-0.1220042034983635
1774472508575699500,11.643699462890625,1.6112440824508667,-1.5968025922775269,-0.03423706442117691
1774472508585717500,11.653717529296875,1.649515151977539,-1.5405193567276,-0.05590774118900299
1774472508595735300,11.6637353515625,1.5448648929595947,-1.4036355018615723,-0.14136111736297607
1774472508605753300,11.67375341796875,1.402949571609497,-1.2308310270309448,-0.20237042009830475
1774472508615771600,11.683771728515625,1.3346927165985107,-1.0933490991592407,-0.2552775740623474
1774472508625789400,11.69378955078125,1.2459967136383057,-0.945020854473114,-0.2643895745277405
1774472508635807500,11.703807373046875,1.09572434425354,-0.7641024589538574,-0.2064458429813385
1774472508645825300,11.7138251953125,0.9245209097862244,-0.5334718823432922,-0.17721179127693176
1774472508655843600,11.723843505859374,0.7475817799568176,-0.2259223461151123,-0.31306391954421997
1774472508665861400,11.733861328125,0.5338631272315979,-0.061293184757232666,-0.49771738052368164
1774472508675879400,11.74387939453125,0.27149781584739685,0.011516573838889599,-0.6046701669692993
1774472508685897500,11.7538974609375,-0.03557317331433296,0.0965166836977005,-0.6496491432189941
1774472508695915500,11.76391552734375,-0.23778939247131348,0.17392972111701965,-0.6232233643531799
1774472508705933300,11.773933349609376,-0.35485902428627014,0.2512892186641693,-0.543796181678772
1774472508715951400,11.783951416015626,-0.4266517162322998,0.32949694991111755,-0.4570232033729553
1774472508725969400,11.793969482421875,-0.5136955380439758,0.4751121997833252,-0.37880563735961914
1774472508735987500,11.803987548828125,-0.6092129945755005,0.7311527729034424,-0.30499666929244995
1774472508746005500,11.814005615234375,-0.7130491137504578,0.9230276346206665,-0.2810590863227844
1774472508756023300,11.824023193359375,-0.812333881855011,1.0416730642318726,-0.3295193016529083
1774472508766041600,11.83404150390625,-0.9148637652397156,1.1919877529144287,-0.4594394862651825
1774472508776059400,11.844059326171875,-1.000986933708191,1.352595567703247,-0.6733466982841492
1774472508786076200,11.854076171875,-1.0857644081115723,1.519370198249817,-0.7559012770652771
1774472508796094000,11.864093994140624,-1.2671810388565063,1.5646729469299316,-0.6941683888435364
1774472508806112000,11.874112060546874,-1.2432363033294678,1.3448688983917236,-0.7533563375473022
1774472508816130000,11.884130126953124,-1.093633770942688,1.2779442071914673,-0.7917636632919312
1774472508826148000,11.894148193359374,-0.9544694423675537,1.1408827304840088,-0.8901700973510742
1774472508836166000,11.904165771484376,-0.8804149627685547,0.9810057282447815,-1.014817714691162
1774472508846184000,11.914183837890626,-0.7827233076095581,0.832733690738678,-1.1793899536132812
1774472508856202000,11.924201904296876,-0.6807900071144104,0.7416054010391235,-1.3175994157791138
1774472508866220000,11.934219970703126,-0.5787078142166138,0.65281081199646,-1.4239922761917114
1774472508876238000,11.944238037109375,-0.46643561124801636,0.5132843255996704,-1.555103063583374
1774472508886255900,11.954255859375,-0.36860278248786926,0.41110098361968994,-1.6905112266540527
1774472508896274200,11.964274169921875,-0.2674034833908081,0.30392658710479736,-1.8090168237686157
1774472508906292000,11.9742919921875,-0.14517024159431458,0.24940556287765503,-1.9774956703186035
1774472508916310000,11.98431005859375,-0.0011124024167656898,0.18759067356586456,-2.1317832469940186
1774472508926328000,11.994328125,0.14876310527324677,0.07753420621156693,-2.264094352722168
1774472508936346000,12.00434619140625,0.29376929998397827,-0.06892900168895721,-2.4130632877349854
1774472508946364000,12.014364013671875,0.4229384660720825,-0.1825018972158432,-2.5301618576049805
1774472508956382000,12.0243818359375,0.5276814103126526,-0.2439548820257187,-2.577979803085327
1774472508966400000,12.03439990234375,0.5906800627708435,-0.3669678866863251,-2.574599027633667
1774472508976418000,12.04441796875,0.6046656370162964,-0.4756786525249481,-2.516380786895752
1774472508986435800,12.054435791015624,0.5805802941322327,-0.5427330732345581,-2.4370360374450684
1774472508996454000,12.064453857421874,0.5243028998374939,-0.5105708241462708,-2.3595101833343506
1774472509006472200,12.07447216796875,0.47704166173934937,-0.33501526713371277,-2.2572379112243652
1774472509016490000,12.084489990234376,0.45811671018600464,-0.08773624151945114,-2.1778628826141357
1774472509026508000,12.094508056640626,0.4155053198337555,-0.016643958166241646,-2.192657232284546
1774472509036526000,12.104526123046876,0.39651432633399963,0.07959575951099396,-2.195798873901367
1774472509046544100,12.114544189453126,0.3913637697696686,0.2398536056280136,-2.1856608390808105
1774472509056562000,12.12456201171875,0.363760381937027,0.3646719753742218,-2.1682119369506836
1774472509066580000,12.134580078125,0.2955988943576813,0.48345962166786194,-2.155174732208252
1774472509076598000,12.144597900390625,0.22757349908351898,0.5454455018043518,-2.156934976577759
1774472509086616000,12.154615966796875,0.2129993587732315,0.6538259983062744,-2.161048650741577
1774472509096633900,12.1646337890625,0.22994771599769592,0.6912000179290771,-2.1443660259246826
1774472509106652000,12.17465185546875,0.2592043876647949,0.5787813067436218,-2.106922149658203
1774472509116670000,12.184669921875,0.2689851224422455,0.40038684010505676,-2.0706334114074707
1774472509126688000,12.19468798828125,0.2698011100292206,0.3767390251159668,-2.0135955810546875
1774472509136706000,12.2047060546875,0.253364622592926,0.3234691321849823,-1.8630284070968628
1774472509146724000,12.21472412109375,0.2350418120622635,0.24951289594173431,-1.660678505897522
1774472509156742100,12.2247421875,0.17453798651695251,0.3328232169151306,-1.483131766319275
1774472509166760000,12.234760009765624,0.10639967769384384,0.4969884753227234,-1.34616219997406
1774472509176778000,12.244778076171874,0.057084858417510986,0.557841956615448,-1.2458730936050415
1774472509186796000,12.254796142578124,0.06595584750175476,0.4716189205646515,-1.1661736965179443
1774472509196814000,12.26481396484375,0.06405141949653625,0.32654401659965515,-1.1363623142242432
1774472509206831900,12.274831787109376,0.06880809366703033,0.09403328597545624,-1.1292364597320557
1774472509216850000,12.284849853515626,0.11598572134971619,-0.195627823472023,-1.0679984092712402
1774472509226868000,12.294867919921876,0.17456993460655212,-0.4647298753261566,-0.984634280204773
1774472509236886000,12.304885986328125,0.21678291261196136,-0.6861929893493652,-0.9248290061950684
1774472509246903800,12.31490380859375,0.28806906938552856,-0.8088683485984802,-0.8791603446006775
1774472509256922000,12.324922119140625,0.37289127707481384,-0.8074501752853394,-0.8449578881263733
1774472509266940200,12.334940185546875,0.39751142263412476,-0.642346203327179,-0.8107458353042603
1774472509276958000,12.3449580078125,0.3941377103328705,-0.35502439737319946,-0.7782694101333618
1774472509286976000,12.35497607421875,0.42948105931282043,-0.044264134019613266,-0.77579265832901
1774472509296994000,12.364994140625,0.46523958444595337,0.11188419163227081,-0.8653219938278198
1774472509307012000,12.37501220703125,0.5101743340492249,0.043481431901454926,-1.0860791206359863
1774472509317030000,12.38502978515625,0.5589224100112915,-0.24465449154376984,-1.366111397743225
1774472509327048000,12.3950478515625,0.5517395734786987,-0.7051933407783508,-1.6820200681686401
1774472509337066000,12.40506591796875,0.5610052943229675,-1.2868609428405762,-2.042205572128296
1774472509347084000,12.415083984375,0.562325656414032,-1.1985881328582764,-2.1412174701690674
1774472509357101800,12.425101806640624,0.5998799800872803,-0.6310834288597107,-1.9693732261657715
1774472509367120100,12.4351201171875,0.7256844639778137,-0.16241127252578735,-1.692872405052185
1774472509377138000,12.445137939453126,0.801717221736908,0.27376896142959595,-1.4218792915344238
1774472509387156000,12.455156005859376,0.7774808406829834,0.6186906695365906,-1.2028864622116089
1774472509397174000,12.465174072265626,0.6308205723762512,0.6899811029434204,-1.1282747983932495
1774472509407192000,12.475192138671876,0.38711097836494446,0.3243993818759918,-1.1282635927200317
1774472509417210000,12.485210205078126,0.22413216531276703,-0.054782554507255554,-1.0401118993759155
