time,seconds_elapsed,z,y,x
1774470974707869000,0.054868896484375,-0.05408693850040436,0.08250553160905838,0.2055339813232422
1774470974717885000,0.064885009765625,-0.03057362139225006,0.045523542910814285,0.14445064961910248
1774470974727901000,0.07490087890625,-0.0078531289473176,0.016097210347652435,0.054542604833841324
1774470974737917000,0.0849169921875,0.014104899950325489,0.016437562182545662,-0.05054866150021553
1774470974747933000,0.094932861328125,0.026074476540088654,0.0219095591455698,-0.14907576143741608
1774470974757949000,0.104948974609375,0.03110385686159134,0.02299000509083271,-0.22444668412208557
1774470974767965200,0.114965087890625,0.02762576937675476,0.03761555254459381,-0.26172107458114624
1774470974777981000,0.12498095703125,0.01426548883318901,0.048406146466732025,-0.26300179958343506
1774470974787997000,0.134996826171875,-0.004936168901622295,0.06438831239938736,-0.23861870169639587
1774470974798012400,0.145012451171875,-0.02328827790915966,0.09894735366106033,-0.19033266603946686
1774470974808028400,0.1550283203125,-0.03713751584291458,0.14297473430633545,-0.12268011271953583
1774470974818044400,0.16504443359375,-0.046130478382110596,0.1642477959394455,-0.05426457151770592
1774470974828060700,0.175060791015625,-0.050394199788570404,0.16885612905025482,0.006500510033220053
1774470974838077400,0.185077392578125,-0.04502686485648155,0.174350768327713,0.04571289196610451
1774470974848092700,0.1950927734375,-0.032095618546009064,0.1448165774345398,0.05546991527080536
1774470974858109400,0.205109375,-0.007850466296076775,0.09984616935253143,0.03850478306412697
1774470974868124400,0.21512451171875,0.022700784727931023,0.0705559253692627,0.007441671099513769
1774470974878141700,0.2251416015625,0.04574858024716377,0.08123893290758133,-0.023924773558974266
1774470974888157700,0.23515771484375,0.06455528736114502,0.1180289015173912,-0.050703924149274826
1774470974898173700,0.245173583984375,0.056226521730422974,0.14235900342464447,-0.06806880235671997
1774470974908189400,0.255189453125,0.05132603645324707,0.16477829217910767,-0.0761360451579094
1774470974918205400,0.265205322265625,0.05060512199997902,0.19870004057884216,-0.08215319365262985
1774470974928221400,0.275221435546875,0.05242405831813812,0.21358364820480347,-0.09601760655641556
1774470974938237400,0.285237548828125,0.05169994756579399,0.21384784579277039,-0.11514949053525925
1774470974948253700,0.295253662109375,0.06385488063097,0.22519449889659882,-0.1263321042060852
1774470974958269700,0.305269775390625,0.06646131724119186,0.2287527471780777,-0.12592677772045135
1774470974968285400,0.315285400390625,0.04228860139846802,0.22570262849330902,-0.11917246133089066
1774470974978301400,0.325301513671875,0.0059684100560843945,0.22603872418403625,-0.09476299583911896
1774470974988317400,0.3353173828125,-0.03244262933731079,0.2231835573911667,-0.0686003640294075
1774470974998333400,0.34533349609375,-0.07388833910226822,0.17968720197677612,-0.035709794610738754
1774470975008349400,0.355349365234375,-0.11438063532114029,0.11846725642681122,0.02461985871195793
1774470975018365700,0.36536572265625,-0.15569691359996796,0.1535312384366989,0.11240217834711075
1774470975028381700,0.375381591796875,-0.1901901811361313,0.24660152196884155,0.1855858415365219
1774470975038397400,0.3853974609375,-0.2489112913608551,0.3081626296043396,0.2639533579349518
1774470975048413400,0.395413330078125,-0.3607664406299591,0.1320350021123886,0.4087941646575928
1774470975058429400,0.405429443359375,-0.5113740563392639,-0.12831322848796844,0.6524190902709961
1774470975068445400,0.415445556640625,-0.622322678565979,-0.0847495049238205,0.8596572279930115
1774470975078461700,0.425461669921875,-0.7030982375144958,0.03943076357245445,0.9782816171646118
1774470975088477700,0.435477783203125,-0.7734174132347107,0.0892459899187088,0.9944049119949341
1774470975098493700,0.44549365234375,-0.8376874327659607,0.04122040793299675,0.9602171182632446
1774470975108509400,0.455509521484375,-0.8963512778282166,0.02611149474978447,0.9236716032028198
1774470975118525400,0.465525390625,-0.9691078066825867,0.13606968522071838,0.8800581097602844
1774470975128541400,0.47554150390625,-1.04648756980896,0.3185393512248993,0.8135839700698853
1774470975138557400,0.485557373046875,-1.0984865427017212,0.5418539643287659,0.6860281825065613
1774470975148573700,0.49557373046875,-1.075911521911621,0.774138331413269,0.4938664436340332
1774470975158589700,0.505589599609375,-1.046557068824768,0.9805258512496948,0.30145278573036194
1774470975168605400,0.51560546875,-1.04073166847229,1.1418033838272095,0.15859337151050568
1774470975178621400,0.525621337890625,-1.09066641330719,1.203995943069458,0.10391281545162201
1774470975188637400,0.535637451171875,-1.1499292850494385,1.1576521396636963,0.15751878917217255
1774470975198653400,0.5456533203125,-1.251464605331421,0.846987247467041,0.2919125556945801
1774470975208669400,0.55566943359375,-1.4555206298828125,0.06379043310880661,0.39440110325813293
1774470975218685700,0.565685791015625,-1.5350377559661865,-0.6388595700263977,0.4398788511753082
1774470975228701700,0.57570166015625,-1.3213430643081665,-1.960293173789978,0.18813368678092957
1774470975238717400,0.585717529296875,-1.3107852935791016,-2.740541934967041,-0.2148398607969284
1774470975248733400,0.5957333984375,-1.291780948638916,-3.1940152645111084,-0.6612154841423035
1774470975258749400,0.60574951171875,-1.163704752922058,-3.4183642864227295,-1.0432072877883911
1774470975268765400,0.615765380859375,-1.1105400323867798,-3.3408172130584717,-1.3484269380569458
1774470975278781400,0.625781494140625,-1.1763880252838135,-2.966352939605713,-1.599851131439209
1774470975288797700,0.635797607421875,-1.3288017511367798,-2.3755478858947754,-1.8358622789382935
1774470975298813700,0.645813720703125,-1.4820486307144165,-1.4624484777450562,-2.0195112228393555
1774470975308829400,0.655829345703125,-1.5391840934753418,-0.17702192068099976,-1.9880859851837158
1774470975318845400,0.665845458984375,-1.3773925304412842,0.8327086567878723,-1.6448767185211182
1774470975328861400,0.675861328125,-0.9600901007652283,0.6954866647720337,-1.0953906774520874
1774470975338877400,0.68587744140625,-0.4668193757534027,0.7446573972702026,-0.36359524726867676
1774470975348893700,0.695893798828125,-0.12554460763931274,0.6538739800453186,0.29738640785217285
1774470975358909700,0.70590966796875,0.08065809309482574,-0.22302429378032684,0.7393766045570374
1774470975368925700,0.71592578125,0.3592987656593323,-1.2812076807022095,1.0985819101333618
1774470975378941400,0.72594140625,0.7046798467636108,-1.9800927639007568,1.4433872699737549
1774470975388957400,0.73595751953125,0.8808855414390564,-1.3892427682876587,1.5406365394592285
1774470975398973400,0.745973388671875,0.8432310819625854,-0.7103723883628845,1.2495431900024414
1774470975408989400,0.755989501953125,0.7833009362220764,-0.5579503774642944,1.0602744817733765
1774470975419006500,0.76600634765625,0.5935805439949036,-0.1341484785079956,0.7059912085533142
1774470975429021700,0.776021728515625,0.4839927852153778,0.08682331442832947,0.2928129732608795
1774470975439037400,0.786037353515625,0.41358011960983276,0.21158015727996826,-0.06507327407598495
1774470975449054500,0.796054443359375,0.49286988377571106,0.3112923800945282,-0.2132965624332428
1774470975459070500,0.806070556640625,0.6001089811325073,0.39820730686187744,-0.18666228652000427
1774470975469086700,0.816086669921875,0.6573683023452759,0.3130039870738983,-0.08250526338815689
1774470975479102700,0.826102783203125,0.659160852432251,0.15571077167987823,0.08709309250116348
1774470975489118500,0.836118408203125,0.6415139436721802,0.02389201708137989,0.2997758090496063
1774470975499134500,0.846134521484375,0.6552574634552002,-0.09140794724225998,0.5087798833847046
1774470975509150500,0.856150390625,0.6492863893508911,-0.13251489400863647,0.6699762344360352
1774470975519166500,0.86616650390625,0.5587764382362366,-0.06170011684298515,0.7816260457038879
1774470975529182500,0.876182373046875,0.430225133895874,0.07429739832878113,0.8316343426704407
1774470975539198700,0.88619873046875,0.33406028151512146,0.20851485431194305,0.8164639472961426
1774470975549214700,0.896214599609375,0.3072744607925415,0.25927844643592834,0.7297316789627075
1774470975559230500,0.90623046875,0.33366477489471436,0.22649279236793518,0.599974513053894
1774470975569246500,0.91624658203125,0.344256192445755,0.14179974794387817,0.46498551964759827
1774470975579262500,0.926262451171875,0.324423611164093,0.05010417848825455,0.34718751907348633
1774470975589278500,0.936278564453125,0.30697113275527954,-0.01179247722029686,0.253292977809906
1774470975599294500,0.94629443359375,0.31462639570236206,-0.026163160800933838,0.1848635971546173
1774470975609310700,0.956310791015625,0.3271304666996002,-0.03856310620903969,0.14882037043571472
1774470975619326500,0.966326416015625,0.3227524757385254,-0.05715170130133629,0.14507649838924408
1774470975629342500,0.976342529296875,0.3278742730617523,-0.06522640585899353,0.1595667600631714
1774470975639358500,0.9863583984375,0.30888646841049194,-0.1105819046497345,0.16701509058475494
1774470975649374500,0.99637451171875,0.26266783475875854,-0.1873834729194641,0.16389918327331543
1774470975659390500,1.006390380859375,0.21916884183883667,-0.2511235773563385,0.1504422277212143
1774470975669406500,1.016406494140625,0.18669158220291138,-0.28653961420059204,0.13248373568058014
1774470975679422700,1.026422607421875,0.15254053473472595,-0.3066757917404175,0.10083100944757462
1774470975689438500,1.0364384765625,0.10920025408267975,-0.28213074803352356,0.05859114229679108
1774470975699454500,1.046454345703125,0.08009590208530426,-0.20221994817256927,0.011433749459683895
1774470975709470500,1.056470458984375,0.06965844333171844,-0.0972336083650589,-0.03177737072110176
1774470975719486500,1.066486572265625,0.07903250306844711,0.0059716058894991875,-0.08450556546449661
1774470975729502500,1.07650244140625,0.10126510262489319,0.10485051572322845,-0.13592907786369324
1774470975739518700,1.086518798828125,0.12276612967252731,0.151678204536438,-0.1815066784620285
1774470975749534700,1.09653466796875,0.12956731021404266,0.1414836347103119,-0.21156232059001923
1774470975759550500,1.106550537109375,0.13521720468997955,0.11341896653175354,-0.21266725659370422
1774470975769566500,1.11656640625,0.14303997159004211,0.08200565725564957,-0.19214308261871338
1774470975779582500,1.12658251953125,0.1312115490436554,0.054736215621232986,-0.15365347266197205
1774470975789598500,1.136598388671875,0.10643962025642395,0.026758909225463867,-0.11125302314758301
1774470975799615200,1.146615234375,0.05356735363602638,0.011548797599971294,-0.07873449474573135
1774470975809631200,1.15663134765625,0.02551521360874176,0.04399595409631729,-0.0523095428943634
1774470975819647000,1.16664697265625,0.03033180721104145,0.08984706550836563,-0.05012441799044609
1774470975829663000,1.1766630859375,0.04922480508685112,0.10253090411424637,-0.07664604485034943
1774470975839679000,1.186678955078125,0.06747038662433624,0.09668872505426407,-0.11582806706428528
1774470975849695200,1.1966953125,0.08690746873617172,0.05291088670492172,-0.14725789427757263
1774470975859711200,1.206711181640625,0.10804737359285355,-0.007938883267343044,-0.15289847552776337
1774470975869727200,1.216727294921875,0.12042015045881271,-0.07981546968221664,-0.1295103281736374
1774470975879743000,1.226742919921875,0.12290887534618378,-0.14235767722129822,-0.07510460168123245
1774470975889759000,1.236759033203125,0.11104875802993774,-0.18729878962039948,-0.007394266780465841
1774470975899775000,1.24677490234375,0.09330517798662186,-0.20518749952316284,0.05319850519299507
1774470975909791200,1.256791259765625,0.06674174219369888,-0.1797894686460495,0.09604903310537338
1774470975919807200,1.26680712890625,0.04373123496770859,-0.10939253866672516,0.12083373963832855
1774470975929823200,1.2768232421875,0.053768157958984375,-0.01979074813425541,0.12111790478229523
1774470975939839200,1.286839111328125,0.09351690113544464,0.06834150850772858,0.09293260425329208
1774470975949855000,1.29685498046875,0.12906184792518616,0.12363085895776749,0.05416230484843254
1774470975959871000,1.30687109375,0.1522848755121231,0.15012212097644806,0.013232181780040264
1774470975969887000,1.316886962890625,0.16255775094032288,0.15529398620128632,-0.021641645580530167
1774470975979903200,1.3269033203125,0.17167748510837555,0.13162167370319366,-0.03855990990996361
1774470975989919200,1.336919189453125,0.17221331596374512,0.09330571442842484,-0.04328355938196182
1774470975999936000,1.34693603515625,0.16396737098693848,0.05351275950670242,-0.03105805069208145
1774470976009952000,1.356951904296875,0.15317463874816895,0.04598293825984001,-0.010569021105766296
1774470976019968000,1.366968017578125,0.12382180988788605,0.06554652005434036,0.018882611766457558
1774470976029984000,1.37698388671875,0.11238166689872742,0.11043915897607803,0.0447528250515461
1774470976040000300,1.387000244140625,0.12531158328056335,0.16634902358055115,0.05355244129896164
1774470976050016300,1.397016357421875,0.14274436235427856,0.18795286118984222,0.04325559362769127
1774470976060032300,1.4070322265625,0.16255588829517365,0.1747686117887497,0.025595108047127724
1774470976070048000,1.417048095703125,0.1788608282804489,0.14281654357910156,0.01341620646417141
1774470976080064000,1.42706396484375,0.19063998758792877,0.10420576483011246,0.007132744416594505
1774470976090080000,1.437080078125,0.20522958040237427,0.05504407733678818,0.012737632729113102
1774470976100096300,1.44709619140625,0.21567343175411224,0.020239491015672684,0.028262531384825706
1774470976110112300,1.4571123046875,0.2224983125925064,0.004350806120783091,0.04244599491357803
1774470976120128300,1.467128173828125,0.24045787751674652,0.004284227266907692,0.05320489779114723
1774470976130144000,1.47714404296875,0.2648974359035492,0.030312364920973778,0.06131129339337349
1774470976140160000,1.487159912109375,0.27575966715812683,0.05321342125535011,0.07081291824579239
1774470976150176000,1.497176025390625,0.2762283980846405,0.04334134981036186,0.08325174450874329
1774470976160192000,1.50719189453125,0.2720719873905182,0.01631665602326393,0.09117758274078369
1774470976170208300,1.517208251953125,0.2625810205936432,-0.010013751685619354,0.09178637713193893
1774470976180224300,1.527224365234375,0.23110033571720123,-0.04263880476355553,0.08097900450229645
1774470976190240300,1.537240234375,0.20390546321868896,-0.06655452400445938,0.06898678839206696
1774470976200256000,1.547256103515625,0.1871938556432724,-0.04381512477993965,0.05290822312235832
1774470976210272000,1.55727197265625,0.18397143483161926,0.0030056436080485582,0.032642897218465805
1774470976220288000,1.5672880859375,0.1802975982427597,0.05229143425822258,0.013381851837038994
1774470976230304000,1.577303955078125,0.16567765176296234,0.05644037202000618,-0.008184692822396755
1774470976240320300,1.5873203125,0.14514467120170593,0.03248630464076996,-0.037215013056993484
1774470976250336300,1.597336181640625,0.13810913264751434,0.038062695413827896,-0.06531216204166412
1774470976260352300,1.607352294921875,0.1472584307193756,0.07660689204931259,-0.08683769404888153
1774470976270368000,1.617367919921875,0.14433880150318146,0.1535717099905014,-0.09954709559679031
1774470976280384000,1.627384033203125,0.13821139931678772,0.21907828748226166,-0.10656852275133133
1774470976290400000,1.63739990234375,0.14380057156085968,0.23318585753440857,-0.098897285759449
1774470976300416300,1.647416259765625,0.1362214833498001,0.2334766685962677,-0.08193375170230865
1774470976310432300,1.657432373046875,0.14670687913894653,0.28284475207328796,-0.07440020143985748
1774470976320448300,1.6674482421875,0.1517956554889679,0.3711320161819458,-0.08291672170162201
1774470976330464000,1.677464111328125,0.14709916710853577,0.5020726919174194,-0.10091862082481384
1774470976340480000,1.68747998046875,0.15313921868801117,0.6521533131599426,-0.1174619123339653
1774470976350496000,1.69749609375,0.14311933517456055,0.784905731678009,-0.12251180410385132
1774470976360512000,1.707511962890625,0.10005682706832886,0.8559772372245789,-0.11912745237350464
1774470976370528300,1.7175283203125,0.05583716556429863,0.771832287311554,-0.09417629987001419
1774470976380544300,1.727544189453125,-0.0565173365175724,0.6138895153999329,0.047984570264816284
1774470976390560300,1.737560302734375,-0.1656416952610016,0.2804305851459503,0.272494912147522
1774470976400576000,1.747575927734375,-0.30664995312690735,0.10650753229856491,0.5936201810836792
1774470976410592000,1.757592041015625,-0.2680623531341553,0.13892805576324463,0.896311342716217
1774470976420609000,1.767609130859375,-0.12800030410289764,0.3705538213253021,1.1035540103912354
1774470976430624000,1.7776240234375,0.11907419562339783,0.6680542230606079,1.2006195783615112
1774470976440641300,1.787641357421875,0.28175604343414307,0.8402624726295471,1.2021602392196655
1774470976450657000,1.797656982421875,0.26844558119773865,0.8021464943885803,1.0826416015625
1774470976460673000,1.807673095703125,0.2152920663356781,0.6475726366043091,0.837053120136261
1774470976470689000,1.81768896484375,0.20723946392536163,0.6742388606071472,0.49603399634361267
1774470976480705000,1.827705078125,0.19599667191505432,0.7639232277870178,0.0972762182354927
1774470976490721300,1.83772119140625,0.1716465950012207,0.7608067989349365,-0.28936976194381714
1774470976500737300,1.8477373046875,0.15058816969394684,0.7494542598724365,-0.5676698088645935
1774470976510753300,1.857753173828125,0.15309101343154907,0.7578837275505066,-0.7121990323066711
1774470976520769000,1.86776904296875,0.14112304151058197,0.6470986008644104,-0.7802239060401917
1774470976530785000,1.877784912109375,0.17059063911437988,0.566881537437439,-0.7403667569160461
1774470976540801000,1.887801025390625,0.14339710772037506,0.3634823262691498,-0.654293954372406
1774470976550817000,1.897817138671875,0.08728697150945663,0.11421685665845871,-0.552458643913269
1774470976560833300,1.907833251953125,0.03471856564283371,-0.1342821717262268,-0.4460805356502533
1774470976570849300,1.917849365234375,0.0339190848171711,-0.3543753921985626,-0.33655643463134766
1774470976580865000,1.927864990234375,0.046002112329006195,-0.5386581420898438,-0.23944801092147827
1774470976590881000,1.937881103515625,0.012374644167721272,-0.6982677578926086,-0.1712718904018402
1774470976600897000,1.94789697265625,-0.024623587727546692,-0.7838375568389893,-0.1387578845024109
1774470976610913000,1.9579130859375,-0.03383626043796539,-0.8209532499313354,-0.14827069640159607
1774470976620929000,1.967928955078125,-0.04730253294110298,-0.8028485178947449,-0.19788111746311188
1774470976630945300,1.9779453125,-0.062059640884399414,-0.7375962734222412,-0.2610723376274109
1774470976640961300,1.987961181640625,-0.07928789407014847,-0.6514925360679626,-0.3218265175819397
1774470976650977000,1.99797705078125,-0.1018427386879921,-0.5772654414176941,-0.37691906094551086
1774470976660993000,2.007992919921875,-0.13525129854679108,-0.5295834541320801,-0.4165511429309845
1774470976671009000,2.018009033203125,-0.17429031431674957,-0.5047499537467957,-0.4447114169597626
1774470976681025000,2.02802490234375,-0.19823771715164185,-0.5000361800193787,-0.45717740058898926
1774470976691041300,2.038041259765625,-0.20609138906002045,-0.4950914978981018,-0.4589103162288666
1774470976701057300,2.048057373046875,-0.19947423040866852,-0.4649815261363983,-0.45190274715423584
1774470976711073300,2.0580732421875,-0.19685234129428864,-0.4124909043312073,-0.43696215748786926
1774470976721089000,2.068089111328125,-0.18744978308677673,-0.35700419545173645,-0.4152134358882904
1774470976731105000,2.07810498046875,-0.169904887676239,-0.3092893958091736,-0.3768695294857025
1774470976741121000,2.08812109375,-0.14981825649738312,-0.28382453322410583,-0.3263101875782013
1774470976751137000,2.098136962890625,-0.1333114504814148,-0.28900596499443054,-0.2738123834133148
1774470976761153300,2.1081533203125,-0.1181492730975151,-0.30185118317604065,-0.2150859385728836
1774470976771169300,2.118169189453125,-0.10770303010940552,-0.30871737003326416,-0.15642262995243073
1774470976781185000,2.12818505859375,-0.10374344140291214,-0.3006589114665985,-0.10442334413528442
1774470976791201000,2.138200927734375,-0.09086918830871582,-0.27937251329421997,-0.053469881415367126
1774470976801217000,2.148217041015625,-0.07621593773365021,-0.2553667724132538,-0.005203017964959145
1774470976811233000,2.15823291015625,-0.07169735431671143,-0.21740742027759552,0.03355929255485535
1774470976821249000,2.1682490234375,-0.07341776043176651,-0.15495629608631134,0.06281305104494095
1774470976831265000,2.17826513671875,-0.0790676549077034,-0.12123081833124161,0.07459674030542374
1774470976841281000,2.188281005859375,-0.08190445601940155,-0.13259293138980865,0.06773830205202103
1774470976851297000,2.198297119140625,-0.0785675123333931,-0.14316993951797485,0.060078252106904984
1774470976861313000,2.20831298828125,-0.07923117280006409,-0.1418394297361374,0.05188024044036865
1774470976871330000,2.218330078125,-0.08987130224704742,-0.14365969598293304,0.04114210978150368
1774470976881346000,2.228345947265625,-0.11312948167324066,-0.13168425858020782,0.026492061093449593
1774470976891362000,2.238362060546875,-0.13395807147026062,-0.09892764687538147,0.021343637257814407
1774470976901377800,2.248377685546875,-0.13401292264461517,-0.06459496915340424,0.018856512382626534
1774470976911393800,2.258393798828125,-0.1327953338623047,-0.03620993718504906,0.006343649700284004
1774470976921410000,2.26841015625,-0.12863121926784515,-0.024947959929704666,-0.012810870073735714
1774470976931426000,2.278426025390625,-0.1194012314081192,-0.03205220773816109,-0.04055728018283844
1774470976941442000,2.288442138671875,-0.11189084500074387,-0.056236375123262405,-0.07062143832445145
1774470976951458000,2.2984580078125,-0.10470244288444519,-0.09915214776992798,-0.10376954078674316
1774470976961474000,2.30847412109375,-0.1029554083943367,-0.13715092837810516,-0.13356605172157288
1774470976971489800,2.31848974609375,-0.09919662773609161,-0.16683132946491241,-0.16006183624267578
1774470976981505800,2.328505859375,-0.09503543376922607,-0.18419380486011505,-0.17595532536506653
1774470976991522000,2.33852197265625,-0.08393485099077225,-0.1920328289270401,-0.17818385362625122
1774470977001538000,2.3485380859375,-0.07052050530910492,-0.20167319476604462,-0.17246897518634796
1774470977011554000,2.358553955078125,-0.06420561671257019,-0.19303444027900696,-0.15514324605464935
1774470977021570000,2.368570068359375,-0.059660665690898895,-0.16718553006649017,-0.11736603826284409
1774470977031586000,2.3785859375,-0.05728192999958992,-0.13487152755260468,-0.06925097852945328
1774470977041601800,2.388601806640625,-0.046911582350730896,-0.08459131419658661,-0.013502226211130619
1774470977051618000,2.3986181640625,-0.027222299948334694,-0.03458300977945328,0.036244556307792664
1774470977061634000,2.408634033203125,0.000963797967415303,-0.014598383568227291,0.07373573631048203
1774470977071650000,2.418650146484375,0.031182419508695602,-0.02683853916823864,0.09456458687782288
1774470977081666000,2.428666015625,0.05530879646539688,-0.04849056899547577,0.09965202212333679
1774470977091682000,2.43868212890625,0.060612212866544724,-0.08470210433006287,0.08744169771671295
1774470977101698000,2.448697998046875,0.06316272169351578,-0.13086959719657898,0.06479417532682419
1774470977111713800,2.4587138671875,0.0605781264603138,-0.15463778376579285,0.0452449768781662
1774470977121730000,2.46872998046875,0.06255605816841125,-0.12232031673192978,0.03494653105735779
1774470977131746000,2.47874609375,0.068608358502388,-0.07348460704088211,0.03337473422288895
1774470977141762000,2.488761962890625,0.08179207146167755,-0.011147193610668182,0.019586751237511635
1774470977151778000,2.498778076171875,0.09043668955564499,0.03821822628378868,-0.021514613181352615
1774470977161794000,2.5087939453125,0.0893264189362526,0.04916781187057495,-0.0872877687215805
1774470977171809800,2.518809814453125,0.09094828367233276,0.03856709972023964,-0.17109957337379456
1774470977181825800,2.52882568359375,0.10309575498104095,0.025490179657936096,-0.2585809528827667
1774470977191842000,2.538842041015625,0.11892079561948776,0.010174340568482876,-0.3295632600784302
1774470977201858000,2.548858154296875,0.1406404674053192,0.012724583968520164,-0.3752468526363373
1774470977211874000,2.5588740234375,0.16824200749397278,0.023083748295903206,-0.3931933641433716
1774470977221890000,2.56889013671875,0.212568461894989,0.018908442929387093,-0.3999743163585663
1774470977231906000,2.578906005859375,0.2621661126613617,-0.022829148918390274,-0.4059256613254547
1774470977241921800,2.588921875,0.3049045205116272,-0.0815579742193222,-0.41146716475486755
1774470977251938000,2.59893798828125,0.3321593105792999,-0.12475951015949249,-0.4110650420188904
1774470977261954000,2.6089541015625,0.34639468789100647,-0.14414386451244354,-0.3937808573246002
1774470977271970000,2.618969970703125,0.3554379940032959,-0.128122016787529,-0.3623614013195038
1774470977281986000,2.628986083984375,0.37080442905426025,-0.10705001652240753,-0.3295382261276245
1774470977292002000,2.639001953125,0.3967154026031494,-0.088933065533638,-0.29210829734802246
1774470977302018000,2.64901806640625,0.4193756878376007,-0.07890493422746658,-0.25544267892837524
1774470977312033800,2.65903369140625,0.434781551361084,-0.10298310965299606,-0.213039830327034
1774470977322050000,2.669050048828125,0.44983187317848206,-0.13074709475040436,-0.1577795147895813
1774470977332067000,2.679067138671875,0.4598541557788849,-0.1259874850511551,-0.09268493205308914
1774470977342083000,2.6890830078125,0.4657599627971649,-0.09953457862138748,-0.015567773953080177
1774470977352098800,2.699098876953125,0.47516652941703796,-0.050092462450265884,0.06615851074457169
1774470977362114800,2.70911474609375,0.49576660990715027,0.000011185276889591478,0.14930692315101624
1774470977372130800,2.719130859375,0.49286216497421265,0.043886762112379074,0.229103222489357
1774470977382147000,2.72914697265625,0.47013768553733826,0.10053486377000809,0.29835259914398193
1774470977392163000,2.7391630859375,0.44477400183677673,0.15910230576992035,0.36244022846221924
1774470977402179000,2.749178955078125,0.4218641519546509,0.17080236971378326,0.40131068229675293
1774470977412195000,2.759195068359375,0.39959773421287537,0.15518400073051453,0.41717565059661865
1774470977422210800,2.7692109375,0.3779694139957428,0.13308455049991608,0.42361465096473694
1774470977432226800,2.779226806640625,0.35062912106513977,0.1059914156794548,0.40775924921035767
1774470977442243000,2.7892431640625,0.3151526153087616,0.0812719538807869,0.3647715747356415
1774470977452259000,2.799259033203125,0.26596030592918396,0.07198977470397949,0.2830769717693329
1774470977462275000,2.809275146484375,0.22777803242206573,0.0669364258646965,0.16939781606197357
1774470977472291000,2.819291015625,0.21052314341068268,0.014737666584551334,0.027336016297340393
1774470977482307000,2.82930712890625,0.2138979136943817,-0.07039746642112732,-0.11555349081754684
1774470977492322800,2.83932275390625,0.2222607582807541,-0.12784957885742188,-0.2156396210193634
1774470977502338800,2.8493388671875,0.22366318106651306,-0.1295446753501892,-0.2455892562866211
1774470977512355000,2.85935498046875,0.21180519461631775,-0.08495564013719559,-0.21342332661151886
1774470977522371000,2.86937109375,0.18583405017852783,-0.033793650567531586,-0.13636423647403717
1774470977532387000,2.879386962890625,0.15389075875282288,0.02233246900141239,-0.035952940583229065
1774470977542403000,2.889403076171875,0.12316028028726578,0.09454621374607086,0.07394133508205414
1774470977552419000,2.899419189453125,0.10496902465820312,0.15173040330410004,0.16873762011528015
1774470977562434800,2.909434814453125,0.09206707775592804,0.16391170024871826,0.2192378044128418
1774470977572450800,2.919450927734375,0.09292487800121307,0.1345524787902832,0.23807542026042938
1774470977582467000,2.929467041015625,0.0986378937959671,0.09365032613277435,0.2360527366399765
1774470977592483000,2.939483154296875,0.10472454875707626,0.03780623525381088,0.22328580915927887
1774470977602499000,2.9494990234375,0.10553202033042908,-0.016285762190818787,0.21877282857894897
1774470977612515000,2.95951513671875,0.09650949388742447,-0.040820665657520294,0.22279073297977448
1774470977622530800,2.96953076171875,0.07287101447582245,-0.047757670283317566,0.22131827473640442
1774470977632546800,2.979546875,0.023303458467125893,-0.04181615635752678,0.2122776359319687
1774470977642563000,2.98956298828125,-0.022308234125375748,-0.004858404863625765,0.1853000819683075
1774470977652579000,2.9995791015625,-0.045935265719890594,0.03917216882109642,0.13661830127239227
1774470977662595000,3.009594970703125,-0.05351036414504051,0.05311914533376694,0.05981752648949623
1774470977672611000,3.019611083984375,-0.054130878299474716,0.038008902221918106,-0.01878061145544052
1774470977682627000,3.029626953125,-0.047562193125486374,0.031860727816820145,-0.07657840102910995
1774470977692642800,3.039642822265625,-0.0400233156979084,0.0408712662756443,-0.09968744218349457
1774470977702658800,3.049658935546875,-0.03826509788632393,0.05164162442088127,-0.09422343969345093
1774470977712675000,3.059675048828125,-0.03927337005734444,0.04018816724419594,-0.07081584632396698
1774470977722692000,3.069692138671875,-0.04236157238483429,0.01637178286910057,-0.043530166149139404
1774470977732708000,3.0797080078125,-0.03942916542291641,-0.031073497608304024,-0.022786272689700127
1774470977742723800,3.089723876953125,-0.029577333480119705,-0.11028283089399338,-0.016896957531571388
1774470977752739800,3.09973974609375,-0.021074924618005753,-0.19631065428256989,-0.029526732861995697
1774470977762755800,3.109755859375,-0.019471701234579086,-0.25750237703323364,-0.06106149032711983
1774470977772772000,3.119772216796875,-0.016353139653801918,-0.25702062249183655,-0.09484182298183441
1774470977782788000,3.1297880859375,-0.002320145955309272,-0.18447983264923096,-0.11414601653814316
1774470977792804000,3.13980419921875,0.02900741621851921,-0.07459061592817307,-0.1193317174911499
1774470977802819000,3.149819091796875,0.07325050979852676,0.02105095610022545,-0.1154957041144371
1774470977812835300,3.15983544921875,0.10948920994997025,0.09092804044485092,-0.1043410524725914
1774470977822851000,3.16985107421875,0.1354726105928421,0.12313897162675858,-0.08573301136493683
1774470977832867000,3.1798671875,0.1454903483390808,0.10094472020864487,-0.05638125166296959
1774470977842883000,3.189883056640625,0.13813284039497375,0.057256098836660385,-0.008024903014302254
1774470977852899000,3.199899169921875,0.12904240190982819,0.013199691660702229,0.06304687261581421
1774470977862915000,3.2099150390625,0.1328272819519043,-0.03837508708238602,0.13623826205730438
1774470977872931000,3.21993115234375,0.1362648904323578,-0.08775807917118073,0.20642614364624023
1774470977882947300,3.229947265625,0.1322626918554306,-0.12107902020215988,0.2644715905189514
1774470977892963000,3.239963134765625,0.11961428076028824,-0.1431313306093216,0.296517938375473
1774470977902979000,3.24997900390625,0.09026437997817993,-0.15702344477176666,0.2971254289150238
1774470977912995000,3.2599951171875,0.05624489486217499,-0.1516587734222412,0.2699236273765564
1774470977923011000,3.270010986328125,0.02383635751903057,-0.1374737024307251,0.23145826160907745
1774470977933027000,3.280027099609375,-0.005200620740652084,-0.10394903272390366,0.18328753113746643
1774470977943043300,3.290043212890625,-0.01726633869111538,-0.043837230652570724,0.14744991064071655
1774470977953059000,3.30005908203125,-0.030287066474556923,0.0007550061563961208,0.11329113692045212
1774470977963075000,3.310074951171875,-0.05340996012091637,0.020264791324734688,0.08436708152294159
1774470977973091000,3.320091064453125,-0.07872011512517929,0.028795694932341576,0.06708715856075287
1774470977983107000,3.330107177734375,-0.10204620659351349,0.048286840319633484,0.063239686191082
1774470977993123000,3.340123046875,-0.11370445787906647,0.08452420681715012,0.06752471625804901
1774470978003139000,3.35013916015625,-0.1134975329041481,0.12011841684579849,0.08151696622371674
1774470978013155300,3.3601552734375,-0.10339856147766113,0.15915130078792572,0.10240094363689423
1774470978023172000,3.370172119140625,-0.08768484741449356,0.1745278686285019,0.11866060644388199
1774470978033188000,3.38018798828125,-0.08114172518253326,0.15412884950637817,0.12489133328199387
1774470978043204000,3.3902041015625,-0.0780830830335617,0.08732824772596359,0.11647415161132812
1774470978053220000,3.40022021484375,-0.08590558916330338,0.03129586949944496,0.1009838730096817
1774470978063236000,3.410236083984375,-0.08760814368724823,0.00881905760616064,0.08528107404708862
1774470978073252000,3.420252197265625,-0.08696392923593521,0.012284362688660622,0.06360241025686264
1774470978083268000,3.43026806640625,-0.08519372344017029,0.04219592362642288,0.04219139739871025
1774470978093284000,3.4402841796875,-0.07146592438220978,0.08035928755998611,0.014710769057273865
1774470978103300000,3.450300048828125,-0.05522224307060242,0.07618717849254608,-0.01569933444261551
1774470978113316000,3.460316162109375,-0.051120974123477936,0.02647288702428341,-0.04602661356329918
1774470978123332000,3.47033203125,-0.05987318605184555,-0.036500487476587296,-0.07368886470794678
1774470978133348400,3.480348388671875,-0.06401173770427704,-0.08400887995958328,-0.09962566196918488
1774470978143364000,3.490364013671875,-0.05411649867892265,-0.10463187098503113,-0.12039139121770859
1774470978153380000,3.500380126953125,-0.04646949842572212,-0.11498703807592392,-0.14403998851776123
1774470978163396000,3.51039599609375,-0.05128715559840202,-0.11212413758039474,-0.1693352311849594
1774470978173412000,3.520412109375,-0.05830352008342743,-0.0827135220170021,-0.18637946248054504
1774470978183428000,3.530427978515625,-0.0627501979470253,-0.04904663935303688,-0.1942182183265686
1774470978193444000,3.540444091796875,-0.08044237643480301,-0.04243001341819763,-0.19518893957138062
1774470978203460000,3.550460205078125,-0.09227586537599564,-0.03833966702222824,-0.1806667149066925
1774470978213476000,3.56047607421875,-0.08682597428560257,-0.03226073458790779,-0.15148858726024628
1774470978223492000,3.5704921875,-0.07874754071235657,-0.03555399924516678,-0.11819002032279968
1774470978233508000,3.580508056640625,-0.07095779478549957,-0.051004063338041306,-0.08281552046537399
1774470978243524000,3.590524169921875,-0.06887999922037125,-0.08453246206045151,-0.05052895471453667
1774470978253540000,3.6005400390625,-0.07539169490337372,-0.13389840722084045,-0.028316326439380646
1774470978263556000,3.61055615234375,-0.0875820443034172,-0.17491695284843445,-0.019122295081615448
1774470978273572000,3.620572021484375,-0.09931513667106628,-0.18567664921283722,-0.016621854156255722
1774470978283588000,3.630588134765625,-0.1051005870103836,-0.16817036271095276,-0.009002016857266426
1774470978293604000,3.64060400390625,-0.11138724535703659,-0.1315508335828781,-0.004574245307594538
1774470978303621000,3.65062109375,-0.13122805953025818,-0.0971611738204956,-0.00008175904804375023
1774470978313637000,3.66063720703125,-0.16303525865077972,-0.04891188070178032,0.009380452334880829
1774470978323653000,3.670653076171875,-0.1902618259191513,0.013265205547213554,0.015811985358595848
1774470978333669000,3.680669189453125,-0.21641673147678375,0.05144215002655983,0.007258711848407984
1774470978343685000,3.69068505859375,-0.23316188156604767,0.07757095992565155,-0.006209160201251507
1774470978353701000,3.700701171875,-0.2374972403049469,0.09560108929872513,-0.016096411272883415
1774470978363717000,3.710717041015625,-0.23380716145038605,0.09854841232299805,-0.024237962439656258
1774470978373733000,3.720733154296875,-0.23003852367401123,0.08630026876926422,-0.022363895550370216
1774470978383749000,3.7307490234375,-0.23313604295253754,0.07434187829494476,-0.0024487765040248632
1774470978393765000,3.74076513671875,-0.2370849847793579,0.06642536073923111,0.0265961904078722
1774470978403781000,3.750781005859375,-0.23868128657341003,0.04596029967069626,0.05105040222406387
1774470978413797000,3.760797119140625,-0.23657739162445068,0.013709686696529388,0.06520749628543854
1774470978423813000,3.770813232421875,-0.23783040046691895,-0.006387325469404459,0.07235915213823318
1774470978433829000,3.7808291015625,-0.24280652403831482,-0.01619361713528633,0.07148244231939316
1774470978443845000,3.79084521484375,-0.2477426826953888,-0.017114005982875824,0.05910087004303932
1774470978453861000,3.800861083984375,-0.24077053368091583,-0.02093111351132393,0.03952477127313614
1774470978463877000,3.810877197265625,-0.21675734221935272,-0.03291480615735054,0.022252308204770088
1774470978473893000,3.82089306640625,-0.18540261685848236,-0.06644587218761444,-0.005343366414308548
1774470978483909000,3.8309091796875,-0.15930309891700745,-0.11766991019248962,-0.027118703350424767
1774470978493925000,3.840925048828125,-0.13172633945941925,-0.1541445553302765,-0.033258888870477676
1774470978503941000,3.850941162109375,-0.11708960682153702,-0.16759592294692993,-0.02370266616344452
1774470978513957000,3.86095703125,-0.12583622336387634,-0.15564578771591187,-0.006473079323768616
1774470978523973000,3.87097314453125,-0.1411680430173874,-0.1357325315475464,0.0007858988246880472
1774470978533989000,3.880989013671875,-0.1537243127822876,-0.10255007445812225,-0.008844624273478985
1774470978544005000,3.891005126953125,-0.15811321139335632,-0.07916618883609772,-0.03923395648598671
1774470978554021000,3.901021240234375,-0.15134264528751373,-0.07218684256076813,-0.08127115666866302
1774470978564037000,3.911037109375,-0.1393243372440338,-0.07027070224285126,-0.12658244371414185
1774470978574053000,3.92105322265625,-0.12333285063505173,-0.05375217646360397,-0.15481062233448029
1774470978584069000,3.931069091796875,-0.10531949996948242,-0.022786805406212807,-0.157560333609581
1774470978594085000,3.941085205078125,-0.09921872615814209,-0.01570119895040989,-0.14700809121131897
1774470978604101000,3.95110107421875,-0.09929276257753372,-0.023961259052157402,-0.12279009819030762
1774470978614118100,3.9611181640625,-0.09183617681264877,-0.029448702931404114,-0.09327535331249237
1774470978624134100,3.971134033203125,-0.08552182465791702,-0.04220204800367355,-0.06259866803884506
1774470978634150100,3.981150146484375,-0.08196704089641571,-0.050265833735466,-0.03442694991827011
1774470978644166100,3.991166259765625,-0.06916681677103043,-0.04681464284658432,-0.012800750322639942
1774470978654182100,4.00118212890625,-0.06058478355407715,-0.05395697429776192,-0.00980602577328682
1774470978664198100,4.0111982421875,-0.056592173874378204,-0.07405558228492737,-0.021213941276073456
1774470978674214100,4.021214111328125,-0.048912413418293,-0.08881162852048874,-0.03918948024511337
1774470978684230100,4.031230224609375,-0.03967177867889404,-0.0885985717177391,-0.05709977075457573
1774470978694246100,4.04124609375,-0.0366341769695282,-0.08091721683740616,-0.07097217440605164
1774470978704262100,4.05126220703125,-0.03518488630652428,-0.07894701510667801,-0.08193454891443253
1774470978714278100,4.061278076171875,-0.04001346230506897,-0.07386969774961472,-0.08731307089328766
1774470978724294100,4.071294189453125,-0.05311834439635277,-0.057910170406103134,-0.08633115887641907
1774470978734310100,4.08131005859375,-0.07546732574701309,-0.0442391000688076,-0.0820448026061058
1774470978744326100,4.091326171875,-0.09887304902076721,-0.030192524194717407,-0.07420951873064041
1774470978754342100,4.101342041015625,-0.1135268285870552,-0.00646695401519537,-0.06565224379301071
1774470978764358100,4.111358154296875,-0.1269425004720688,0.023002255707979202,-0.05425737798213959
1774470978774374000,4.121373779296875,-0.13157106935977936,0.0534304678440094,-0.0373268648982048
1774470978784390100,4.13139013671875,-0.13278627395629883,0.06908213347196579,-0.022459769621491432
1774470978794406100,4.14140625,-0.13162752985954285,0.062249258160591125,-0.011054248549044132
1774470978804423000,4.1514228515625,-0.12853480875492096,0.041906971484422684,-0.004107659682631493
1774470978814439000,4.16143896484375,-0.12987597286701202,0.020233100280165672,0.0013603427214547992
1774470978824455000,4.171454833984375,-0.1363684982061386,0.013127519749104977,0.0048861014656722546
1774470978834470700,4.181470703125,-0.13819195330142975,0.021808359771966934,0.0032807481475174427
1774470978844486700,4.191486572265625,-0.1420506089925766,0.037638988345861435,-0.009778328239917755
1774470978854502700,4.201502685546875,-0.14179521799087524,0.05007914453744888,-0.03266606852412224
1774470978864518700,4.2115185546875,-0.13398602604866028,0.051777444779872894,-0.0634562075138092
1774470978874535000,4.221534912109375,-0.11724832653999329,0.05564248934388161,-0.09623678773641586
1774470978884551000,4.231551025390625,-0.09259545058012009,0.0711551383137703,-0.11205969005823135
1774470978894566700,4.241566650390625,-0.06967096030712128,0.08659721165895462,-0.11937273293733597
1774470978904582700,4.251582763671875,-0.055632103234529495,0.08474525064229965,-0.11733648180961609
1774470978914598700,4.2615986328125,-0.04075675085186958,0.08969499915838242,-0.11076619476079941
1774470978924614700,4.27161474609375,-0.011471832171082497,0.09567272663116455,-0.09579337388277054
1774470978934632000,4.2816318359375,0.01871696300804615,0.08756446838378906,-0.08669921010732651
1774470978944647700,4.291647705078125,0.04119830206036568,0.07688705623149872,-0.07447823137044907
1774470978954663700,4.30166357421875,0.06348922848701477,0.08218967914581299,-0.05476577579975128
1774470978964679700,4.3116796875,0.08469437807798386,0.10468672960996628,-0.030790669843554497
1774470978974695700,4.32169580078125,0.11341790109872818,0.10449764877557755,-0.0161797683686018
1774470978984711700,4.331711669921875,0.14480085670948029,0.07447236776351929,-0.015504657290875912
1774470978994728000,4.34172802734375,0.16727527976036072,0.04066034406423569,-0.021465077996253967
1774470979004744000,4.351743896484375,0.17855189740657806,0.01341647282242775,-0.02743535302579403
1774470979014759700,4.361759765625,0.18766550719738007,-0.005625927820801735,-0.03225327655673027
1774470979024775700,4.371775634765625,0.19763611257076263,-0.010720022022724152,-0.031512387096881866
1774470979034791700,4.381791748046875,0.19139152765274048,0.0023941819090396166,-0.0210040844976902
1774470979044807700,4.3918076171875,0.16734690964221954,0.042151715606451035,-0.0018130800453945994
1774470979054823700,4.40182373046875,0.15159671008586884,0.09856864809989929,0.02274313010275364
1774470979064840000,4.41183984375,0.13932619988918304,0.12677472829818726,0.03725043311715126
1774470979074855700,4.421855712890625,0.13151195645332336,0.12627831101417542,0.04418770223855972
1774470979084871700,4.43187158203125,0.12593476474285126,0.11932852119207382,0.05147118121385574
1774470979094887700,4.4418876953125,0.1161457821726799,0.1046140268445015,0.05679590627551079
1774470979104903700,4.451903564453125,0.1044803336262703,0.0753200575709343,0.06059730052947998
1774470979114919700,4.461919677734375,0.07971000671386719,0.032890304923057556,0.0549178421497345
1774470979124935700,4.471935791015625,0.056050751358270645,-0.0024580976460129023,0.04071440547704697
1774470979134952000,4.481951904296875,0.03929334506392479,-0.00019201391842216253,0.025320537388324738
1774470979144967700,4.4919677734375,0.03700968250632286,0.030607709661126137,0.0076238312758505344
1774470979154983700,4.501983642578125,0.03292439505457878,0.06606210768222809,-0.006995591334998608
1774470979164999700,4.511999755859375,0.015210111625492573,0.10065604001283646,-0.01372247003018856
1774470979175015700,4.522015625,-0.009704559110105038,0.13845162093639374,-0.008014783263206482
1774470979185031700,4.53203173828125,-0.026099776849150658,0.16296415030956268,0.0062400526367127895
1774470979195048000,4.5420478515625,-0.03344663977622986,0.15271711349487305,0.019357452169060707
1774470979205064000,4.55206396484375,-0.03569328412413597,0.11946354806423187,0.027883030474185944
1774470979215079700,4.56207958984375,-0.028021248057484627,0.08436734229326248,0.03568609058856964
1774470979225095700,4.572095703125,-0.015589612536132336,0.06192595139145851,0.04511954262852669
1774470979235111700,4.582111572265625,-0.005576925817877054,0.04524870589375496,0.047860465943813324
1774470979245127700,4.592127685546875,0.005031776614487171,0.018847724422812462,0.042520295828580856
1774470979255143700,4.602143798828125,0.019180884584784508,0.0035563854034990072,0.031437017023563385
1774470979265160000,4.612159912109375,0.028301145881414413,-0.015148326754570007,0.019115371629595757
1774470979275176000,4.622176025390625,0.02774055115878582,-0.030834877863526344,0.015225292183458805
1774470979285192700,4.632192626953125,0.027772508561611176,-0.015203719958662987,0.024634506553411484
1774470979295208700,4.642208740234375,0.02678474225103855,0.0110470587387681,0.03942916542291641
1774470979305224700,4.652224609375,0.022710904479026794,0.012012454681098461,0.05085226148366928
1774470979315240700,4.66224072265625,0.028113659471273422,0.011257181875407696,0.05342087894678116
1774470979325256700,4.672256591796875,0.0320064015686512,0.01359490491449833,0.04910256341099739
1774470979335272700,4.682272705078125,0.034701522439718246,0.0047177900560200214,0.03647198900580406
1774470979345288700,4.692288818359375,0.03895112872123718,-0.006737264804542065,0.02261662855744362
1774470979355304700,4.7023046875,0.048644501715898514,-0.01528974063694477,0.0012354403734207153
1774470979365320700,4.71232080078125,0.07148031145334244,-0.02273540571331978,-0.016034893691539764
1774470979375336700,4.722336669921875,0.0915866419672966,-0.02846972458064556,-0.026334933936595917
1774470979385353000,4.73235302734375,0.10876350104808807,-0.037338849157094955,-0.024331439286470413
1774470979395368700,4.74236865234375,0.1251581907272339,-0.04926927760243416,-0.012525911442935467
1774470979405384700,4.752384765625,0.14227963984012604,-0.06702110916376114,0.007121026515960693
1774470979415400700,4.762400634765625,0.15583673119544983,-0.09155281633138657,0.027417775243520737
1774470979425416700,4.772416748046875,0.16056278347969055,-0.10780929028987885,0.04963359981775284
1774470979435432700,4.7824326171875,0.1586570143699646,-0.1035277247428894,0.07341109961271286
1774470979445448700,4.79244873046875,0.1521887332201004,-0.07389339804649353,0.10339856147766113
1774470979455465000,4.80246484375,0.13749581575393677,-0.05668351799249649,0.12353711575269699
1774470979465480700,4.812480712890625,0.11753115803003311,-0.04120336100459099,0.13444915413856506
1774470979475496700,4.82249658203125,0.09866426140069962,-0.029797576367855072,0.13062432408332825
1774470979485512700,4.8325126953125,0.08188607543706894,-0.03808746486902237,0.10357512533664703
1774470979495528700,4.84252880859375,0.07052130252122879,-0.05458148568868637,0.06223754212260246
1774470979505544700,4.852544677734375,0.06136402487754822,-0.051853079348802567,0.024958346039056778
1774470979515560700,4.862560791015625,0.057977281510829926,-0.03476863354444504,-0.003350256709381938
1774470979525576700,4.87257666015625,0.044320326298475266,-0.0151017215102911,-0.019750801846385002
1774470979535592700,4.8825927734375,0.022222748026251793,-0.0010809770319610834,-0.02449868433177471
1774470979545608700,4.892608642578125,0.003254915354773402,-0.0038986015133559704,-0.02599431574344635
1774470979555624700,4.902624755859375,-0.009921872988343239,-0.021873073652386665,-0.02484889142215252
1774470979565640700,4.912640625,-0.0161850955337286,-0.04471447318792343,-0.026145849376916885
1774470979575656700,4.92265673828125,-0.016741428524255753,-0.06643814593553543,-0.02888251468539238
1774470979585673000,4.9326728515625,-0.01828739419579506,-0.09780831634998322,-0.04164038598537445
1774470979595688700,4.942688720703125,-0.018853848800063133,-0.12977904081344604,-0.05675782263278961
1774470979605704700,4.95270458984375,-0.02599564753472805,-0.13651177287101746,-0.06843924522399902
1774470979615720700,4.962720703125,-0.034985948354005814,-0.11661476641893387,-0.07303186506032944
1774470979625736700,4.97273681640625,-0.04452032968401909,-0.0774758830666542,-0.06496088951826096
1774470979635752700,4.982752685546875,-0.04361352324485779,-0.021982530131936073,-0.03801555931568146
1774470979645769700,4.992769775390625,-0.04615204781293869,0.03723552078008652,-0.013368802145123482
1774470979655785700,5.00278564453125,-0.05703851953148842,0.08671998232603073,0.005960687063634396
1774470979665801700,5.0128017578125,-0.07148723304271698,0.11114676296710968,0.02683933638036251
1774470979675817700,5.022817626953125,-0.07817655801773071,0.10211092233657837,0.030226079747080803
1774470979685833700,5.032833740234375,-0.06594599038362503,0.10242490470409393,0.04167633876204491
1774470979695849700,5.042849609375,-0.05372687801718712,0.09513130784034729,0.046420227736234665
1774470979705865700,5.05286572265625,-0.042031604796648026,0.05065731704235077,0.04447399079799652
1774470979715881700,5.0628818359375,-0.024347683414816856,-0.007446997333317995,0.0356738418340683
1774470979725897700,5.072897705078125,-0.0076121133752167225,-0.05696474760770798,0.02275378257036209
1774470979735913700,5.082913818359375,0.0016759273130446672,-0.09609857201576233,0.0152561841532588
1774470979745929700,5.0929296875,-0.00284958234988153,-0.1229538843035698,0.01906636916100979
1774470979755945700,5.10294580078125,-0.010575945489108562,-0.11163758486509323,0.034148383885622025
1774470979765961700,5.112961669921875,-0.02551334910094738,-0.07934621721506119,0.045339517295360565
1774470979775977700,5.122977783203125,-0.03951598331332207,-0.04962694272398949,0.044606082141399384
1774470979785993700,5.13299365234375,-0.046912115067243576,-0.03351108729839325,0.0324852392077446
1774470979796009700,5.143009765625,-0.050758786499500275,-0.013133112341165543,0.01384151354432106
1774470979806025200,5.153025146484375,-0.0489925779402256,-0.000990429543890059,-0.006702910177409649
1774470979816041200,5.163041259765625,-0.04331844672560692,-0.011113637126982212,-0.026522953063249588
1774470979826057200,5.17305712890625,-0.03778040036559105,-0.03105751797556877,-0.03869067132472992
1774470979836073200,5.1830732421875,-0.02623213641345501,-0.0432627834379673,-0.045459628105163574
1774470979846089200,5.193089111328125,-0.003032541600987315,-0.03333372250199318,-0.044125914573669434
1774470979856105200,5.203105224609375,0.01991538517177105,-0.025557290762662888,-0.044799163937568665
1774470979866121200,5.213121337890625,0.04120815545320511,-0.013807425275444984,-0.0405074805021286
1774470979876137200,5.22313720703125,0.05347147956490517,0.018632274121046066,-0.021583855152130127
1774470979886153200,5.2331533203125,0.05660335719585419,0.04448597505688667,0.00872291810810566
1774470979896169200,5.243169189453125,0.053876813501119614,0.05475911870598793,0.04553073272109032
1774470979906185200,5.253185302734375,0.053272541612386703,0.061357367783784866,0.09302661567926407
1774470979916201500,5.263201416015625,0.05350583419203758,0.05164135619997978,0.13113698363304138
1774470979926217200,5.27321728515625,0.03838413953781128,-0.003955060616135597,0.14235900342464447
1774470979936233200,5.283233154296875,0.017664214596152306,-0.07180973887443542,0.12490944564342499
1774470979946249200,5.293249267578125,0.005917810369282961,-0.13286563754081726,0.08069298416376114
1774470979956265200,5.30326513671875,0.0018186726374551654,-0.1694023460149765,0.02033190242946148
1774470979966281200,5.31328125,0.005051483865827322,-0.1625060886144638,-0.036677587777376175
1774470979976297200,5.323297119140625,0.0003504719934426248,-0.12781254947185516,-0.08058911561965942
1774470979986313200,5.333313232421875,-0.008557002991437912,-0.09096425771713257,-0.10646146535873413
1774470979996329200,5.3433291015625,-0.03753405809402466,-0.06635851413011551,-0.10945485532283783
1774470980006345200,5.35334521484375,-0.0735732838511467,-0.03610367700457573,-0.09131606668233871
1774470980016361200,5.363361328125,-0.10282997786998749,-0.012045477516949177,-0.0701250284910202
1774470980026378200,5.373378173828125,-0.11435480415821075,-0.01212990004569292,-0.06254060566425323
1774470980036394200,5.383394287109375,-0.11741664260625839,-0.024989506229758263,-0.06931622326374054
1774470980046410200,5.39341015625,-0.10837520658969879,-0.020717263221740723,-0.07343293726444244
1774470980056426200,5.40342626953125,-0.10530165582895279,-0.0065471152774989605,-0.07672034204006195
1774470980066442200,5.413442138671875,-0.11271057277917862,0.009944243356585503,-0.07657919824123383
1774470980076458200,5.423458251953125,-0.13024935126304626,0.047326769679784775,-0.06888958811759949
1774470980086474200,5.43347412109375,-0.15778936445713043,0.09392569959163666,-0.06310546398162842
1774470980096490200,5.443490234375,-0.18177805840969086,0.13318468630313873,-0.0681508257985115
1774470980106506200,5.45350634765625,-0.196882963180542,0.19439983367919922,-0.07411151379346848
1774470980116522200,5.463522216796875,-0.19493700563907623,0.2227925956249237,-0.09453342854976654
1774470980126538200,5.473538330078125,-0.18753021955490112,0.20578086376190186,-0.13296177983283997
1774470980136554200,5.48355419921875,-0.16799166798591614,0.16217932105064392,-0.1813705861568451
1774470980146570200,5.4935703125,-0.13651017844676971,0.09291822463274002,-0.2356809675693512
1774470980156586200,5.503586181640625,-0.09106040000915527,0.0334026962518692,-0.27596235275268555
1774470980166602200,5.513602294921875,-0.048046354204416275,-0.009888849221169949,-0.3038850426673889
1774470980176618200,5.5236181640625,-0.02636502869427204,-0.04945356771349907,-0.320128470659256
1774470980186634200,5.53363427734375,-0.010236924514174461,-0.07663911581039429,-0.32069331407546997
1774470980196650200,5.543650146484375,0.004037884995341301,-0.09167079627513885,-0.3053913414478302
1774470980206666200,5.553666259765625,0.012289688922464848,-0.10176604241132736,-0.28062739968299866
1774470980216682200,5.56368212890625,0.016535300761461258,-0.09869222342967987,-0.2414504438638687
1774470980226698200,5.5736982421875,0.018151573836803436,-0.08333057910203934,-0.18385158479213715
1774470980236714200,5.58371435546875,0.017167534679174423,-0.08794236928224564,-0.1286890059709549
1774470980246730200,5.593730224609375,0.010670487768948078,-0.1051597073674202,-0.07509741187095642
1774470980256746200,5.603746337890625,0.00018189390539191663,-0.09397602826356888,-0.02442624792456627
1774470980266762200,5.61376220703125,-0.014493721537292004,-0.03002341277897358,0.020488496869802475
1774470980276778200,5.6237783203125,-0.03413746505975723,0.047572843730449677,0.04409102723002434
1774470980286794200,5.633794189453125,-0.05422009527683258,0.09802137315273285,0.04246943071484566
1774470980296810200,5.643810302734375,-0.07146379351615906,0.1202973797917366,0.018517492339015007
1774470980306826200,5.653826171875,-0.08714715391397476,0.11717589199542999,-0.016868196427822113
1774470980316842200,5.66384228515625,-0.09092085063457489,0.0979049950838089,-0.05771788954734802
1774470980326858200,5.673858154296875,-0.08644168078899384,0.06727997213602066,-0.09653053432703018
1774470980336874200,5.683874267578125,-0.08129432052373886,0.03592391312122345,-0.12790390849113464
1774470980346890200,5.69389013671875,-0.07359299063682556,0.018128670752048492,-0.1479756087064743
1774470980356906200,5.70390625,-0.06209346279501915,0.010455037467181683,-0.1521269530057907
1774470980366923300,5.71392333984375,-0.05038727447390556,-0.0013068130938336253,-0.14396436512470245
1774470980376939300,5.723939208984375,-0.045039113610982895,-0.02816772274672985,-0.124646857380867
1774470980386955300,5.733955322265625,-0.036470927298069,-0.07574855536222458,-0.10358764231204987
1774470980396971300,5.74397119140625,-0.017497500404715538,-0.12718351185321808,-0.07635655999183655
1774470980406987300,5.7539873046875,-0.000035686356568476185,-0.16017475724220276,-0.036928724497556686
1774470980417003300,5.764003173828125,-0.00012783173588104546,-0.185952827334404,0.010822287760674953
1774470980427019300,5.774019287109375,-0.02750459499657154,-0.18574883043766022,0.06383969634771347
1774470980437035300,5.78403515625,-0.07070053368806839,-0.15915051102638245,0.11908990144729614
1774470980447051300,5.79405126953125,-0.12216319143772125,-0.13448643684387207,0.15342257916927338
1774470980457067300,5.8040673828125,-0.17786534130573273,-0.13243474066257477,0.15572968125343323
1774470980467083300,5.814083251953125,-0.22814741730690002,-0.13998693227767944,0.12004411220550537
1774470980477099300,5.824099365234375,-0.2681174576282501,-0.17293556034564972,0.05793121084570885
1774470980487115300,5.834115234375,-0.29479727149009705,-0.21788759529590607,0.001100950757972896
1774470980497131300,5.84413134765625,-0.32143715023994446,-0.23065239191055298,-0.039748210459947586
1774470980507147300,5.854147216796875,-0.3050600290298462,-0.15681011974811554,-0.06539125740528107
1774470980517163300,5.864163330078125,-0.23640401661396027,0.006383863277733326,-0.11005832999944687
1774470980527179300,5.87417919921875,-0.12589587271213531,0.24619539082050323,-0.18971054255962372
1774470980537195300,5.8841953125,0.001711081014946103,0.44434255361557007,-0.2640250027179718
1774470980547211300,5.894211181640625,0.08199233561754227,0.5568853616714478,-0.27005037665367126
1774470980557227000,5.90422705078125,0.11144769936800003,0.5849114060401917,-0.20721817016601562
1774470980567243300,5.9142431640625,0.14403121173381805,0.5805180072784424,-0.1151428371667862
1774470980577259300,5.92425927734375,0.21761967241764069,0.48318928480148315,-0.030008498579263687
1774470980587275300,5.934275146484375,0.33569809794425964,0.2183200865983963,0.02815227583050728
1774470980597291300,5.944291259765625,0.4796731173992157,0.08836128562688828,-0.00869175884872675
1774470980607307300,5.954307373046875,0.7721039056777954,-0.013428723439574242,-0.07582925260066986
1774470980617323300,5.9643232421875,1.0884320735931396,-0.3524896204471588,-0.17919905483722687
1774470980627339000,5.974339111328125,1.2909889221191406,-0.6609789729118347,-0.32595014572143555
1774470980637355300,5.984355224609375,1.4993698596954346,-0.7284725308418274,-0.5135914087295532
1774470980647371300,5.994371337890625,1.7513136863708496,-0.8455504179000854,-0.8122942447662354
1774470980657387300,6.00438720703125,1.8643301725387573,-0.8140100836753845,-1.1931401491165161
1774470980667403300,6.0144033203125,2.0542404651641846,-0.4572892487049103,-1.5921540260314941
1774470980677419300,6.024419189453125,2.431988000869751,0.224207803606987,-1.9970141649246216
1774470980687435300,6.034435302734375,2.679009199142456,1.0432318449020386,-2.5517282485961914
1774470980697451300,6.044451171875,2.7453136444091797,1.768729329109192,-3.1903140544891357
1774470980707467300,6.05446728515625,2.620387315750122,2.194392204284668,-3.7784171104431152
1774470980717483300,6.064483154296875,2.415461301803589,2.479741096496582,-4.134406089782715
1774470980727499300,6.074499267578125,2.1226916313171387,2.6677043437957764,-4.084757328033447
1774470980737516300,6.084516357421875,1.718284249305725,2.6678895950317383,-3.51650333404541
1774470980747532000,6.094531982421875,1.2775639295578003,2.4064159393310547,-2.5453922748565674
1774470980757548300,6.10454833984375,0.9452378749847412,1.8064799308776855,-1.4254494905471802
1774470980767564300,6.114564208984375,0.704057514667511,1.0698623657226562,-0.36115792393684387
1774470980777580300,6.124580322265625,0.3921810984611511,0.5121839046478271,0.5182117223739624
1774470980787596300,6.13459619140625,0.07644310593605042,0.23024146258831024,1.1279610395431519
1774470980797612300,6.1446123046875,-0.09495341032743454,0.17361439764499664,1.3853178024291992
1774470980807628800,6.15462890625,-0.0978328213095665,0.22679772973060608,1.329824447631836
1774470980817645000,6.16464501953125,0.0006215817993506789,0.29212266206741333,0.9838595986366272
1774470980827661000,6.1746611328125,0.15762078762054443,0.25184929370880127,0.4048633277416229
1774470980837677000,6.184677001953125,0.3275189995765686,0.11578891426324844,-0.26327478885650635
1774470980847693000,6.194693115234375,0.501884937286377,0.054844338446855545,-0.8500048518180847
1774470980857709000,6.204708984375,0.6457459926605225,0.06537847220897675,-1.2923129796981812
1774470980867724800,6.214724853515625,0.7637064456939697,-0.009503223933279514,-1.5551369190216064
1774470980877741000,6.224740966796875,0.8508501052856445,-0.14712393283843994,-1.6552762985229492
1774470980887757000,6.234757080078125,0.817487895488739,-0.5138537287712097,-1.6816184520721436
1774470980897773000,6.24477294921875,0.6808578968048096,-0.9285215139389038,-1.5567268133163452
1774470980907789000,6.2547890625,0.44103437662124634,-1.0751463174819946,-1.1478272676467896
1774470980917805000,6.26480517578125,0.2888869345188141,-1.2441643476486206,-0.6299641132354736
1774470980927820800,6.27482080078125,0.25399500131607056,-1.4677263498306274,-0.466305136680603
1774470980937836800,6.2848369140625,0.14664803445339203,-1.4654046297073364,-0.5944905281066895
1774470980947853000,6.29485302734375,0.08355747908353806,-1.138465166091919,-0.6774192452430725
1774470980957869000,6.304869140625,0.06903152912855148,-0.7249673008918762,-0.7283135652542114
1774470980967885000,6.314885009765625,0.10510671138763428,-0.32627904415130615,-0.7904877066612244
1774470980977901000,6.324901123046875,0.33811652660369873,-0.22963373363018036,-0.9853898286819458
1774470980987917000,6.3349169921875,0.44140031933784485,0.3520853519439697,-0.7482348084449768
1774470980997932800,6.344932861328125,0.3286609649658203,0.6647092700004578,-0.4419252276420593
1774470981007948800,6.35494873046875,0.0653848648071289,0.869784951210022,-0.13605716824531555
1774470981017965000,6.364965087890625,-0.16847236454486847,0.9688255190849304,0.14866484701633453
1774470981027981000,6.37498095703125,-0.3829471170902252,0.9331777691841125,0.39486929774284363
1774470981037997000,6.3849970703125,-0.6965060830116272,0.758674144744873,0.5251433849334717
1774470981048013000,6.395012939453125,-0.8747283220291138,0.7326334714889526,0.5114755034446716
1774470981058029000,6.405029052734375,-0.7417425513267517,0.4916757345199585,0.3586992919445038
1774470981068044800,6.415044921875,-0.6088729500770569,0.48011040687561035,0.04633314535021782
1774470981078061000,6.42506103515625,-0.5358796715736389,0.6622826457023621,-0.31005239486694336
1774470981088077000,6.4350771484375,-0.5643765330314636,0.6801899671554565,-0.6402207016944885
1774470981098093000,6.445093017578125,-0.550062894821167,0.7025895714759827,-0.8056389689445496
1774470981108109800,6.45510986328125,-0.4948241114616394,0.7423170208930969,-0.8442263007164001
1774470981118125800,6.465125732421875,-0.4668140411376953,0.7295370101928711,-0.8389996290206909
1774470981128141800,6.475141845703125,-0.45162150263786316,0.5625948905944824,-0.850060760974884
1774470981138158000,6.485157958984375,-0.42306283116340637,0.37051016092300415,-0.9076276421546936
1774470981148174000,6.495174072265625,-0.3637390732765198,0.2427402138710022,-1.043423056602478
1774470981158190000,6.505190185546875,-0.33581581711769104,0.10721886157989502,-1.278930425643921
1774470981168206000,6.5152060546875,-0.2539973855018616,0.08183734118938446,-1.5514625310897827
1774470981178221800,6.525221923828125,-0.3188738524913788,0.32978084683418274,-1.772731065750122
1774470981188237800,6.53523779296875,-0.4994548261165619,0.7414823770523071,-2.098745107650757
1774470981198253800,6.54525390625,-0.6516496539115906,1.1889925003051758,-2.6406638622283936
1774470981208270000,6.55527001953125,-0.45093122124671936,1.6407055854797363,-3.166421890258789
1774470981218286000,6.5652861328125,0.04000068083405495,1.9564942121505737,-3.5128731727600098
1774470981228302000,6.575302001953125,0.5633304715156555,1.9307587146759033,-3.5994696617126465
1774470981238318000,6.585318115234375,0.999485433101654,1.5632984638214111,-3.5329461097717285
1774470981248333800,6.595333740234375,1.3210655450820923,1.0252776145935059,-3.403388500213623
1774470981258349800,6.605349853515625,1.5464041233062744,0.5553902387619019,-3.2540740966796875
1774470981268366000,6.615365966796875,1.706836462020874,0.127597376704216,-3.1057257652282715
1774470981278382000,6.625382080078125,1.7407089471817017,-0.11953146010637283,-2.935533285140991
1774470981288398000,6.635398193359375,1.778326392173767,-0.18304012715816498,-2.7806708812713623
1774470981298414000,6.6454140625,1.7236274480819702,-0.038654718548059464,-2.639320135116577
1774470981308430000,6.65543017578125,1.5478817224502563,0.16841191053390503,-2.5718994140625
1774470981318445800,6.66544580078125,1.3091894388198853,0.3246702253818512,-2.5978803634643555
1774470981328461800,6.6754619140625,1.034441590309143,0.24842604994773865,-2.6885390281677246
1774470981338478000,6.68547802734375,0.8220211267471313,-0.045391183346509933,-2.8089640140533447
1774470981348494000,6.695494140625,0.7775018811225891,-0.3899131417274475,-2.9320363998413086
1774470981358510000,6.705510009765625,0.86940997838974,-0.6749501824378967,-3.1476099491119385
1774470981368526000,6.715526123046875,1.0000574588775635,-0.6560567021369934,-3.4580843448638916
1774470981378541800,6.725541748046875,1.1403945684432983,-0.3530416786670685,-3.8016717433929443
1774470981388557800,6.735557861328125,1.2778598070144653,0.04463431239128113,-4.178150653839111
1774470981398573800,6.74557373046875,1.3389428853988647,0.35997360944747925,-4.519948482513428
1774470981408590000,6.755590087890625,1.3881266117095947,0.49481719732284546,-4.691633224487305
1774470981418606000,6.765606201171875,1.4384760856628418,0.34211793541908264,-4.630681037902832
1774470981428622000,6.7756220703125,1.5202686786651611,-0.08360355347394943,-4.295653820037842
1774470981438638000,6.78563818359375,1.6437911987304688,-0.717579185962677,-3.711036205291748
1774470981448653800,6.79565380859375,1.8761188983917236,-1.323771595954895,-2.950392961502075
1774470981458669800,6.805669921875,2.1940574645996094,-1.593176245689392,-2.202501058578491
1774470981468686000,6.81568603515625,2.4292185306549072,-1.5994412899017334,-1.705933928489685
1774470981478703000,6.825703125,2.4857025146484375,-1.4881762266159058,-1.5316745042800903
1774470981488719000,6.835718994140625,2.3933632373809814,-1.40593683719635,-1.5846420526504517
1774470981498734800,6.84573486328125,2.2242414951324463,-1.3093434572219849,-1.6749783754348755
1774470981508750800,6.855750732421875,1.990918517112732,-1.3683854341506958,-1.7160837650299072
1774470981518766800,6.865766845703125,1.7505027055740356,-1.632587194442749,-1.64847731590271
1774470981528783000,6.875783203125,1.6393918991088867,-1.8164393901824951,-1.5168052911758423
1774470981538799000,6.885799072265625,1.637942910194397,-1.7347700595855713,-1.395127296447754
1774470981548815000,6.895815185546875,1.7270511388778687,-1.3087944984436035,-1.309137225151062
1774470981558831000,6.9058310546875,1.9998786449432373,-0.3845846951007843,-1.4524414539337158
1774470981568846800,6.915846923828125,2.1048061847686768,0.3267360329627991,-1.647439956665039
1774470981578862800,6.92586279296875,2.303088426589966,0.5252589583396912,-1.6314562559127808
1774470981588878800,6.93587890625,2.6166622638702393,0.3124242126941681,-1.416493535041809
1774470981598895000,6.94589501953125,2.9921987056732178,-0.12482742220163345,-1.1467502117156982
1774470981608911000,6.9559111328125,3.3482706546783447,-0.5081197023391724,-0.8723834156990051
1774470981618927000,6.965927001953125,3.612518072128296,-0.655045211315155,-0.5946175456047058
1774470981628942800,6.97594287109375,3.7887561321258545,-0.5785139799118042,-0.3398403823375702
1774470981638958800,6.985958740234375,3.8042454719543457,-0.51308274269104,-0.16824227571487427
1774470981648974800,6.995974853515625,3.6179556846618652,-0.5461357831954956,-0.011826831847429276
1774470981658991000,7.0059912109375,2.7345528602600098,-1.4206795692443848,0.03230467811226845
1774470981669007000,7.016007080078125,1.7390666007995605,-1.4226523637771606,0.0484575480222702
1774470981679023000,7.026023193359375,1.003075361251831,-0.7502071261405945,0.07630409300327301
1774470981689039000,7.0360390625,0.3334634602069855,-0.48842641711235046,0.05516844615340233
1774470981699054800,7.046054931640625,-0.004830707795917988,-0.46965137124061584,0.11653992533683777
1774470981709070800,7.05607080078125,-0.0380680225789547,-0.7272219657897949,0.2807765305042267
1774470981719086800,7.0660869140625,0.0544629767537117,-1.4935321807861328,0.4666247069835663
1774470981729103000,7.07610302734375,0.25729331374168396,-2.439093828201294,0.7350191473960876
1774470981739119000,7.086119140625,0.5071098208427429,-3.239330530166626,1.1131192445755005
1774470981749135000,7.096135009765625,0.7796065807342529,-3.8280975818634033,1.4826682806015015
1774470981759151000,7.106151123046875,0.9482024908065796,-4.269079208374023,1.6788743734359741
1774470981769166800,7.116166748046875,0.9532191157341003,-4.446681976318359,1.6513854265213013
1774470981779182800,7.126182861328125,1.0550397634506226,-3.705185651779175,1.6514520645141602
1774470981789198800,7.13619873046875,1.1361314058303833,-2.9382030963897705,1.4873323440551758
1774470981799215000,7.146215087890625,0.9658475518226624,-2.942499876022339,1.276776909828186
1774470981809230600,7.156230712890625,0.6347439289093018,-2.5586423873901367,1.02997624874115
1774470981819247600,7.16624755859375,0.11243946105241776,-2.4420719146728516,0.6022453904151917
1774470981829263600,7.176263671875,-0.21088853478431702,-2.3201329708099365,0.43643882870674133
1774470981839279600,7.186279541015625,-0.3792916536331177,-2.113165855407715,0.36472150683403015
1774470981849295600,7.196295654296875,-0.47464293241500854,-1.9850566387176514,0.3193311095237732
1774470981859311600,7.2063115234375,-0.5141173601150513,-1.7333143949508667,0.24477513134479523
1774470981869327600,7.21632763671875,-0.42722004652023315,-1.4427027702331543,0.23344017565250397
1774470981879343600,7.226343505859375,-0.30641746520996094,-1.2070415019989014,0.2677696645259857
1774470981889359600,7.236359619140625,-0.24399934709072113,-1.2843272686004639,0.20701895654201508
1774470981899375600,7.246375732421875,-0.25258511304855347,-1.7147105932235718,0.23990873992443085
1774470981909391600,7.2563916015625,-0.2593926787376404,-2.08219838142395,0.40396958589553833
1774470981919407600,7.26640771484375,-0.2248200625181198,-2.264817237854004,0.7152845859527588
1774470981929423600,7.276423583984375,-0.17269614338874817,-2.1496798992156982,0.8974953889846802
1774470981939439600,7.286439697265625,-0.17969945073127747,-1.6435106992721558,0.9020084142684937
1774470981949455600,7.29645556640625,-0.12818114459514618,-0.8511795401573181,0.606778621673584
1774470981959471600,7.3064716796875,-0.1496928185224533,-0.21527822315692902,0.20297788083553314
1774470981969487600,7.316487548828125,-0.3101203143596649,0.3141600489616394,-0.01895132102072239
1774470981979503600,7.326503662109375,-0.47882944345474243,0.31975188851356506,0.12342499941587448
1774470981989519600,7.33651953125,-0.6147896647453308,-0.14705416560173035,0.4368036985397339
1774470981999535600,7.34653564453125,-0.49575674533843994,-0.6664294004440308,0.7269111275672913
1774470982009551600,7.356551513671875,-0.2740967869758606,-0.847811758518219,0.9772523045539856
1774470982019567600,7.366567626953125,-0.06450389325618744,-0.7899788022041321,1.0902105569839478
1774470982029583600,7.37658349609375,0.11090334504842758,-0.5931216478347778,1.0461418628692627
1774470982039599600,7.386599609375,0.21787400543689728,-0.3482160270214081,0.9132402539253235
1774470982049615600,7.39661572265625,0.5508288145065308,-0.08009563386440277,0.729162871837616
1774470982059631600,7.406631591796875,0.7951064705848694,-0.07939469069242477,0.6644469499588013
1774470982069647600,7.416647705078125,0.7705012559890747,-0.12097515910863876,0.6154858469963074
1774470982079663600,7.42666357421875,0.7431199550628662,-0.04634672403335571,0.5594342947006226
1774470982089679600,7.4366796875,0.7165013551712036,-0.014625282026827335,0.382632315158844
1774470982099695600,7.446695556640625,0.6375905871391296,-0.1126093715429306,0.15942348539829254
1774470982109711600,7.456711669921875,0.5023424625396729,-0.23209981620311737,-0.0663374811410904
1774470982119727600,7.4667275390625,0.42802804708480835,-0.1658153384923935,-0.2193049192428589
1774470982129743600,7.47674365234375,0.4570610225200653,0.019903933629393578,-0.3092404007911682
1774470982139759600,7.486759521484375,0.5393481850624084,0.15944691002368927,-0.3698989450931549
1774470982149775600,7.496775634765625,0.5735125541687012,0.18675470352172852,-0.33650851249694824
1774470982159791600,7.50679150390625,0.6389133930206299,0.18538929522037506,-0.36155766248703003
1774470982169807600,7.5168076171875,0.7140182256698608,0.10919812321662903,-0.2857550382614136
1774470982179823600,7.52682373046875,0.7812292575836182,0.018821891397237778,-0.13705532252788544
1774470982189840600,7.536840576171875,0.7943453192710876,0.06997615844011307,0.024262195453047752
1774470982199856600,7.546856689453125,0.8529489636421204,0.20513105392456055,0.14076830446720123
1774470982209872600,7.55687255859375,1.035867691040039,0.1909976452589035,0.19377826154232025
1774470982219888600,7.566888671875,1.1576380729675293,0.23693424463272095,0.2645792067050934
1774470982229904600,7.576904541015625,1.1431738138198853,0.3102550804615021,0.22541235387325287
1774470982239920600,7.586920654296875,1.130542516708374,0.10002540051937103,0.05019499361515045
1774470982249936600,7.5969365234375,1.0804436206817627,-0.047926247119903564,-0.10898827016353607
1774470982259952600,7.60695263671875,0.8025209307670593,-0.06453131884336472,-0.2258693426847458
1774470982269968400,7.616968505859375,0.4928493797779083,-0.12317413091659546,-0.273465633392334
1774470982279984600,7.626984619140625,0.3345066010951996,-0.3230811059474945,-0.25885099172592163
1774470982290000600,7.637000732421875,0.2716147303581238,-0.5184159874916077,-0.1769966185092926
1774470982300016600,7.6470166015625,0.25510740280151367,-0.6025314331054688,-0.03479393199086189
1774470982310032600,7.65703271484375,0.2656513750553131,-0.5978615283966064,0.032952889800071716
1774470982320048600,7.667048583984375,0.2954140603542328,-0.6963487267494202,0.08235292881727219
1774470982330064600,7.677064697265625,0.34631454944610596,-0.7188899517059326,0.15032878518104553
1774470982340080400,7.687080322265625,0.35107919573783875,-0.6996304988861084,0.2913000285625458
1774470982350096600,7.6970966796875,0.3792674243450165,-0.609017550945282,0.42859023809432983
1774470982360112600,7.707112548828125,0.42008036375045776,-0.4383653700351715,0.5602611899375916
1774470982370128600,7.717128662109375,0.48513874411582947,-0.2961658835411072,0.6326421499252319
1774470982380144600,7.72714453125,0.5299474596977234,-0.2999363839626312,0.5972461104393005
1774470982390160600,7.73716064453125,0.5184082984924316,-0.38728487491607666,0.5257652401924133
1774470982400176600,7.7471767578125,0.4823852777481079,-0.41080111265182495,0.502033531665802
1774470982410192600,7.757192626953125,0.42955830693244934,-0.3466314375400543,0.4564458429813385
1774470982420208600,7.767208740234375,0.3396611511707306,-0.34594783186912537,0.29854726791381836
1774470982430224600,7.777224609375,0.2269660383462906,-0.4117918014526367,0.04742370918393135
1774470982440240600,7.78724072265625,0.08260966092348099,-0.13318708539009094,-0.14291347563266754
1774470982450256600,7.797256591796875,-0.028137095272541046,0.29694247245788574,-0.07911825180053711
1774470982460272600,7.807272705078125,-0.07033408433198929,0.4868159890174866,0.08658229559659958
1774470982470288600,7.81728857421875,-0.10247897356748581,0.5188130736351013,0.16756103932857513
1774470982480304600,7.8273046875,-0.1172078475356102,0.5410041213035583,0.167219877243042
1774470982490320600,7.837320556640625,-0.07537917792797089,0.7117795944213867,0.09107238799333572
1774470982500336600,7.847336669921875,-0.052935387939214706,0.9078361988067627,-0.16015291213989258
1774470982510352600,7.8573525390625,-0.09856492280960083,0.8733155131340027,-0.29288432002067566
1774470982520368600,7.86736865234375,-0.09294991195201874,0.5039201378822327,-0.3353508412837982
1774470982530384600,7.877384521484375,-0.034335337579250336,-0.015263907611370087,-0.3687386214733124
1774470982540401700,7.887401611328125,0.009563145227730274,-0.12010456621646881,-0.3472229540348053
1774470982550417700,7.897417724609375,0.01805303618311882,0.08442087471485138,-0.24530856311321259
1774470982560433700,7.90743359375,0.03056270256638527,0.34194695949554443,-0.20964457094669342
1774470982570449700,7.91744970703125,0.007509049028158188,0.48842906951904297,-0.18554456532001495
1774470982580465700,7.927465576171875,-0.03928482159972191,0.588327944278717,-0.16272605955600739
1774470982590481400,7.9374814453125,-0.07240655273199081,0.9231531023979187,-0.28767651319503784
1774470982600497700,7.94749755859375,-0.0812237486243248,0.9219567775726318,-0.2799541652202606
1774470982610513700,7.957513671875,-0.01443859376013279,0.6979942917823792,-0.28394198417663574
1774470982620529700,7.96752978515625,0.05010844022035599,0.4408186674118042,-0.2609615623950958
1774470982630545700,7.977545654296875,0.09518217295408249,0.12942856550216675,-0.20715531706809998
1774470982640561700,7.987561767578125,0.1451883465051651,0.0556052066385746,-0.1452043354511261
1774470982650577700,7.99757763671875,0.17412705719470978,0.25949254631996155,-0.10695654153823853
1774470982660593400,8.007593505859376,0.22005140781402588,0.5101820230484009,-0.03645441308617592
1774470982670609700,8.017609619140625,0.24683694541454315,0.6323457360267639,0.013688381761312485
1774470982680625700,8.027625732421875,0.26711851358413696,0.7397699356079102,-0.06299574673175812
1774470982690641700,8.0376416015625,0.2550714313983917,0.8391095995903015,-0.18000784516334534
1774470982700657700,8.04765771484375,0.22340193390846252,0.5363009572029114,-0.16477642953395844
1774470982710673700,8.057673583984375,0.13928571343421936,0.40251097083091736,-0.15314747393131256
1774470982720689400,8.067689453125,0.07433681190013885,0.3032485544681549,-0.175434410572052
1774470982730705400,8.077705322265626,0.06678622215986252,0.03075338527560234,-0.2748832404613495
1774470982740721700,8.0877216796875,0.07968790084123611,-0.2386237531900406,-0.374406635761261
1774470982750737700,8.097737548828125,0.10427767038345337,-0.2062612920999527,-0.4372905194759369
1774470982760753700,8.107753662109374,0.16311675310134888,0.07724631577730179,-0.3084920644760132
1774470982770769700,8.117769775390625,0.3638514578342438,0.21555492281913757,0.18650969862937927
1774470982780785700,8.12778564453125,0.4668015241622925,0.3859993517398834,0.3922615349292755
1774470982790801400,8.137801513671874,0.39470788836479187,0.2134382426738739,0.3985958397388458
1774470982800817700,8.147817626953126,0.22729387879371643,-0.00039654469583183527,0.17539498209953308
1774470982810833400,8.15783349609375,0.04398370161652565,-0.27357375621795654,-0.15397198498249054
1774470982820849400,8.167849365234375,-0.0923115536570549,-0.3920244872570038,-0.2929924726486206
1774470982830865400,8.177865478515624,-0.12505857646465302,-0.45422929525375366,-0.39167749881744385
1774470982840881700,8.187881591796875,-0.15468917787075043,-0.4178060293197632,-0.3764340877532959
1774470982850897700,8.197897705078125,-0.15829803049564362,-0.21541857719421387,-0.20927812159061432
1774470982860913400,8.207913330078124,-0.15913160145282745,0.0727759376168251,-0.05722227692604065
1774470982870929400,8.217929443359376,-0.16297799348831177,0.31142473220825195,0.09219517558813095
1774470982880946400,8.227946533203125,-0.13662415742874146,0.5442518591880798,0.23088034987449646
1774470982890962700,8.237962646484375,-0.07552485167980194,0.7994913458824158,0.32922983169555664
1774470982900978700,8.247978759765624,-0.016323845833539963,0.934782862663269,0.36656442284584045
1774470982910994400,8.257994384765626,0.017979266121983528,1.0419020652770996,0.3773321211338043
1774470982921010400,8.268010498046875,0.033006154000759125,1.0942734479904175,0.3555344045162201
1774470982931026400,8.2780263671875,0.06349961459636688,1.2322970628738403,0.2850189507007599
1774470982941042400,8.28804248046875,0.062185078859329224,1.4971764087677002,0.23519280552864075
1774470982951058400,8.298058349609375,0.09365325421094894,1.696158766746521,0.13733015954494476
1774470982961074700,8.30807470703125,0.1746213436126709,1.9081085920333862,0.0023070964962244034
1774470982971090400,8.31809033203125,0.18233412504196167,2.161940336227417,-0.16271701455116272
1774470982981106400,8.3281064453125,0.18686363101005554,2.1503372192382812,-0.25705790519714355
1774470982991122400,8.338122314453125,0.18899814784526825,2.1057000160217285,-0.23774997889995575
1774470983001138400,8.348138427734375,0.1760205626487732,2.064835786819458,-0.16813227534294128
1774470983011154400,8.358154541015624,0.16074466705322266,2.0384535789489746,-0.0606716014444828
1774470983021170400,8.36817041015625,0.16542038321495056,2.035717487335205,0.016921991482377052
1774470983031186700,8.378186767578125,0.13673441112041473,1.81061851978302,0.09006144851446152
1774470983041202400,8.388202392578124,0.09188065677881241,1.5798380374908447,0.17775748670101166
1774470983051218400,8.398218505859376,0.03297339752316475,1.3847646713256836,0.1697610765695572
1774470983061234400,8.408234375,0.04579199105501175,1.1098252534866333,0.05095266178250313
1774470983071250400,8.41825048828125,0.056289106607437134,0.838843822479248,-0.06599952280521393
1774470983081266400,8.428266357421874,-0.02207840420305729,0.5827731490135193,-0.07941067218780518
1774470983091282700,8.43828271484375,-0.11618546396493912,0.02894802764058113,0.048352353274822235
1774470983101298700,8.448298583984375,-0.13307176530361176,-0.5997081995010376,0.21590007841587067
1774470983111314400,8.458314453125,-0.1412695050239563,-0.8149105310440063,0.4370260536670685
1774470983121330400,8.468330322265626,-0.025441443547606468,-0.654371440410614,0.4511277675628662
1774470983131346400,8.478346435546875,0.050393134355545044,-0.7538040280342102,0.3471185564994812
1774470983141362400,8.488362548828125,-0.009586048312485218,-0.8425335884094238,0.32180866599082947
1774470983151378400,8.49837841796875,-0.014627944678068161,-0.8679481744766235,0.14905685186386108
1774470983161394700,8.508394775390625,0.05687446892261505,-0.8068509697914124,-0.0593181848526001
1774470983171410700,8.51841064453125,0.21414132416248322,-0.44332870841026306,-0.06992342323064804
1774470983181426400,8.528426513671874,0.4591750502586365,-0.0869026705622673,-0.033977407962083817
1774470983191442400,8.5384423828125,0.6966014504432678,0.09106679260730743,-0.07031171023845673
1774470983201458400,8.54845849609375,0.8224451541900635,0.08575937896966934,-0.11489222943782806
1774470983211474400,8.558474365234375,0.7867148518562317,0.013413277454674244,-0.0377923846244812
1774470983221490400,8.568490478515624,0.4177328050136566,-0.40002384781837463,0.30243122577667236
1774470983231507500,8.578507568359376,0.28063830733299255,-0.5510748624801636,0.20212726294994354
1774470983241523500,8.5885234375,0.12232591211795807,-0.6395837068557739,0.024042751640081406
1774470983251539500,8.59853955078125,0.0676586702466011,-0.6309249401092529,-0.09359972178936005
1774470983261555500,8.608555419921874,0.05842575803399086,-0.4234279692173004,-0.05892909690737724
1774470983271571500,8.618571533203125,0.0835857093334198,-0.0356605239212513,-0.0630362257361412
1774470983281587700,8.628587646484375,0.18167045712471008,0.02382543869316578,-0.1067565381526947
1774470983291603500,8.638603515625,0.12807993590831757,0.00033396040089428425,-0.23380157351493835
1774470983301619500,8.648619384765626,0.03431429713964462,-0.003858121344819665,-0.35246485471725464
1774470983311635500,8.658635498046875,-0.036140426993370056,0.02617647685110569,-0.4164494276046753
1774470983321651500,8.6686513671875,-0.1110554113984108,0.026212695986032486,-0.3896321952342987
1774470983331667500,8.67866748046875,-0.10932702571153641,0.0758897066116333,-0.32858482003211975
1774470983341683500,8.688683349609375,-0.08976370841264725,0.11098697036504745,-0.3152484893798828
1774470983351699700,8.69869970703125,-0.0394027978181839,0.11072731018066406,-0.2926577031612396
1774470983361715500,8.708715576171874,0.06544452160596848,0.1909095048904419,-0.1860170066356659
1774470983371731500,8.7187314453125,0.20913644134998322,0.3516504466533661,0.002460494404658675
1774470983381747500,8.72874755859375,0.3748779892921448,0.5048549175262451,0.2526325285434723
1774470983391763500,8.738763427734375,0.5807848572731018,0.6613459587097168,0.48029977083206177
1774470983401779500,8.748779541015624,0.7851784229278564,0.9161351323127747,0.4902847707271576
1774470983411795500,8.75879541015625,0.9434330463409424,0.7776153087615967,0.38892030715942383
1774470983421811500,8.7688115234375,0.9661218523979187,0.6389514803886414,0.21889612078666687
1774470983431827500,8.778827392578124,1.0057857036590576,0.5450710654258728,0.15688414871692657
1774470983441843500,8.788843505859376,1.0670018196105957,0.50105881690979,0.17068439722061157
1774470983451859500,8.798859375,1.072853684425354,0.5573383569717407,0.1815205216407776
1774470983461875500,8.80887548828125,1.0484113693237305,0.6141195893287659,0.2247745245695114
1774470983471891500,8.818891357421874,1.019904375076294,0.6594151854515076,0.27827930450439453
1774470983481907700,8.82890771484375,0.9394093155860901,0.7783588767051697,0.3441328704357147
1774470983491923500,8.83892333984375,0.844974935054779,0.7246605157852173,0.3822368383407593
1774470983501939500,8.848939453125,0.7566690444946289,0.4721214771270752,0.34975534677505493
1774470983511955500,8.85895556640625,0.5804340839385986,0.21525532007217407,0.30783718824386597
1774470983521971500,8.868971435546875,0.38888996839523315,-0.1259440779685974,0.267596036195755
1774470983531987500,8.878987548828125,0.1590397208929062,-0.433210551738739,0.32474878430366516
1774470983542003500,8.88900341796875,0.05158250033855438,-0.5397772192955017,0.5723247528076172
1774470983552019700,8.899019775390625,0.10685347765684128,-0.416288822889328,0.6333215236663818
1774470983562036500,8.909036376953125,0.17861369252204895,-0.26325559616088867,0.7244413495063782
1774470983572052500,8.919052490234375,0.11771544814109802,-0.20122498273849487,0.8836959600448608
1774470983582068500,8.929068359375,-0.04550277069211006,-0.12083427608013153,0.9378079175949097
1774470983592084500,8.93908447265625,-0.10696586221456528,-0.5097705721855164,0.7406812906265259
1774470983602100500,8.9491005859375,-0.1346725970506668,-0.44199898838996887,0.27269411087036133
1774470983612116500,8.959116455078124,-0.07685296982526779,-0.2834540903568268,-0.18277646601200104
1774470983622132500,8.969132568359376,-0.0861564576625824,-0.09344340115785599,-0.5635190010070801
1774470983632148500,8.9791484375,-0.1498882919549942,-0.21802261471748352,-0.6052718162536621
1774470983642164500,8.98916455078125,-0.08074065297842026,-0.46048903465270996,-0.27217453718185425
1774470983652180500,8.999180419921874,-0.06270306557416916,-0.4581230878829956,0.007732488214969635
1774470983662196500,9.009196533203125,-0.03640594333410263,-0.3938247859477997,0.057615358382463455
1774470983672212500,9.01921240234375,0.03141038864850998,-0.3685966730117798,0.0722302570939064
1774470983682228500,9.029228515625,0.13143472373485565,-0.3839079737663269,0.06861235201358795
1774470983692244500,9.039244384765626,0.2131921648979187,-0.4251672625541687,0.06579285860061646
1774470983702260500,9.049260498046875,0.26970604062080383,-0.4916222095489502,-0.005705822724848986
1774470983712276500,9.0592763671875,0.290539413690567,-0.5625272393226624,-0.09088676422834396
1774470983722292500,9.06929248046875,0.2971552312374115,-0.7100812792778015,-0.051778510212898254
1774470983732308500,9.07930859375,0.3887288272380829,-0.8491353392601013,-0.06735321134328842
1774470983742324500,9.089324462890625,0.4859456717967987,-0.8240352869033813,-0.20030033588409424
1774470983752340500,9.099340576171874,0.5043819546699524,-0.7192598581314087,-0.4116445481777191
1774470983762356500,9.1093564453125,0.4934893250465393,-0.5826623439788818,-0.5717282295227051
1774470983772372500,9.11937255859375,0.42809221148490906,-0.46853765845298767,-0.7371994853019714
1774470983782388500,9.129388427734375,0.4016864597797394,-0.18157458305358887,-0.9425289034843445
1774470983792404500,9.139404541015624,0.3685780167579651,0.12334590405225754,-1.0665621757507324
1774470983802420500,9.14942041015625,0.32094234228134155,0.34728366136550903,-1.0616552829742432
1774470983812436500,9.1594365234375,0.23748019337654114,0.4755929112434387,-0.9262207746505737
1774470983822452500,9.169452392578124,0.2808479070663452,0.5109493136405945,-0.829074501991272
1774470983832468500,9.179468505859376,0.25414973497390747,0.43144169449806213,-0.6674166321754456
1774470983842484700,9.189484619140625,0.1882266253232956,0.21215300261974335,-0.43310055136680603
1774470983852500700,9.199500732421875,0.15499703586101532,0.04633953422307968,-0.19420462846755981
1774470983862517500,9.209517578125,0.05866784229874611,-0.065451979637146,0.05410904064774513
1774470983872533500,9.219533447265626,-0.012489160522818565,-0.15556029975414276,0.21340416371822357
1774470983882549500,9.229549560546875,-0.05943429842591286,-0.2008039355278015,0.4054151475429535
1774470983892565800,9.239565673828125,-0.06251797080039978,-0.3319217562675476,0.517123818397522
1774470983902581800,9.249581787109374,-0.01883920095860958,-0.410382479429245,0.5024343729019165
1774470983912597800,9.25959765625,0.03133714944124222,-0.5381180644035339,0.41255825757980347
1774470983922613500,9.269613525390625,-0.0004743089957628399,-0.6159593462944031,0.382367342710495
1774470983932629500,9.27962939453125,-0.07155673950910568,-0.5881713628768921,0.37105369567871094
1774470983942645500,9.2896455078125,-0.09860832989215851,-0.438886821269989,0.4349876940250397
1774470983952661500,9.29966162109375,-0.04868098720908165,-0.29108428955078125,0.43650221824645996
1774470983962677800,9.309677734375,0.05759405344724655,-0.11805340647697449,0.42729780077934265
1774470983972693800,9.31969384765625,0.13854296505451202,-0.07230722159147263,0.3726334869861603
1774470983982709800,9.329709716796875,0.11696790158748627,-0.09982006996870041,0.29628491401672363
1774470983992725500,9.3397255859375,0.10973262041807175,-0.09709379076957703,0.26267609000205994
1774470984002741500,9.349741455078124,0.10796748101711273,-0.1183338314294815,0.2637389600276947
1774470984012757500,9.359757568359376,0.07036417722702026,-0.23294004797935486,0.26514512300491333
1774470984022773500,9.3697734375,0.0001560612436151132,-0.2883412539958954,0.33395135402679443
1774470984032789800,9.379789794921875,-0.06455076485872269,-0.34680962562561035,0.519736111164093
1774470984042805800,9.3898056640625,-0.1725294291973114,-0.5592028498649597,0.7378623485565186
1774470984052821800,9.39982177734375,-0.41609999537467957,-0.8661393523216248,1.033786416053772
1774470984062837500,9.40983740234375,-0.7529011964797974,-1.3136063814163208,1.4838813543319702
1774470984072853500,9.419853515625,-1.0254751443862915,-1.8972759246826172,1.8752480745315552
1774470984082869500,9.429869384765626,-1.2312999963760376,-1.9337068796157837,2.19907283782959
1774470984092885800,9.4398857421875,-0.7500308752059937,-0.8868707418441772,1.797495722770691
1774470984102901800,9.44990185546875,-0.13895362615585327,0.38475751876831055,0.8746182918548584
1774470984112917800,9.459917724609374,0.08148207515478134,1.11057710647583,0.39531296491622925
1774470984122933500,9.46993359375,0.040826261043548584,1.360069751739502,0.238310307264328
1774470984132949500,9.479949462890625,-0.001865011639893055,1.478217363357544,0.07955767959356308
1774470984142965500,9.489965576171874,-0.02316257730126381,1.5564701557159424,-0.09873589873313904
1774470984152981500,9.4999814453125,0.04099537059664726,1.9161286354064941,-0.32486116886138916
1774470984162997800,9.509997802734375,0.13791392743587494,2.51837420463562,-0.5923336148262024
1774470984173013800,9.520013671875,0.21543002128601074,3.0569989681243896,-0.8223409652709961
1774470984183029800,9.53002978515625,0.25734391808509827,3.8624539375305176,-0.9060798287391663
1774470984193046500,9.540046630859376,0.3728465437889099,4.970353603363037,-0.4629857540130615
1774470984203062500,9.5500625,0.46809902787208557,6.034921169281006,0.025202559307217598
1774470984213078500,9.56007861328125,0.5931621193885803,8.39677619934082,0.4224415421485901
1774470984223094800,9.5700947265625,1.0147786140441895,9.043822288513184,0.03533082455396652
1774470984233110800,9.58011083984375,1.071823000907898,8.420476913452148,-0.3540289103984833
1774470984243126500,9.59012646484375,1.1841479539871216,7.5965423583984375,0.09101219475269318
1774470984253142500,9.600142578125,1.5662555694580078,5.322612762451172,1.8157610893249512
1774470984263158500,9.610158447265626,1.958558440208435,1.7437620162963867,4.075477123260498
1774470984273174500,9.620174560546875,1.5766355991363525,-1.4439866542816162,6.467731475830078
1774470984283190800,9.630190673828125,0.5879852175712585,3.3145673274993896,4.043285846710205
1774470984293206800,9.640206787109374,0.18575601279735565,7.14818811416626,1.553299069404602
1774470984303222800,9.650222900390625,-0.5070549249649048,7.296275615692139,0.18493017554283142
1774470984313238500,9.660238525390625,-1.6164857149124146,6.241946220397949,-0.7635706067085266
1774470984323254500,9.670254638671874,-3.2935104370117188,1.673751711845398,-2.109379529953003
1774470984333270500,9.6802705078125,-3.056880235671997,-0.48050668835639954,-2.1899454593658447
1774470984343286500,9.69028662109375,-1.2797679901123047,1.0915268659591675,-1.9815593957901
1774470984353302800,9.700302734375,-0.2707822322845459,1.2631721496582031,-1.8774113655090332
1774470984363318800,9.71031884765625,-0.21974913775920868,0.8189976811408997,-1.92136549949646
1774470984373334500,9.72033447265625,-0.1735222488641739,0.4778858721256256,-1.7420133352279663
1774470984383350500,9.7303505859375,-0.018611501902341843,0.5030479431152344,-1.450777530670166
1774470984393366500,9.740366455078124,0.11128870397806168,0.5347622036933899,-1.2860798835754395
1774470984403382500,9.750382568359376,-0.0002561961009632796,0.7729180455207825,-1.096687912940979
1774470984413398500,9.7603984375,-0.15243667364120483,0.5442600846290588,-0.9569933414459229
1774470984423414800,9.770414794921875,-0.22642861306667328,-0.36023062467575073,-0.8043715953826904
1774470984433430800,9.7804306640625,-0.09598458558320999,-1.4376369714736938,-0.8279203176498413
1774470984443446500,9.790446533203125,0.024056600406765938,-2.3506531715393066,-0.9245555400848389
1774470984453462500,9.800462646484375,0.09816038608551025,-2.7425107955932617,-1.0660165548324585
1774470984463478500,9.810478515625,0.14737054705619812,-1.9772069454193115,-1.164463758468628
1774470984473494500,9.82049462890625,0.05855013057589531,-1.3937243223190308,-1.4142714738845825
1774470984483510800,9.8305107421875,-0.4297303259372711,-2.721691131591797,-2.0248823165893555
1774470984493527600,9.840527587890625,-0.8384557962417603,-3.952749729156494,-2.6248838901519775
1774470984503543600,9.85054345703125,-0.9070122241973877,-3.3672242164611816,-2.7565743923187256
1774470984513559600,9.8605595703125,-0.808735191822052,-1.968148946762085,-2.536491632461548
1774470984523575600,9.870575439453125,-0.6987399458885193,0.04995797201991081,-2.2056548595428467
1774470984533591600,9.880591552734375,-0.8540760278701782,1.6862363815307617,-1.865976333618164
1774470984543607800,9.89060791015625,-1.2920706272125244,1.5171810388565063,-1.5445860624313354
1774470984553623600,9.90062353515625,-1.4966938495635986,0.24572187662124634,-1.0992684364318848
1774470984563639600,9.9106396484375,-1.7399312257766724,-0.8429765105247498,-0.701589822769165
1774470984573655600,9.920655517578124,-1.5792922973632812,-1.7216873168945312,-0.3989420533180237
1774470984583671600,9.930671630859376,-1.237532377243042,-2.3990933895111084,-0.3544691205024719
1774470984593687600,9.9406875,-0.9847158193588257,-3.383664131164551,-0.45468229055404663
1774470984603703600,9.95070361328125,-0.8871878981590271,-3.7304840087890625,-0.5699140429496765
1774470984613719800,9.9607197265625,-0.6566260457038879,-3.1509382724761963,-0.5255545973777771
1774470984623735600,9.970735595703125,-0.3947260081768036,-2.2354953289031982,-0.22826538980007172
1774470984633751600,9.98075146484375,-0.22938817739486694,-1.8066128492355347,0.07589343190193176
1774470984643767600,9.990767578125,-0.1237509697675705,-1.9834328889846802,0.19923773407936096
1774470984653783600,10.000783447265626,-0.10328084975481033,-2.0164737701416016,0.20426791906356812
1774470984663799600,10.010799560546875,0.10336580127477646,-1.8074085712432861,0.09685197472572327
1774470984673815800,10.02081591796875,0.3424755930900574,-1.935780644416809,0.005831790156662464
1774470984683831800,10.030831787109374,0.3492621183395386,-2.283334970474243,0.026885677129030228
1774470984693847600,10.04084765625,0.028088625520467758,-2.2820823192596436,-0.07430671900510788
1774470984703863600,10.050863525390625,-0.4090045392513275,-2.392444133758545,-0.10794990509748459
1774470984713879600,10.060879638671874,-0.567093014717102,-2.411137104034424,-0.2980375587940216
1774470984723895600,10.0708955078125,-0.5034825801849365,-2.504976272583008,-0.5150862336158752
1774470984733911600,10.08091162109375,-0.38802415132522583,-2.29254150390625,-0.8328277468681335
1774470984743927800,10.090927734375,-0.1705309897661209,-2.0291666984558105,-0.8913922309875488
1774470984753943800,10.10094384765625,0.1703304499387741,-2.0204875469207764,-0.6359519362449646
1774470984763959600,10.11095947265625,0.4257499873638153,-2.2573671340942383,-0.47574976086616516
1774470984773975600,10.1209755859375,0.5723252892494202,-2.0016462802886963,-0.4378117024898529
1774470984783991600,10.130991455078124,0.6664451360702515,-1.7523711919784546,-0.3568023443222046
1774470984794007600,10.141007568359376,0.8923293948173523,-1.5554943084716797,-0.24917013943195343
1774470984804024600,10.151024658203125,1.1798983812332153,-1.4455931186676025,-0.2142142951488495
1774470984814040000,10.1610400390625,1.4426127672195435,-1.13449227809906,-0.46515384316444397
1774470984824056000,10.17105615234375,1.515505313873291,-0.8057031631469727,-0.7390812635421753
1774470984834072000,10.181072021484376,1.4483684301376343,-0.6938871741294861,-0.8718225359916687
1774470984844088000,10.191088134765625,1.2708098888397217,-0.9896255731582642,-0.4747726321220398
1774470984854104000,10.20110400390625,1.069338321685791,-1.484421968460083,-0.1370537281036377
1774470984864120000,10.2111201171875,1.0243278741836548,-2.155421733856201,-0.013788516633212566
1774470984874136300,10.22113623046875,1.1403807401657104,-2.886934995651245,-0.03551671653985977
1774470984884152000,10.231152099609375,1.261012077331543,-3.6213669776916504,0.06644773483276367
1774470984894168000,10.24116796875,1.2499290704727173,-4.114451885223389,0.050395529717206955
1774470984904184000,10.25118408203125,1.1361489295959473,-4.452803611755371,0.0055031562224030495
1774470984914200000,10.261199951171875,0.8704129457473755,-4.585216522216797,-0.13489577174186707
1774470984924216000,10.271216064453125,0.5756827592849731,-4.742513656616211,-0.24750646948814392
1774470984934232000,10.281232177734376,0.2150619775056839,-5.171562671661377,-0.3060145080089569
1774470984944248300,10.291248291015625,-0.0396542027592659,-5.368551254272461,-0.19732213020324707
1774470984954264000,10.30126416015625,-0.05414872244000435,-5.276119232177734,0.19054731726646423
1774470984964280000,10.311280029296874,0.015692677348852158,-4.9022698402404785,0.5634609460830688
1774470984974296000,10.321296142578126,0.07029174268245697,-4.062979698181152,0.714821457862854
1774470984984312000,10.33131201171875,0.058219365775585175,-2.829874038696289,0.7680103778839111
1774470984994328000,10.341328125,0.007969776168465614,-1.6559439897537231,0.8889767527580261
1774470985004344300,10.35134423828125,-0.13691630959510803,-1.012567162513733,0.826974630355835
1774470985014360000,10.361360107421875,-0.042088065296411514,-0.6282298564910889,0.7999246120452881
1774470985024376000,10.3713759765625,0.1985786110162735,-0.18718001246452332,0.8583293557167053
1774470985034392000,10.38139208984375,0.3374134600162506,0.36066046357154846,0.9735568761825562
1774470985044408000,10.391407958984376,0.35367923974990845,0.9898242354393005,1.2147899866104126
1774470985054424000,10.401424072265625,0.2410815954208374,1.790000319480896,1.475386142730713
1774470985064440000,10.411440185546875,-0.0027292075101286173,2.557366371154785,1.6250680685043335
1774470985074456300,10.421456298828126,-0.3345950245857239,3.4232776165008545,1.8292611837387085
1774470985084472000,10.43147216796875,-1.4734470844268799,4.001732349395752,1.9555184841156006
1774470985094488000,10.441488037109375,-3.05948805809021,1.681308388710022,0.9002647995948792
1774470985104505000,10.451505126953125,-4.683361530303955,-0.7359576225280762,-0.3134641647338867
1774470985114521000,10.46152099609375,-5.820093631744385,-1.971192717552185,-1.2209008932113647
1774470985124537300,10.471537353515625,-5.165839195251465,-1.2292253971099854,-1.5399558544158936
1774470985134553000,10.481552978515625,-2.3341076374053955,-1.5245004892349243,-0.6243221759796143
1774470985144569000,10.491569091796874,-0.9070183038711548,-2.1925148963928223,0.2682993710041046
1774470985154585000,10.501585205078126,-0.521085798740387,-2.889185667037964,0.5171216726303101
1774470985164601000,10.51160107421875,-0.5612620115280151,-3.435194730758667,0.20428869128227234
1774470985174617000,10.5216171875,-0.5288422703742981,-3.538012742996216,-0.26523885130882263
1774470985184633000,10.531633056640626,-0.5126294493675232,-3.4635562896728516,-0.4620717465877533
1774470985194649300,10.5416494140625,-0.5071156620979309,-2.997546434402466,-0.7385960221290588
1774470985204665000,10.5516650390625,-0.28066202998161316,-2.4338631629943848,-1.0360828638076782
1774470985214681000,10.56168115234375,-0.1693405658006668,-1.6022162437438965,-0.9852761030197144
1774470985224697000,10.571697021484376,-0.3238893747329712,-0.8791201114654541,-0.7171946167945862
1774470985234713000,10.581713134765625,-0.5679761171340942,-0.6868873238563538,-0.5524303913116455
1774470985244729000,10.59172900390625,-0.7873497009277344,-0.12843067944049835,-0.3260537385940552
1774470985254745000,10.6017451171875,-1.087794542312622,0.565229594707489,0.006625944748520851
1774470985264761000,10.611760986328125,-1.4702550172805786,0.7635881900787354,0.3323041796684265
1774470985274777000,10.621777099609375,-1.6138806343078613,0.6819777488708496,0.6142575740814209
1774470985284793000,10.63179296875,-1.5322744846343994,0.642651379108429,0.7950901985168457
1774470985294809000,10.64180908203125,-1.418734073638916,0.6082537174224854,0.950111448764801
1774470985304825000,10.6518251953125,-1.1740374565124512,0.7545174956321716,1.0730229616165161
1774470985314841000,10.661841064453125,-0.944953441619873,0.7891238927841187,1.2210856676101685
1774470985324857000,10.671857177734376,-0.7566016912460327,0.913571298122406,1.2254074811935425
1774470985334873000,10.681873046875,-0.6866268515586853,0.9740913510322571,1.1669654846191406
1774470985344889000,10.69188916015625,-0.6036121249198914,1.0037962198257446,1.0289727449417114
1774470985354905000,10.701905029296874,-0.5257644653320312,1.1069260835647583,0.7245150804519653
1774470985364921000,10.711921142578126,-0.542517364025116,1.0182799100875854,0.5294904708862305
1774470985374937000,10.72193701171875,-0.591244637966156,0.7588890790939331,0.412327378988266
1774470985384953000,10.731953125,-0.5279157757759094,0.3389596939086914,0.3967553377151489
1774470985394969300,10.74196923828125,-0.4260578453540802,-0.02773602306842804,0.4777609705924988
1774470985404985000,10.751985107421875,-0.29656800627708435,-0.31051766872406006,0.5820242762565613
1774470985415001000,10.7620009765625,-0.10840263962745667,-1.019068956375122,0.5557588338851929
1774470985425018000,10.77201806640625,0.01434991043061018,-1.4417728185653687,0.8063260912895203
1774470985435034000,10.7820341796875,0.04797285050153732,-1.327073097229004,1.1213032007217407
1774470985445050000,10.792050048828125,-0.07818029075860977,-1.4142948389053345,1.1873652935028076
1774470985455066000,10.802066162109375,-0.31030139327049255,-1.440488338470459,1.0150667428970337
1774470985465082000,10.81208203125,-0.5039411783218384,-1.3422377109527588,0.7133165001869202
1774470985475098000,10.82209814453125,-0.6478714346885681,-1.2413283586502075,0.35395994782447815
1774470985485114000,10.832114013671875,-0.7516287565231323,-1.2494001388549805,0.02984737791121006
1774470985495130000,10.842130126953125,-0.8631669878959656,-1.3070205450057983,-0.11265704035758972
1774470985505146000,10.85214599609375,-0.9763427972793579,-1.3981667757034302,-0.08837087452411652
1774470985515162000,10.862162109375,-0.959290087223053,-1.5178837776184082,-0.03307859227061272
1774470985525178000,10.87217822265625,-0.8793640732765198,-1.393035888671875,0.06713935732841492
1774470985535194000,10.882194091796874,-0.6787199378013611,-0.7295204997062683,0.03241892531514168
1774470985545210000,10.892210205078126,-0.3959537148475647,-0.14100132882595062,-0.08227543532848358
1774470985555226000,10.90222607421875,0.04613713547587395,-0.31586289405822754,-0.15062040090560913
1774470985565242000,10.9122421875,0.6370925903320312,-1.1020703315734863,-0.19533434510231018
1774470985575258000,10.922258056640626,0.7971104979515076,-1.58175790309906,-0.20711536705493927
1774470985585274000,10.932274169921875,-0.06491242349147797,-1.0593376159667969,-0.14435425400733948
1774470985595290000,10.9422900390625,-0.8732739686965942,-0.5668197274208069,-0.22977007925510406
1774470985605306000,10.95230615234375,-1.0965297222137451,-0.7938984632492065,-0.4568021595478058
1774470985615322000,10.962322021484376,-0.9950246214866638,-1.1578481197357178,-0.4823019206523895
1774470985625338000,10.972338134765625,-0.7719324231147766,-1.4016169309616089,-0.36985793709754944
1774470985635354000,10.98235400390625,-0.32106083631515503,-1.6112576723098755,-0.2553686499595642
1774470985645370000,10.9923701171875,0.41519346833229065,-1.8665016889572144,-0.17421653866767883
1774470985655386000,11.00238623046875,0.9512832760810852,-1.7919713258743286,-0.03825337812304497
1774470985665402000,11.012402099609375,0.8833444118499756,-0.9069823622703552,0.11495987325906754
1774470985675418000,11.022418212890624,0.6502462029457092,0.08159366250038147,0.1286700963973999
1774470985685434000,11.03243408203125,0.8280505537986755,0.08975012600421906,-0.0738728940486908
1774470985695450000,11.0424501953125,1.3792170286178589,-0.6558950543403625,-0.42733508348464966
1774470985705466000,11.052466064453125,1.544113039970398,-1.0690149068832397,-0.6799553632736206
1774470985715482000,11.062482177734376,1.481410264968872,-0.9837711453437805,-0.8688626885414124
1774470985725498000,11.072498046875,1.5034843683242798,-0.8297536373138428,-0.9278548955917358
1774470985735515100,11.08251513671875,1.638910174369812,-0.8902716040611267,-0.8971161842346191
1774470985745531100,11.09253125,1.838726282119751,-0.955037534236908,-0.8686333894729614
1774470985755547100,11.102547119140626,1.9219855070114136,-1.1326932907104492,-0.8597967624664307
1774470985765563100,11.112563232421875,1.9671814441680908,-1.4330943822860718,-0.8824605345726013
1774470985775579100,11.1225791015625,2.0138633251190186,-1.6885440349578857,-0.9785622954368591
1774470985785595100,11.13259521484375,1.9271483421325684,-1.8014689683914185,-1.0695688724517822
1774470985795611100,11.142611083984375,1.7179226875305176,-1.7984577417373657,-1.1289567947387695
1774470985805627100,11.152627197265625,1.409988284111023,-1.7424050569534302,-1.1414090394973755
1774470985815643400,11.162643310546875,0.9957301020622253,-1.560935378074646,-1.1272801160812378
1774470985825659400,11.172659423828126,0.5879313945770264,-1.1537500619888306,-1.1168829202651978
1774470985835675100,11.182675048828125,0.20091445744037628,-0.5899607539176941,-1.0105029344558716
1774470985845691100,11.192691162109375,-0.13468138873577118,-0.10589846968650818,-0.6148112416267395
1774470985855707100,11.20270703125,-0.3294130563735962,0.3490373492240906,-0.06882806867361069
1774470985865723400,11.212723388671876,-0.3523085117340088,0.581828773021698,0.3864334523677826
1774470985875739400,11.222739501953125,-0.33486267924308777,0.6438255906105042,0.6916301250457764
1774470985885755400,11.23275537109375,-0.33727285265922546,0.6154642701148987,0.8660626411437988
1774470985895771400,11.242771484375,-0.3757840096950531,0.47157472372055054,0.9371290802955627
1774470985905787100,11.252787109375,-0.43740370869636536,0.21485957503318787,0.9570468664169312
1774470985915803100,11.26280322265625,-0.500750720500946,-0.032772328704595566,0.9393714666366577
1774470985925819400,11.2728193359375,-0.5529350638389587,-0.2581140995025635,0.9119505286216736
1774470985935835400,11.28283544921875,-0.5693795680999756,-0.43337780237197876,0.7890512347221375
1774470985945851400,11.292851318359375,-0.8321406245231628,-0.5693182945251465,0.47797268629074097
1774470985955867400,11.302867431640625,-1.3448926210403442,-0.6882423162460327,-0.15507720410823822
1774470985965883100,11.312883056640626,-1.766153335571289,-0.8066147565841675,-0.7549315690994263
1774470985975899100,11.322899169921875,-1.7604999542236328,-0.9950904250144958,-1.2616806030273438
1774470985985915100,11.3329150390625,-1.4798147678375244,-1.2519642114639282,-1.4319963455200195
1774470985995931400,11.342931396484374,-1.1121711730957031,-1.405712604522705,-0.9850894212722778
1774470986005947400,11.352947509765626,-0.8083239793777466,-1.3193931579589844,-0.3154117465019226
1774470986015964200,11.362964111328125,-0.6715866327285767,-1.2298307418823242,0.2765788733959198
1774470986025980200,11.372980224609375,-0.7003253698348999,-1.0434150695800781,0.6214014887809753
1774470986035996200,11.38299609375,-0.8284643888473511,-0.6227266788482666,0.7524545788764954
1774470986046012200,11.39301220703125,-0.9068832993507385,-0.27243366837501526,0.7725327014923096
1774470986056028400,11.4030283203125,-0.8008037209510803,0.01558055728673935,0.7033511996269226
1774470986066044400,11.41304443359375,-0.5723702907562256,0.18703193962574005,0.4861888289451599
1774470986076060400,11.423060302734376,-0.3080047070980072,0.34237757325172424,0.19933760166168213
1774470986086076200,11.433076171875,-0.004177700728178024,0.3186482787132263,-0.03494839742779732
1774470986096092200,11.443092041015625,0.3104793131351471,0.14745336771011353,-0.1486336886882782
1774470986106108200,11.453108154296874,0.5650545954704285,-0.11497452110052109,-0.20588631927967072
1774470986116124400,11.46312451171875,0.6704233884811401,-0.3872843384742737,-0.22546108067035675
1774470986126140400,11.473140380859375,0.6004570722579956,-0.5674471855163574,-0.2231989949941635
1774470986136156400,11.483156494140625,0.4290403127670288,-0.655941367149353,-0.22680677473545074
1774470986146172200,11.493172119140626,0.2504258155822754,-0.64144366979599,-0.24799488484859467
1774470986156188200,11.503188232421875,0.15629053115844727,-0.5463176369667053,-0.3091098964214325
1774470986166204200,11.5132041015625,0.17134219408035278,-0.30415642261505127,-0.3200094401836395
1774470986176220200,11.52322021484375,0.17349348962306976,-0.15532992780208588,-0.30466750264167786
1774470986186236400,11.533236328125,0.17925576865673065,-0.10423905402421951,-0.267714262008667
1774470986196252400,11.54325244140625,0.1777457594871521,0.012017780914902687,-0.2266152948141098
1774470986206268400,11.553268310546875,0.2154308259487152,0.19210845232009888,-0.19443179666996002
1774470986216284200,11.5632841796875,0.3122766613960266,0.30256491899490356,-0.1359730213880539
1774470986226300200,11.573300048828125,0.38833096623420715,0.38646355271339417,-0.02664918825030327
1774470986236316200,11.583316162109375,0.30521076917648315,0.44124743342399597,0.16335484385490417
1774470986246332200,11.593332275390624,0.04517893120646477,0.4920179545879364,0.34864214062690735
1774470986256348400,11.603348388671876,-0.1769460141658783,0.5744542479515076,0.5095729827880859
1774470986266364400,11.613364501953125,-0.2728019654750824,0.5908598303794861,0.6733672022819519
1774470986276381200,11.623381103515625,-0.34746769070625305,0.6857624053955078,0.748443603515625
1774470986286397200,11.633397216796874,-0.40748149156570435,0.7109947800636292,0.718034029006958
1774470986296413200,11.6434130859375,-0.39332306385040283,0.6645159721374512,0.620606005191803
1774470986306429400,11.653429443359375,-0.3691529929637909,0.5301001071929932,0.45652785897254944
1774470986316445400,11.663445556640625,-0.18401271104812622,0.6386566758155823,0.20220209658145905
1774470986326461400,11.67346142578125,0.0367811843752861,0.6912615299224854,0.006639260333031416
1774470986336477200,11.683477294921875,0.21808812022209167,0.7297276854515076,-0.09330172091722488
1774470986346493200,11.6934931640625,0.3922005295753479,0.9485548734664917,-0.14621393382549286
1774470986356509200,11.70350927734375,0.4797319769859314,1.058381199836731,-0.08734582364559174
1774470986366525200,11.713525146484375,0.46471041440963745,0.9963405132293701,0.0837034210562706
1774470986376541400,11.72354150390625,0.3457525968551636,0.7571768760681152,0.25189828872680664
1774470986386557400,11.733557373046875,0.15102466940879822,0.45965760946273804,0.2929466664791107
1774470986396573200,11.7435732421875,0.06287643313407898,0.1669708788394928,0.3618657886981964
1774470986406589200,11.753589111328125,0.028434837237000465,-0.16947504878044128,0.4516489505767822
1774470986416605200,11.763605224609375,0.10613203048706055,-0.4895201623439789,0.5232208967208862
1774470986426621200,11.77362109375,0.2424222230911255,-0.7274429798126221,0.24380627274513245
1774470986436637200,11.78363720703125,0.2621799409389496,-0.8352940678596497,-0.19369755685329437
1774470986446653400,11.7936533203125,0.22216755151748657,-0.7916765809059143,-0.5043057799339294
1774470986456669400,11.80366943359375,0.10970492660999298,-0.7232649922370911,-0.5549635887145996
1774470986466685200,11.813685302734376,0.07033088803291321,-0.6203522086143494,-0.43949082493782043
1774470986476701200,11.823701171875,-0.006935137789696455,-0.5019451379776001,-0.3220163881778717
1774470986486717200,11.83371728515625,-0.03027428314089775,-0.3250390887260437,-0.22239844501018524
1774470986496733200,11.843733154296874,0.03495452180504799,-0.1557387262582779,-0.08566856384277344
1774470986506749400,11.85374951171875,0.17685812711715698,0.041902441531419754,-0.025012675672769547
1774470986516765400,11.863765380859375,0.279104083776474,0.17920809984207153,0.021327925845980644
1774470986526781400,11.873781494140625,0.46841514110565186,0.2497941255569458,-0.03165193647146225
1774470986536798200,11.883798095703124,0.618963360786438,0.2115737646818161,-0.12487056106328964
1774470986546814200,11.893814208984375,0.5635278224945068,0.01847701147198677,-0.1080460399389267
1774470986556830200,11.903830322265625,0.3731096684932709,-0.17530816793441772,-0.0007313040550798178
1774470986566846500,11.913846435546875,0.22704645991325378,-0.11870081722736359,0.04827725142240524
1774470986576862200,11.9238623046875,0.08782759308815002,0.05109061300754547,-0.007234210614115
1774470986586878200,11.933878173828125,-0.038176681846380234,0.2252323180437088,-0.07712221145629883
1774470986596894200,11.943894287109375,-0.15276691317558289,0.36899107694625854,-0.09491372853517532
1774470986606910200,11.95391015625,-0.21143847703933716,0.46281638741493225,-0.09309931844472885
1774470986616926200,11.96392626953125,-0.1615380346775055,0.4466121196746826,-0.10261345654726028
1774470986626942500,11.9739423828125,0.017164872959256172,0.3083253502845764,-0.07324864715337753
1774470986636958500,11.98395849609375,0.2135695368051529,0.09036292135715485,-0.06905017048120499
1774470986646974200,11.99397412109375,0.27894482016563416,-0.11973092705011368,0.01782320626080036
1774470986656990200,12.003990234375,0.24863511323928833,-0.19012705981731415,0.13893871009349823
1774470986667006200,12.014006103515625,0.22136221826076508,-0.12351607531309128,0.25183382630348206
1774470986677022200,12.024022216796874,0.23733878135681152,0.06294035166501999,0.37038153409957886
1774470986687038200,12.0340380859375,0.2378338724374771,0.3189132809638977,0.4522942304611206
1774470986697054500,12.044054443359375,0.13527020812034607,0.5806623101234436,0.4503730237483978
1774470986707070500,12.054070556640625,0.04334348067641258,0.7726040482521057,0.4110972583293915
1774470986717086200,12.064086181640626,-0.10778691619634628,0.9081395268440247,0.2929746210575104
1774470986727102200,12.074102294921875,-0.22966249287128448,0.9505082964897156,0.1565006673336029
1774470986737118200,12.0841181640625,-0.3168988525867462,0.887502133846283,0.04276876896619797
1774470986747134200,12.09413427734375,-0.3338293731212616,0.7535752654075623,-0.052683982998132706
1774470986757150200,12.104150146484375,-0.2676977515220642,0.6062438488006592,-0.08404696732759476
1774470986767166500,12.11416650390625,-0.1835879385471344,0.43112343549728394,-0.06615451723337173
1774470986777182500,12.124182373046875,-0.14190228283405304,0.24946202337741852,-0.11737829446792603
1774470986787199200,12.13419921875,-0.1844521313905716,0.04518132656812668,-0.13278041779994965
1774470986797215200,12.14421533203125,-0.21110904216766357,-0.13812963664531708,-0.14266154170036316
1774470986807231200,12.154231201171875,-0.25928881764411926,-0.25572019815444946,-0.15741519629955292
1774470986817247700,12.164247802734375,-0.2853502631187439,-0.33436787128448486,-0.17401494085788727
1774470986827263500,12.174263427734376,-0.27698180079460144,-0.3679220974445343,-0.21777306497097015
1774470986837279500,12.184279541015625,-0.2640577554702759,-0.3486541211605072,-0.2905213236808777
1774470986847295500,12.19429541015625,-0.26385053992271423,-0.2636401653289795,-0.31306469440460205
1774470986857311500,12.2043115234375,-0.29132798314094543,-0.14911039173603058,-0.294236421585083
1774470986867327500,12.214327392578125,-0.31582000851631165,-0.0064776064828038216,-0.29079535603523254
1774470986877343500,12.224343505859375,-0.3354043662548065,0.1543022245168686,-0.29627612233161926
1774470986887359700,12.23435986328125,-0.36096563935279846,0.298423707485199,-0.3025130033493042
1774470986897375500,12.24437548828125,-0.39555343985557556,0.43708837032318115,-0.3069213330745697
1774470986907391500,12.2543916015625,-0.4304898679256439,0.5682677030563354,-0.3017936646938324
1774470986917407500,12.264407470703125,-0.44768401980400085,0.6752710938453674,-0.2864474654197693
1774470986927423500,12.274423583984374,-0.45890098810195923,0.692398190498352,-0.2796734571456909
1774470986937439500,12.284439453125,-0.4080631136894226,0.6899667382240295,-0.26279595494270325
1774470986947455700,12.294455810546875,-0.3113882541656494,0.6438513994216919,-0.2086956948041916
1774470986957471500,12.304471435546875,-0.18272534012794495,0.5418933629989624,-0.12316533923149109
1774470986967487500,12.314487548828126,-0.04346145689487457,0.43217191100120544,-0.04192427918314934
1774470986977503500,12.32450341796875,0.08289914578199387,0.3833143711090088,0.028852153569459915
1774470986987519500,12.33451953125,0.17168733477592468,0.36815404891967773,0.1079176813364029
1774470986997535500,12.344535400390624,0.21978749334812164,0.3170605003833771,0.19379396736621857
1774470987007551500,12.354551513671876,0.24460601806640625,0.24151994287967682,0.24171489477157593
1774470987017567700,12.364567626953125,0.2680692672729492,0.1416817605495453,0.24640098214149475
