time,seconds_elapsed,imu1_accel_x,imu1_accel_y,imu1_accel_z,imu1_gyro_x,imu1_gyro_y,imu1_gyro_z,imu2_accel_x,imu2_accel_y,imu2_accel_z,imu2_gyro_x,imu2_gyro_y,imu2_gyro_z,imu3_accel_x,imu3_accel_y,imu3_accel_z,imu3_gyro_x,imu3_gyro_y,imu3_gyro_z
1774472077363017200,0.418017333984375,-0.1048649805754423,-0.0232879366070032,0.4086290239468216,0.5178391933441162,-0.1635409593582153,-0.2151902467012405,-0.5998311024993658,0.4023620725065469,0.98721969695352,-0.5998311024993658,0.4023620725065469,0.98721969695352,-0.6339899772107601,-0.9305115021079778,0.973333575746417,-0.0009550706017762,-0.3014143407344818,-1.1838375329971311
1774472077373045500,0.42804541015625,-0.3240834855616092,-0.092785835725069,0.3931929698839783,0.4760667085647583,-0.1500390022993087,-0.318434327840805,-0.4892518359303474,0.3925684082448482,1.1855016507644205,-0.4892518359303474,0.3925684082448482,1.1855016507644205,-0.5460995123118162,-2.0596482185065743,1.3846975776150825,0.4788990020751953,0.1051259115338325,-0.9752309322357178
1774472077383073300,0.4380732421875,-0.6016343525290488,-0.2016884012535214,0.5072410816073417,0.4428147077560425,-0.1002597734332084,-0.3974653780460357,-0.317961203289032,0.2536085581049322,1.1444932024192065,-0.317961203289032,0.2536085581049322,1.1444932024192065,-0.4237152416586875,-2.375138063246012,1.0207238340832292,0.8919779062271118,0.1950478106737136,-0.7736544013023376
1774472077393101600,0.4481015625,-0.5803478188723326,-0.2349737080007791,0.4466609406992793,0.4241291880607605,-0.0347145870327949,-0.4435727000236511,-0.1359966164201498,0.1297965927362442,1.007878015709296,-0.1359966164201498,0.1297965927362442,1.007878015709296,-0.6226417769834399,-1.6243039138525723,-0.2873603863853961,1.0564234256744385,-0.1054306924343109,-0.6652750968933105
1774472077403130400,0.45813037109375,-0.5413163696885108,-0.1753387389883399,0.3375330419823527,0.4170660674571991,-0.0137650854885578,-0.4312752187252044,-0.0056681087642908,0.0908519450530409,0.8441878481343388,-0.0056681087642908,0.0908519450530409,0.8441878481343388,-0.5510352151483296,-1.0444634599804878,-1.2908961351066828,1.1597020626068115,-0.2287840545177459,-0.6831393241882324
1774472077413158400,0.468158447265625,-0.4852560442924499,-0.1337745564565062,0.319834449815005,0.4169334471225738,-0.070545807480812,-0.3535031974315643,0.1067202530533075,0.1123261102363467,0.6916038887243717,0.1067202530533075,0.1123261102363467,0.6916038887243717,-0.2354854569151997,-1.203891220870614,-1.1615930249758064,1.2830394506454468,0.0775266885757446,-0.8059114813804626
1774472077423186200,0.478186279296875,-0.4779647182404994,-0.135593296316266,0.3027778088130056,0.4162984490394592,-0.1889027506113052,-0.2398449927568435,0.2413531799048185,0.1219789047226309,0.4987920368876308,0.2413531799048185,0.1219789047226309,0.4987920368876308,0.3044169543221592,-1.153496081629395,-0.2850714717306196,1.4207488298416138,0.5256245732307434,-1.07413911819458
1774472077433214500,0.48821435546875,-0.4773825344383716,-0.1268576166749,0.3081049951851368,0.4230136275291443,-0.3349617123603821,-0.1101477146148681,0.3092120796442031,0.0787356830626726,0.243999785423465,0.3092120796442031,0.0787356830626726,0.243999785423465,0.8795552218526601,-1.0158452682614325,0.4839128860551863,1.4948982000350952,0.9933927655220032,-1.50096333026886
1774472077443242200,0.4982421875,-0.5107178178071975,-0.0973673182964324,0.340580885245651,0.4448474943637848,-0.450369268655777,0.009025901556015,0.3204717248052358,-0.0021165537625551,-0.0240578980661928,0.3204717248052358,-0.0021165537625551,-0.0240578980661928,1.6941607094109057,-1.291207100751996,0.2817495424999855,1.4855492115020752,1.2416558265686035,-2.079192876815796
1774472077453271300,0.508271240234375,-0.4786310731947422,-0.0443213722854852,0.310596227478981,0.4724908173084259,-0.4938589632511139,0.112807422876358,0.1919324386537075,-0.039659225693345,-0.2453730100054293,0.1919324386537075,-0.039659225693345,-0.2453730100054293,2.155551893991232,-2.5716309416830536,-0.6168699886489659,1.3600378036499023,1.445454239845276,-2.854785919189453
1774472077463299300,0.51829931640625,-0.3997375692218541,0.0102832013443112,0.2755214069664478,0.4970751106739044,-0.4644630551338196,0.1805117577314376,0.0531201802909374,-0.0462923800975084,-0.4026807465342804,0.0531201802909374,-0.0462923800975084,-0.4026807465342804,2.917720215086639,-4.0686014380425215,-1.1981497546091675,1.133985996246338,1.731160283088684,-3.606024265289306
1774472077473327400,0.528327392578125,-0.3818757493168115,0.1029895420923829,0.2557157595172524,0.5169665217399597,-0.3660904169082641,0.2125533074140548,-0.0547954200267791,-0.0273512405231595,-0.5204906950091943,-0.0547954200267791,-0.0273512405231595,-0.5204906950091943,2.352840014459193,-3.448308562272787,-0.8053187499053776,0.9189918637275696,2.241366147994995,-4.164907932281494
1774472077483355400,0.53835546875,-0.3207961344540119,0.1627428767874836,0.2237915119901299,0.5353924632072449,-0.218928262591362,0.2115623950958252,-0.1896820293784141,-0.0403550990030169,-0.5023532730331645,-0.1896820293784141,-0.0403550990030169,-0.5023532730331645,2.0539853704392907,-2.514167763751745,-0.4747721327442675,0.6341936588287354,2.6272683143615723,-4.610328197479248
1774472077493383400,0.548383544921875,-0.2135141558647155,0.1781687017172575,0.1875553926132619,0.550855278968811,-0.0638252273201942,0.1798920929431915,-0.2189016941219568,-0.1074240174084901,-0.4106876735096797,-0.2189016941219568,-0.1074240174084901,-0.4106876735096797,1.7131822207450866,-2.0241829373717306,-0.6385764282181858,0.4233342111110687,2.7836387157440186,-4.831759929656982
1774472077503412200,0.558412109375,-0.1432674842059612,0.1646624466732144,0.1260828329101204,0.5552886724472046,0.0736438333988189,0.1281076669692993,-0.2150748293101787,-0.120997784730792,-0.319499664902687,-0.2150748293101787,-0.120997784730792,-0.319499664902687,0.8739584247589111,-1.4277163428694009,0.1374869006436783,0.4330227971076965,2.90071964263916,-4.809587478637695
1774472077513440300,0.568440185546875,-0.0170376440405845,0.1292377898097038,0.1245937633961439,0.5558434128761292,0.1509921550750732,0.0704728588461875,-0.2416471944153308,-0.1253425359368324,-0.2464707421142608,-0.2416471944153308,-0.1253425359368324,-0.2464707421142608,0.2387070493102073,-0.44308805064857,1.6502143079176543,0.6368040442466736,3.1212198734283447,-4.54060173034668
1774472077523468300,0.57846826171875,0.0635468817591667,0.0537777674168348,0.1642617569178342,0.5492971539497375,0.1619702726602554,0.019013388082385,-0.1428542272299528,-0.1564259487256407,-0.1829488486658781,-0.1428542272299528,-0.1564259487256407,-0.1829488486658781,-0.9471288749098776,0.6368950510025024,2.549307758454978,0.9300604462623596,3.2823617458343506,-4.063292026519775
1774472077533496300,0.588496337890625,0.1694511422544717,-0.0591603372380137,0.1670531412020325,0.5328614115715027,0.1064135432243347,-0.0054384260438382,-0.112536245855689,-0.222122117473185,-0.2274354579830542,-0.112536245855689,-0.222122117473185,-0.2274354579830542,-1.3560340854495765,1.051872274932265,2.315021740457416,1.1875537633895874,3.122875452041626,-3.5285959243774414
1774472077543525400,0.598525390625,0.3099532534003257,-0.1513987682133913,0.2092434928081929,0.5154297351837158,-0.0013729357160627,-0.0178152602165937,-0.2736900998860597,-0.295952200576663,-0.3151435155197978,-0.2736900998860597,-0.295952200576663,-0.3151435155197978,-1.1198574313998222,1.0190396803885695,1.4086223508208988,1.3248189687728882,2.758523941040039,-2.989119291305542
1774472077553553400,0.608553466796875,0.3470113566845655,-0.2159066039592027,0.2207907227389514,0.5068128108978271,-0.1156904548406601,-0.0315755456686019,-0.3261357419162988,-0.2536787007316947,-0.3757064495647326,-0.3261357419162988,-0.2536787007316947,-0.3757064495647326,-1.0978408299028872,0.8865613012224435,0.1162619153153151,1.3241466283798218,2.46684193611145,-2.4292774200439453
1774472077563581400,0.61858154296875,0.3671639178752899,-0.24996669447124,0.175875622344017,0.5004777908325195,-0.1881687641143798,-0.0351926982402801,-0.2118622970044612,-0.1843918140158057,-0.4366967421762645,-0.2118622970044612,-0.1843918140158057,-0.4366967421762645,-0.8004869458347559,0.8316922314375639,-0.9620186202015728,1.2413392066955566,2.1120200157165527,-1.896540880203247
1774472077573609500,0.628609375,0.4608201066941023,-0.2714429054811597,0.1719850446462631,0.4907588362693786,-0.2274080365896225,-0.0332259535789489,-0.2031505827605724,-0.1746013646245002,-0.6002683614054695,-0.2031505827605724,-0.1746013646245002,-0.6002683614054695,-0.1012538043409585,0.8292144431471824,-1.6020666553422809,1.0970598459243774,1.5266478061676023,-1.391883373260498
1774472077583637200,0.63863720703125,0.4594359588593244,-0.2560153269857168,0.2334771127674728,0.4670072793960571,-0.2280056476593017,-0.0287938434630632,-0.2076169145196676,-0.1719648786410689,-0.7549845470711588,-0.2076169145196676,-0.1719648786410689,-0.7549845470711588,1.2538275104284289,0.8317045063972472,-1.5678703712299464,0.925071895122528,0.7789981365203857,-0.8604379296302795
1774472077593666300,0.648666259765625,0.3607271628260612,-0.2697162278190255,0.2692771788146346,0.4485110938549042,-0.1544941365718841,-0.0190314948558807,-0.1268815820723772,-0.1443149474322795,-0.8858796756338327,-0.1268815820723772,-0.1443149474322795,-0.8858796756338327,0.5992261223435401,0.9042284753382206,-1.1492187696363776,0.7346057891845703,0.7106450200080872,-0.1852723956108093
1774472077603694300,0.6586943359375,0.4124544274538755,-0.2369716038197278,0.2214600003026425,0.4369847774505615,-0.044793102890253,-0.0208361726254224,-0.2389659925073385,-0.1395885034322738,-0.9747200616687536,-0.2389659925073385,-0.1395885034322738,-0.9747200616687536,-2.1430022090196608,1.0894850894898176,-1.0473599851395934,0.5007006525993347,1.2670209407806396,0.43799489736557
1774472077613722400,0.668722412109375,0.4309136287301778,-0.18802052590698,0.0658009442962706,0.4004177153110504,0.0713028758764267,-0.0504710301756858,-0.4967138423740863,-0.1237190263882279,-0.9870523044973613,-0.4967138423740863,-0.1237190263882279,-0.9870523044973613,-3.1620804678529497,1.0419050076693297,-1.718076714788377,0.1785974353551864,2.011926412582397,0.9940783977508544
1774472077623750400,0.67875048828125,0.2326280216574668,-0.2313905888170003,0.1239057811319827,0.3419818580150604,0.1862207949161529,-0.0759318694472312,-0.461303506296873,-0.0751964030206203,-0.8410055648364126,-0.461303506296873,-0.0751964030206203,-0.8410055648364126,-2.560823131942749,0.9158055158853532,-2.7936370315611363,-0.1880420893430709,2.375749588012696,1.5383014678955078
1774472077633779200,0.688779296875,0.1020785647273063,-0.2670040462508797,0.2360240207713097,0.3023279011249542,0.3074350953102112,-0.0781745165586471,-0.5010135853946208,-0.1567979969084262,-0.4495106310419738,-0.5010135853946208,-0.1567979969084262,-0.4495106310419738,-1.8395733889520167,0.9334370341658592,-3.079009385934472,-0.5154692530632019,2.5126523971557617,2.0851693153381348
1774472077643807500,0.698807373046875,0.2118628815263509,-0.2253992394477129,0.1087945751093328,0.2815436422824859,0.3856104016304016,-0.0607426315546035,-0.5722960298418999,-0.3700026484325528,0.218864686579816,-0.5722960298418999,-0.3700026484325528,0.218864686579816,-1.580392875933647,1.0163239916890858,-2.590865511246025,-0.7763194441795349,2.547837734222412,2.608217239379883
1774472077653835300,0.708835205078125,0.1531996801555156,-0.1969309775933623,0.0565674712006002,0.2728849351406097,0.398283302783966,-0.0153426574543118,-0.610410948702693,-0.5618114607065916,0.8788208431635052,-0.610410948702693,-0.5618114607065916,0.8788208431635052,-1.328977151697874,1.335842361292243,-1.9974872381478548,-0.965773105621338,2.53929090499878,3.0398972034454346
1774472077663863300,0.71886328125,-0.0712000268608331,-0.2453010407477617,0.0969023311331868,0.2661767303943634,0.4153750836849212,0.058288887143135,-0.8922405159026384,-0.6020826808184385,1.5439726321615277,-0.8922405159026384,-0.6020826808184385,1.5439726321615277,-0.764825849866867,1.77492643699646,-1.3108186869338154,-1.0048704147338867,2.4182469844818115,3.3441193103790283
1774472077673891300,0.728891357421875,-0.2451420507937669,-0.3582952595040202,0.1556193085178732,0.2590535581111908,0.5052679777145386,0.1407246440649032,-1.0535539444088935,-0.3409717842593789,1.9299986330255865,-1.0535539444088935,-0.3409717842593789,1.9299986330255865,-0.1169148993313312,1.833980683511496,-0.2166492390200495,-0.8542496562004089,2.160406351089477,3.487898111343384
1774472077683920400,0.73892041015625,-0.371315192335844,-0.3971165730684995,0.1514075360417366,0.2435054630041122,0.6444907188415527,0.2018079906702041,-0.7253741294443606,0.2915791000589728,1.912733025448024,-0.7253741294443606,0.2915791000589728,1.912733025448024,1.0616454809278248,2.1042238578140733,0.7724024226009846,-0.405704915523529,-0.0571594685316085,3.620616912841797
1774472077693948200,0.7489482421875,-0.8529863638788461,-0.3717228963539004,0.0515364182308316,0.2275251597166061,0.8966886401176453,0.2551881372928619,-0.7447779180943965,0.7519988092586398,1.4675626155674455,-0.7447779180943965,0.7519988092586398,1.4675626155674455,8.856202794322371,5.0132180378705264,1.862976768632233,0.3817687630653381,-1.7086248397827148,4.108454704284668
1774472077703976400,0.7589765625,-1.4086007235109803,-0.257889304164052,-0.1796155395247042,0.2106915265321731,1.436544418334961,0.2935704290866852,-1.106799212384224,-0.4698994852066039,0.3988414971649646,-1.106799212384224,-0.4698994852066039,0.3988414971649646,6.686190997824072,4.84480033031702,2.8642922840207814,0.7377958297729492,-0.0961223915219307,3.9469830989837646
1774472077714004200,0.769004150390625,-1.4143261154204607,-0.0477317652508616,-0.4613593281373381,0.1978446990251541,2.1882832050323486,0.3239365816116333,-1.1538824505984782,-0.4391340523257851,0.0935946678899228,-1.1538824505984782,-0.4391340523257851,0.0935946678899228,1.7512530082032085,2.580759420034289,2.5686662466585632,0.8037373423576355,1.016653299331665,3.532299995422364
1774472077724032500,0.779032470703125,-1.15565062931478,0.2030441997766494,-0.8434567573808133,0.1922582238912582,2.868803262710572,0.330489844083786,-1.7857926989257336,-0.3921706410989165,0.4590132399352267,-1.7857926989257336,-0.3921706410989165,0.4590132399352267,4.030065663421154,1.148593696540594,1.644799735523015,0.7071492671966553,0.9617900252342224,3.1169681549072266
1774472077734061300,0.789061279296875,-1.4054711933135986,0.5255933153778314,-1.4799712846331297,0.1789959520101547,3.4151504039764404,0.3326557874679565,-2.313372804206609,0.0146872815221548,1.2007227469023316,-2.313372804206609,0.0146872815221548,1.2007227469023316,5.391816957473755,0.8012748813420534,1.14083811397776,0.6577337980270386,0.5166205763816833,2.7921957969665527
1774472077744089300,0.79908935546875,-1.7513702048420905,0.7854089114293455,-2.023035813163221,0.1330430805683136,3.836726188659668,0.3939239680767059,-2.564652919363976,0.3672632865965366,2.1401339601069687,-2.564652919363976,0.3672632865965366,2.1401339601069687,3.7404999490112063,1.1885007595151662,1.7322027091659604,0.746542751789093,0.3328629732131958,2.60294246673584
1774472077754117400,0.809117431640625,-1.521503464591503,0.4208955080628395,-2.072839708513021,0.0608381256461143,4.027440547943115,0.5353857278823853,-3.0578350804805754,0.1114306227013468,2.7521640344440934,-3.0578350804805754,0.1114306227013468,2.7521640344440934,1.7133534856587649,1.858043696144223,3.3337142148435115,1.0349026918411257,0.3819398283958435,2.43995213508606
1774472077764145400,0.8191455078125,-1.2562135287821292,-0.1357110774770379,-1.863572396437824,-0.004223408177495,3.958531141281128,0.814923882484436,-3.238952110609412,0.1758347058117389,3.1919255710184573,-3.238952110609412,0.1758347058117389,3.1919255710184573,0.5083686243325471,1.3578560401797293,3.304356018412113,1.4011602401733398,0.8702911138534546,2.208001136779785
1774472077774174500,0.829174560546875,-0.8431348319500684,-0.3080538495197892,-1.7908762858003378,-0.080380231142044,3.5957067012786865,1.220856547355652,-3.0210628084003925,0.3848641174778342,3.536798746630549,-3.0210628084003925,0.3848641174778342,3.536798746630549,-0.1765752950459718,1.429840495416522,3.461531031939387,1.699169397354126,0.9669597744941713,2.034503221511841
1774472077784202200,0.8392021484375,-0.1967272717148065,-0.1723860266625881,-1.5813412626996637,-0.1923439353704452,2.972801685333252,1.7013074159622192,-2.477421795156598,0.3591977613016963,3.652199149745704,-2.477421795156598,0.3591977613016963,3.652199149745704,0.3367655647411942,2.1170494371175765,3.6383217233017087,1.8573143482208248,0.8621063232421875,1.8610919713974
1774472077794230500,0.84923046875,0.0024888942062854,-0.2643503168717026,-1.0977192493498324,-0.3325263261795044,2.1827051639556885,2.251701593399048,-2.05443311420679,0.2242863097697496,3.227098006686568,-2.05443311420679,0.2242863097697496,3.227098006686568,0.4947402042135596,1.2473930934667588,1.573591379225254,1.9245878458023071,0.8003425598144531,1.6520034074783323
1774472077804258300,0.85925830078125,0.5791220764696597,-0.4036956591978669,-0.5060565479978919,-0.4784294962882995,1.2189825773239136,2.7711880207061768,-1.426304722505808,0.2237427044123411,2.4099293906420467,-1.426304722505808,0.2237427044123411,2.4099293906420467,0.3779360717803239,0.3180255006968975,0.084964056058228,1.954890847206116,0.4971666932106018,1.3977439403533936
1774472077814287400,0.869287353515625,0.4388976132214069,-0.2017190886527299,-0.2603498490586877,-0.6202689409255981,0.3033532500267029,3.170682430267334,-1.3502613472670315,0.5747782020464539,1.859509677043557,-1.3502613472670315,0.5747782020464539,1.859509677043557,0.6130851363480091,-0.4114472962379455,-0.890037233704701,1.785820245742798,0.1843359321355819,1.178515076637268
1774472077824315400,0.8793154296875,-0.3864525557130575,0.4848363575756549,-0.1861567778617143,-0.7104342579841614,-0.2784998714923858,3.4522955417633057,-1.0802180794507263,1.1990171850934623,1.4598177005290984,-1.0802180794507263,1.1990171850934623,1.4598177005290984,0.0335781522139906,-1.5928484528809783,-2.964703207796812,1.3671313524246216,-0.0311132688075304,1.0272883176803589
1774472077834343400,0.889343505859375,-0.6204717394679784,0.8188461938679218,-0.2612190331086516,-0.8071496486663818,-0.6606941223144531,3.526200294494629,-0.3926958340167999,2.1218086143434047,1.3599296315833926,-0.3926958340167999,2.1218086143434047,1.3599296315833926,-0.7019795175924897,-2.6467764912992715,-4.472649856200814,0.7456708550453186,-0.3112182021141052,0.879996657371521
1774472077844371200,0.89937109375,-1.174901857751608,1.2875099997997284,-0.4970344526305794,-0.8905595541000366,-1.2057476043701172,3.318530797958374,-0.1401227564394473,1.8658871031209825,0.5677436272345483,-0.1401227564394473,1.8658871031209825,0.5677436272345483,-1.2777245188444852,-3.006971739205718,-4.574155297215283,0.1956468522548675,-0.3470494151115417,0.6766952276229858
1774472077854399500,0.9093994140625,-2.639295195633173,2.4265473479658364,-1.5184557674586772,-0.9987155199050904,-1.2144473791122437,2.936870574951172,0.4720306520164012,1.349492116460204,-0.2883347113102674,0.4720306520164012,1.349492116460204,-0.2883347113102674,-1.2195990776121617,-1.3650292928099632,-1.969613435055316,0.1964090913534164,-0.3448359668254852,0.3799992501735687
1774472077864428300,0.91942822265625,-1.320784492892027,2.044822989818454,-1.549376390901208,-1.0930497646331787,-0.6987833380699158,2.461302757263184,1.0646306342184544,1.2899363501638172,-0.7597393403828143,1.0646306342184544,1.2899363501638172,-0.7597393403828143,-0.263182149875164,0.409702498397231,0.7273311087310314,0.440595418214798,0.058723758906126,0.131417378783226
1774472077874456300,0.929456298828125,0.910954568722844,1.1582950063437225,-0.7315048872843384,-1.1363909244537354,0.1100743189454078,1.8987089395523071,2.033233089789748,1.6408222101941703,-0.8025944395080208,2.033233089789748,1.6408222101941703,-0.8025944395080208,0.0017746084570884,0.1431914963603019,0.9323349912080912,0.6920168995857239,0.5256227254867554,-0.1612281054258346
1774472077884484400,0.939484375,2.156567793035507,0.4282844492703676,-0.5161188000679016,-1.051552176475525,0.8855442404747009,1.2559587955474854,3.346000280442833,1.2731044578284023,-0.8479279114454984,3.346000280442833,1.2731044578284023,-0.8479279114454984,0.3943886094093322,-0.2408089900255203,1.2706217011019587,0.9284529089927672,0.7059682607650757,-0.4884360730648041
1774472077894512400,0.949512451171875,2.043862035831809,-0.4778869768291711,-0.4075251543581485,-0.9490050673484802,1.4836493730545044,0.5706034302711487,4.317013888809084,0.587463788357377,-1.329984282913804,4.317013888809084,0.587463788357377,-1.329984282913804,0.311226634337008,0.0533528200030326,1.5268994784161447,1.114753484725952,0.6503862142562866,-0.7718143463134766
1774472077904540400,0.95954052734375,1.407447461822629,-0.974159505176544,0.2209334922105073,-0.8425881266593933,1.7499366998672483,-0.0010377205908298,4.459636060848832,0.612924977350235,-2.41360691011101,4.459636060848832,0.612924977350235,-2.41360691011101,-0.2015802647039294,0.6775345199048519,0.8069478854771703,1.2546852827072144,0.2236148566007614,-0.9367700219154358
1774472077914569500,0.969569580078125,1.2095640058100223,-0.6910311303377151,0.4350932525023818,-0.7909507751464844,1.5043213367462158,-0.3910382091999054,4.348488054481148,-0.5923077212572098,-2.442311611069739,4.348488054481148,-0.5923077212572098,-2.442311611069739,-0.5587471046999096,0.975793828380108,0.1915392380850389,1.36512553691864,-0.329214870929718,-1.0211399793624878
1774472077924597200,0.97959716796875,0.925000045210123,-0.0413490784764289,0.3462859650194644,-0.7146376967430115,0.6821061968803406,-0.549078106880188,4.0091351035952565,-0.0307347454816102,-1.783763823446631,4.0091351035952565,-0.0307347454816102,-1.783763823446631,-0.6041583180487156,1.2107166829764842,0.0652714953283779,1.4809924364089966,-0.6043750643730164,-1.0263392925262451
1774472077934625300,0.989625244140625,-0.0396937124848365,0.4896873047381639,-0.2142196737855672,-0.7662763595581055,-0.1569064706563949,-0.4956439435482025,3.1289322314888235,1.2053344054162505,-1.2456845359832047,3.1289322314888235,1.2053344054162505,-1.2456845359832047,-0.5343795561626553,1.4473317284435032,0.6931276642255485,1.6350510120391846,-0.6840577125549316,-0.9651528000831604
1774472077944653300,0.9996533203125,-0.0904857420891523,0.7746849805802106,0.4503872677460313,-0.8350399136543274,-1.0900015830993652,-0.2311219722032547,1.3836205960333348,0.2811690574645996,-1.7650649681955577,1.3836205960333348,0.2811690574645996,-1.7650649681955577,-0.3335314051255583,1.49289988591969,1.2401274863779543,1.6707820892333984,-0.6970203518867493,-0.974672794342041
1774472077954682400,1.009682373046875,0.5005331084012985,1.20214583850801,0.5711512437209486,-0.9575980305671692,-2.077223300933838,0.0222887173295021,-0.3362210826009512,-0.0162368490517139,-2.041205968365073,-0.3362210826009512,-0.0162368490517139,-2.041205968365073,0.0747539199501276,1.7795973514169454,0.789117045232281,1.5961356163024902,-0.7521937489509583,-1.0246397256851196
1774472077964710100,1.019710205078125,-0.18312486281991,1.836982203415036,0.9435743972986936,-1.0610618591308594,-3.2110581398010254,0.1549249738454818,-1.361288352715969,1.1844359942942857,-1.43961662402153,-1.361288352715969,1.1844359942942857,-1.43961662402153,-0.24813889452219,1.797764876270294,0.4017774044863879,1.5052459239959717,-0.6786484122276306,-1.0142840147018433
1774472077974738400,1.029738525390625,-0.7673650129556655,2.266515775963664,0.8540966632083058,-1.1670693159103394,-4.29472541809082,0.1410842686891555,-1.5436942536115643,3.0157167711973187,0.342806598471105,-1.5436942536115643,3.0157167711973187,0.342806598471105,-0.7892386988505721,1.5296692353904249,0.4462852392546832,1.3838963508605957,-0.5026636719703674,-0.9789633750915528
1774472077984766200,1.03976611328125,-0.9571160159170627,2.743242476841808,1.028672016608715,-1.2774523496627808,-5.027252197265625,-0.0213215872645378,-0.7503250308275222,2.226731462585926,-0.5844469247542321,-0.7503250308275222,2.226731462585926,-0.5844469247542321,-0.9965177597180008,1.2967355087846515,0.6318247620008886,1.2177908420562744,-0.6876314282417297,-0.952720582485199
1774472077994794500,1.04979443359375,-0.155528415364027,2.05283210875094,1.7127198639303445,-1.3122636079788208,-5.453827857971191,-0.2682879567146301,0.3074140903115272,0.4591501276552677,-2.108832374522835,0.3074140903115272,0.4591501276552677,-2.108832374522835,-1.4249071306675671,1.06820089392066,0.3639413025669753,1.0447793006896973,-0.8409254550933838,-0.8653240203857422
1774472078004823600,1.059823486328125,0.671073799458146,1.0242074384152888,2.166257120139897,-1.269242286682129,-5.463058948516846,-0.6258108615875244,1.4423697221219538,-0.8852151473104953,-2.4523230097353457,1.4423697221219538,-0.8852151473104953,-2.4523230097353457,-2.013205324022472,0.5750508815079927,0.0437594275537878,0.9116893410682678,-0.432616263628006,-0.5779750347137451
1774472078014851300,1.069851318359375,1.5448159511178732,0.3145511025846004,2.017777746504545,-1.1813610792160034,-5.004317283630371,-1.0855802297592163,2.0571756909132004,-0.7177706687033176,-1.680642471668124,2.0571756909132004,-0.7177706687033176,-1.680642471668124,-2.215769339066744,0.1314016898453235,0.1280316288903355,0.7953593730926514,-0.2810408174991607,-0.275738775730133
1774472078024879400,1.07987939453125,2.3570775058984754,0.0876619168400764,1.83294666428864,-1.0674965381622314,-4.279898166656494,-1.5368518829345703,1.458007436236739,0.3750222301602363,-0.3276397898036986,1.458007436236739,0.3750222301602363,-0.3276397898036986,-1.7458073100179432,0.2948287495046854,-0.0922434724766761,0.6120486259460449,-0.189117282629013,-0.1012407392263412
1774472078034907400,1.089907470703125,2.384491582524776,0.0852975257962942,1.5389423829093574,-0.8893042206764221,-3.229899406433105,-1.8131316900253296,0.8544675423473119,1.529879371009767,0.8092338044572621,0.8544675423473119,1.529879371009767,0.8092338044572621,-1.4845362544611096,0.7073322767972946,-0.3663584467113018,0.4179652631282806,-0.1460592448711395,-0.0759398713707923
1774472078044936400,1.0999365234375,2.772361019298434,-0.7903142191275954,1.2920944049805403,-0.6669214367866516,-1.8483490943908687,-1.8456934690475464,0.8146487421780824,2.233093983355164,0.9309298005852849,0.8146487421780824,2.233093983355164,0.9309298005852849,-1.0860425478205085,0.8159779449552297,-0.5448027504995465,0.2995786964893341,-0.1561294496059417,-0.155367836356163
1774472078054964200,1.109964111328125,4.479665872442722,-1.366986272096634,1.0914020290270448,-0.4571314752101898,-0.8177712559700012,-1.736663579940796,0.7804319997996091,2.121049320408702,0.4157042230300605,0.7804319997996091,2.121049320408702,0.4157042230300605,-0.9272951704099772,0.535168952974677,-0.43483065604344,0.273617684841156,-0.2235869914293289,-0.2599354982376098
1774472078064992500,1.119992431640625,4.917678519523143,-0.815634246084094,0.4908762222617864,-0.4135021865367889,-0.1651359945535659,-1.6437422037124634,1.5330015946835278,1.2397469626277684,0.067407794971019,1.5330015946835278,1.2397469626277684,0.067407794971019,-0.696764413292706,0.2330570607244968,-0.5149136620618403,0.2988327443599701,-0.2108642756938934,-0.4072498679161072
1774472078075020300,1.130020263671875,3.8257770165413616,0.5019005973622203,0.8535898827299475,-0.478277713060379,0.0023595162201672,-1.5167945623397827,2.485402272516489,1.1659034355208278,0.1243644846849143,2.485402272516489,1.1659034355208278,0.1243644846849143,-0.3336708135962486,0.054282794329524,-0.6376663276359439,0.349366545677185,-0.1596798002719879,-0.5755098462104797
1774472078085049300,1.14004931640625,2.3524060069561004,1.293892978835106,1.2156097157150507,-0.5931733250617981,-0.1488656997680664,-1.2732234001159668,2.717927418321371,2.123665932647884,0.3486626310229301,2.717927418321371,2.123665932647884,0.3486626310229301,-0.3387795349121094,0.0535445431828498,-0.6732999510750174,0.3833330571651459,0.0827741250395774,-0.7856071591377258
1774472078095077400,1.150077392578125,1.5951491310387849,1.203895312523842,1.250816638174653,-0.7141631245613098,-0.4959911704063415,-0.8864367604255676,2.0393127019643784,3.3605662736728785,0.2487744159467518,2.0393127019643784,3.3605662736728785,0.2487744159467518,-0.1940618518978357,0.1868611267387867,-1.0459263721399008,0.3612824380397796,0.2749045789241791,-0.991266667842865
1774472078105105400,1.16010546875,1.5136942521452903,0.6749032946184277,1.3588969275347889,-0.8266657590866089,-0.8961759805679321,-0.4452826976776123,0.5807096379220485,2.2739470950081944,0.4604788920409977,0.5807096379220485,2.2739470950081944,0.4604788920409977,0.1001788685858249,0.0163835640460252,-1.5068782885201275,0.2639644145965576,0.1918291449546814,-1.1305116415023804
1774472078115133200,1.17013330078125,1.2873966025531292,0.4008598512500524,1.6909091602690516,-0.8689810037612915,-1.1640342473983765,-0.0084507605060935,-0.1475713188797235,1.7095383112847804,0.8171404128633439,-0.1475713188797235,1.7095383112847804,0.8171404128633439,-0.3606038287073373,-0.0389677362978458,-1.5176757229968905,0.1712134480476379,0.0729985609650611,-1.128040432929993
1774472078125161500,1.180161376953125,1.049170030236244,0.1929623662233352,1.7045640300035476,-0.765756368637085,-1.259133219718933,0.379664808511734,-0.8043149796903133,1.777498041050136,0.3596539806365966,-0.8043149796903133,1.777498041050136,0.3596539806365966,-1.1165613124638796,0.0203483760237693,-1.1197012179248034,0.1240981370210647,-0.0192735735327005,-1.0005857944488523
1774472078135190300,1.190190185546875,1.0718500640779731,-0.2269219189703464,1.3238280983716249,-0.5181886553764343,-1.124425768852234,0.5973334908485413,-0.4788590367317199,1.704421114401519,-0.2103004545152187,-0.4788590367317199,1.704421114401519,-0.2103004545152187,-1.6570470765471457,-0.1525298180699348,-0.2915487049207091,0.1299686431884765,0.14657923579216,-0.803656816482544
1774472078145218300,1.20021826171875,0.897002615737915,-0.7232888476029038,0.9469937042228876,-0.1302196830511093,-1.2144280672073364,0.6392104029655457,0.6865922711074351,1.7435817429229616,-0.1072298100106418,0.6865922711074351,1.7435817429229616,-0.1072298100106418,-1.4857897616535425,-0.2142886473685503,0.1813030542202293,0.112485259771347,0.2978941798210144,-0.5829918384552002
1774472078155246300,1.210246337890625,-0.1186713876098394,-1.0885317342877388,0.9638149290338158,0.435683399438858,-1.3204964399337769,0.5000937581062317,1.5842635798871516,1.5145985075086354,0.614685265021026,1.5842635798871516,1.5145985075086354,0.614685265021026,-1.1681231573969124,-0.1699497394263744,0.1746900658212602,0.0957851931452751,0.3209436535835266,-0.3567254245281219
1774472078165274400,1.2202744140625,-1.115210482376814,-1.782701454912126,2.0796135865621266,0.8729692697525024,-0.9047907590866088,0.1425597220659256,1.8785574918627737,1.2749056620314716,0.7585087756745517,1.8785574918627737,1.2749056620314716,0.7585087756745517,-1.0663380226582289,0.1111731408089399,0.2880319289714098,0.1149852499365806,0.3781193196773529,-0.1500857025384903
1774472078175303400,1.230303466796875,0.0079524203091859,-1.5242536400824784,2.3257976937547324,1.019763469696045,-0.2320901751518249,-0.2921491265296936,-0.880148511570692,-1.814956834089756,-1.087014899984002,-0.880148511570692,-1.814956834089756,-1.087014899984002,-0.7826268794953822,0.3713561088681221,0.3127846774339676,0.131159096956253,0.4488528072834015,-0.0187056176364421
1774472078185331500,1.24033154296875,0.9058002546995878,0.361777548661828,0.794994193637371,0.9412369132041932,0.3653010725975036,-0.68868488073349,2.095481163910032,0.1150648875504732,-0.7132173893131315,2.095481163910032,0.1150648875504732,-0.7132173893131315,-0.3275058612257242,0.4788409165531396,0.211192288788408,0.1213956847786903,0.4096526801586151,0.0134070441126823
1774472078195359500,1.250359375,1.0832061553508043,0.7464370834782719,0.7755940582491457,0.8304571509361267,0.4161453247070312,-1.0129570960998535,6.415051751464605,0.1639610204055905,-4.638574577894807,6.415051751464605,0.1639610204055905,-4.638574577894807,-0.0258913971036672,0.5132318464547395,0.178661015278846,0.1109986156225204,0.2619354426860809,-0.018995214253664
1774472078205388500,1.260388427734375,-0.018830957198143,-0.2144073053121566,1.372237616753578,0.7532089948654175,-0.2537810802459717,-1.2050483226776123,3.040319882056117,-2.8707915829122066,-7.289643797951936,3.040319882056117,-2.8707915829122066,-7.289643797951936,0.1762573151379823,0.4654191249221563,-0.0254579741224646,0.1204485744237899,0.1184440702199935,-0.0965422019362449
1774472078215416600,1.27041650390625,-1.5247522372543811,-0.5167524217963219,1.5272854089938104,0.7124311923980713,-0.769173800945282,-1.2104109525680542,1.4504408003747462,-5.165609908774495,-7.456929286605119,1.4504408003747462,-5.165609908774495,-7.456929286605119,0.3796171567350626,0.4927086983859539,-0.0280883226260542,0.1801150739192962,0.0721522122621536,-0.2370216399431228
1774472078225445600,1.280445556640625,-0.6997673945009708,-0.04405132317245,0.9178801302023232,0.7588595747947693,-0.8600637912750244,-1.0680423974990845,2.030107651245594,-4.898584819735587,-4.915066875720024,2.030107651245594,-4.898584819735587,-4.915066875720024,0.5063157834559678,0.5129179581999779,0.1749905100725591,0.2757513225078583,0.0742718204855918,-0.381840318441391
1774472078235473700,1.2904736328125,0.5518728350162506,0.2429980245023965,0.4565294237628579,0.876789927482605,-0.7904974818229675,-0.8493666052818298,2.61318986351788,-4.641015833567082,-1.003385453530401,2.61318986351788,-4.641015833567082,-1.003385453530401,0.4031757269769906,0.3775064481914043,0.2602459502927959,0.3520015776157379,0.0965368524193763,-0.5044679641723633
1774472078245501700,1.300501708984375,0.75316405364573,0.1778688419878482,-0.0811038734987378,0.9847729206085204,-0.6688669323921204,-0.6133391857147217,1.897536333099008,-5.387079992079735,-0.0842847502908669,1.897536333099008,-5.387079992079735,-0.0842847502908669,0.1961521021753549,0.3274848184376955,0.019025749117881,0.4131421446800232,0.0594520717859268,-0.5703630447387695
1774472078255529700,1.31052978515625,0.5915776534169912,0.236881879709661,-0.2873074140891433,1.0509114265441897,-0.5510332584381104,-0.4009340107440948,1.6041151123046875,-6.2317293202459805,-2.795986809557676,1.6041151123046875,-6.2317293202459805,-2.795986809557676,-0.5907283431112766,0.2682365106552839,0.2593530931062996,0.5465160608291626,0.0623918920755386,-0.4924261271953583
1774472078265558800,1.320558837890625,0.5944079084068536,0.2345703878968953,-0.483445926130563,1.105022430419922,-0.3924319446086883,-0.2200124561786651,2.502631055215001,-5.673517345336079,-3.3148180834546683,2.502631055215001,-5.673517345336079,-3.3148180834546683,-1.2162442142263057,0.1644435432255268,0.9088412298306824,0.6419808268547058,0.2383240312337875,-0.4069029688835144
1774472078275586600,1.330586669921875,0.6549672987878322,0.1657403050377965,-0.7791040391314774,1.1210166215896606,-0.2905082404613495,-0.0620968677103519,3.598205109229684,-3.2243606906771656,-2.382549800807237,3.598205109229684,-3.2243606906771656,-2.382549800807237,-0.6813125771388411,0.0565308655172586,0.1822461802892386,0.6369897723197937,0.5115422010421753,-0.4053627550601959
1774472078285614800,1.34061474609375,0.9045704206436872,0.0544108046233654,-0.8959832095623016,1.0878123044967651,-0.2815543711185455,0.073635995388031,4.11069695097208,-0.262214181625843,-0.171086013447307,4.11069695097208,-0.262214181625843,-0.171086013447307,-0.2441623921066522,0.0097305358976125,-0.4905927291452884,0.549628734588623,0.6232485175132751,-0.4161240458488464
1774472078295642600,1.350642578125,1.2605465895503758,-0.0745414462432265,-0.5652727070763707,1.0626131296157837,-0.3446630537509918,0.1749207973480224,7.9936554058939215,0.8319804007291793,3.60022638592422,7.9936554058939215,0.8319804007291793,3.60022638592422,-0.2214411494717001,0.0461503412783145,-0.7066388877056539,0.3808281421661377,0.5410456657409668,-0.4092190861701965
1774472078305671700,1.360671630859375,1.6422341228187085,-0.2473091656997799,-0.7055046229787171,1.0018815994262695,-0.3780850768089294,0.2323180139064788,9.11709829456508,-0.1082154600471258,-4.477928381125628,9.11709829456508,-0.1082154600471258,-4.477928381125628,-0.4809846505835652,0.2303904718637466,-0.7325207863286137,0.2210264801979065,0.4503642320632934,-0.3441530168056488
1774472078315699500,1.370699462890625,2.0391496203571555,-0.341855581356585,-0.6262669817432761,0.9350040555000304,-0.3960350751876831,0.1949285715818405,5.780031846684217,0.1256894496783614,-2.893876982684433,5.780031846684217,0.1256894496783614,-2.893876982684433,-0.7484545607805252,0.452428125923872,-0.6148617906317114,0.1195540875196456,0.4886852204799652,-0.278067409992218
1774472078325727700,1.380727783203125,2.2658435757905244,-0.3676405954763293,-0.8503021662961691,0.8840756416320801,-0.3521590828895569,0.0351358950138092,7.162236730700731,0.5618143833160401,0.1546637613587081,7.162236730700731,0.5618143833160401,0.1546637613587081,-0.5136377969071269,0.5485843148648738,-0.4802582360051572,0.0537274107336998,0.4815306365489959,-0.2379559278488159
1774472078335755500,1.390755615234375,2.1063217068761584,-0.1215662322685122,-1.0499547508731484,0.8862277269363403,-0.2481434494256973,-0.1917574405670166,8.653598155006765,0.8483867611289024,-0.8382898761369287,8.653598155006765,0.8483867611289024,-0.8382898761369287,-0.1278472122341394,0.4340291304022073,-0.5904794829167426,0.0408693999052047,0.2647525370121002,-0.2395210713148117
1774472078345783800,1.40078369140625,2.1495897707164286,0.0782198424950242,-1.0206601942624896,0.925335705280304,-0.0468374639749527,-0.4169140458106994,7.957088300997018,1.758627628624439,-0.9367926282040774,7.957088300997018,1.758627628624439,-0.9367926282040774,0.1475523219183087,0.3933206879168748,-0.5056979438185691,0.0781355425715446,0.08676628023386,-0.2896439135074615
1774472078355812600,1.4108125,2.443857379207015,0.2584726570099592,-1.0500328576106577,0.946779191493988,0.1909359544515609,-0.5715137720108032,7.171967266598344,2.920489095278084,0.6473555086098611,7.171967266598344,2.920489095278084,0.6473555086098611,0.1511304726660251,0.4354857589513063,-0.1475429695680737,0.1469916254281997,0.0182622391730546,-0.3645085096359253
1774472078365840600,1.420840576171875,2.8566788864076136,0.3790861185982823,-1.0878772159017622,0.9600979089736938,0.3743084669113159,-0.6626814603805542,4.895793435451388,2.3552597889520226,3.41976869648695,4.895793435451388,2.3552597889520226,3.41976869648695,-0.0145043261706829,0.3264385242551565,0.5309916672900319,0.2294382899999618,0.0424378849565982,-0.4240951240062713
1774472078375868700,1.43086865234375,3.049434331882,0.361686070986092,-1.2247741421625018,0.9858887195587158,0.4289991557598114,-0.6846797466278076,2.215876891094446,2.369544334892183,1.5999235058337449,2.215876891094446,2.369544334892183,1.5999235058337449,-0.2214198144227266,0.0181909057289361,0.8205176342114806,0.2874999344348907,-0.0842828974127769,-0.4404773414134979
1774472078385896700,1.440896728515625,3.109813689520955,0.3299678674250841,-1.2185487648416309,1.028553128242493,0.3397712409496307,-0.6353945136070251,1.9262223293572664,2.391154401414841,0.244434048654884,1.9262223293572664,2.391154401414841,0.244434048654884,-0.4010831386119127,-0.0914981340020894,0.5214451096571981,0.2864479720592499,-0.1718233972787857,-0.4196455478668213
1774472078395925800,1.45092578125,3.273691415557265,0.4089657085552811,-1.0474198986332863,1.0678189992904663,0.1198551207780838,-0.5089161992073059,1.2092261521577834,2.1404561777986584,0.8148521557956934,1.2092261521577834,2.1404561777986584,0.8148521557956934,-0.361788654577732,-0.0046656537234783,0.2157087432995438,0.2932433784008026,-0.2662837207317352,-0.3604530394077301
1774472078405953500,1.46095361328125,3.428765072891116,0.5751052420437336,-0.9305030265405774,1.1347202062606812,-0.1005803048610687,-0.3377352654933929,-0.0885907221227884,1.6914022044830024,0.6936718541048467,-0.0885907221227884,1.6914022044830024,0.6936718541048467,-0.5050999779254198,-0.1168225448727607,0.3767554836936295,0.325526475906372,-0.274217277765274,-0.2335097193717956
1774472078415981600,1.470981689453125,3.605702771508693,0.6501458699807524,-0.8777131011173128,1.2358473539352417,-0.230172649025917,-0.1766062825918197,-0.7468477101057768,1.0683720127038656,0.1331736679539084,-0.7468477101057768,1.0683720127038656,0.1331736679539084,-0.5925076277434825,-0.1822124241501092,0.5775087960541248,0.3288272023200989,-0.154925987124443,-0.0767563134431839
1774472078426009600,1.481009521484375,3.556428745251894,0.5908657057553529,-1.0284857733216135,1.3193423748016355,-0.2791622281074524,-0.0856029093265533,-0.6414245111256838,0.4591165176466107,-0.6374198055289685,-0.6414245111256838,0.4591165176466107,-0.6374198055289685,-0.6688719054996967,-0.2664665783733129,0.4733619006201625,0.2326271533966064,0.0053334636613726,0.0816042944788932
1774472078436037600,1.49103759765625,3.270155642646551,0.6405456824645399,-1.0581481403313575,1.391709804534912,-0.2664088904857635,-0.0889987051486969,-0.2812999903678894,0.0368751570659223,-1.3743103313744067,-0.2812999903678894,0.0368751570659223,-1.3743103313744067,-0.743645114672184,-0.3838391583442688,-0.1163515663601458,0.0244137328118085,0.0990131571888923,0.1808492392301559
1774472078446066700,1.501066650390625,2.90679871583879,0.6633072571098804,-1.0368116300530732,1.465058207511902,-0.2255888432264328,-0.1942320466041565,0.6241711785078048,0.3591631649123504,-1.6053525451451538,0.6241711785078048,0.3591631649123504,-1.6053525451451538,-0.6115349842965603,-0.3971615812540054,-0.4302525344729423,-0.1799947917461395,0.0688291564583778,0.2330786138772964
1774472078456094700,1.5110947265625,2.521961778628826,0.5748924760758877,-1.073931400396675,1.4628664255142212,-0.2115566432476043,-0.3244680762290954,0.8685375687539577,0.1812747962401248,-2.0604376153185964,0.8685375687539577,0.1812747962401248,-2.0604376153185964,-0.5806307274669409,-0.4614478832036257,-0.198673437346518,-0.2939262986183166,0.0691440403461456,0.2343762814998626
1774472078466122800,1.521122802734375,2.423144261524081,0.45033349173218,-1.0154073883008212,1.4095810651779177,-0.3354924619197845,-0.4904670119285583,0.6400660822540521,-0.1117412595530971,-1.0867553722649812,0.6400660822540521,-0.1117412595530971,-1.0867553722649812,-0.398667309641838,-0.4287818773984909,0.0464390950918197,-0.3413191139698028,0.1638479083776474,0.1740013509988784
1774472078476150800,1.53115087890625,2.290370698803663,0.2108008052527904,-0.64231254600659,1.3588041067123413,-0.5795450210571289,-0.6876703500747681,-0.0686333912432193,-0.364823565294221,0.4175190173670649,-0.0686333912432193,-0.364823565294221,0.4175190173670649,-0.0740390496790409,-0.4001204310595989,0.4648635368660092,-0.3231878280639648,0.2243106067180633,0.0572943910956382
1774472078486179600,1.5411796875,1.7834744851112363,-0.0907832637310028,-0.1637052920788526,1.3982243537902832,-0.8230862021446228,-0.861052930355072,-1.5001625703990458,-0.7020978832751512,0.5865278226815164,-1.5001625703990458,-0.7020978832751512,0.5865278226815164,0.0197077400326728,-0.4081377332985401,0.8831602606073021,-0.2670052647590637,0.2344343513250351,-0.0948551893234252
1774472078496207600,1.55120751953125,1.2648252897828816,-0.3307821064174175,-0.0507973359670955,1.5450778007507324,-0.9544119834899902,-0.9624711275100708,-2.161946563464403,-0.6955163859929889,0.0100087683171033,-2.161946563464403,-0.6955163859929889,0.0100087683171033,-0.0153407769948244,-0.6057207450598477,0.954201443644613,-0.194894403219223,0.2043132185935974,-0.2235349118709564
1774472078506235600,1.561235595703125,0.6374234587907791,-0.2631397720381617,-0.5331386161908507,1.6866871118545532,-0.8923745155334473,-0.9506325721740724,-2.695084302872419,-0.3727610437626019,-0.0941463104233145,-2.695084302872419,-0.3727610437626019,-0.0941463104233145,0.0306529124170541,-0.7017939318925142,0.8270346148900687,-0.1362425535917282,0.1667192429304123,-0.3347120285034179
1774472078516263700,1.571263671875,0.3993091146767139,-0.0375783277660608,-0.9839045079909264,1.74775230884552,-0.8198590874671936,-0.821179211139679,-3.358085270512104,-0.0232857446499168,-0.2049406810477375,-3.358085270512104,-0.0232857446499168,-0.2049406810477375,0.1172849016875028,-0.4861778353124856,0.5732420785203576,-0.1089711040258407,0.0357813611626625,-0.4085789620876312
1774472078526292500,1.58129248046875,0.1028834513694047,0.1159632976949214,-0.8310637242756783,1.697315335273743,-0.7623447179794312,-0.6245136260986328,-3.1597295208126304,0.0600284983746707,-0.5151560925155878,-3.1597295208126304,0.0600284983746707,-0.5151560925155878,-0.0101671737492084,-0.2886310639083385,0.3313929317921399,-0.072145976126194,-0.1310451775789261,-0.4429470598697662
1774472078536320800,1.59132080078125,0.0830453629553318,0.1554904214411973,-0.6576851794444024,1.5722205638885498,-0.6272585391998291,-0.426111102104187,-2.2599831593245265,-0.0929062472343444,-0.810266873832047,-2.2599831593245265,-0.0929062472343444,-0.810266873832047,-0.2830681690841913,-0.1133417170196771,0.283063931300491,-0.0603895597159862,-0.2044743597507476,-0.4240175187587738
1774472078546348500,1.6013486328125,0.1607733302801847,0.2270472989156842,-0.5915118216391653,1.4645366668701172,-0.5447568893432617,-0.2746362686157226,-1.9611463432222604,-0.2358581626851111,-0.1377083887740969,-1.9611463432222604,-0.2358581626851111,-0.1377083887740969,-0.5357651653021573,-0.5271481436043978,0.1380928580470383,-0.0523076653480529,-0.2419370412826538,-0.3615607917308807
1774472078556376600,1.61137646484375,0.2981225303530693,0.1744146098807454,-0.6668778821382672,1.108094573020935,-0.5077559947967529,-0.2473199516534805,-2.402467968720197,-0.4006658630479127,-0.0693459234267473,-2.402467968720197,-0.4006658630479127,-0.0693459234267473,-0.4739057982385158,-0.7532084773093461,0.2162482570037245,-0.0497007183730602,-0.2541578710079193,-0.2770394682884216
1774472078566405600,1.621405517578125,0.4141214838832616,0.4784960486382246,0.0534399868298321,0.7714784145355225,-0.6327590346336365,-0.2932498753070831,-2.424179449790716,-0.3857673499278723,1.046680551508069,-2.424179449790716,-0.3857673499278723,1.046680551508069,-0.5201145917057991,-0.7381663910001516,0.1785924800872802,-0.031489759683609,-0.2860100865364074,-0.1640045493841171
1774472078576433700,1.63143359375,-0.3731494220256805,1.270072835047543,-0.6893451500121504,0.9095641374588012,-0.4680092930793762,-0.3016151487827301,-2.4327052860736846,0.0202592364355921,2.26447111839354,-2.4327052860736846,0.0202592364355921,2.26447111839354,-0.8065624663561582,-0.5661819308757782,0.1855734250158071,-0.0065135997720062,-0.3353058993816376,-0.0338246002793312
1774472078586461400,1.64146142578125,-0.2709726576209068,-0.9785606627449392,-0.8401872341908514,1.0388574600219729,-0.4154630005359649,-0.383177638053894,-3.2044740869462487,0.4671183665880933,1.4884969747856258,-3.2044740869462487,0.4671183665880933,1.4884969747856258,-0.9206552940040826,-0.3984522055864334,-0.0180111652478575,0.009743932634592,-0.3781484365463257,0.0846242755651474
1774472078596489700,1.65148974609375,-0.1972977650791406,-0.8772061745084822,-0.0205769240826368,1.050465106964111,-0.4211917221546173,-0.4183068573474884,-3.0642502082198857,0.8399082711189985,0.5638017577409744,-3.0642502082198857,0.8399082711189985,0.5638017577409744,-0.8973463146090507,-0.3761141170501709,-0.0870830940388143,0.0229385960847139,-0.4143451452255249,0.1699225604534149
1774472078606517500,1.661517578125,-0.6490092671662568,1.1086959859162568,-0.5191050493370741,1.1036182641983032,-0.2471105605363845,-0.3589411973953247,-3.0299399423390625,1.2264789002537726,0.0762877053886652,-3.0299399423390625,1.2264789002537726,0.0762877053886652,-0.7675923919707536,-0.3145651311099529,-0.0316511296741664,0.0654642209410667,-0.4335465431213379,0.2218336910009384
1774472078616546600,1.671546630859375,0.1590133348703384,0.4686579607129096,-0.8024555424939841,1.1529717445373535,-0.1516237109899521,-0.2807039022445678,-2.635668237307668,1.4456719785377383,-0.9111296330288052,-2.635668237307668,1.4456719785377383,-0.9111296330288052,-0.6815326496303081,-0.1554606108248233,0.1330361591793596,0.1239946186542511,-0.453368991613388,0.2608115375041961
1774472078626574800,1.681574951171875,0.1682061106294393,0.5891797984950244,-0.5826830568868666,1.1488701105117798,-0.1301702111959457,-0.2070080339908599,-2.073051305437088,1.3486886911228295,-0.632235242497921,-2.073051305437088,1.3486886911228295,-0.632235242497921,-0.6284516323059797,-0.0029787235498428,0.069216890219599,0.1788583993911743,-0.4438037276268005,0.2760916948318481
1774472078636602600,1.6916025390625,0.118513566699624,0.735079969292134,-0.2389908346876502,1.0822266340255735,-0.1072033867239952,-0.1290338784456253,-1.2801356716394423,1.362843765464425,-0.3413108069553971,-1.2801356716394423,1.362843765464425,-0.3413108069553971,-0.55090428224504,0.0996668274104595,-0.1615777785308659,0.1723234355449676,-0.4602515697479248,0.2691099345684051
1774472078646630400,1.70163037109375,0.2463508420616388,0.8068253550760448,-0.055232057878375,0.981886863708496,-0.0974749699234962,-0.1042208969593048,-1.0092617982178926,1.1995865094140172,-0.116868722102046,-1.0092617982178926,1.1995865094140172,-0.116868722102046,-0.5371779547095299,0.1918763245522975,-0.4938521693326532,0.1001725494861602,-0.4944042265415191,0.2353871315717697
1774472078656659700,1.71165966796875,0.3696960667014122,0.7689546202346682,-0.0021155308492481,0.8492110967636108,-0.1885585486888885,-0.1935537159442901,-0.8517524381697177,0.495770022185333,0.1782163402512669,-0.8517524381697177,0.495770022185333,0.1782163402512669,-0.5039443781495094,0.2974275338262319,-0.7809086774006485,-0.0100631043314933,-0.5028170347213745,0.1858847141265869
1774472078666687700,1.721687744140625,-0.0506125813841819,0.6294450272575021,0.3968243121236562,0.7460460662841797,-0.3297102451324463,-0.3029552400112152,-0.4410024765461683,-0.1725092146508395,0.3388765655457973,-0.4410024765461683,-0.1725092146508395,0.3388765655457973,-0.5670990457206965,0.2845189524143934,-0.9370308208741248,-0.1508069187402725,-0.5364439487457275,0.155747577548027
1774472078676715500,1.731715576171875,-0.0580377629488706,0.6355842606648803,0.5763472049288452,0.6986774802207947,-0.2708863317966461,-0.3815770745277405,0.4698971471190452,-0.4614977867599576,0.2460778703391551,0.4698971471190452,-0.4614977867599576,0.2460778703391551,-0.8234183240890502,0.1642611723959446,-1.038802657739818,-0.3189573884010315,-0.5926723480224609,0.1644390374422073
1774472078686743800,1.741743896484375,0.2744698520869016,0.8834956300415098,0.3588539163000881,0.6966939568519592,-0.1241757869720459,-0.3524015545845032,1.613720560517907,-0.247500852346979,0.1326022978067398,1.613720560517907,-0.247500852346979,0.1326022978067398,-0.9679010293036698,0.1026455509603023,-1.1679694281399249,-0.4891232550144195,-0.6242183446884155,0.2045963108539581
1774472078696772600,1.751772705078125,0.787420543512702,0.978821213377267,0.0826708305545151,0.6818071603775024,-0.0433001182973384,-0.2532025575637817,2.170989701619744,-0.1424479297176934,0.1368973646521568,2.170989701619744,-0.1424479297176934,0.1368973646521568,-0.9952911405324936,0.1673322504043579,-1.202057867963612,-0.641970694065094,-0.6336840987205505,0.258186399936676
1774472078706800600,1.761800537109375,1.0187544337064027,1.201403787969053,0.0706434158913791,0.6858539581298828,0.0248633455485105,-0.1375261545181274,2.2497101871132847,-0.1430239577736705,0.0979144307851791,2.2497101871132847,-0.1430239577736705,0.0979144307851791,-0.9969085126012563,0.3497065871179103,-0.9367007121369242,-0.7292417287826538,-0.5990661978721619,0.3142350018024444
1774472078716829400,1.771829345703125,1.255519701299071,1.4069766294404864,0.0696741324678063,0.7161271572113037,0.0876942351460456,-0.0343664810061454,1.9244255090683693,0.118661889129132,-0.4605974038541316,1.9244255090683693,0.118661889129132,-0.4605974038541316,-1.0073632711201903,0.5960492458730936,-0.1998772601783275,-0.6935688853263855,-0.4457313120365143,0.3042874038219452
1774472078726857700,1.781857666015625,1.6809066755622624,1.3121658637590703,0.0210870655618608,0.7212125658988953,0.1804077625274658,-0.0028987056575715,1.6023036789685488,0.5867991504361852,-0.5898872161120176,1.6023036789685488,0.5867991504361852,-0.5898872161120176,-0.7949690591961145,0.9719470898240804,0.8320899985834955,-0.5660409927368164,-0.2481567412614822,0.2149269133806228
1774472078736885500,1.791885498046875,1.9803245064228767,1.244405894349515,0.2363413430921733,0.7429588437080383,0.2869272828102112,-0.0631801560521125,1.218572657173872,0.8341989535614848,-0.6809945972308517,1.218572657173872,0.8341989535614848,-0.6809945972308517,-0.6527361787348985,0.943691301676631,1.3879155167482793,-0.4186672270298004,-0.0789594501256942,0.0863651111721992
1774472078746913800,1.801913818359375,2.076879923814535,0.9948832903839648,0.4110863539710641,0.7792602777481079,0.3758961856365204,-0.2270950824022293,0.9426005838304756,0.9393774570655076,-0.728959878976643,0.9426005838304756,0.9393774570655076,-0.728959878976643,-0.6326379780799151,0.7492945187360048,1.4720174030192197,-0.2834516167640686,0.0589334331452846,-0.0237890910357236
1774472078756942800,1.81194287109375,1.8362474593997,0.7259456457220017,0.4698302193626761,0.8051368594169617,0.4255217909812927,-0.4351968765258789,0.6085065763860941,1.105041774257645,-0.7216217911735177,0.6085065763860941,1.105041774257645,-0.7216217911735177,-0.7779062807142734,0.597021890297532,1.2949961177714169,-0.1854967623949051,0.1107938885688781,-0.1112831905484199
1774472078766970600,1.821970703125,1.4025754718720913,0.6925033948473632,0.2322140340290963,0.8192041516304016,0.4117597937583923,-0.5953345894813538,0.361434434312582,1.233569150775671,-1.108706799571216,0.361434434312582,1.233569150775671,-1.108706799571216,-0.7413917827874421,0.4941349317967891,0.9093738754026592,-0.1675252169370651,-0.0153350122272968,-0.2039137780666351
1774472078776998700,1.83199853515625,1.086828437501192,0.4789864625036716,0.0418602428689599,0.7813166379928589,0.3065840899944305,-0.6830175518989563,0.6734177322357893,1.4541715113356708,-1.561483300541341,0.6734177322357893,1.4541715113356708,-1.561483300541341,-0.6238081904143095,0.2743412572711706,0.2812638961412012,-0.2229421287775039,-0.2899351418018341,-0.3037399649620056
1774472078787026700,1.842026611328125,0.8047527865856885,0.2121761852592229,0.172057817621529,0.7101500630378723,0.0308022201061248,-0.7381561994552612,0.8484627489745616,1.525970380872488,-1.4163792485579847,0.8484627489745616,1.525970380872488,-1.4163792485579847,-0.4550704571262001,0.2129588600695133,0.0303612359941005,-0.2634822726249695,-0.5311306715011597,-0.3675330877304077
1774472078797054500,1.852054443359375,0.1284498543024063,0.1599178824946284,0.1873756521321833,0.6712074875831604,-0.2864721417427063,-0.7624708414077759,1.1009066472142934,1.411143685992062,-1.1076292334675788,1.1009066472142934,1.411143685992062,-1.1076292334675788,-0.6666442925781011,0.2425596330851316,0.1753033754140138,-0.2223930060863495,-0.6907212734222412,-0.3481409251689911
1774472078807083500,1.86208349609375,-0.3629121056497096,0.1729075663186609,0.0446053037934005,0.6736201643943787,-0.5167464017868042,-0.7611300945281982,1.3684271185547112,1.38214672408849,-0.5068038592338562,1.3684271185547112,1.38214672408849,-0.5068038592338562,-0.9638505848690868,0.2961269726216793,0.5181324779778719,-0.1275067180395126,-0.7769514918327332,-0.2515698969364166
1774472078817111800,1.87211181640625,-0.5707113909989595,0.2154423474483192,-0.0693564448207616,0.6850571036338806,-0.720826268196106,-0.7196587920188904,1.2852531607836484,1.2612107525475322,-0.1828299715265631,1.2852531607836484,1.2612107525475322,-0.1828299715265631,-1.114019811287522,0.2418804186493158,0.784287213923037,-0.0278507154434919,-0.8245341181755066,-0.112295001745224
1774472078827139600,1.8821396484375,-0.9384341118007896,0.1609752825930714,-0.3441723338663577,0.6333307027816772,-0.8377888202667236,-0.6360516548156738,1.5230530321210622,1.2769903593510388,0.4970832602083683,1.5230530321210622,1.2769903593510388,0.4970832602083683,-1.2653829236656426,0.2287070488214492,0.8828693148367106,0.0414476655423641,-0.911025047302246,0.030050691217184
1774472078837167600,1.892167724609375,-1.407568457853794,0.0635680706776678,-0.5102326646387577,0.5411064624786377,-0.8196292519569397,-0.5419275164604187,0.9945844535678624,1.319956956026703,0.6199369019389153,0.9945844535678624,1.319956956026703,0.6199369019389153,-1.2471715596705677,0.1874351272344589,0.6141873985014855,0.0766057670116424,-1.0835739374160769,0.1407816559076309
1774472078847196700,1.90219677734375,-1.701700457265973,0.0861475667543709,-0.649307373329997,0.4577733874320984,-0.7019040584564209,-0.4933555722236633,0.5119125805497169,1.3424858909599482,0.3791708742722868,0.5119125805497169,1.3424858909599482,0.3791708742722868,-0.9468307687461376,0.080637132769823,0.4333598528385162,0.1219258457422256,-1.1836038827896118,0.1867608577013015
1774472078857224700,1.912224609375,-2.019156049120426,0.0731616823226213,-0.9507913429401814,0.3818983435630798,-0.4813399910926819,-0.4925598204135895,0.1972147629708051,0.9419765336479992,0.1070607370540499,0.1972147629708051,0.9419765336479992,0.1070607370540499,-0.2830646619528532,-0.102890465632081,0.7733817890271544,0.1845144778490066,-1.1894159317016602,0.1445459872484207
1774472078867252500,1.92225244140625,-2.162837959346175,-0.0007300678402185,-0.9078516342714428,0.3312694728374481,-0.2650349140167236,-0.5612190365791321,-0.0290203427791595,0.6276579246450216,-0.0782268567577004,-0.0290203427791595,0.6276579246450216,-0.0782268567577004,0.251540811920166,-0.3253770325034856,1.2109634973444043,0.2877870798110962,-1.1223222017288208,0.0190421268343925
1774472078877280800,1.93228076171875,-2.291452648821473,-0.1232315351322293,-0.933832755485177,0.2771018147468567,-0.1339325457811355,-0.6493396162986755,0.1555459510207176,0.7299749012380838,0.1553814081087708,0.1555459510207176,0.7299749012380838,0.1553814081087708,0.6041805298805236,-0.4798375263750553,1.905912093386799,0.4303134977817535,-1.0680053234100342,-0.1412532031536102
1774472078887309600,1.9423095703125,-2.313717087599635,-0.2570954503726214,-0.6130854286089539,0.2185279726982116,-0.1658693253993988,-0.7676365971565247,-0.3665636138945817,0.5930685130292549,0.5655366187095642,-0.3665636138945817,0.5930685130292549,0.5655366187095642,0.5552741678923369,-0.6131552789747715,2.214089277025312,0.5372098684310913,-1.1308187246322632,-0.2836170196533203
1774472078897337600,1.952337646484375,-2.274499760454893,-0.0512617660079151,-0.8613168237201869,0.1872491538524627,-0.214573472738266,-0.8560684323310852,-0.6480670178800821,0.1831850137756206,0.7349614574790001,-0.6480670178800821,0.1831850137756206,0.7349614574790001,0.3433630633100867,-0.8911515516221523,1.7375911242060362,0.5559511184692383,-1.273214340209961,-0.3836464583873749
1774472078907365600,1.96236572265625,-2.17142633947134,0.0760580613512545,-0.6363382939025759,0.2298751175403595,-0.1979096680879593,-0.829036295413971,-0.3081184391885995,-0.1706649019584059,0.5362848052620888,-0.3081184391885995,-0.1706649019584059,0.5362848052620888,0.2812368620038032,-1.3101421028465032,1.064874818237871,0.5233936905860901,-1.37176513671875,-0.4578074812889099
1774472078917393700,1.9723935546875,-1.300403383642435,-0.4101764725845306,-0.2952190639965236,0.3249329328536987,-0.2001951932907104,-0.7434558868408203,0.4173883767247199,-0.1082692177946679,0.187317346073687,0.4173883767247199,-0.1082692177946679,0.187317346073687,0.4762327798813581,-1.527297830083966,0.861310247848928,0.4953708350658417,-1.4073575735092163,-0.5396679043769836
1774472078927422700,1.982422607421875,-0.9520113862544296,-0.2949813097178936,-0.106829266385734,0.4722078144550323,0.0407578386366367,-0.5542196035385132,1.3832196140170097,0.0086828352092765,-0.3689665833830833,1.3832196140170097,0.0086828352092765,-0.3689665833830833,0.5911299096494913,-1.500671688964963,0.9669555651471018,0.4793108999729156,-1.3642442226409912,-0.6110427379608154
1774472078937450800,1.99245068359375,-0.3848696704357862,-0.3370432857040316,0.1646548478886485,0.5959981679916382,0.3716154098510742,-0.3002448379993438,2.191464918893576,-0.1048924713705666,-0.6359957640752196,2.191464918893576,-0.1048924713705666,-0.6359957640752196,0.377367039720714,-1.5756395439267157,1.039054878935218,0.4410498142242431,-1.3172121047973633,-0.67210453748703
1774472078947478500,2.002478515625,0.3325222280830144,-0.2632665402229875,-0.0117629185080528,0.6137148141860962,0.5966413617134094,-0.0004396624863147,2.710807941704988,-0.2187450970544479,-0.6004489421367645,2.710807941704988,-0.2187450970544479,-0.6004489421367645,0.3846118962824344,-1.6367209123551845,1.2717913294032217,0.3518645465373993,-1.350395917892456,-0.7160930037498474
1774472078957506600,2.012506591796875,0.5043073662430048,0.2190415409840643,0.4568754607215523,0.6457904577255249,0.7537814378738403,0.2720003724098205,2.681606981661916,0.1665625264071859,-0.2613382755741477,2.681606981661916,0.1665625264071859,-0.2613382755741477,0.4938526077240705,-1.7917659281164406,1.2427554967939851,0.2234873622655868,-1.395215392112732,-0.7333301901817322
1774472078967535600,2.02253564453125,0.7988859403789043,0.2444054801475256,0.6156251762196421,0.6694547533988953,0.8179957270622253,0.510371744632721,2.2793477850079533,0.2280236331345513,-0.4449450766921043,2.2793477850079533,0.2280236331345513,-0.4449450766921043,0.3250587603345513,-1.7147738738507032,1.0658157523497938,0.1022655889391899,-1.3732980489730835,-0.6910666227340698
1774472078977563600,2.032563720703125,1.2681547264665365,0.2688023278445005,0.7004036465778947,0.6451118588447571,0.7049932479858398,0.7104310393333435,1.831197190272808,0.0242255553838331,-1.122135020942986,1.831197190272808,0.0242255553838331,-1.122135020942986,0.0524754526466131,-1.4349422024697065,0.8407648879483341,0.035721119493246,-1.4840319156646729,-0.5507540702819824
1774472078987591700,2.042591796875,1.6268611971199511,0.3211701553981751,0.9733996267199516,0.6063184142112732,0.5043482184410095,0.8377622961997986,1.4298895952552555,0.4801282894825562,-0.6559469574749469,1.4298895952552555,0.4801282894825562,-0.6559469574749469,-0.3144102328091859,-1.0482909093141557,0.7509045842811465,0.0652835443615913,-1.7559318542480469,-0.3244655132293701
1774472078997619700,2.05261962890625,1.9795774874478576,0.2194296635188162,1.1465355949670075,0.5908374786376953,0.2676278352737427,0.8764801621437073,1.2448866636037823,0.5424264132896438,0.0851613321959972,1.2448866636037823,0.5424264132896438,0.0851613321959972,-0.5993292904570698,-0.7505307825326919,0.7680830980971455,0.1849249452352523,-1.9727942943573,-0.0900827199220657
1774472079007647700,2.062647705078125,2.256692301085592,0.1112287434536963,1.2612867403931916,0.611876904964447,0.0696875378489494,0.8063195943832397,1.5439643027245995,0.0666822389091365,-0.349884281772375,1.5439643027245995,0.0666822389091365,-0.349884281772375,-0.5655930250719189,-0.7431026783585548,0.8558224640876054,0.3190651535987854,-1.9774169921875,0.1049632057547569
1774472079017676500,2.072676513671875,2.484196403858065,0.1658172427315264,1.1960323240637778,0.6411503553390503,-0.0339315310120582,0.668823778629303,1.5637322485119105,-0.0306709207144915,-0.2364820667371153,1.5637322485119105,-0.0306709207144915,-0.2364820667371153,-0.6057105159267783,-0.9035510144680738,1.0854971888974307,0.4104572534561157,-1.943363070487976,0.2400019764900207
1774472079027704800,2.082704833984375,2.7186130624979734,0.1359016316130757,1.030779802542925,0.6816778182983398,-0.1052547246217727,0.4832228422164917,1.3782289661228655,0.2369273628192022,0.088962478044629,1.3782289661228655,0.2369273628192022,0.088962478044629,-0.3716752578198909,-0.7140390809595585,0.988895009754598,0.3939680159091949,-2.086032629013061,0.3122631311416626
1774472079037732600,2.092732666015625,2.8382968420207497,0.092533541464433,0.784182876765728,0.7176080942153931,-0.1796032637357711,0.2595556676387787,1.6579513319104908,0.3991899452764541,-0.0547194321811199,1.6579513319104908,0.3991899452764541,-0.0547194321811199,0.0541693970829248,-0.3621948972910642,0.1688590215802192,0.2666265666484833,-2.321524381637573,0.3216557502746582
1774472079047760600,2.1027607421875,2.554913031116128,0.2605115424264222,0.3915969328641891,0.7312919497489929,-0.2006242424249649,0.0707510784268379,2.029687964528799,0.3759272892411798,-0.6471528256446123,2.029687964528799,0.3759272892411798,-0.6471528256446123,0.7549801631569862,-0.2973077068388461,-0.485093547207117,0.1066853702068328,-2.460771083831787,0.2641951143741607
1774472079057789400,2.11278955078125,2.4940713166624304,0.1638008614078164,0.4010689639560878,0.6749016642570496,-0.3090724349021911,-0.0534254647791385,2.007218943089246,0.3857006413672119,-0.4042600150823593,2.007218943089246,0.3857006413672119,-0.4042600150823593,1.333962538895011,0.0332674788296222,-0.4041618154048919,-0.0490710325539112,-2.475296258926392,0.1857019811868667
1774472079067817700,2.122817626953125,2.260758819872141,-0.0836735778562724,0.5296162872835993,0.5731234550476074,-0.5203070640563965,-0.0946751609444618,1.4896055205494163,0.509437714868784,0.2888841618865728,1.4896055205494163,0.509437714868784,0.2888841618865728,1.2604244244754317,0.7621247742146253,-0.097036186645925,-0.1777576357126236,-2.4535253047943115,0.1038100346922874
1774472079077845500,2.132845458984375,1.9093805001497268,-0.200728250984475,0.5106764628835022,0.4824878871440887,-0.6409860849380493,-0.081058420240879,0.8390478548973799,0.0741141105095157,0.0599479804843664,0.8390478548973799,0.0741141105095157,0.0599479804843664,1.0378127699196338,1.4634242005884646,0.1263812313348054,-0.3006998598575592,-2.627546787261963,0.0143284918740391
1774472079087873800,2.142873779296875,1.808052461528778,-0.3096044399626553,0.7220422085426748,0.4944643676280975,-0.7215970754623413,-0.0064893774688243,0.6384025329560041,-0.1535839484990574,0.0083843819856643,0.6384025329560041,-0.1535839484990574,0.0083843819856643,0.8034317671149969,1.6585393609315155,-0.2273345914244651,-0.409468412399292,-2.8799664974212646,-0.0944155603647232
1774472079097902600,2.152902587890625,1.3949223267704247,-0.4145117253098637,0.311524009848386,0.4897766709327698,-0.6872146129608154,0.0902688577771186,0.6579658960819244,-0.1051612783745862,0.133875678743422,0.6579658960819244,-0.1051612783745862,0.133875678743422,0.8994766046360134,1.3044143728494644,-0.3359571709677577,-0.4583718776702881,-2.9451584815979004,-0.2430902123451233
1774472079107930600,2.1629306640625,1.3132266248583793,-0.1551242915425449,-0.2366764202654361,0.4765411019325256,-0.7623180747032166,0.190102681517601,0.5623381149291992,-0.3361198141835629,0.2345075517937541,0.5623381149291992,-0.3361198141835629,0.2345075517937541,0.7651236637696623,1.0613812770336866,-0.0146691613435745,-0.3995479643344879,-2.774033308029175,-0.3314946591854095
1774472079117958700,2.172958740234375,0.3851829741686582,-0.0800689044278115,0.1666220563083887,0.4786162376403808,-0.8204487562179565,0.2965569496154785,-0.3484977958500385,-0.537557126752846,-0.0710182405531406,-0.3484977958500385,-0.537557126752846,-0.0710182405531406,0.1850292351365089,1.216209435173869,0.4894537882432341,-0.2488476932048797,-2.612245321273804,-0.3403696119785309
1774472079127986700,2.182986572265625,0.2325146244108676,-0.3070644731562584,0.081618252761662,0.4785469472408294,-0.8866499662399292,0.3743387162685394,-1.2975298740327357,-0.0842191742413677,0.5572346543103456,-1.2975298740327357,-0.0842191742413677,0.5572346543103456,0.0154933372080326,1.2780670486718415,0.3219797912806272,-0.1415790319442749,-2.652742624282837,-0.3667215704917907
1774472079138015700,2.193015625,0.0196890353322029,-0.1703458991371095,0.0728226596266031,0.4665033221244812,-0.9669714570045472,0.4113715887069702,-1.6404653595805168,0.0570673104815185,0.6936804758027195,-1.6404653595805168,0.0570673104815185,0.6936804758027195,0.6379658951044083,0.8367220422983169,-0.4031593603640794,-0.1051276847720146,-2.797106504440308,-0.4827606976032257
1774472079148043500,2.20304345703125,-0.2869885573983192,-0.1893008480411022,-0.0067899524010717,0.4246909320354461,-1.0144582986831665,0.4091483056545257,-1.6142156505584715,-0.0704988334886496,1.1998559740051626,-1.6142156505584715,-0.0704988334886496,1.1998559740051626,1.4891785273090004,0.5353320345818996,-1.012282607343793,-0.0857332125306129,-2.885059833526612,-0.7013130187988281
1774472079158071800,2.21307177734375,-0.6774936033725738,-0.2002301652692258,-0.193162272709608,0.379241406917572,-0.9381023645401,0.3623490929603576,-1.1409814679712056,-0.128754582003178,1.335243518616259,-1.1409814679712056,-0.128754582003178,1.335243518616259,1.9168685178175568,0.4878495679169893,-1.4074065452903508,-0.1246079504489898,-2.942671060562134,-0.9482619166374208
1774472079168099600,2.223099609375,-0.9753449155688284,-0.1783302489545196,-0.5127896556451916,0.3050293326377868,-0.947459876537323,0.3094343543052673,-0.6494616871088743,-0.2464194503184407,1.3572478451535106,-0.6494616871088743,-0.2464194503184407,1.3572478451535106,1.7205042341962455,0.2379781505137682,-2.1882316360607743,-0.2758403122425079,-3.109410285949707,-1.1919076442718506
1774472079178128600,2.233128662109375,-1.4808002828031777,-0.3350367681872099,-0.6029799219191074,0.1948940157890319,-1.030639410018921,0.240883007645607,-0.4379202926218509,-0.172046017585881,0.8730717050522565,-0.4379202926218509,-0.172046017585881,0.8730717050522565,1.721561634294689,-0.0228448690146207,-2.3840917695522306,-0.4464053511619568,-3.2240660190582275,-1.4042775630950928
1774472079188156700,2.24315673828125,-2.216193701958656,-0.4648942242652177,-0.6230778303131461,0.0648014098405838,-1.0249767303466797,0.2018835842609405,-1.119793133991957,0.3028079116903245,0.2357581363767385,-1.119793133991957,0.3028079116903245,0.2357581363767385,1.4415087213784454,0.0579500846654176,-1.875059128353,-0.5292597413063049,-3.215590000152588,-1.5098516941070557
1774472079198184700,2.253184814453125,-2.619596223428845,-0.5325252335328609,-0.8924889377057552,-0.061981301754713,-0.9092516899108888,0.1927862167358398,-1.888418960663676,0.4314243547312915,-0.5695932006239891,-1.888418960663676,0.4314243547312915,-0.5695932006239891,0.7766095189020037,0.0641670594841241,-1.0587795701026916,-0.517586886882782,-3.0670158863067627,-1.512623906135559
1774472079208211500,2.26321142578125,-3.044679830831289,-0.4777928688049316,-1.2316674088075756,-0.1477430164813995,-0.6205207705497742,0.209321916103363,-2.434891982463002,0.2765937306393869,-0.8067769858896732,-2.434891982463002,0.2765937306393869,-0.8067769858896732,0.3758914142102003,-0.0684369918882846,0.0168003281533718,-0.4663953781127929,-2.929610252380371,-1.4508036375045776
1774472079218239500,2.273239501953125,-3.4610692596465347,-0.1600568525739014,-1.7603893775999544,-0.1916553378105163,-0.2748147845268249,0.2588031888008117,-2.6516753692567345,-0.1234176596883218,-0.6545049419730902,-2.6516753692567345,-0.1234176596883218,-0.6545049419730902,-0.1254991878032684,0.0213993463814258,1.0642810901284216,-0.36163529753685,-2.8516275882720947,-1.305896282196045
1774472079228268300,2.283268310546875,-3.716156950393319,0.1184552606411278,-1.9303209968477488,-0.188199296593666,-0.0251855142414569,0.3500694930553436,-2.316046991851925,-0.6444287344429641,-0.0579603137984871,-2.316046991851925,-0.6444287344429641,-0.0579603137984871,-0.6140197868496179,0.1955927147269248,1.9292483991801737,-0.1966697722673416,-2.81282114982605,-1.1041120290756226
1774472079238296600,2.293296630859375,-4.156358631950616,0.3304872151240706,-1.7860875902190805,-0.1842306554317474,-0.0024059009738266,0.5542207956314087,-1.51636142552793,-1.879200027550012,-0.0715463560804724,-1.51636142552793,-1.879200027550012,-0.0715463560804724,-0.9657681089282036,0.3685217622250318,2.2675521332740782,-0.0276433005928993,-2.7790000438690186,-0.8713461756706238
1774472079248324400,2.303324462890625,-4.142618860411644,0.2749593891695142,-1.3638164098888634,-0.1221240982413292,-0.0406620875000953,0.8289439082145691,-1.3768559242039915,-2.6574101135164496,-0.1790960456952452,-1.3768559242039915,-2.6574101135164496,-0.1790960456952452,-0.936777576765418,0.3177811705470085,2.13026723060906,0.1758594959974289,-2.511500358581543,-0.65756756067276
1774472079258352600,2.3133525390625,-3.8016947146862745,0.2990408142417669,-1.2023685413479803,0.0055132247507572,0.0263118855655193,1.112673044204712,-0.8573726161390542,-0.8193729942210018,-1.6106860151275992,-0.8573726161390542,-0.8193729942210018,-1.6106860151275992,-0.8869970622912049,0.303837400868535,1.6960954768657683,0.3831288516521454,-2.0919830799102783,-0.4772552251815796
1774472079268381700,2.323381591796875,-3.2658523924946783,0.3767949389211833,-1.4179858069717883,0.092358149588108,0.0175095088779926,1.3337287902832031,-1.99249834381938,-1.3850741558425128,-0.2755044558316469,-1.99249834381938,-1.3850741558425128,-0.2755044558316469,-0.575889670419693,0.2826169181853533,0.8588432732135057,0.5256995558738708,-1.6994671821594238,-0.36525759100914
1774472079278409500,2.333409423828125,-3.439460654428601,0.2107338774964213,-1.117994560137391,0.0971513018012046,0.0472522228956222,1.431757569313049,-3.066206602984667,-1.7710009341157973,0.2102443404138088,-3.066206602984667,-1.7710009341157973,0.2102443404138088,-0.0749319068655371,0.2488105101734399,0.127866501456499,0.5991705060005188,-1.2924481630325315,-0.3284340500831604
1774472079288437200,2.343437255859375,-3.682076401615143,0.0469181107804179,-0.9493044653832912,-0.0133462361991405,0.1914135366678238,1.3460510969161987,-1.690472376286983,-1.1735771850191057,-0.5887865613937378,-1.690472376286983,-1.1735771850191057,-0.5887865613937378,0.2250190079584717,0.2132832697182893,-0.6367027433007956,0.5853796005249023,-0.8522486686706543,-0.3552843034267425
1774472079298465500,2.353465576171875,-3.1345623463302847,-0.2977738630458712,-0.8279287872508168,-0.1512335240840912,0.3536801934242248,0.9940563440322876,0.5281470915138721,-0.3851647809248417,0.996665059234202,0.5281470915138721,-0.3851647809248417,0.996665059234202,0.3953510247007012,0.1090256073862314,-1.3104495613604783,0.4664367437362671,-0.4578678011894226,-0.4154950678348541
1774472079308494600,2.36349462890625,-2.5777169835984703,-0.5580427558228374,-0.7050500110790133,-0.2797633111476898,0.5476993918418884,0.4399005174636841,-0.2640355518341064,-0.3139309979248791,2.6511890470445154,-0.2640355518341064,-0.3139309979248791,2.6511890470445154,0.44018794529289,0.0697574268370866,-1.742117223328352,0.2810716927051544,-0.2164972871541977,-0.4432148337364197
1774472079318522400,2.3735224609375,-1.9402263047903776,-0.639074148607254,-0.6502718344479799,-0.3759241998195648,0.5979743003845215,-0.1435490548610687,-1.3345581667006017,-0.6804289261721074,2.424654958347976,-1.3345581667006017,-0.6804289261721074,2.424654958347976,0.2794242596238851,0.1864531304597854,-1.858605421680212,0.0986901596188545,-0.1382896602153778,-0.3894936144351959
1774472079328550700,2.383550537109375,-1.5498521917194128,-0.6718503367885947,-0.5309881601586938,-0.4193039834499359,0.5488264560699463,-0.5724268555641174,-2.699393398243189,-1.199274228594452,2.354540388636291,-2.699393398243189,-1.199274228594452,2.354540388636291,0.022710136719048,0.2577887663990259,-1.9533014749407769,-0.0516367591917514,-0.2242034971714019,-0.2456182092428207
1774472079338578400,2.393578369140625,-1.3367781808376311,-0.4311562053143978,-0.4090700457125902,-0.3124374747276306,0.5631742477416992,-0.8098090291023254,-2.2437539090573786,-0.5533973777024075,1.993379802829027,-2.2437539090573786,-0.5533973777024075,1.993379802829027,-0.1721934266999363,0.3175122904777526,-1.8353250838577744,-0.1113670766353607,-0.4092767536640167,-0.0542871579527854
1774472079348607500,2.403607421875,-1.1067746624648571,0.0230273859746754,-0.5727338367372751,-0.0620560422539711,0.6366919875144958,-0.8057514429092407,-1.8025585402876136,0.334653504490666,1.0731512098044156,-1.8025585402876136,0.334653504490666,1.0731512098044156,-0.0796709180861711,0.5288567010879516,-1.2740408618956804,-0.0056726052425801,-0.6223424077033997,0.1194849014282226
1774472079358635500,2.413635498046875,-0.5665303059220314,0.256219178994745,-0.8013102449163794,0.2052464932203292,0.6002306938171387,-0.6333136558532715,-3.0655431706398724,0.699112803049758,-0.1726686429962515,-3.0655431706398724,0.699112803049758,-0.1726686429962515,0.0538819584436714,0.9794798234164714,-0.5487029728084802,0.2348165959119796,-0.8105116486549377,0.2869881093502044
1774472079368663600,2.42366357421875,-0.392277900865674,0.4556279448784887,-0.5130339857950806,0.4972414672374725,0.7033500671386719,-0.4131244719028473,-3.683897771823406,1.073468824386224,-0.2947887097552418,-3.683897771823406,1.073468824386224,-0.2947887097552418,-0.0645434915810823,1.331755968761444,0.0109784901320934,0.5135236382484436,-0.9533109068870544,0.4372434020042419
1774472079378691300,2.43369140625,-0.7794388971090316,0.7656226993329822,-0.5409773469924927,0.6630703806877136,0.901190459728241,-0.1234452575445175,-4.4831484538614745,1.2085694418147206,-0.1450567057102918,-4.4831484538614745,1.2085694418147206,-0.1450567057102918,-0.135080378358066,1.4290595741719008,0.1187105505764484,0.7291708588600159,-1.052026629447937,0.5478766560554504
1774472079388720600,2.443720703125,-1.7367524814248083,0.983103128480166,-1.1099345878005027,0.663040041923523,0.7523689866065979,0.3244962096214294,-4.282188074621558,1.249517392144352,-0.4237099809616804,-4.282188074621558,1.249517392144352,-0.4237099809616804,-0.171347331264615,1.3179805413872003,0.0099491470843553,0.8458042144775391,-1.0952502489089966,0.6069389581680298
1774472079398748400,2.45374853515625,-1.9262614923238752,0.8250465098127723,-0.8256126192629337,0.6005638837814331,0.0521195717155933,0.8100322484970093,-2.422156419530511,1.1683147344462572,-0.7572159593850374,-2.422156419530511,1.1683147344462572,-0.7572159593850374,-0.0091072894327342,1.0749106206923722,-0.1492997501075267,0.8716640472412109,-1.0678147077560425,0.622949481010437
1774472079408776400,2.4637763671875,-1.8563795623242847,0.0340412396810948,-0.0726177847042679,0.5987826585769653,-0.4691460132598877,1.063554763793945,-0.5001490775197744,1.1422124710708856,-0.7205106150612235,-0.5001490775197744,1.1422124710708856,-0.7205106150612235,0.0910451295375824,0.8104360929191112,-0.3400485319346189,0.8290539979934692,-0.9671691060066224,0.6136177778244019
1774472079418804500,2.473804443359375,-1.7980998073130845,-0.3168522191338241,-0.0088534608021378,0.6207151412963867,-0.5855488181114197,1.0408127307891846,0.1842407151073217,0.7482790580831468,-0.4391347829781472,0.1842407151073217,0.7482790580831468,-0.4391347829781472,0.0984102514781057,0.5925146420061588,-0.428472080796957,0.7457152605056763,-0.7630717754364014,0.612738847732544
1774472079428833500,2.48383349609375,-1.8853969824939965,-0.3544992282219231,-0.3434495725497603,0.5788979530334473,-0.3765144050121307,0.8062854409217834,0.8555056532233953,0.3662394599741324,0.2306827328085899,0.8555056532233953,0.3662394599741324,0.2306827328085899,0.157772833289951,0.4925923785299062,-0.4225350919634103,0.6256918907165527,-0.4903616905212402,0.5810828804969788
1774472079438861300,2.493861328125,-2.7086405345380307,-0.5388171002186835,-0.6635071635961532,0.4381149709224701,-0.0680532306432724,0.5569297075271606,0.2790156788229942,0.3261519989313557,0.8860635808333754,0.2790156788229942,0.3261519989313557,0.8860635808333754,0.2679144390940666,0.5587275232166051,-0.5310375522583722,0.4344722926616668,-0.2773637175559997,0.5358244776725769
1774472079448889600,2.5038896484375,-2.520023504042625,-1.0405452636234462,-0.8817138611912727,0.220295637845993,0.1824643462896347,0.2756397724151611,-5.421581981140375,0.484502997435443,0.996731694729626,-5.421581981140375,0.484502997435443,0.996731694729626,0.2923277264691889,0.7594026557743548,-0.8246995960712432,0.1770692616701126,-0.1375807821750641,0.4613904953002929
1774472079458917400,2.51391748046875,-2.2507611574709414,-1.329152946656197,-0.9865738733306526,0.0704712644219398,0.4647887349128723,-0.0477414764463901,-14.452920977616309,1.121644607077539,1.6052157670229672,-14.452920977616309,1.121644607077539,1.6052157670229672,0.2085427971929311,0.9622259062767028,-1.2936246832877396,-0.110897272825241,-0.0908465757966041,0.417751669883728
1774472079468946400,2.523946533203125,-1.7078537191987038,-1.4885186020955443,-1.0332757110118866,-0.0500831231474876,0.6941749453544617,-0.3112098276615143,-9.671258948257565,1.9395887375392016,3.13132643314898,-9.671258948257565,1.9395887375392016,3.13132643314898,0.0303195888094604,0.8843740203112364,-1.621680579611659,-0.3470394909381866,-0.0632277280092239,0.4111446142196655
1774472079478974500,2.533974365234375,-1.40960902377069,-1.552303238133341,-1.0627797456547616,-0.1840744763612747,0.7370651364326477,-0.4312571585178375,-3.21027137504816,1.4934247865766286,3.287267228706181,-3.21027137504816,1.4934247865766286,3.287267228706181,0.1504315306164324,0.704255938091874,-1.623082847625017,-0.4754068851470947,-0.0284217074513435,0.3890896439552307
1774472079489002500,2.54400244140625,-1.092123036777973,-1.5701171272434291,-0.8564902803465724,-0.2921563982963562,0.5241410732269287,-0.4562277793884277,1.2989087611705064,0.1855294397436082,0.5027080412875861,1.2989087611705064,0.1855294397436082,0.5027080412875861,0.3838876736611127,0.6032224985033273,-1.38624042314291,-0.4931811094284057,0.0124540859833359,0.3327997326850891
1774472079499030500,2.554030517578125,-0.9174316557824612,-1.6986504220455885,-0.6020536008544266,-0.3504652380943298,0.1935895085334777,-0.4595149159431457,2.2013474304825067,-1.132073573568091,-1.812752017521858,2.2013474304825067,-1.132073573568091,-1.812752017521858,0.4611908397026359,0.6113111124128103,-1.0899649819612502,-0.4183920621871948,0.0582062415778636,0.2614498734474182
1774472079509059300,2.564059326171875,-0.8125479705065488,-1.6137809124030171,-0.4084947300426662,-0.2951403558254242,0.0708705633878707,-0.4021203815937042,-0.5103548297137022,-1.0504933147292583,-1.161383620008826,-0.5103548297137022,-1.0504933147292583,-1.161383620008826,0.4049918364882469,0.6516641655892134,-0.741809715938568,-0.2793516218662262,0.0847507715225219,0.1891674399375915
1774472079519087600,2.574087646484375,-0.808543411040306,-1.3567930871233342,-0.6650597998656332,-0.1844625622034073,0.0291231181472539,-0.3155418336391449,-0.8895447009474039,-0.0267723811892792,2.204384898482263,-0.8895447009474039,-0.0267723811892792,2.204384898482263,0.3602063538223505,0.6700140612721442,-0.4247130205243826,-0.1149511486291885,0.1019445285201072,0.1127997487783432
1774472079529115400,2.584115478515625,-0.9563514612853526,-1.2622523705549538,-0.7913515993513166,-0.0239375010132789,-0.0334750339388847,-0.2678467333316803,-1.5009522594720124,-0.0691287004794925,2.397925649115443,-1.5009522594720124,-0.0691287004794925,2.397925649115443,0.198923320454359,0.6126818162441253,-0.3513929327696561,0.0145767489448189,0.1099963262677192,0.0470889173448085
1774472079539143700,2.594143798828125,-1.1346411590337753,-1.2654556966409087,-0.5894570080012083,0.1277039498090744,-0.1738864779472351,-0.2551849782466888,-2.713636443129181,-0.3160185447886586,0.3545105533335357,-2.713636443129181,-0.3160185447886586,0.3545105533335357,0.0699294224031269,0.46106677493155,-0.489847463735938,0.0719868168234825,0.1232990175485611,-0.025706036016345
1774472079549172500,2.60417236328125,-0.6480909832775592,-1.4320007421903311,-0.2857246749423444,0.2087720483541488,-0.4997255504131317,-0.3002627491950989,-3.1906869691342115,-0.5021114271013066,-1.7560493025690316,-3.1906869691342115,-0.5021114271013066,-1.7560493025690316,0.0480548597253859,0.2921229976773262,-0.6793997292548417,0.0782095566391944,0.1337234228849411,-0.0935652405023574
1774472079559200500,2.614200439453125,-0.238933259281516,-1.6381244955427945,0.1559510246902704,0.1123773381114006,-0.9350817799568176,-0.3743939697742462,-3.2217461242645977,-0.3024673180917278,-2.35981496803835,-3.2217461242645977,-0.3024673180917278,-2.35981496803835,-0.0204144269973039,0.1117927340120077,-0.8284697622597217,0.0515452697873115,0.1204717755317688,-0.1350303590297699
1774472079569228300,2.624228271484375,-0.1416986274540424,-1.3760105594210326,0.4363011669874191,-0.0234752725809812,-1.1476874351501465,-0.5088496208190918,-3.350511035865545,0.4271890552490949,-1.3931244835682213,-3.350511035865545,0.4271890552490949,-1.3931244835682213,-0.1525643048614263,-0.0263613527029752,-0.941943581226468,0.0057673957198858,0.1042214334011077,-0.153327077627182
1774472079579256600,2.634256591796875,-0.0044265842705965,-1.4433718849018216,0.6071686057806015,-0.0702180117368698,-1.169424057006836,-0.7333524823188782,-3.5515766290456057,1.0431164292857051,-0.6827049082800746,-3.5515766290456057,1.0431164292857051,-0.6827049082800746,-0.228797065192461,-0.0865057325422763,-0.8973679419189691,-0.0287583768367767,0.1088051497936248,-0.1484561413526535
1774472079589285400,2.644285400390625,-0.1336860013902187,-1.3859613139405846,0.3447264606177807,-0.0407608449459075,-1.0422461032867432,-0.9657387733459472,-2.9745939026921984,1.119113700360432,-0.2045209943309426,-2.9745939026921984,1.119113700360432,-0.2045209943309426,-0.3087023765563965,-0.1015863972961902,-0.7725017913222313,-0.059979148209095,0.1360445022583007,-0.1332963705062866
1774472079599313400,2.6543134765625,-0.6130570792973041,-0.840852858492732,-0.2225552481934428,0.0333069898188114,-0.5770941376686096,-1.1046266555786133,-1.2107950089097022,0.3462012824106961,-0.1860094783455133,-1.2107950089097022,0.3462012824106961,-0.1860094783455133,-0.3955940396763384,-0.1157213056325912,-0.6055079790920018,-0.086822360754013,0.1670519560575485,-0.1186873316764831
1774472079609341400,2.664341552734375,-1.0278127694308756,0.0437941335409879,-1.0300003426030278,0.1501862853765487,-0.2903644144535064,-1.1215510368347168,-0.9775918177127838,-0.3866786195538937,-0.3520706859007477,-0.9775918177127838,-0.3866786195538937,-0.3520706859007477,-0.451922514489293,-0.1423456931859254,-0.4262257631748914,-0.1127085536718368,0.1823717951774597,-0.1015395075082779
1774472079619369500,2.674369384765625,-1.5490169099390505,0.0751902655407786,-1.4530232180833815,0.4640153050422668,-0.3041515946388244,-1.0285917520523071,-1.014720063623786,-0.3013940263044088,-0.2382689501538872,-1.014720063623786,-0.3013940263044088,-0.2382689501538872,-0.4259107058763504,-0.1376724406778812,-0.2843634695917367,-0.1158303767442703,0.1774481832981109,-0.0970500707626342
1774472079629398500,2.6843984375,-1.9674644403278827,-0.5457168696697801,-1.656985117226839,0.8340292572975159,-0.376700758934021,-0.7520574331283569,-1.1424468643486498,0.5164109148822724,0.0992082699880003,-1.1424468643486498,0.5164109148822724,0.0992082699880003,-0.3389402784317731,-0.0907382555454969,-0.0922913302063941,-0.0936851277947425,0.1814788728952407,-0.1119893416762352
1774472079639426600,2.694426513671875,-1.0892542033433914,-1.023166404929757,-1.154753972736001,1.0573382377624512,-0.7929000854492188,-0.2924131155014038,-0.4372989458531141,0.8409042964190244,-0.5690747297078371,-0.4372989458531141,0.8409042964190244,-0.5690747297078371,-0.2146533890277147,-0.1156207678675651,0.1872831515431404,-0.0400800928473472,0.2062104046344757,-0.1373222321271896
1774472079649454600,2.70445458984375,-0.8714537484616041,-0.4673624410096555,-0.2127963629841804,1.0439889430999756,-1.269107222557068,0.3202665746212005,0.1290045655757188,0.8316970537431537,-0.5092129662021995,0.1290045655757188,0.8316970537431537,-0.5092129662021995,-0.1011959366738796,-0.0917056392729282,0.4218956250160932,0.0268784333020448,0.2417830377817154,-0.1709052175283432
1774472079659482400,2.714482421875,-1.106574755978584,-0.4863538494665175,0.1854752253383398,0.8301326036453247,-1.3041150569915771,0.96949565410614,0.615362433630228,-0.4292763829171657,-0.8254714572265743,0.615362433630228,-0.4292763829171657,-0.8254714572265743,-0.017109540233016,-0.0448164623260498,0.4839847091823816,0.0797972381114959,0.2717813551425934,-0.2055561691522598
1774472079669511700,2.72451171875,-0.1549251887738704,-0.7656886041760445,0.2111725611746311,0.5529181957244873,-1.0690096616744995,1.4669121503829956,-0.7900801181107759,1.120160944391042,-1.620620841425657,-0.7900801181107759,1.120160944391042,-1.620620841425657,-0.0569279020108282,-0.0513110850423574,0.3680693422824144,0.0951639413833618,0.2848524153232574,-0.2284034341573715
1774472079679539500,2.73453955078125,0.301010068488121,-0.7240656771942973,0.2221525126114487,0.3178074061870575,-0.8877959251403809,1.6880253553390503,-0.2896604069560766,1.3454444485045969,-1.94240481787324,-0.2896604069560766,1.3454444485045969,-1.94240481787324,-0.1457237913168966,-0.1341875211715698,0.1579284622430801,0.0694757401943206,0.2604407370090484,-0.2429531663656234
1774472079689567500,2.7445673828125,-0.2417126608669757,-0.6517464370451868,0.3462964864134788,0.1240873634815216,-0.7059844732284546,1.647226095199585,1.3740052109479903,1.2961752445533872,-2.06476687669456,1.3740052109479903,1.2961752445533872,-2.06476687669456,-0.1196627367347478,-0.2569832952350377,0.0144850369483232,0.0345313362777233,0.225037470459938,-0.2466208785772323
1774472079699595500,2.754595458984375,-0.867382553499937,-0.3765791042134165,0.5674713861644267,0.0614673979580402,-0.4188240170478821,1.3039900064468384,4.308187608274817,0.390719054051116,-2.4791122324615715,4.308187608274817,0.390719054051116,-2.4791122324615715,-0.0903312821798026,-0.3658008128285407,-0.0406762937813997,0.000592389027588,0.1670086681842804,-0.2282188236713409
1774472079709624600,2.76462451171875,-1.182406534293294,0.0624314678631722,0.9170280434176326,0.200902372598648,-0.1591616868972778,0.8839078545570374,0.9822580559581516,0.2876818003594875,-3.0620559130460023,0.9822580559581516,0.2876818003594875,-3.0620559130460023,-0.1234326106622815,-0.4073123883903026,-0.0771545513510704,-0.013844340108335,0.0903602242469787,-0.1835123300552368
1774472079719652400,2.77465234375,-1.1140607278198005,0.1442313608020544,0.8262377654239534,0.4493276178836822,-0.1690835654735565,0.5564677119255066,2.6649779184222218,0.0342739524584263,-2.9365415276736018,2.6649779184222218,0.0342739524584263,-2.9365415276736018,-0.1204090250574052,-0.4070943617254495,0.0069686699688434,-0.0068224179558455,0.0041188853792846,-0.1160018965601921
1774472079729680600,2.7846806640625,-0.611985066151619,-0.0798934747956693,0.6409025330781937,0.720857560634613,-0.4295051395893097,0.3312983512878418,3.098776162678003,-0.2154504576895385,-2.5356372527599333,3.098776162678003,-0.2154504576895385,-2.5356372527599333,-0.0978051251918077,-0.3878121536284685,0.1512070450335741,0.0181369930505752,-0.0714674815535545,-0.0458758063614368
1774472079739708400,2.79470849609375,-0.0190413850784301,-0.3595303542569279,0.9176289319202304,0.911309540271759,-0.4640982449054718,0.0702401176095008,2.7069080116569992,-0.2542449197797105,-2.0564032452359795,2.7069080116569992,-0.2542449197797105,-2.0564032452359795,-0.0740903414748609,-0.3433423127830028,0.3191787623852491,0.0551883243024349,-0.1099407598376274,0.0124679282307624
1774472079749737500,2.804737548828125,1.8187404442816968,-1.2982896063588558,1.114443589657545,0.9670006036758424,-1.0670480728149414,-0.1572448313236236,2.180162603634596,-0.0501958720757626,-1.904518154810369,2.180162603634596,-0.0501958720757626,-1.904518154810369,0.0206061501771211,-0.2927309004426002,0.4268944562166929,0.0922251790761947,-0.1075188815593719,0.0575400665402412
1774472079759765500,2.814765625,1.160886191880703,-1.8663621732868247,0.986191011492908,0.858303964138031,-1.5964847803115845,-0.247064471244812,-2.4399562801152466,0.5968826644899323,4.915105454164743,-2.4399562801152466,0.5968826644899323,4.915105454164743,0.0564519550621509,-0.2740501653701067,0.4507534707099199,0.1110182181000709,-0.0768845155835151,0.0862257406115531
1774472079769793500,2.82479345703125,0.033105566266179,-1.6393205734595655,0.595474076333642,0.5913986563682556,-1.3576337099075315,-0.1859874576330185,-8.644200796586274,1.264658116522431,7.325826871967315,-8.644200796586274,1.264658116522431,7.325826871967315,0.0687128862202167,-0.2644412100255489,0.387102544054389,0.1031730771064758,-0.0536558888852596,0.1046952977776527
1774472079779821300,2.8348212890625,1.216502280640602,-0.7283926004827022,0.7834270899623632,0.2409809678792953,-0.6728639602661133,0.0523857027292251,2.4513854366242884,0.147489339684695,-4.98415385594964,2.4513854366242884,0.147489339684695,-4.98415385594964,0.0792816265076398,-0.2630389420121908,0.3331716319024562,0.0813568010926246,-0.0464945994317531,0.108333483338356
1774472079789849600,2.844849609375,2.3616356075942515,-0.50805561286062,0.0573474425971508,-0.1053259894251823,-0.1390171945095062,0.4019821882247925,2.260991459584236,0.7459927007116377,-1.0907046944126486,2.260991459584236,0.7459927007116377,-1.0907046944126486,0.1278660630650818,-0.1992237647056579,0.3701765436947345,0.0646827444434166,-0.0415203459560871,0.0882138311862945
1774472079799878400,2.85487841796875,1.4659996040344236,-0.1019109530754387,-1.038107368952036,-0.4802740514278412,0.1796691715717315,0.8047381639480591,-2.580730778461694,1.2598311347573994,1.8688772248476744,-2.580730778461694,1.2598311347573994,1.8688772248476744,0.2798024452865124,-0.1767395456969737,0.5272416671067476,0.057643599808216,-0.0252117794007062,0.0532938539981842
1774472079809906400,2.864906494140625,0.540987868386507,0.6228716402165592,-1.5256018398210405,-0.8948636054992676,0.4120577275753021,1.251207947731018,-5.486404289662838,1.8325940514586865,2.622909293499589,-5.486404289662838,1.8325940514586865,2.622909293499589,0.3002617343388498,-0.1749602610647678,0.6332569867610931,0.0653822124004364,0.0136203058063983,0.0178322680294513
1774472079819934500,2.8749345703125,0.5919570081233978,1.343576462675631,-1.0098121255770325,-1.3403369188308716,0.5590649843215942,1.6800371408462524,1.185657060521841,1.2389277551993727,0.015585691666603,1.185657060521841,1.2389277551993727,0.015585691666603,0.3129742086566984,-0.0957505307495594,0.7097060201913118,0.0832918435335159,0.0412489138543605,-0.0092330798506736
1774472079829963500,2.884963623046875,0.573729862037301,1.8992565810203552,-0.0756932466268539,-1.682856798171997,0.5397632122039795,2.04967737197876,-1.9177233810812235,1.5569935879066583,0.2961772415041923,-1.9177233810812235,1.5569935879066583,0.2961772415041923,0.2662497207522392,-0.0694534754544496,0.7413724935650825,0.0929987952113151,0.0351521410048007,-0.0254115164279937
1774472079839991600,2.894991455078125,0.0812719235420227,2.377976647672802,0.5837175875663757,-1.8379478454589844,0.5030651092529297,2.262716770172119,-4.345094320389628,1.0488701705068348,0.9212770791642368,-4.345094320389628,1.0488701705068348,0.9212770791642368,0.2049357126116752,-0.116068511635065,0.6613420945167541,0.0956271141767501,0.0259332731366157,-0.0284851789474487
1774472079850019300,2.905019287109375,-0.351389425638318,2.578150991101563,0.9591817162752152,-1.8037359714508057,0.7194831371307373,2.319257497787476,-5.721514191263914,0.3372797613410279,0.000112666594237,-5.721514191263914,0.3372797613410279,0.000112666594237,0.1881967592567205,-0.1685299357563257,0.5770511154145002,0.0772310569882392,0.0270587243139743,-0.0308892130851745
1774472079860047600,2.915047607421875,-0.6220873579710722,2.2080106877639887,1.3934829416170715,-1.6846261024475098,0.9595708250999452,2.411217212677002,-1.7795745550632476,0.535850322834961,-0.4458290199197828,-1.7795745550632476,0.535850322834961,-0.4458290199197828,0.1843178719967603,-0.1870008274704218,0.4836328270047902,0.0561469197273254,0.0428499169647693,-0.0318075343966484
1774472079870075400,2.925075439453125,-0.3243459358900785,2.284049094566703,2.422705577845872,-1.4469910860061646,1.2408894300460815,2.5564627647399902,2.6967157034665346,-0.0510998169118538,-0.5562469584472477,2.6967157034665346,-0.0510998169118538,-0.5562469584472477,0.2586338389210403,-0.2168704805552959,0.4463227947860956,0.0550012290477752,0.0706525221467018,-0.0459832772612571
1774472079880104400,2.9351044921875,-0.1604080040991306,2.4545447774380444,2.4113515323996544,-1.0869836807250977,1.7255314588546753,2.7598838806152344,1.7609592864423989,-0.3190333625651896,-0.0001601589977741,1.7609592864423989,-0.3190333625651896,-0.0001601589977741,0.3886573722809553,-0.1168517709672451,0.4944716164052486,0.0778354406356811,0.0821932479739189,-0.0773529261350631
1774472079890132500,2.945132568359375,0.5656909324884415,2.0017656461194155,1.1003189104542137,-0.6026478409767151,2.1028053760528564,2.9554264545440674,2.982297316676378,-0.0278176524585112,0.510928684078902,2.982297316676378,-0.0278176524585112,0.510928684078902,0.5275726526267827,-0.0098965401142835,0.5802981345117092,0.1304896026849746,0.056067906320095,-0.1285697817802429
1774472079900160500,2.955160400390625,0.4496358648568391,1.3120324466377495,-0.3558811840996146,0.024499462917447,2.224193334579468,3.0904533863067627,2.8478689724862574,-0.2036118983956985,0.632444939725846,2.8478689724862574,-0.2036118983956985,0.632444939725846,0.6452946305572986,0.080489833253622,0.5842711297959089,0.1847526133060455,-0.0118034351617097,-0.188807412981987
1774472079910189300,2.965189208984375,-0.3633206864506006,0.6167056649327278,-1.5263663944527506,0.7414022088050842,2.312234878540039,3.1789751052856445,0.0030278233885765,-0.5661654181323945,0.4688489532403647,0.0030278233885765,-0.5661654181323945,0.4688489532403647,0.707628044873476,0.1135971530854701,0.4352969583809375,0.2270441502332687,-0.0888148620724678,-0.2559305131435394
1774472079920217600,2.975217529296875,-0.5306301405012607,0.0034615386307239,-2.0063667101740834,1.4557247161865234,2.3133533000946045,3.206602096557617,-0.7223942368507384,-0.4787250716211274,0.3676112232513726,-0.7223942368507384,-0.4787250716211274,0.3676112232513726,0.7425590730011463,-0.0022393033593893,0.2835316949427127,0.2527053356170654,-0.0982226282358169,-0.3183111846446991
1774472079930245400,2.985245361328125,-0.5733809024691582,-0.1827759032517671,-1.238697745835781,2.0628042221069336,2.1337833404541016,3.1699018478393555,-0.3601432254582643,-0.1541683242582716,0.4660549386076629,-0.3601432254582643,-0.1541683242582716,0.4660549386076629,0.7339055186852812,-0.1821726766616106,0.1299240185081958,0.2494701445102691,-0.0676641911268234,-0.3590511679649353
1774472079940273400,2.9952734375,-0.934284006384015,0.3248427794963121,0.0093210783138871,2.50629997253418,1.6722205877304075,3.090165615081787,0.1603238329470157,0.1090045828645117,0.5212456415623427,0.1603238329470157,0.1090045828645117,0.5212456415623427,0.5889426287382841,-0.3334767523288726,-0.0244821148276329,0.2266925722360611,-0.0572591871023178,-0.3677882254123688
1774472079950302500,3.005302490234375,-1.467929695314169,1.1989140169799326,0.7327087101161479,2.7388229370117188,1.3693490028381348,3.037518262863159,0.3866401872396469,0.1379419418016448,0.5840632591988891,0.3866401872396469,0.1379419418016448,0.5840632591988891,0.4402671480089425,-0.3084790891945362,-0.117594113767147,0.2002399265766143,-0.0640489161014556,-0.3516883552074432
1774472079960330500,3.01533056640625,-1.526276085820794,1.735939995998144,1.2957760161027312,2.759482860565185,1.4244731664657593,3.060554981231689,-0.1122545063048601,0.0910005232108756,0.9002529227707534,-0.1122545063048601,0.0910005232108756,0.9002529227707534,0.3530307631045579,-0.1983972507536411,-0.1085784481406211,0.183077797293663,-0.0776301845908165,-0.3181114196777344
1774472079970358300,3.025358154296875,-0.8391758651912212,1.6196674862235785,1.5956939054399728,2.594154596328736,1.4793723821640017,3.097745895385742,-1.5405810900270938,0.188144956004247,0.6681168493486941,-1.5405810900270938,0.188144956004247,0.6681168493486941,0.257430454480648,-0.1697381425023078,-0.0338163448840379,0.1715774685144424,-0.0460733287036418,-0.2858509719371795
1774472079980386600,3.035386474609375,-0.9028712155103684,1.1856056225955485,1.6915619250893592,2.276350736618042,1.3349658250808716,3.107043981552124,-2.263981289049983,0.3932634778369218,-0.4291640085838735,-2.263981289049983,0.3932634778369218,-0.4291640085838735,0.1993845082253217,-0.1872749682366848,0.0358913975924253,0.1719585359096527,0.0189456101506948,-0.2735377550125122
1774472079990415600,3.04541552734375,-1.124233162266016,1.1194044269353152,1.6466291429072617,1.843133568763733,1.0612890720367432,3.110553979873657,-1.586138726109266,0.4071472974890843,-0.5540688106905669,-1.586138726109266,0.4071472974890843,-0.5540688106905669,0.1984916510388255,-0.1811614537924528,0.0954050783127546,0.1936111003160476,0.0954052284359932,-0.2859808206558227
1774472080000443400,3.055443359375,-0.5357844545245171,1.4311200138330458,1.492521407996118,1.392634630203247,0.6368674039840698,3.0929105281829834,-0.9265268163859844,0.1434628606475889,-0.924747020297125,-0.9265268163859844,0.1434628606475889,-0.924747020297125,0.2472852003023028,-0.1303688396662473,0.2674731250673532,0.2358349859714508,0.1533223390579223,-0.3418763279914856
1774472080010471700,3.0654716796875,-0.0127858318150043,1.471301217573881,1.4063596665859222,0.980097770690918,0.1184718087315559,3.0240285396575928,-0.4100269080460071,-0.1398375462898984,-1.0465563406065106,-0.4100269080460071,-0.1398375462898984,-1.0465563406065106,0.2942448121368884,-0.0419096349686384,0.3224766348868608,0.245752066373825,0.1651030927896499,-0.4099986553192138
1774472080020499500,3.07549951171875,0.0945616132259368,1.2511907321840523,1.2321490548446774,0.6199931502342224,-0.1371615529060363,2.791553497314453,-0.3918529534518718,-0.2069298455709591,-0.8706221930082887,-0.3918529534518718,-0.2069298455709591,-0.8706221930082887,0.2325315755456685,-0.0358428822755813,0.0225128605812788,0.2040071487426757,0.1543860733509063,-0.4691193699836731
1774472080030528500,3.085528564453125,-0.4730108952254057,1.0234434683054685,1.0187366057887672,0.3341780602931976,-0.150232508778572,2.320495843887329,-0.3326262729793787,-0.1973189722639508,-0.8918977668795735,-0.3326262729793787,-0.1973189722639508,-0.8918977668795735,0.1443045721687376,-0.0819680891126394,-0.2913578585237264,0.1390696913003921,0.1610053479671478,-0.5131992697715759
1774472080040556500,3.095556640625,-2.2436136238038538,0.939631212630868,0.3238888397723436,0.1237026080489158,0.4111954271793365,1.6141974925994873,-0.0931090763300657,-0.095046875992231,-0.8166479531712829,-0.0931090763300657,-0.095046875992231,-0.8166479531712829,0.1130719601675867,-0.1264893678843975,-0.4335048142671585,0.061536781489849,0.2102855294942855,-0.5322388410568237
1774472080050584600,3.10558447265625,-1.894629505741596,1.1532868227928876,-0.1844903059542179,0.0638198256492614,0.9672535061836244,0.7204577326774597,0.2461760700166225,-0.0228797576649114,-0.6990934407621622,0.2461760700166225,-0.0228797576649114,-0.6990934407621622,0.0227764799535274,-0.1690215186655521,-0.5013578687876462,-0.0337127707898616,0.2718109488487243,-0.5274840593338013
1774472080060612400,3.1156123046875,-3.037690118074417,0.3583165945529937,-0.4627560431927442,0.1025115549564361,1.6255102157592771,-0.1549779027700424,0.5727420200437306,0.1021207051022909,-0.536116462957859,0.5727420200437306,0.1021207051022909,-0.536116462957859,-0.0739794284462928,-0.1538473304092883,-0.516267268627882,-0.1409500688314438,0.2839342653751373,-0.5179614424705505
1774472080070641400,3.125641357421875,-2.687307823652029,-0.11525719525218,-0.3836071031540632,0.1824279427528381,2.144606113433838,-0.9006488919258118,0.6380307770341634,0.2471607336724177,-0.0920344328358769,0.6380307770341634,0.2471607336724177,-0.0920344328358769,-0.1018637529328465,0.006193593943119,-0.5927262389302254,-0.2398888915777206,0.2054639458656311,-0.5109914541244507
1774472080080669400,3.13566943359375,-2.1330045466184613,-0.0920101751774549,-0.0641080227732658,0.23227459192276,2.7736241817474365,-1.4718588590621948,0.5060369665145874,0.1769446580813266,0.3104018739506602,0.5060369665145874,0.1769446580813266,0.3104018739506602,-0.2212701768189668,0.1592576650202274,-0.6883364844262599,-0.3094448745250702,0.0553807392716407,-0.4766607284545898
1774472080090697500,3.145697509765625,-0.9166922355920076,-0.1404723005294799,0.6538229510582984,0.1534086316823959,2.992238759994507,-1.8090044260025024,0.3662912266939878,-0.0224441883923951,0.3867493467025458,0.3662912266939878,-0.0224441883923951,0.3867493467025458,-0.439251833486557,0.1412432849019765,-0.5081950213313102,-0.3223835825920105,-0.052724689245224,-0.4161446690559387
1774472080100725500,3.1557255859375,-0.564063623547554,0.6601894173502921,0.5202051925987005,-0.0930512249469757,2.726099729537964,-1.8012416362762451,0.3395633787661791,-0.1556098831024021,0.0510369442760944,0.3395633787661791,-0.1556098831024021,0.0510369442760944,-0.45425943300426,0.089108023995161,-0.2681289586275815,-0.2873651683330536,-0.1112004518508911,-0.3751209676265716
1774472080110754600,3.165754638671875,-1.051682305318117,1.6894775200307368,-0.2889130957201123,-0.4013132750988006,2.2461345195770264,-1.5248507261276243,0.2086094326883554,-0.0349070809965021,0.022609306693077,0.2086094326883554,-0.0349070809965021,0.022609306693077,-0.3341124198839068,0.0473339981049299,-0.1276777008861303,-0.227370798587799,-0.1661350578069687,-0.3652028441429138
1774472080120782300,3.1757822265625,-1.4205179557979106,1.0205711277395486,-0.4410584445171058,-0.6926860213279724,1.893412470817566,-1.0994023084640503,0.0152414082735776,0.0184548538947477,0.0223234754890203,0.0152414082735776,0.0184548538947477,0.0223234754890203,-0.2397819850653409,0.1640022291988134,0.0106973351031541,-0.1510094404220581,-0.2709049582481384,-0.3847155570983886
1774472080130810600,3.185810546875,-1.3836135817706583,-0.0124082306742668,-0.1550166664496064,-0.916362762451172,1.810350775718689,-0.6388669610023499,-0.147997435337305,0.0592858633138239,-0.0356729325361549,-0.147997435337305,0.0592858633138239,-0.0356729325361549,-0.1268798285067081,0.3435872274547815,-0.0413666141331195,-0.081895887851715,-0.4248998463153839,-0.4166260659694671
1774472080140838400,3.19583837890625,-0.807348063775897,-0.5101987623691558,-0.3030567718848586,-1.040480375289917,1.6112674474716189,-0.1758186370134353,-0.2259013437509536,0.0370777395664714,-0.0980972400061786,-0.2259013437509536,0.0370777395664714,-0.0980972400061786,-0.1294943949192762,0.3297434110194444,-0.2074345436900854,-0.0140817929059267,-0.5468206405639648,-0.4282067716121673
1774472080150867500,3.205867431640625,-1.3125474104225634,-0.3749965111970901,-1.2454849217578767,-1.100489377975464,1.3404520750045776,0.3109978139400482,-0.2636404150366783,-0.014094393662922,-0.1581022844400256,-0.2636404150366783,-0.014094393662922,-0.1581022844400256,-0.1279512571305036,0.2921493011623621,-0.4130453790843486,0.0418821386992931,-0.6849353909492493,-0.41616290807724
1774472080160895500,3.2158955078125,-1.6609493446826933,0.0178606508612632,-1.7256060873799024,-1.0929020643234253,1.2834091186523438,0.835869312286377,-0.2376169159859418,-0.0171401728332974,-0.2338206655081361,-0.2376169159859418,-0.0171401728332974,-0.2338206655081361,-0.0150192899554967,0.3314753493785858,-0.914201587820053,0.0754251778125763,-0.8561934232711792,-0.4080447852611542
1774472080170923500,3.225923583984375,-0.7595628147721291,0.3567091593563556,-1.6719754733487964,-1.0042598247528076,1.4238135814666748,1.376734495162964,-0.1706523347377777,-0.0070441280915401,-0.1842354544103145,-0.1706523347377777,-0.0070441280915401,-0.1842354544103145,0.3059992550775408,0.3113865010738372,-1.2365408600628376,0.0855739563703537,-0.980562686920166,-0.408843994140625
1774472080180951600,3.23595166015625,0.250641817253828,0.5039578221529722,-1.7997974050112069,-0.8534221053123474,1.599855899810791,1.8928375244140625,-0.0995961002618074,0.0467569654019549,-0.0562440113998949,-0.0995961002618074,0.0467569654019549,-0.0562440113998949,0.4748270047366619,0.1435860486358404,-1.349229666131735,0.0634055659174919,-0.9751096963882446,-0.4088779091835022
1774472080190980400,3.24598046875,0.3758972594290971,0.5144453138977289,-1.9076459314420813,-0.6656865477561951,1.6665077209472656,2.3756704330444336,0.0906114142954349,0.3772264622062444,-0.2517874801576137,0.0906114142954349,0.3772264622062444,-0.2517874801576137,0.5787476901993155,-0.0310047945946454,-1.3599842843800782,-0.0084246834740042,-0.9368254542350768,-0.3988891839981079
1774472080201008600,3.256008544921875,0.110189974990487,0.5745791723430156,-1.7856291789270935,-0.5002927780151367,1.772041082382202,2.8481264114379883,-0.226275437760353,0.236819171470683,-0.2173368559580296,-0.226275437760353,0.236819171470683,-0.2173368559580296,0.5369084901183844,0.0326104762256145,-1.2954612510651349,-0.1373330205678939,-0.9854078888893129,-0.3810202181339264
1774472080211040500,3.26604052734375,0.2689332607477903,0.7788479454785585,-1.5300626186221835,-0.3877668082714081,1.9549351930618288,3.2439639568328857,0.0457791698783636,-0.459231704991497,0.1292978494338691,0.0457791698783636,-0.459231704991497,0.1292978494338691,0.5561790077775717,0.3845335703492164,-1.486737856158614,-0.2914746701717376,-1.069493293762207,-0.3744240999221802
1774472080221068500,3.276068603515625,0.4776613513797521,1.1851333289086818,-1.1649475961007176,-0.2978161573410034,2.094080924987793,3.5652077198028564,0.3469797925025224,-0.1060256035863421,0.0031860826902091,0.3469797925025224,-0.1060256035863421,0.0031860826902091,0.722712216758728,0.6011725802361965,-1.7233908955484627,-0.430789440870285,-1.1336126327514648,-0.3862108886241913
1774472080231097300,3.286097412109375,0.4132067071259021,1.4259727140724658,-1.0900569710936396,-0.1969107985496521,2.164540529251098,3.75509262084961,0.1168161151319742,-0.2658378154831007,0.1348050685480236,0.1168161151319742,-0.2658378154831007,0.1348050685480236,0.9084757575191555,0.4759691605091095,-1.729541234871745,-0.5294137597084045,-1.1477782726287842,-0.4306731522083282
1774472080241125600,3.296125732421875,0.4018400944590568,1.2444237222671508,-1.2544184620589016,-0.0062345964834094,2.1339542865753174,3.729989767074585,0.0104413145154714,0.0425522437211126,-0.0712808370120823,0.0104413145154714,0.0425522437211126,-0.0712808370120823,1.1164742187023162,0.2857183913320302,-1.5330845967918634,-0.573452889919281,-1.115746021270752,-0.5138744711875916
1774472080251153400,3.3061533203125,-0.1007972927451133,0.980966847103834,-1.5645841891661283,0.1894510239362716,1.9548325538635247,3.532008409500122,-0.0908598360985517,-0.057480969316326,0.0325562618203461,-0.0908598360985517,-0.057480969316326,0.0325562618203461,1.2762033006265758,0.1717705251127481,-1.0006979680120944,-0.5382261872291565,-1.0500400066375732,-0.6058102250099182
1774472080261181700,3.316181640625,-0.4581090941697359,0.8877139783889054,-1.3142737958237527,0.35725998878479,1.6757625341415403,3.1922523975372314,0.1471072084993124,-0.1561884867079556,0.0663014411643147,0.1471072084993124,-0.1561884867079556,0.0663014411643147,1.2169567464098334,0.2446767713695764,-0.4353682700514793,-0.4350558221340179,-1.0205810070037842,-0.6754669547080994
1774472080271210500,3.32621044921875,-0.8316618362993001,0.8372592179149388,-0.8203792486540973,0.5122969150543213,1.3300514221191406,2.718090534210205,0.2775005980849266,0.0015882373058237,-0.0722029202930629,0.2775005980849266,0.0015882373058237,-0.0722029202930629,1.0301391665518282,0.0775105251818895,-0.0674655165076255,-0.3359185755252838,-0.9682525396347046,-0.7070733308792114
1774472080281238500,3.336238525390625,-1.1394909371525048,0.6516659191548824,-0.6431047192975878,0.6380439400672913,0.8536896109580994,2.1293413639068604,0.0208855516403913,0.1130820066375657,-0.1259165364325046,0.0208855516403913,0.1130820066375657,-0.1259165364325046,0.7314825293220579,-0.3201069831460714,0.0983662662059068,-0.2451262474060058,-0.852502703666687,-0.713064968585968
1774472080291266600,3.3462666015625,-1.4744555899515748,0.3554261338084936,-0.5617870934503153,0.6525155901908875,0.5260447263717651,1.5385727882385254,-0.3589776888102293,-0.0278336902778595,-0.0102298637218773,-0.3589776888102293,-0.0278336902778595,-0.0102298637218773,0.5406672581300139,-0.4387251792639494,0.357924380365014,-0.1955499053001403,-0.7497230768203735,-0.7112756371498108
1774472080301294600,3.356294677734375,-0.918591931733489,-0.1028752680629491,-0.1978942696675658,0.5856659412384033,0.2485768646001815,0.9512582421302797,-0.2495236268788576,-0.1425314615489915,-0.018324615111202,-0.2495236268788576,-0.1425314615489915,-0.018324615111202,0.2953415213324129,-0.3597504267483949,0.0777829123824834,-0.193425253033638,-0.7366287708282471,-0.7040194869041443
1774472080311323400,3.366323486328125,-0.8849781236842275,-0.6937275298148393,0.060927967965044,0.5072211623191833,0.0116078238934278,0.5033204555511475,0.1446077928990125,0.0866158053206279,-0.1553193757232278,0.1446077928990125,0.0866158053206279,-0.1553193757232278,0.0492654045589268,-0.230990191322565,-7.77414113283e-05,-0.1733849644660949,-0.704595685005188,-0.6762599945068359
1774472080321351400,3.376351318359375,-0.8131129109129309,-1.096584107840061,-0.1925681427413597,0.4175996780395508,-0.2013220191001892,0.3086106181144714,0.0595136807203292,0.0177345037309452,-0.0997717490896582,0.0595136807203292,0.0177345037309452,-0.0997717490896582,-0.1602688878893852,-0.2533382167309522,0.2284866840690374,-0.150409996509552,-0.6078280210494995,-0.6128732562065125
1774472080331379500,3.38637939453125,-0.3905453779846429,-1.662954839286208,-0.2818687301665544,0.3876579105854034,-0.1487945616245269,0.2904587090015411,-0.1199842237740755,-0.0554677845967002,-0.0533938096005469,-0.1199842237740755,-0.0554677845967002,-0.0533938096005469,-0.3376937855020165,-0.403909886470437,0.2039081231296062,-0.1299832910299301,-0.4664349853992462,-0.5243782997131348
1774472080341407500,3.396407470703125,0.3861325299784541,-1.98727564073503,-0.608603241693601,0.4516321122646332,0.1078739836812019,0.2247401475906372,-0.1364262400090694,0.1593304562618024,-0.1637750693794339,-0.1364262400090694,0.1593304562618024,-0.1637750693794339,-0.4877564828060567,-0.2176724445879459,0.1199649345517158,-0.1315420567989349,-0.3678480684757232,-0.4234335422515869
1774472080351436500,3.4064365234375,0.4596349885627627,-1.3327198453575373,-0.9972648517582564,0.2774879336357116,0.1320764422416687,0.1045484468340873,-0.037124738779664,-0.0449115384646691,-0.0243396376170218,-0.037124738779664,-0.0449115384646691,-0.0243396376170218,-0.6347305664449929,0.0815875653624534,-0.2403781973928213,-0.1819658130407333,-0.3755224943161011,-0.3371415138244629
1774472080361464600,3.416464599609375,-0.2596878780186176,-0.3761801680237054,-0.3308884528687223,0.214563563466072,-0.0184126608073711,0.0242442861199378,0.2404389876693487,-0.2875475612542592,0.1670287374131381,0.2404389876693487,-0.2875475612542592,0.1670287374131381,-0.7853595193296671,0.2345119357079267,-0.5779454339057207,-0.2494422495365142,-0.4179767966270447,-0.2654782235622406
1774472080371492600,3.42649267578125,-0.2381377249896526,-0.3157850282937288,-0.2539858121857978,0.2275673896074295,-9.68915410339e-05,-0.0831872224807739,0.2033978355199098,0.2182142598470672,-0.2256744031272828,0.2033978355199098,0.2182142598470672,-0.2256744031272828,-0.9092448421955108,0.1841483606487512,-0.7195218962848186,-0.3063681125640869,-0.423749178647995,-0.2171668857336044
1774472080381520400,3.436520263671875,0.1017798740416765,-0.3928717751055955,-0.5268504027668386,0.3494895696640014,0.0185862481594085,-0.1072427630424499,-0.262792273774743,0.017383333939407,-0.0613959873355925,-0.262792273774743,0.017383333939407,-0.0613959873355925,-1.0521107598632573,0.128968909740448,-0.7741665096640586,-0.3550729751586914,-0.444068968296051,-0.1906478554010391
1774472080391549700,3.4465498046875,0.1332666069343686,-0.5818634841322898,-0.8331124004337936,0.4672494232654571,-0.0704461559653282,-0.0475934296846389,-0.2095879223316907,-0.2154080981188453,0.0877053175903856,-0.2095879223316907,-0.2154080981188453,0.0877053175903856,-1.2044035543069245,0.0943149449884891,-0.777355076572299,-0.3992548286914825,-0.5066013336181641,-0.1713865548372268
1774472080401577500,3.456577392578125,-0.0165115743398666,-0.2672819864094257,-0.6918564021807163,0.5422301888465881,-0.1136452928185463,0.0827480629086494,0.1351332775890827,0.1437232286168262,-0.1486839562967419,0.1351332775890827,0.1437232286168262,-0.1486839562967419,-1.4610473884545263,0.097910923653841,-0.9836509716212748,-0.426270067691803,-0.6422823667526245,-0.1355115622282028
1774472080411605500,3.46660546875,0.0246183084279298,0.0627525165110826,-0.5110691519955173,0.5408576726913452,-0.092246301472187,0.1978578120470047,0.1013566801935434,-0.0262320637675002,-0.0977350556302815,0.1013566801935434,-0.0262320637675002,-0.0977350556302815,-1.887525080563873,0.288391409933567,-1.206447919616103,-0.4537994265556335,-1.127997875213623,-0.0167369730770587
1774472080421633500,3.476633544921875,0.0550426727861165,0.3202618814468383,-0.2544898709841072,0.5337451696395874,-0.090045727789402,0.2134919017553329,-0.2290817273527383,0.1415120736396871,-0.1863135758586227,-0.2290817273527383,0.1415120736396871,-0.1863135758586227,-2.9329926030203697,0.8329764260292053,-1.4586960030227898,-0.4464576542377472,-1.5961755514144895,0.0265131201595067
1774472080431662600,3.48666259765625,-0.2301493565842509,0.4626216031581163,-0.129374056475237,0.6048997640609741,-0.0570915415883064,0.105596587061882,-0.3436567855596542,-0.2780458291438408,0.1910845165874808,-0.3436567855596542,-0.2780458291438408,0.1910845165874808,-2.3615433992661536,1.2601929538071155,-1.1829244206875562,-0.2934800982475281,-1.602213740348816,-0.0503339916467666
1774472080441690400,3.4966904296875,-0.4225684097111225,0.5624708013981581,-0.3883968216486275,0.6748120188713074,-0.0525860041379928,-0.0835059583187103,0.2591349203109741,0.0326504429098218,-0.1101911440342664,0.2591349203109741,0.0326504429098218,-0.1101911440342664,-1.0374467130862175,0.213705294522643,-0.182468444737792,-0.0459740385413169,-1.3255350589752195,-0.2704237997531891
1774472080451718700,3.50671875,-0.5892702532574534,0.771284232226014,-0.1865961008607409,0.7460216879844666,-0.132387489080429,-0.442294180393219,0.2757271586716175,0.0851310831882059,-0.1285616441138088,0.2757271586716175,0.0851310831882059,-0.1285616441138088,0.7771523936070501,1.1497598177105188,-0.0238823953688144,0.2144407778978347,-1.1489698886871338,-0.9578296542167664
1774472080461746400,3.516746337890625,-1.295464758196473,0.8160434114068746,-0.1767373354735784,0.8179931044578552,-0.1591666340827942,-0.9375465512275696,-0.0797223560124635,-0.1454695608275011,0.0842247819982469,-0.0797223560124635,-0.1454695608275011,0.0842247819982469,2.09654674731493,3.232823398596048,-0.1998936267912387,0.1658828258514404,-1.0558289289474487,-1.6881839036941528
1774472080471775500,3.526775390625,-1.296561321261525,0.2264139694482088,-0.3299582958791405,0.8566356301307678,-0.0827761739492416,-1.5196682214736938,-0.0687257457017898,0.0303948094701394,-0.0829467248864471,-0.0687257457017898,0.0303948094701394,-0.0829467248864471,1.0943898126661775,1.332069272494316,-0.2010024648159742,0.0667863264679908,-0.9538336396217346,-1.9691061973571773
