time,seconds_elapsed,imu1_accel_x,imu1_accel_y,imu1_accel_z,imu1_gyro_x,imu1_gyro_y,imu1_gyro_z,imu2_accel_x,imu2_accel_y,imu2_accel_z,imu2_gyro_x,imu2_gyro_y,imu2_gyro_z,imu3_accel_x,imu3_accel_y,imu3_accel_z,imu3_gyro_x,imu3_gyro_y,imu3_gyro_z
1774472320943921000,15.2799208984375,0.638341158157587,-0.2201212990447878,0.0985918916553258,-0.013706836849451,0.0038669221103191,-0.0059107765555381,0.0011982698738574,-0.0052402387410402,-0.0098334117501974,0.0011982698738574,-0.0052402387410402,-0.0098334117501974,-0.1259397711776196,0.0109118546366691,-0.0732341630369424,-0.0081869140267372,-0.0110832992941141,0.0368490107357502
1774472320953949000,15.289948974609375,0.38158480354622,-0.0728200292780995,0.433511244007945,-0.0157902278006076,-0.043674498796463,-0.023193359375,-0.0234790752649307,-0.0204062436908483,-0.0146808517813682,-0.0234790752649307,-0.0204062436908483,-0.0146808517813682,-0.1151229013480246,0.0332300694286823,-0.0381955828815698,-0.0034781144931912,-0.0063671455718576,0.0335939824581146
1774472320963977000,15.29997705078125,0.0909638809949159,-0.0640010552674531,0.336430341437459,-0.0089282849803566,-0.0532308146357536,-0.0541419237852096,-0.0136906717002391,-0.0192412915647029,-0.0101128132134675,-0.0136906717002391,-0.0192412915647029,-0.0101128132134675,-0.0762622786864638,0.0247936649948358,0.0065863926529884,0.0037100231274962,-0.005207338836044,0.0208608768880367
1774472320974005000,15.3100048828125,0.078070058760792,-0.1310007078289985,0.1258563306778669,-0.024463303387165,-0.0473753213882446,-0.1056189686059951,-0.0218269241437315,-0.049265842950344,-0.0231225169122219,-0.0218269241437315,-0.049265842950344,-0.0231225169122219,-0.038200843578577,0.025983167040348,0.0204290400445461,0.0101865148171782,-0.0032704232726246,0.0096943322569131
1774472320984032800,15.32003271484375,0.028857991824299,-0.1152452125534415,0.1402834999591112,-0.063160628080368,-0.0616176426410675,-0.1603996455669403,-0.025488953782618,-0.0600450111180543,-0.0405143812179565,-0.025488953782618,-0.0600450111180543,-0.0405143812179565,-0.0791435332112014,-0.0139653969883918,-0.0302653744041919,0.0071843331679701,-0.0009782405104488,0.0124179478734731
1774472320994061000,15.33006103515625,-0.1106831653349101,0.0018120178580284,0.3572790681988,-0.084175631403923,-0.0605680868029594,-0.1597538292407989,-0.0200581609055399,-0.0567260958284139,-0.0427273810923099,-0.0200581609055399,-0.0567260958284139,-0.0427273810923099,-0.1472729204550385,0.0028676643908023,-0.1001350294440984,-0.0035374141298234,0.0026005613617599,0.0194353200495243
1774472321004088800,15.3400888671875,0.3178787857025861,0.0681062986291945,0.4254951108127832,-0.1170966625213623,-0.046222161501646,-0.1806651800870895,-0.0076876318931579,-0.0559007509201765,-0.0314773805424571,-0.0076876318931579,-0.0559007509201765,-0.0314773805424571,-0.2121796923905611,0.0376782810091972,-0.1176081422924995,-0.0125841721892356,0.002611746545881,0.0219655893743038
1774472321014117000,15.3501171875,0.4405997409641742,0.0661097179844975,0.6233113468080759,-0.1344266384840011,-0.0258055701851844,-0.1941932439804077,-0.0178042444989085,-0.0456885689854621,-0.0232347451150417,-0.0178042444989085,-0.0456885689854621,-0.0232347451150417,-0.2331464925736188,0.0498041876107454,-0.0894645823478698,-0.0177947506308555,0.0060526756569743,0.0272935926914215
1774472321024145000,15.360144775390625,0.5405658435821533,0.0572122719101607,0.6757043818682432,-0.1445250511169433,-0.0138815622776746,-0.1926421821117401,-0.0253749720141291,-0.0475315665036439,-0.039207974794507,-0.0253749720141291,-0.0475315665036439,-0.039207974794507,-0.2186843981094658,0.0220019884496927,-0.0350105231046676,-0.0120508456602692,0.0026899026706814,0.0254663974046707
1774472321034173000,15.3701728515625,0.5489373660862445,0.000294599032402,0.6656956135511398,-0.1485243290662765,-0.0281832721084356,-0.1751212477684021,-0.025295915428549,-0.05026186825037,-0.0457464366525411,-0.025295915428549,-0.05026186825037,-0.0457464366525411,-0.1871212389796972,0.0063683659881353,0.0159907653361558,-0.0059010586701333,-0.0060957693494856,0.0246777199208736
1774472321044201000,15.380200927734377,0.4882078798353672,-0.0317483064383268,0.4364040428400039,-0.1480977237224578,-0.0177657511085271,-0.1383544504642486,-0.0300714592672884,-0.0436865815132856,-0.0481868155419826,-0.0300714592672884,-0.0436865815132856,-0.0481868155419826,-0.1954839936554431,-0.0192985747098922,0.0395446594029664,-0.0015920641599223,-0.0109885288402438,0.0296714156866073
1774472321054229000,15.39022900390625,0.4472798032499849,-0.0666083151564002,0.2616676536589861,-0.1101242303848266,0.0106994453817605,-0.0707916542887687,-0.0048468555092811,-0.0364063613772392,-0.0360316828459501,-0.0048468555092811,-0.0364063613772392,-0.0360316828459501,-0.2022026343859732,-0.0145002345174551,0.0320914207875728,0.0036610751412808,-0.0148521028459072,0.033203836530447
1774472321064257000,15.400257080078124,0.6534377511329948,-0.1071181663297116,-0.0231751238822937,-0.0734566375613212,0.0408200323581695,-0.0179378613829612,-0.000936111806333,-0.0324701909720897,-0.0518596588358283,-0.000936111806333,-0.0324701909720897,-0.0518596588358283,-0.1880648034401237,0.0085310969799757,0.0603483779788017,0.0074430298991501,-0.0074751460924744,0.0344251617789268
1774472321074284800,15.410284912109375,0.6183592773586511,-0.1001009810440242,-0.1954571056485176,-0.0168391652405262,0.0652268379926681,0.0013104025274515,-0.0110322661459445,-0.0316191271007061,-0.0136035779386758,-0.0110322661459445,-0.0316191271007061,-0.0136035779386758,-0.1617510892711579,-0.0017488894939422,0.0589233136117458,0.0132765341550111,-0.005675415508449,0.0285833198577165
1774472321084312800,15.420312744140626,0.5701442586354911,-0.147305653680861,-0.3542787173390388,0.0266989339143037,0.0579242557287216,-0.0152038484811782,-0.0147743752837181,-0.0409206239312887,-0.0249690215617418,-0.0147743752837181,-0.0409206239312887,-0.0249690215617418,-0.1025971817739307,0.0004360533297061,0.0629220278590917,0.0170145463198423,-0.0096994517371058,0.017380466684699
1774472321094340900,15.4303408203125,0.3426328493393957,-0.1880728406161069,-0.4947258834272622,0.0594361051917076,0.035364881157875,-0.0583883374929428,-0.0111329500414431,-0.0396025270700454,-0.0229606043487787,-0.0111329500414431,-0.0396025270700454,-0.0229606043487787,-0.0706691348545253,-0.022892799809575,0.0370569342404603,0.0250237733125686,0.0007006316445767,0.0163676925003528
1774472321104369000,15.440368896484374,0.0861228707045316,-0.2299661089718341,-0.6058709671854973,0.0549534372985363,0.0068785767070949,-0.1133446991443634,-0.0028910452663898,-0.0495206944942474,-0.0292488908380269,-0.0028910452663898,-0.0495206944942474,-0.0292488908380269,-0.106697895091027,-0.0056891515523195,0.011751228070259,0.0250064637511968,-0.0117664244025945,0.0184609368443489
1774472321114397000,15.45039697265625,-0.0366056833416223,-0.2748579746216535,-0.6718401076555252,-0.0190315768122673,-0.0178858917206525,-0.203929990530014,0.0047664837494492,-0.0456231025338172,-0.0283010885939002,0.0047664837494492,-0.0456231025338172,-0.0283010885939002,-0.152791537746042,0.0229284556448459,-0.0213350489735603,0.0246733017265796,-0.0198688246309757,0.0276858601719141
1774472321124425000,15.460425048828125,-0.2294113976985216,-0.1836409956485032,-0.3693482761770487,-0.0950146168470382,-0.0450716763734817,-0.2449915707111358,-0.0004769698619842,-0.0217599963873624,-0.0439598454967141,-0.0004769698619842,-0.0217599963873624,-0.0439598454967141,-0.201800191064924,0.0344768546193838,-0.071832479545474,0.020793342962861,-0.0270577613264322,0.0425518937408924
1774472321134452700,15.47045263671875,-0.2201929029762744,-0.0075914780423045,0.0183066410630941,-0.1120473966002464,-0.0464514605700969,-0.1760005205869674,-0.0062821490094065,-0.0364379255592823,-0.0540785039290785,-0.0062821490094065,-0.0364379255592823,-0.0540785039290785,-0.2374335222430527,0.0079512512654066,-0.1149643497854471,0.0110791381448507,-0.0248947273939847,0.0587147139012813
1774472321144481000,15.48048095703125,0.3628067455790936,0.0615427023299038,0.1247410629123449,-0.0854970216751098,-0.0175929740071296,-0.0791412889957428,-0.0001624970853328,-0.0479717114865779,-0.0664765054702758,-0.0001624970853328,-0.0479717114865779,-0.0664765054702758,-0.2483249186135828,0.0149532389819622,-0.149873750603199,0.004081149585545,-0.0226345025002956,0.0683822557330131
1774472321154507800,15.4905078125,0.8362510637857019,0.0597245469920337,0.2417062311261892,-0.016019145026803,0.0501101724803447,0.0201338957995176,0.0101487613096833,-0.0494078817695379,-0.0601589928865432,0.0101487613096833,-0.0494078817695379,-0.0601589928865432,-0.1822474954634904,0.0238531692743301,-0.1406780522346496,-0.0035868089180439,-0.0210844799876213,0.0720422863960266
1774472321164536000,15.5005361328125,0.9830570973813532,0.0215269182838499,0.4537146586030721,0.0651654750108718,0.1287233978509903,0.0837582200765609,-0.0070946344360709,-0.0449725296705961,-0.0665782122790813,-0.0070946344360709,-0.0449725296705961,-0.0665782122790813,-0.1271675594069063,0.0117097270160913,-0.125975573143363,-0.0042110541835427,-0.0147885009646415,0.0633851438760757
1774472321174563800,15.510563720703123,0.9874263985067604,0.0030244623877108,0.5592196906477213,0.1171003133058548,0.1753361672163009,0.0945999473333358,0.0010614917516708,-0.0304091667890548,-0.064696928577125,0.0010614917516708,-0.0304091667890548,-0.064696928577125,-0.0696017978839576,0.0201011232644319,-0.0891927796691656,-0.00117056700401,-0.0118703637272119,0.0488370805978775
1774472321184592100,15.520592041015624,0.5854584398843348,0.0781198892518878,0.702228816178441,0.1347133815288543,0.1938823610544204,0.056877139955759,0.0055703474782407,-0.0148053549438714,-0.0593102671027183,0.0055703474782407,-0.0148053549438714,-0.0593102671027183,-0.0493102666139602,-0.0105056119233369,-0.0583721094697713,0.0042012948542833,-0.0009721766691654,0.0403117686510086
1774472321194620000,15.530619873046875,0.2458173197068273,0.1241755379840731,0.8713958807945251,0.1326619535684585,0.1688691526651382,0.0139499101787805,0.0183349903747439,-0.0057838440984487,-0.0405941684558987,0.0183349903747439,-0.0057838440984487,-0.0405941684558987,-0.0811135181099176,-0.0186059162706136,-0.0412578930616378,0.0075694331899285,0.0054866983555257,0.0297749955207109
1774472321204648000,15.54064794921875,0.0019067104041576,0.2272982049368321,1.0846680445969104,0.1425899267196655,0.1623247563838958,0.0155190322548151,0.0311257906258106,-0.005813070192933,-0.0455810169577598,0.0311257906258106,-0.005813070192933,-0.0455810169577598,-0.1011101580865681,-0.0139186352372169,-0.0451426255404949,0.00443542515859,0.0055061387829482,0.0228883270174264
1774472321214676000,15.550676025390626,0.258679139367491,0.3334313057519495,1.3306839556157588,0.1684159338474273,0.225788414478302,0.0432547889649868,0.0266644273027777,-0.0123836807548999,-0.046343525762856,0.0266644273027777,-0.0123836807548999,-0.046343525762856,-0.0927449191927909,-0.0098404260128736,-0.0831774649024009,-0.0004898550687357,0.0097744595259428,0.0158530175685882
1774472321224704000,15.5607041015625,0.5150526321411133,0.3495828146077692,1.4444763390123845,0.231403186917305,0.3270391523838043,0.0692088454961776,0.0208554487630724,-0.0130757546722888,-0.0401633758231997,0.0208554487630724,-0.0130757546722888,-0.0401633758231997,-0.0948262555114924,-0.0184270525723695,-0.1126765311092138,-0.0046446528285741,0.0124346911907196,0.0084334518760442
1774472321234732000,15.57073193359375,0.6555284398019313,0.2829790294960141,1.343063544717431,0.3232923746109009,0.4199099838733673,0.0690253525972366,0.0297577171429991,-0.0208124864041805,-0.0500301053211092,0.0297577171429991,-0.0208124864041805,-0.0500301053211092,-0.1130329433314502,-0.0036550153762102,-0.0955015244245529,-0.0048768213018774,0.0139699866995215,0.0049121202901005
1774472321244759800,15.580759765625,0.5805664300590753,0.317285057593137,1.2413280943393707,0.461514949798584,0.4897304475307464,0.0650720372796058,-0.0008174538627266,-0.0069926353663206,-0.0750797909036278,-0.0008174538627266,-0.0069926353663206,-0.0750797909036278,-0.1177354219339787,-0.006477087059617,-0.0828740980416536,-0.0036461751442402,0.0102572748437523,0.0056785782799124
1774472321254787800,15.590787841796876,0.4681456272765993,0.2843558708071708,1.159444176378846,0.703432023525238,0.5774123668670654,0.0723336786031723,0.0096153850853443,-0.0103466219693422,-0.0669748103812337,0.0096153850853443,-0.0103466219693422,-0.0669748103812337,-0.1719878211252391,0.0007037643551826,-0.0799883134722709,0.0001121145905926,-0.002118261065334,0.0142049808055162
1774472321264815900,15.60081591796875,0.4004787429779767,0.0709225250937044,1.1572919667810202,0.9310818314552308,0.5765703320503235,0.0425195656716823,-0.0097822660848498,-0.0143856682270765,-0.0915609701052308,-0.0097822660848498,-0.0143856682270765,-0.0915609701052308,-0.2028478004217147,-0.0032569559693336,-0.0783487295717001,0.0018759262748062,-0.0097841694951057,0.0314095355570316
1774472321274844000,15.610843994140623,0.1069204518005251,-0.0772113961048424,1.217824469155073,1.0454113483428955,0.4888991117477417,-0.0016971654258668,-0.0316558058492839,-0.0065004679352045,-0.0763560944497585,-0.0316558058492839,-0.0065004679352045,-0.0763560944497585,-0.227872789954394,0.021171382844448,-0.0629442396908998,0.0041707130149006,-0.0172804202884435,0.0486376211047172
1774472321284872000,15.620871826171877,-0.2754271528117358,-0.0421243006326258,0.9142056794732808,0.9973881840705872,0.4145268201828003,-0.113581359386444,-0.0210759596459567,-0.0189735805392265,-0.0557610501885414,-0.0210759596459567,-0.0189735805392265,-0.0557610501885414,-0.2399753156803548,0.0397691158086061,-0.0649327831596136,0.0028724218718707,-0.0259498097002506,0.0583488382399082
1774472321294900000,15.63089990234375,-0.4074953437417745,0.0082686466515064,0.8720967225402593,0.5754726529121399,0.1386968195438385,-0.3985225558280945,-0.0249767664767801,-0.0137701666772365,-0.0281537890776991,-0.0249767664767801,-0.0137701666772365,-0.0281537890776991,-0.1665694493383169,0.0442705188810825,-0.0589215600460767,0.0049655721522867,-0.033640906214714,0.0578903146088123
1774472321304927700,15.640927734375,-0.8499097329124807,0.2987475303836167,1.0017828406393527,-0.0342951565980911,-0.192195639014244,-0.6124919652938843,-0.0386143928155303,-0.0093447514504194,-0.0059410804867744,-0.0386143928155303,-0.0093447514504194,-0.0059410804867744,-0.0832259802192449,0.0424421344101429,-0.0473708229839801,0.0043112337589263,-0.0447438918054103,0.0509602390229702
1774472321314956000,15.6509560546875,-1.2623378568813204,0.6191871064849197,0.8567045076191425,-0.5487736463546753,-0.0449675656855106,-0.6908701062202454,-0.0291992064774036,-0.0034796588093042,-0.0205643568620085,-0.0291992064774036,-0.0034796588093042,-0.0205643568620085,-0.038927258156985,0.0139262340217828,-0.0667833794623613,0.0023841173388063,-0.0516719780862331,0.0447958149015903
1774472321324983800,15.66098388671875,-0.4460229350566864,0.5579619456715882,1.0622288337737322,-1.0220736265182495,0.1521921902894973,-0.5854589939117432,-0.0101977150179445,-0.0081710314959287,-0.0504959692671895,-0.0101977150179445,-0.0081710314959287,-0.0504959692671895,-0.0231137490838766,0.0253594821840524,-0.0985030443280935,-0.002287866314873,-0.0539263449609279,0.042065542191267
1774472321335011800,15.67101171875,0.2446837856322526,0.8802550406850874,1.4757961909055708,-1.0171403884887695,0.4268884658813476,-0.1049944311380386,0.0003533434823155,-0.0261029940277338,-0.0114262338995933,0.0003533434823155,-0.0261029940277338,-0.0114262338995933,-0.01475216345191,0.0601110620915889,-0.0851882202029228,-0.0055313454940915,-0.0526606403291225,0.0331752263009548
1774472321345040000,15.681039794921874,2.2480251566357907,0.5684267871931195,-0.3324351343214511,-0.7890446782112122,0.6322423219680786,0.3083312213420868,0.009418108947575,-0.0482931985259056,-0.0150955700621008,0.009418108947575,-0.0482931985259056,-0.0150955700621008,-0.019562924734503,0.0705646515667438,-0.0488204372704029,-0.0066498727537691,-0.0459071323275566,0.0297304242849349
1774472321355068000,15.69106787109375,2.8343063110798594,0.0791053931578993,-2.442462709978223,-0.5628917217254639,0.6934484243392944,0.5671436190605164,0.0229725870475173,-0.0446609795033931,-0.037359716579318,0.0229725870475173,-0.0446609795033931,-0.037359716579318,-0.0342296018600463,0.0261748902201652,-0.028234160837531,-0.0052992217242717,-0.0360503792762756,0.0267621502280235
1774472321365096000,15.701095947265625,2.2953270060367883,-0.4472273424103856,-3.456795820111036,-0.3918380737304687,0.4500988721847534,0.530018150806427,0.0078382924102246,-0.0374006331115961,-0.0352341027274727,0.0078382924102246,-0.0374006331115961,-0.0352341027274727,-0.045948096704483,0.0119493809908628,-0.0031003041028976,-0.0007002085912972,-0.0241564363241195,0.0218584723770618
1774472321375124000,15.7111240234375,0.7350001820541918,-1.022803855227679,-4.162929242512584,-0.4007700383663177,0.1184857934713363,0.2280601859092712,0.0210579855978488,0.0007400047123432,-0.0356450216159224,0.0210579855978488,0.0007400047123432,-0.0356450216159224,-0.0561474191576242,0.0137771809399127,-0.0065846390873193,-0.0048172026872634,-0.0005782337393611,0.0151101369410753
1774472321385151700,15.72115185546875,-1.374143011983484,-1.512619316390157,-4.271889967969059,-0.2676015198230743,0.0277601461857557,-0.0783570855855941,0.0344508433952927,0.0105003512263298,-0.0654544689461588,0.0344508433952927,0.0105003512263298,-0.0654544689461588,-0.0848573808133602,-0.0031575872480869,-0.0225368259787559,-0.011245540343225,0.0174982398748397,0.0077345119789242
1774472321395180000,15.731179931640623,-2.196696682067216,-1.6008764226444063,-3.8866310059547424,-0.0127111775800585,0.1362123191356659,-0.2157959043979644,0.0438651529505848,0.0182680626183748,-0.0725929425239562,0.0438651529505848,0.0182680626183748,-0.0725929425239562,-0.1234919396340847,-0.0225631294637918,-0.0455295790314674,-0.01368601154536,0.0279884301126003,0.0016440404579043
1774472321405207000,15.74120703125,-1.1780465855181217,-1.347160020250827,-2.5830320411413905,0.033838115632534,0.1389404088258743,-0.2024514377117157,0.0236231599107384,-0.0164805946797132,-0.0790226833105087,0.0236231599107384,-0.0164805946797132,-0.0790226833105087,-0.0982439550004899,-0.0039893618971109,-0.0241997907549142,-0.0131025128066539,0.0268994644284248,-0.0071744844317436
1774472321415234800,15.75123486328125,0.04727788400352,-0.9718642338462172,-0.9802350256979464,-0.0360395014286041,0.0517876669764518,-0.1652212440967559,0.0201144211374223,-0.0619622429162263,-0.069816463547945,0.0201144211374223,-0.0619622429162263,-0.069816463547945,-0.0905311886660754,0.0210392808973789,0.0139098674088716,-0.0056190807372331,0.021533727645874,-0.0136930160224437
1774472321425262800,15.761262939453124,0.4482531783267855,-0.4082414859339595,0.2912999908566475,-0.0684725791215896,-0.0356740355491638,-0.1101272776722908,0.0199193369567394,-0.0770943455964326,-0.0548430585607886,0.0199193369567394,-0.0770943455964326,-0.0548430585607886,-0.0990846436083316,0.0100882632941007,0.0341565366238355,0.0063579538837075,-0.0007068645209074,-0.0150589514523744
1774472321435291000,15.771290771484376,0.5711594270274043,-0.3059226827099919,0.7636608977407217,-0.0686656609177589,-0.0878525450825691,-0.0266979001462459,0.0221817289307713,-0.0801642545610666,-0.0302203662186861,0.0221817289307713,-0.0801642545610666,-0.0302203662186861,-0.1328957277953624,-0.0264104525417089,0.0145393974840641,0.006984956562519,-0.0222961567342281,-0.0053366222418844
1774472321445319000,15.78131884765625,0.6917708427891135,-0.3796791160553693,0.5956266365468502,-0.0447906404733657,-0.0500400960445404,0.0428783521056175,0.0114740185640752,-0.0805278271764516,-0.0306543737217783,0.0114740185640752,-0.0805278271764516,-0.0306543737217783,-0.1866699880808591,-0.0319751009315252,-0.0174012166559696,0.0028400127775967,-0.0362271517515182,0.0095123648643493
1774472321455347500,15.791347412109374,0.6222320271387696,-0.4480252147898078,0.3856722189903259,-0.0239833630621433,0.0246234871447086,0.049812689423561,0.0232756616473197,-0.0639618923008441,-0.0424748676359653,0.0232756616473197,-0.0639618923008441,-0.0424748676359653,-0.240938169363141,-0.0078021981835365,-0.0392746102899312,0.0007074794266372,-0.0464454852044582,0.0288677457720041
1774472321465375500,15.80137548828125,0.3931684199646115,-0.4113695548266172,0.2761725643515587,-0.0214533414691686,0.0573474653065204,0.0008130557835102,0.0148490479551255,-0.0312198986500501,-0.0415381713077425,0.0148490479551255,-0.0312198986500501,-0.0415381713077425,-0.2468738430224359,-0.0140776251912116,-0.0435176546871662,-0.0009814972290769,-0.0422315634787082,0.0448373928666114
1774472321475403500,15.811403564453125,0.0454366400510072,-0.2899390777669847,0.3740384798198938,-0.0605674535036087,0.0368365943431854,-0.0860723108053207,0.0018342296898365,-0.0145130939990282,-0.0575765751779079,0.0018342296898365,-0.0145130939990282,-0.0575765751779079,-0.1995195327818393,-0.0234632931739091,-0.0131646019995212,-0.0002375203184783,-0.0395291075110435,0.0480069145560264
1774472321485431600,15.821431640625,-0.2076642607927322,-0.1476034675836563,0.5659580589920282,-0.1481795459985733,-0.0006479071453213,-0.1930664479732513,-0.0086883333683013,0.0024316110610961,-0.0568020836740732,-0.0086883333683013,0.0024316110610961,-0.0568020836740732,-0.078169865873456,-0.0196416890591382,0.0430471145659685,0.008246511220932,-0.0363519564270973,0.0357694216072559
1774472321495459600,15.83145947265625,-0.2533715344786644,0.0856954390726983,0.7353291217476129,-0.2729643583297729,-0.0227409601211547,-0.3282471597194671,-0.0060495092973113,0.0059931029349565,-0.0645487522780895,-0.0060495092973113,0.0059931029349565,-0.0645487522780895,-0.0032714228861033,-0.0313479089438915,0.0754091689884662,0.022496473044157,-0.0271619819104671,0.0267961248755455
1774472321505487400,15.8414873046875,-0.2977307545565068,0.2934650599360466,0.923189196395874,-0.4351197481155395,-0.0141008868813514,-0.4574858248233795,-0.0020611703135073,-0.0066033437877893,-0.0742208359867334,-0.0020611703135073,-0.0066033437877893,-0.0742208359867334,0.0038595980376005,-0.0634171178996562,0.0477232896834611,0.0282265301793813,-0.0197525359690189,0.0153439994901418
1774472321515515600,15.851515625,-0.3450155066922307,0.3927757673852145,1.2414216178417206,-0.6387146711349487,0.046994425356388,-0.5501992106437683,-0.0103051209151744,-0.0019429507613182,-0.0698176325917244,-0.0103051209151744,-0.0019429507613182,-0.0698176325917244,-0.0038385552495718,-0.0676397040307521,-0.0397924966841936,0.0257576461881399,-0.0096514988690614,-0.0007502352818846
1774472321525543400,15.86154345703125,-0.2426606092415749,0.5356187425687908,1.6574240931659936,-0.8678584098815918,0.1290920823812484,-0.612783670425415,-0.0137982237279415,-0.0025602058768272,-0.0555476996988058,-0.0137982237279415,-0.0025602058768272,-0.0555476996988058,-0.0218488437145948,-0.0398895273178815,-0.1490676949173212,0.0169598944485187,0.0010208529420197,-0.0134580414742231
1774472321535571500,15.871571533203126,-0.0054074120014905,0.4744844749093055,2.092038914501667,-1.0403622388839722,0.164803460240364,-0.5552167892456055,-0.0273734523549675,-0.0028156419426202,-0.0620054975360631,-0.0273734523549675,-0.0028156419426202,-0.0620054975360631,-0.0743430010616779,-0.0494236638605594,-0.2555161452919244,0.0090509429574012,0.006324945949018,-0.0125494543462991
1774472321545599500,15.881599609375,0.3726712831199169,0.2112485490202903,2.1103227592110634,-1.0954997539520264,0.1545894145965576,-0.3970944285392761,-0.0321102716185152,-0.0267968215107917,-0.0452545614823699,-0.0321102716185152,-0.0267968215107917,-0.0452545614823699,-0.1785895574778318,-0.0512368507623672,-0.3215507522135973,-0.0095243398100137,-0.001686108764261,-0.0091395433992147
1774472321555627500,15.89162744140625,1.131434471946955,-0.0713338823735714,1.6427397342532872,-1.053598403930664,0.1486865133047104,-0.1911463141441345,-0.0400001480855047,-0.0185217451184988,-0.0422971729815006,-0.0400001480855047,-0.0185217451184988,-0.0422971729815006,-0.1826024463810026,-0.0377525152891874,-0.4130944789230823,-0.0287155751138925,-0.0122301913797855,-0.0023963926360011
1774472321565655600,15.901655517578124,1.743213494132459,-0.2389455342411995,0.8773685254633427,-0.9554964303970336,0.1854171752929687,0.0184710808098316,-0.0362915028259158,-0.0068652095943689,-0.0710480511695146,-0.0362915028259158,-0.0068652095943689,-0.0710480511695146,-0.193846747842431,-0.0010696750581264,-0.422770654284954,-0.0429086275398731,-0.0212039798498153,0.016580494120717
1774472321575683600,15.91168359375,2.02012840128392,-0.2674617268905043,-0.1958656864494085,-0.8181310892105103,0.2861627042293548,0.1761749684810638,-0.001092763672769,-0.0021551322072744,-0.0949228477537632,-0.001092763672769,-0.0021551322072744,-0.0949228477537632,-0.205135619097948,0.0385521412342786,-0.3703536538273095,-0.0510599724948406,-0.0323202721774578,0.0225035436451435
1774472321585711400,15.92171142578125,1.858524757659436,-0.3364616133585572,-1.3418921628504992,-0.7336055040359497,0.3962254226207733,0.1789811253547668,0.0056743923746049,-0.0062567223072052,-0.0862728005692362,0.0056743923746049,-0.0062567223072052,-0.0862728005692362,-0.1366997962534427,0.047279637569189,-0.2610036367923021,-0.0501883216202259,-0.0466054677963256,0.0220808982849121
1774472321595739600,15.93173974609375,0.9351967373147606,-0.3599868658527732,-1.901755996620655,-0.6664397716522217,0.4279197156429291,0.0814918577671051,0.0140314479619264,0.0023673136532306,-0.058641281799972,0.0140314479619264,0.0023673136532306,-0.058641281799972,-0.0428786261312663,0.0246036953806877,-0.1725947009772062,-0.0433007106184959,-0.0398583225905895,0.0138282272964715
1774472321605767400,15.941767333984377,-0.3687453418478369,-0.4077607166796922,-1.6301298435270786,-0.5510305166244507,0.2787989974021911,-0.047715563327074,-0.0015849311038851,0.0037111294776201,-0.0383794150158762,-0.0015849311038851,0.0037111294776201,-0.0383794150158762,-0.0052308863908052,0.0383534037917852,-0.0889800137013197,-0.0387003645300865,-0.0297500304877758,-0.0009927968494594
1774472321615795700,15.951795654296877,-1.2120678053244949,-0.5834674121975898,-1.330816057562828,-0.3737409710884094,0.0006829695776104,-0.1485431045293808,-0.0334448812231421,0.0042991584986448,-0.0194113874346017,-0.0334448812231421,0.0042991584986448,-0.0194113874346017,0.0123579617917537,0.0214075296878814,-0.0325415026426315,-0.0334258750081062,-0.0208794306963682,-0.016434421762824
1774472321625823500,15.961823486328123,-1.294897771963477,-0.4943821845561266,-1.6890175013035535,-0.1335463970899582,-0.1634557545185089,-0.2064846605062484,-0.0243899064995348,-0.0142003747880458,-0.0236672913134098,-0.0243899064995348,-0.0142003747880458,-0.0236672913134098,0.0278939690977334,0.0338654447227716,-0.0317494754821062,-0.0336626283824443,-0.0122603774070739,-0.0267754755914211
1774472321635851500,15.9718515625,-0.6068298753455281,-0.4652312011346221,-2.2459125483959914,0.0797267332673072,-0.1382302939891815,-0.2072652280330658,-0.0350515857674181,-0.0479804793149232,-0.0312447408303618,-0.0350515857674181,-0.0479804793149232,-0.0312447408303618,0.0041496670253574,0.0606768792808055,-0.0675707304477691,-0.0374732166528701,-0.0036408382002264,-0.036601684987545
1774472321645879600,15.981879638671876,0.2191647289723158,-0.5003200501725077,-2.4272709860652686,0.1126186028122901,0.0400951765477657,-0.2005747258663177,-0.0147580086708068,-0.037546179062128,-0.030300737978518,-0.0147580086708068,-0.037546179062128,-0.030300737978518,-0.0251794494420289,0.0866729058027267,-0.0923024361222982,-0.0483085550367832,0.0057039279490709,-0.0474652498960495
1774472321655906600,15.991906494140624,0.7900979460284113,-0.2970554856434464,-1.2865870397359132,0.0388825982809066,0.0601860657334327,-0.2076464891433715,-0.0411772290408611,-0.0444324314445257,-0.0463633995071053,-0.0411772290408611,-0.0444324314445257,-0.0463633995071053,-0.0892963861741125,0.0954477484107017,-0.1060778634965419,-0.0571304522454738,0.0178684964776039,-0.0486396700143814
1774472321665934600,16.0019345703125,0.702066611354053,0.2481064535573124,0.2551666012018919,-0.0092298267409205,0.0361724346876144,-0.1487672626972198,-0.0412954485930502,-0.0340098216295242,-0.0495478747621178,-0.0412954485930502,-0.0340098216295242,-0.0495478747621178,-0.1630646560877561,0.0652782355964183,-0.1109492689251899,-0.0643209815025329,0.0273781139403581,-0.042519461363554
1774472321675962400,16.01196240234375,0.5831809964716435,0.3777817580014467,0.4379086021840572,-0.0283228270709514,0.0037979818880558,-0.1349563896656036,-0.0250211901403963,-0.033711715465784,-0.066261693675816,-0.0250211901403963,-0.033711715465784,-0.066261693675816,-0.2052924170948565,0.0725368284225463,-0.0665361267030239,-0.0661819130182266,0.0288014821708202,-0.0373284891247749
1774472321685990700,16.02199072265625,0.4852525371611118,0.1815942922517657,0.3475853571802377,-0.0469172410666942,0.0084625836461782,-0.171694278717041,-0.0285565246596932,-0.0322211846470832,-0.0784954445660114,-0.0285565246596932,-0.0322211846470832,-0.0784954445660114,-0.2011158620625734,0.0581780482023954,-0.0183171624571084,-0.06248065456748,0.0293927043676376,-0.0350006222724914
1774472321696018400,16.032018310546874,0.3442094510063528,-0.0566132831037044,0.1892600045740604,-0.0784826278686523,-0.0089339837431907,-0.285190999507904,-0.0057756607919931,-0.0429927540302276,-0.0665846420198679,-0.0057756607919931,-0.0429927540302276,-0.0665846420198679,-0.1874310355812311,0.03232055336833,0.0289548763275146,-0.0560150742530822,0.027633799239993,-0.0333611965179443
1774472321706046500,16.04204638671875,-0.25457331148386,-0.0524278141126036,0.5766033716470003,-0.0901378318667411,-0.0686586499214172,-0.3631058037281036,-0.0145722768403589,-0.0330091201543807,-0.0492038836300373,-0.0145722768403589,-0.0330091201543807,-0.0492038836300373,-0.2026741974204778,0.003306640329957,0.0631090748637914,-0.0471339635550975,0.0268763955682516,-0.0305904448032379
1774472321716074500,16.052074462890626,-0.5039905553787947,-0.3022404870659113,0.6245423499077558,-0.1139137297868728,-0.1108124926686286,-0.4055518209934234,-0.0155766315773129,-0.0299924026817083,-0.0404831092968583,-0.0155766315773129,-0.0299924026817083,-0.0404831092968583,-0.2017057907797396,-0.0031762919485569,0.068994041249156,-0.0379556231200695,0.0239914469420909,-0.0275686886161565
1774472321726102500,16.0621025390625,-0.4053612543225288,-0.3908282865792513,0.6711345897346734,-0.1141938790678978,-0.1181776225566864,-0.3516583442687988,-0.0008607084825634,-0.0382803385555744,-0.0416255573302507,-0.0008607084825634,-0.0382803385555744,-0.0416255573302507,-0.2145322468660771,0.0025578677892684,0.0588549245506525,-0.027127206325531,0.0213535856455564,-0.0272576343268156
1774472321736130600,16.072130615234375,0.1690852315515279,-0.2979661707475781,0.42755262786448,-0.0925857871770858,-0.1116251796483993,-0.2358316034078598,0.000641512773931,-0.0286953486084938,-0.0346191856995224,0.000641512773931,-0.0286953486084938,-0.0346191856995224,-0.2132657340615987,0.0184258835285902,0.0533113189488649,-0.0216758642345666,0.0146690234541893,-0.0270120240747928
1774472321746158600,16.08215869140625,0.7621212670832872,-0.1157753739073872,0.0024345336705446,-0.0660386458039283,-0.06800427287817,-0.090477243065834,-0.0155766315773129,-0.0206745392382144,-0.0349845118805766,-0.0155766315773129,-0.0206745392382144,-0.0349845118805766,-0.2312315988630056,0.0185690913915634,0.0551794509083032,-0.0174600798636674,0.0105437878519296,-0.0208215042948722
1774472321756186400,16.092186279296875,1.2223594822362065,-0.0072784665703773,-0.3768056064456701,-0.0409255661070346,-0.0148411877453327,0.0265319366008043,-0.0049641982786357,-0.0256827227890491,-0.0427954778924584,-0.0049641982786357,-0.0256827227890491,-0.0427954778924584,-0.2499725396901368,0.016982698982954,0.041880408874154,-0.0089806569740176,-0.0031640981324017,-0.0126512330025434
1774472321766214700,16.102214599609376,1.259809507447481,0.0605208119362592,-0.6498790357381105,-0.0265131723135709,0.0248468294739723,0.0806328430771827,-0.0156944127380847,-0.0260842893272638,-0.0397384284093976,-0.0156944127380847,-0.0260842893272638,-0.0397384284093976,-0.2434739714510738,0.0375432564526796,0.0374649305194616,-0.0094227408990263,-0.0164607297629117,-0.0085664764046669
1774472321776242400,16.112242431640624,0.904917626646161,0.1236278409734368,-0.6470926198899746,-0.0260367337614297,0.0338824018836021,0.0661750733852386,-0.0187350956082344,-0.0145253689587116,-0.0481657727539539,-0.0187350956082344,-0.0145253689587116,-0.0481657727539539,-0.2309321775250136,0.0488502478867769,0.0007306523621082,-0.0069372132420539,-0.0156580526381731,-0.0007434412837028
1774472321786270700,16.122270751953124,0.3486439263224601,0.1976350342094898,-0.4311082745194435,-0.0271752718836069,0.0197417959570884,0.0312166027724742,-0.0022726211071014,-0.0194283385694026,-0.042499709816277,-0.0022726211071014,-0.0194283385694026,-0.042499709816277,-0.226312847161293,0.0672030661791562,-0.0273608851343393,-0.0105061149224638,-0.0048323022201657,0.0049836868420243
1774472321796298500,16.132298583984376,-0.1662459164723753,0.3141255706489086,-0.2001256819814443,-0.0137872947379946,-0.016178123652935,-0.003382118884474,-0.0206742469772696,-0.0105178868830204,-0.0585524344727396,-0.0206742469772696,-0.0105178868830204,-0.0585524344727396,-0.2277930027164518,0.0713537561178207,-0.015574585750699,-0.0166587941348552,0.0148389479145407,0.0109580960124731
1774472321806326500,16.142326416015624,-0.3647884209156036,0.2809527843654155,-0.0893599529296159,-0.0016025340883061,-0.0232570730149745,-0.0278453845530748,-0.0188461547672748,-0.0217547356903552,-0.0557128271326422,-0.0188461547672748,-0.0217547356903552,-0.0557128271326422,-0.1936990099348127,0.0900216317087411,-0.0211678757131099,-0.0180604159832,0.0256116986274719,0.0098907016217708
1774472321816354600,16.1523544921875,-0.2239209835886955,0.1542819224342703,-0.0453320106327533,0.0046289963647723,-0.0021360740065574,-0.0595082379877567,-0.0088204353153705,-0.0276999078303575,-0.0776096016421914,-0.0088204353153705,-0.0276999078303575,-0.0776096016421914,-0.1111379233650863,0.1208691899150609,0.025054361757636,-0.0114278858527541,0.027292875573039,0.0065832696855068
1774472321826382600,16.162382568359376,0.0524456420302391,0.0986143957480788,0.0187999775379896,0.0099331550300121,0.039242897182703,-0.0934787467122078,-0.0154255326688289,-0.0272071558773517,-0.0631643121823668,-0.0154255326688289,-0.0272071558773517,-0.0631643121823668,-0.0565904867500066,0.0960538976103067,0.0387087931007146,-0.0037230947054922,0.0259399879723787,0.0021656181197613
1774472321836410600,16.17241064453125,0.2394862169891595,-0.0386640771761536,0.0091723174929618,0.0207208208739757,0.0811341553926467,-0.1280079483985901,-0.0159600779369473,-0.0373603011012077,-0.0640597997173667,-0.0159600779369473,-0.0373603011012077,-0.0640597997173667,-0.0185918877452611,0.0738864894658327,0.071813774845004,0.0068969852291047,0.0230864640325307,-0.0093415137380361
1774472321846438700,16.182438720703125,0.3408163014367222,-0.1747068708255887,0.021061492729187,0.0413532368838787,0.0985483229160308,-0.1389246582984924,-0.032014556159079,-0.0280482828766107,-0.0544157730594277,-0.032014556159079,-0.0280482828766107,-0.0544157730594277,-0.0248505097486078,0.0492576596438884,0.029847441253066,0.0158547945320606,0.0200645755976438,-0.0179765485227108
1774472321856466400,16.192466552734373,0.3782376850754022,-0.2855208229333162,0.0570183567732572,0.0571058355271816,0.0659320577979087,-0.088085725903511,-0.026011224091053,-0.0541623828202486,-0.0606052753493189,-0.026011224091053,-0.0541623828202486,-0.0606052753493189,-0.0716008627466857,0.0084872578382492,-0.0325917715251445,0.0149366008117794,0.0147390160709619,-0.022408690303564
1774472321866494500,16.202494384765625,0.3734522043645382,-0.3380257939353585,0.1147065756320953,0.0630514472723007,0.0047225104644894,0.0007827710360288,-0.0206891522854566,-0.0404056601464748,-0.0488689525872468,-0.0206891522854566,-0.0404056601464748,-0.0488689525872468,-0.1258960781663656,-0.0119125561118125,-0.140386375811696,0.0037952666170895,0.0090813972055912,-0.0142785925418138
1774472321876522500,16.2125224609375,0.3404030444607138,-0.2297004437729716,0.23038404212296,0.0449938811361789,-0.0400473587214946,0.0773129612207412,-0.014009820652008,-0.0451993241637945,-0.049556934851408,-0.014009820652008,-0.0451993241637945,-0.049556934851408,-0.1808838058948516,0.0080441902458667,-0.2263181078583002,-0.0110084619373083,0.0004097828641533,-0.0045057414099574
1774472321886549500,16.222549560546874,0.264601369023323,-0.0863499574586749,0.2233253557831049,0.0255855787545442,-0.0549572184681892,0.0968990623950958,-0.0044198622688651,-0.0475473485946655,-0.0261503403007984,-0.0044198622688651,-0.0475473485946655,-0.0261503403007984,-0.2110901435881852,0.0266460148632526,-0.2813181105464696,-0.0201388429850339,0.0025682747364044,0.0073626358062028
1774472321896577500,16.23257763671875,0.1356546711146831,-0.0025341946527361,0.133989368250966,0.0168362949043512,-0.0537934191524982,0.073722630739212,0.0018333529070019,-0.039901802277565,-0.0363733358904719,0.0018333529070019,-0.039901802277565,-0.0363733358904719,-0.209607065423578,0.0433066422849893,-0.2238373969584703,-0.0281006973236799,0.006789416540414,0.0157959107309579
1774472321906605600,16.24260546875,0.0036041619718074,-0.0020148469537496,-0.0854126766085624,0.0126515189185738,-0.0434612929821014,0.0326063781976699,0.0021644845575094,-0.0252466694593429,-0.0343912221625447,0.0021644845575094,-0.0252466694593429,-0.0343912221625447,-0.1825080460958182,0.0152431618392467,-0.1661883410662412,-0.0306003391742706,0.0088144838809967,0.0105414949357509
1774472321916633600,16.252633544921874,-0.0281903216958045,0.0110983171194791,-0.2086579480051994,0.0177741087973117,-0.0255605895072221,-0.0132290190085768,-0.0040352468654513,-0.0201332719683647,-0.0358203781828284,-0.0040352468654513,-0.0201332719683647,-0.0358203781828284,-0.0928260216049849,0.0020440730482339,-0.102978143915534,-0.0248415041714906,0.0033987802453339,0.0024299239739775
1774472321926661400,16.262661376953126,0.0870110517159104,0.0297533332288265,-0.2965320462912321,0.0217920038849115,0.0071096224710345,-0.0223787128925323,0.0118329150043427,-0.0088864862889051,-0.036753567379713,0.0118329150043427,-0.0088864862889051,-0.036753567379713,-0.0325192908108234,0.0241565361350774,-0.0496475357443094,-0.0161180533468723,-0.0068013933487236,-0.0078544057905673
1774472321936689700,16.272689697265626,0.2953215014576911,0.0647942514717578,-0.2889893758267164,0.0180119145661592,0.0367183797061443,0.0022736359387636,0.0073494859799742,-0.001428571498394,-0.0233887666329741,0.0073494859799742,-0.001428571498394,-0.0233887666329741,-0.0221035491280257,0.026727263405919,-0.0268593653529882,-0.0113668050616979,-0.0205621086061,-0.0123185906559228
1774472321946717400,16.282717529296875,0.3929787426114082,0.1735787435784936,-0.0976285995811224,0.0156589243561029,0.0491005852818489,0.0290312077850103,0.0070884969562292,-0.0085357731550931,-0.0163537534296512,0.0070884969562292,-0.0085357731550931,-0.0163537534296512,-0.0427494467936456,0.019300912797451,-0.0625157851457595,-0.0167008489370346,-0.0264780558645725,-0.0167652703821659
1774472321956745700,16.292745849609375,0.3393140801802277,0.2386485971212387,-0.0075175360232591,0.028945168480277,0.0424189791083335,0.0401208773255348,0.0035822424009442,-0.0120785603284835,-0.0076037530019879,0.0035822424009442,-0.0120785603284835,-0.0076037530019879,-0.0669205959759652,0.0457762472689151,-0.0663268678665161,-0.0223290491849184,-0.0231787115335464,-0.0153358932584524
1774472321966773500,16.3027734375,0.2215656526342034,0.1974403884202241,-0.1325759943217039,0.0314805470407009,0.0437990650534629,0.039627868682146,0.0006264613352715,-0.0413823962241411,-0.0071349664464592,0.0006264613352715,-0.0413823962241411,-0.0071349664464592,-0.0830517926961183,0.0859042595177888,-0.0522884056419134,-0.0301417000591754,-0.0175794176757335,-0.01358806155622
1774472321976801500,16.312801513671875,0.0854828192353248,0.1344745214194059,-0.059790159574151,0.0240484625101089,0.0399308204650878,0.014296680688858,-0.0080912442579865,-0.0466647205412387,-0.0091144498258829,-0.0080912442579865,-0.0466647205412387,-0.0091144498258829,-0.0996907928079366,0.0572311227411031,-0.0141875153064727,-0.0282263811677694,-0.003369643818587,-0.0124675333499908
1774472321986829600,16.32282958984375,-0.0732651426970958,0.1205193535640835,0.2162923884063959,0.0354938320815563,-0.0089338216930627,-0.0122052738443017,-0.0112862409070134,-0.0371112947762012,-0.0465370025083422,-0.0112862409070134,-0.0371112947762012,-0.0465370025083422,-0.0827132083915174,0.0546311693757772,0.0385895506352186,-0.021710691973567,0.0043380768038332,-0.0177597664296627
1774472321996857600,16.332857666015624,-0.1812836188673973,0.0337102541610598,0.0782335787594318,0.0598095580935478,-0.0401817560195922,-0.0283275190740823,-0.0121007721602916,-0.0404746337294578,-0.0308928586527705,-0.0121007721602916,-0.0404746337294578,-0.0308928586527705,-0.0625198767989873,0.0435854592263698,0.079432433155179,-0.0157480519264936,0.0109558068215847,-0.0226421076804399
1774472322006885600,16.3428857421875,-0.1224479835391044,-0.2401622165545821,0.0422428124457597,0.087751880288124,-0.0492814630270004,-0.0275905672460794,-0.022411738294363,-0.0328980609953403,-0.0209334824353456,-0.022411738294363,-0.0328980609953403,-0.0209334824353456,-0.076966919824481,-0.0101858784496784,0.0404085827559232,-0.0151187479496002,0.0116168018430471,-0.027228070423007
1774472322016913700,16.35291357421875,-0.0587488338276743,-0.4467635242909192,0.2454845806211233,0.0971520394086837,-0.0247803777456283,-0.0057854033075273,-0.0182465814389288,-0.0379296254217624,-0.0312602306604385,-0.0182465814389288,-0.0379296254217624,-0.0312602306604385,-0.1172853400789201,-0.0222276138991117,0.0054454059243202,-0.0153055014088749,0.0130506847053766,-0.0227293502539396
1774472322026941400,16.36294140625,0.1411731422752142,-0.8445531743153929,0.6293553031474352,0.0715667828917503,-0.0659909844398498,0.0204361416399478,-0.0397086177930235,-0.0183756146460771,-0.0241007142946124,-0.0397086177930235,-0.0183756146460771,-0.0241007142946124,-0.1561262351267039,-0.0159726451575756,-0.0096340897858142,-0.0142735261470079,0.0148192886263132,-0.0195905491709709
1774472322036969500,16.372969482421876,0.2533934540495276,-0.330298122292757,0.5637561650335788,0.0522295720875263,-0.100008875131607,0.0687975510954856,-0.0492068062394857,-0.0203957222968339,-0.001629939289391,-0.0492068062394857,-0.0203957222968339,-0.001629939289391,-0.1701987457513809,0.0209206229537725,-0.0069920508444309,-0.0156519562005996,0.0077441460452973,-0.0236866176128387
1774472322046997500,16.38299755859375,0.410071916231513,-0.3514054999902844,0.4217494945436716,0.0364986322820186,-0.1351789087057113,0.0859796777367591,-0.0154806238569319,-0.0204185186505317,-0.03359802595824,-0.0154806238569319,-0.0204185186505317,-0.03359802595824,-0.1570575246274471,-0.0172200148701667,-0.0514122073292732,-0.018784899264574,0.0015203389339148,-0.0208492837846279
1774472322057025500,16.393025634765625,0.3056839055180549,-0.0602779430910944,0.4998883807569741,0.022511975839734,-0.1743169873952865,0.0705226957798004,-0.0282746389783918,-0.01516249781847,-0.0475493944212794,-0.0282746389783918,-0.01516249781847,-0.0475493944212794,-0.1807142945468425,-0.0112099608004093,-0.0854547621846198,-0.0226096995174884,-0.0022807302884757,-0.0154629107564687
1774472322067053600,16.403053466796877,0.2635316939651966,0.0415513230502605,0.4410942464828491,0.0282486230134964,-0.1679941564798355,0.0303708836436271,-0.0429877855941653,-0.0104389764279127,0.0059866731941699,-0.0429877855941653,-0.0104389764279127,0.0059866731941699,-0.1974064861506223,0.0347135859847068,-0.0608709405481815,-0.018500443547964,-0.004690358415246,-0.0117528606206178
1774472322077081300,16.413081298828125,0.3245589941188693,-0.0561547256812453,0.2717933263540267,0.0396964848041534,-0.1531105488538742,0.0136824510991573,-0.0235784439861774,0.0013028992921113,0.0050713119149208,-0.0235784439861774,0.0013028992921113,0.0050713119149208,-0.2190209365874528,0.0223088624417781,-0.0355634808123111,-0.0200020018965005,-0.009888551197946,-0.0027432772330939
1774472322087109600,16.423109619140625,0.3248042010515928,-0.0383075188234448,0.1095084224671125,0.0445629097521305,-0.1290762573480606,0.0312395393848419,-0.0329589974023401,-0.0078378540188074,-0.0103714641496539,-0.0329589974023401,-0.0078378540188074,-0.0103714641496539,-0.2058130799680948,0.0066156187474727,-0.0154015672713518,-0.0169412307441234,-0.0174418091773986,0.0065330453217029
1774472322097137400,16.433137451171874,0.3290247413560748,-0.0596121726587414,-0.0395931747198104,0.0566169098019599,-0.0835873410105705,0.0430181659758091,-0.0097350659422576,-0.017198972082138,-0.0188005620598793,-0.0097350659422576,-0.017198972082138,-0.0188005620598793,-0.1976679135657846,0.0207750770032405,0.0054226095706224,-0.0112092932686209,-0.0280900951474905,0.0140236038714647
1774472322107164700,16.44316455078125,0.3779936471864581,-0.0797714558511972,-0.1573638140976428,0.0709666609764099,-0.0312479920685291,0.0509814545512199,-0.0063506842009723,-0.0317681801825761,-0.0281605110794305,-0.0063506842009723,-0.0317681801825761,-0.0281605110794305,-0.1777799946606159,0.0476987397640943,0.0440694433510303,-0.0028925072401762,-0.044478390365839,0.0143764726817607
1774472322117192400,16.4531923828125,0.3841954244360328,-0.0054202714830636,-0.3500613919049501,0.070464126765728,-0.0027138218283653,0.04373100399971,-0.0194730544939637,-0.0565957474470138,-0.0469628267049789,-0.0194730544939637,-0.0565957474470138,-0.0469628267049789,-0.1545493411988019,0.0838765530824661,0.0546060349345207,-0.0003848961787298,-0.0485602915287017,0.021702155470848
1774472322127220700,16.463220703125,0.1760316896885633,0.1154673308715224,-0.4089093021929263,0.0618276298046112,0.0106886178255081,0.0430287718772888,-0.0091015903443098,-0.0764355894267559,-0.0550257216513156,-0.0091015903443098,-0.0764355894267559,-0.0550257216513156,-0.1579179408490657,0.0797030667901039,0.0704027390033006,0.0058927070349454,-0.0383547917008399,0.0178648065775632
1774472322137248500,16.47324853515625,0.0550672227054834,0.1974246063292026,-0.4767155949622392,0.0426872260868549,0.0219897404313087,0.0376752875745296,-0.0207785841345787,-0.076205872324109,-0.0500526094138622,-0.0207785841345787,-0.076205872324109,-0.0500526094138622,-0.1560007090508937,0.082270871451497,0.0832856014519929,0.0065186531282961,-0.015163579955697,0.0133962053805589
1774472322147276500,16.483276611328126,0.0767334033295512,0.1603565661728382,-0.460529599314928,0.0231589060276746,0.0410119220614433,0.023811001330614,-0.0190298407711088,-0.0568044217616319,-0.0465551226869225,-0.0190298407711088,-0.0568044217616319,-0.0465551226869225,-0.1591337463796138,0.0918149448662996,0.0657230567544698,0.0051471251063048,0.0066578299738466,0.0043094996362924
1774472322157304600,16.4933046875,0.1282125384151935,-0.0484530652627348,-0.4130529778689146,0.0180142112076282,0.0487151145935058,-0.0031785373575985,0.0031678163811564,-0.0368611194074153,-0.0358630482807755,0.0031678163811564,-0.0368611194074153,-0.0358630482807755,-0.1462428467549383,0.0916243907302618,0.0424310284942388,0.0073869903571903,0.0192061401903629,-0.0041066906414926
1774472322167332600,16.50333251953125,0.1188271626934409,-0.3027083968386054,-0.4068903635859489,0.0193741712719202,0.0525914840400218,-0.0378933921456337,0.0167231712639331,-0.0027688801914453,-0.0175315650373697,0.0167231712639331,-0.0027688801914453,-0.0175315650373697,-0.148565444483608,0.0702823274940252,0.0169710085451602,0.0066804536618292,0.0162324532866477,-0.005148519296199
1774472322177360600,16.513360595703126,0.0412695834994316,-0.4797735212281346,-0.3456669563382863,0.020495094358921,0.0513882674276828,-0.0743536651134491,0.0011538462102413,0.0359668009161949,-0.0382259780198335,0.0011538462102413,0.0359668009161949,-0.0382259780198335,-0.1576798943094909,0.0382370839357376,-0.0415080684304237,0.004552402999252,0.0047817225567996,-0.0019912999123334
1774472322187388400,16.523388427734375,0.0238230663970112,-0.4676785942867398,-0.1843646337479353,0.0180770400911569,0.0438860990107059,-0.1027720496058464,0.0161903795614838,0.0329927535414695,-0.0211044550880789,0.0161903795614838,0.0329927535414695,-0.0211044550880789,-0.1544609322629868,0.0254676187336444,-0.0927326442331075,0.0026245408225804,-0.003604038618505,0.0096096964552998
1774472322197416400,16.53341650390625,0.1149114505544304,-0.429182567153871,-0.0403998149275779,0.019878402352333,0.0468592531979084,-0.1132132411003112,-0.0035059622943401,0.0219675016582012,-0.0208843825966119,-0.0035059622943401,0.0219675016582012,-0.0208843825966119,-0.1885480569124221,0.0300853416621685,-0.0862765999615192,-0.0037515549920499,-0.0007164839189499,0.0169989168643951
1774472322207444500,16.543444580078123,0.226200911219418,-0.342444779421389,0.0650116936147213,0.0141491275280714,0.034732699394226,-0.1048475950956344,-0.0193204942807555,-0.0177402393519878,0.0073515318065881,-0.0193204942807555,-0.0177402393519878,0.0073515318065881,-0.1899550011008977,0.0638975948929786,-0.0669371087193489,-0.0041648773476481,0.010702883824706,0.0179022625088691
1774472322217472500,16.553472412109375,0.3094686847537756,-0.2011041716247797,0.1000321535915136,0.0103181703016161,0.0171513091772794,-0.0918609499931335,-0.0127053139247,-0.0436222841054201,0.0123325350895524,-0.0127053139247,-0.0436222841054201,0.0123325350895524,-0.1524503230929374,0.0561509262889623,-0.018176292681694,-0.0019501773640513,0.0187867395579814,0.0102562131360173
1774472322227500500,16.56350048828125,0.2752671399444341,-0.1179869124770164,0.0877951878309249,0.0240756720304489,0.0064137973822653,-0.0694757178425788,-0.0211798584118485,-0.053255204847455,0.0004588496834039,-0.0211798584118485,-0.053255204847455,0.0004588496834039,-0.1227284079156816,0.0696726711630821,0.0306949979931116,0.0054406272247433,0.0134239327162504,0.0002075736410915
1774472322237528600,16.573528564453124,0.2322530508652329,-0.0264686124697327,0.0601993248969316,0.0317964442074298,-0.0052646966651082,-0.0512037687003612,-0.0173974172636866,-0.0654851563453674,-0.0158104403331875,-0.0173974172636866,-0.0654851563453674,-0.0158104403331875,-0.0629763883948326,0.0705453623443841,0.0486439116597175,0.0111206769943237,0.0002199672162532,-0.0119423996657133
1774472322247556400,16.583556396484376,0.2158493208140134,0.0457683562234044,0.0600017564982175,0.0235636346042156,6.38589262962e-05,-0.0487325116991996,-0.0285259833909571,-0.0744534756988287,-0.028627836330235,-0.0285259833909571,-0.0744534756988287,-0.028627836330235,-0.0696697485536336,0.0784761553436517,0.036304070046544,0.0162091795355081,-0.0054517672397196,-0.0159904044121503
1774472322257584600,16.593584716796876,0.2118389161288738,0.1376867614641785,0.0956745429039001,0.0181464999914169,0.0195142552256584,-0.0667445361614227,0.0052851007960736,-0.0810351921766996,-0.0479912929698824,0.0052851007960736,-0.0810351921766996,-0.0479912929698824,-0.1352396605730056,0.0610562339872121,0.0344382761746644,0.0197137128561735,0.0018336400389671,-0.0103298127651214
1774472322267612400,16.6036123046875,0.1625517381295561,0.195454475300014,0.1169137302875518,0.0190658792853355,0.0297756660729646,-0.0889322012662887,0.0190482532106339,-0.0693020842850208,-0.0732248106867075,0.0190482532106339,-0.0693020842850208,-0.0732248106867075,-0.2110274536155164,0.058538698208332,0.0619277561247348,0.0297114867717027,0.0220717992633581,-0.0014324584044516
1774472322277640700,16.613640625,0.151548405817151,0.1940633132025599,0.0739700760960579,0.0204187650233507,0.0344918556511402,-0.1271693408489227,0.0154288936696946,-0.0585848754376173,-0.0861117647886276,0.0154288936696946,-0.0585848754376173,-0.0861117647886276,-0.2577081023782491,0.0544037903606891,0.0800648858398199,0.0258969590067863,0.0358954071998596,0.0179411973804235
1774472322287668500,16.62366845703125,0.1695835364624857,0.0117889297321438,-0.0282470203191041,0.0280661601573228,0.066925399005413,-0.1580402702093124,0.0176114984057843,-0.058126610276103,-0.0547016042634844,0.0176114984057843,-0.058126610276103,-0.0547016042634844,-0.2721924086742103,0.0218693019807338,0.0256973358362913,0.0261464975774288,0.0342455767095088,0.03095393627882
1774472322297696500,16.633696533203125,0.2194973219275474,0.0485854594707488,0.0458498970270156,0.0524130463600158,0.0313008278608322,-0.0885048657655716,0.0240210731871426,-0.0229138425976037,-0.0344195714741945,0.0240210731871426,-0.0229138425976037,-0.0344195714741945,-0.2405781038790941,0.0917559081554412,0.0150303958714008,0.0285699740052223,0.015836477279663,0.0328929834067821
1774472322307724500,16.643724609375,0.3859039819195866,0.1428922211527824,0.1432791746437549,0.0652762949466705,0.0528038740158081,0.0046186400577425,0.015088701929897,-0.0076695117145776,-0.0194204475238919,0.015088701929897,-0.0076695117145776,-0.0194204475238919,-0.14981588293612,0.1179582709044218,0.0040285248637199,0.0339558757841587,-0.0155348442494869,0.0301155187189579
1774472322317752600,16.653752685546873,0.8164289035931229,0.1050228014856576,0.2078314340531825,0.0491154342889785,0.0810746625065803,0.0800249874591827,-0.0006911971345543,-0.0072018942028284,-0.0146507489040493,-0.0006911971345543,-0.0072018942028284,-0.0146507489040493,-0.1010078667558729,0.0664274056315422,-0.0231932440608739,0.0418333820998668,-0.0406590588390827,0.0267798528075218
1774472322327780600,16.663780517578125,0.9235802415400745,0.2509481067240238,0.3149059073716402,0.0298406891524791,0.0422936230897903,0.1438276022672653,-0.0002926993362605,-0.0032885201513767,-0.0157324066609144,-0.0002926993362605,-0.0032885201513767,-0.0157324066609144,-0.1198930383592843,0.0270896669775247,-0.0459615407079458,0.0464387834072113,-0.047229878604412,0.0282869357615709
1774472322337807400,16.673807373046873,0.6779512840121984,0.4392679078385234,0.0790653534084558,0.045471578836441,0.0425245203077793,0.1694642603397369,-0.0058184770204126,-0.0227139361113309,-0.0098389647081494,-0.0058184770204126,-0.0227139361113309,-0.0098389647081494,-0.1548987391583621,0.0409177013218402,-0.0636024113386869,0.0413266420364379,-0.0360105261206626,0.0290801934897899
1774472322347835600,16.683835693359374,0.5976408989787101,0.3110293581992387,-0.2908814731836319,0.0630052685737609,0.0815527737140655,0.1489540487527847,-0.0108928576752543,-0.0308422975093126,-0.0043254619836807,-0.0108928576752543,-0.0308422975093126,-0.0043254619836807,-0.1824460867755115,0.0536596939951181,-0.0760199943631887,0.0300609357655048,-0.0102308597415685,0.0220859311521053
1774472322357863400,16.693863525390626,0.5513803753241896,0.2799737102001905,-0.2900397616624832,0.0724024921655654,0.1116848438978195,0.116956427693367,-0.0165603819176554,-0.0629325492531061,-0.013731880493462,-0.0165603819176554,-0.0629325492531061,-0.013731880493462,-0.1686409949153661,0.0441238038867712,-0.091698625010252,0.0212592687457799,0.0176914073526859,0.0099046872928738
1774472322367891500,16.703891357421874,0.4154766978845,0.0746796856701374,-0.2085346138864755,0.0719868615269661,0.1451428383588791,0.0994762480258941,-0.0148974171414971,-0.0648322453945875,-0.0277896319404244,-0.0148974171414971,-0.0648322453945875,-0.0277896319404244,-0.1451677648693323,0.0497907436072826,-0.0691056849300861,0.0121605778113007,0.0280082300305366,0.0019072142895311
1774472322377919500,16.71391943359375,0.3212187437802553,-0.1263005673140287,-0.0556090744972228,0.0478375814855098,0.1586479842662811,0.083327367901802,-0.0034219372726976,-0.0547901593297719,-0.0377834949493408,-0.0034219372726976,-0.0547901593297719,-0.0377834949493408,-0.1300472064964473,0.0568225419402122,-0.019026772031188,0.0149509375914931,0.0271598435938358,-0.0028219548985362
1774472322387947500,16.723947509765626,0.1066056867629289,-0.2787804087623953,0.0817103149592876,0.0356238596141338,0.152927815914154,0.029021717607975,0.0183984109997749,-0.0627396570295095,-0.0325169527232646,0.0183984109997749,-0.0627396570295095,-0.0325169527232646,-0.1283224285304546,0.0500116928815841,0.0231716167509555,0.0180609785020351,0.017449427396059,-0.007683022879064
1774472322397975600,16.7339755859375,-0.1239452363595366,-0.4957280462071299,-0.0086620298832654,0.0324027687311172,0.1349298954010009,-0.039042554795742,0.0121837742686271,-0.0593090980589389,-0.0311830737709999,0.0121837742686271,-0.0593090980589389,-0.0311830737709999,-0.1601993297845125,0.0029664485901594,0.0550549477458,0.0243723820894956,0.0147529002279043,-0.0015512355603277
1774472322408003600,16.744003662109375,-0.3066670713365078,-0.7044716266691684,-0.128773094907403,0.0326151624321937,0.107141226530075,-0.1052987575531005,-9.81996774673e-05,-0.0474894809275865,-0.0135991940245032,-9.81996774673e-05,-0.0474894809275865,-0.0135991940245032,-0.2264455336302518,-0.0501560697883367,0.0642179128885269,0.0298347901552915,0.0215319767594337,0.0090532060712575
1774472322418031400,16.75403125,-0.3797857913002371,-0.7005702353164553,-0.0134071785837411,0.0346234515309333,0.0731041654944419,-0.1407140046358108,0.0039557518884539,-0.0238099146544933,-0.0100730657249689,0.0039557518884539,-0.0238099146544933,-0.0100730657249689,-0.2493960549764335,-0.0318120193243026,0.0318669643819332,0.032494593411684,0.0267492495477199,0.0069151362404227
1774472322428059600,16.7640595703125,-0.2958434795051813,-0.5324868742838501,0.1870136869519948,0.0285475645214319,0.0507707074284553,-0.1267059743404388,0.0057411740005016,-0.0298339972496032,-0.0070037412822246,0.0057411740005016,-0.0298339972496032,-0.0070037412822246,-0.2173199778884649,-0.0348474414974451,0.0108855511516332,0.0333526618778705,0.0251319110393524,0.0087833441793918
1774472322438087400,16.77408740234375,-0.0571244474962353,-0.309781111703813,0.3409890276551246,0.0328693389892578,0.021207757294178,-0.0893692597746849,0.0027928455889225,-0.0270393980950117,-0.0014212649747729,0.0027928455889225,-0.0270393980950117,-0.0014212649747729,-0.2137405119664966,-0.0807119515717029,-0.0453384403735399,0.0312130581587553,0.0249848291277885,0.015483183786273
1774472322448115700,16.78411572265625,0.1460226281329989,0.0372749609053134,0.2649462369382381,0.0180891957134008,-0.0087605565786361,-0.0613667592406272,0.000206920748949,-0.0323345818936824,0.0018868366599082,0.000206920748949,-0.0323345818936824,0.0018868366599082,-0.2322198792479932,-0.0731792179793119,-0.1167103166699409,0.0284439045935869,0.015263226814568,0.0194816552102565
1774472322458143000,16.79414306640625,0.2989583966553211,0.2328001633539795,-0.0082645549982786,-0.0044994708150625,0.0013690432533621,-0.0904045403003692,-0.0004535889863967,-0.0222813899129629,-0.008306640574336,-0.0004535889863967,-0.0222813899129629,-0.008306640574336,-0.2355943241171538,-0.0327770649641752,-0.1262298401653766,0.027298767119646,0.0051400945521891,0.0248403400182724
1774472322468171000,16.8041708984375,0.4130468403890728,0.4707458729028702,-0.1707014345765113,0.0142174791544675,0.0334227383136749,-0.1499226093292236,-0.0110968558147549,-0.0271112942874431,-0.0034635844573378,-0.0110968558147549,-0.0271112942874431,-0.0034635844573378,-0.2200914884284138,-0.0234960263997316,-0.112879360204935,0.0207183621823787,-0.0030318154022097,0.0333856269717216
1774472322478199000,16.814198974609376,0.4752367545813322,0.6441700104415417,-0.412440398928523,0.0341251417994499,0.0478498823940753,-0.2030622661113739,-0.0019940964266657,-0.0449292750507593,-0.0118611181855201,-0.0019940964266657,-0.0449292750507593,-0.0118611181855201,-0.2147146176956594,-0.0422942503720521,-0.0940741219699382,0.0222905501723289,-0.0113614341244101,0.0346227213740348
1774472322488226800,16.824226806640624,0.5469926617592573,0.7167021626889706,-0.5197890130132437,0.0732949078083038,0.0674975663423538,-0.1630149036645889,0.0023977087914943,-0.0465741196483373,-0.0340063144981861,0.0023977087914943,-0.0465741196483373,-0.0340063144981861,-0.1718143642544746,-0.0212298350334167,-0.0557750787138938,0.0241611562669277,-0.0162334218621253,0.0326602384448051
1774472322498255000,16.834255126953124,0.757585961741209,0.7735644521176814,-0.4640893376231193,0.06561940908432,0.0749956965446472,-0.0638073682785034,0.0083455112800002,-0.049206221717596,-0.0498155857875943,0.0083455112800002,-0.049206221717596,-0.0498155857875943,-0.1202986965507268,-0.0184551096230745,-0.0292728562355041,0.0222775824368,-0.0170964896678924,0.0309278927743434
1774472322508283000,16.844282958984376,0.9993179118305444,0.8507584586963057,-0.2801356227636337,0.0570266358554363,0.1053220927715301,0.0686432644724845,0.0053483752906322,-0.0719072983473539,-0.0655722501069307,0.0053483752906322,-0.0719072983473539,-0.0655722501069307,-0.087062197381258,-0.0352151057660579,-0.0272328748404979,0.0266235936433076,-0.0204496756196022,0.0259499140083789
1774472322518311000,16.854310791015624,1.1238175672024489,0.8245370989859103,-0.1886252138018607,0.0431366525590419,0.144444465637207,0.1664068400859832,0.0083572017177939,-0.0687538027524948,-0.0683081048116087,0.0083572017177939,-0.0687538027524948,-0.0683081048116087,-0.0587181464284658,-0.0356838923215866,-0.0090378774583339,0.0251167640089988,-0.0151364989578723,0.0216833762824535
1774472322528339000,16.8643388671875,0.9643401219516992,0.6524971092820168,-0.2074222687304019,0.0402434915304183,0.1769264191389084,0.2131929546594619,0.0112669516846537,-0.0529617748588323,-0.0580535450398921,0.0112669516846537,-0.0529617748588323,-0.0580535450398921,-0.0749159786440432,-0.0467541523903608,-0.0002934299886226,0.024333793669939,-0.0013349328655749,0.0230495780706405
1774472322538366700,16.87436669921875,0.667422291213274,0.3343871451720595,-0.1880956369698047,0.0519526116549968,0.1940931677818298,0.2103859782218933,0.0072504095196723,-0.0327016616404056,-0.0560121023401617,0.0072504095196723,-0.0327016616404056,-0.0560121023401617,-0.1062089425303041,-0.0267032980084419,0.0017214169651269,0.0196788553148508,0.0039503769949078,0.0243979375809431
1774472322548394000,16.88439404296875,0.4415545574709772,0.0395788539335131,-0.175483992677927,0.0457315929234027,0.1901284307241439,0.182134598493576,0.0238543383181095,-0.012825579303503,-0.0600172463282942,0.0238543383181095,-0.012825579303503,-0.0600172463282942,-0.0881828719742596,-0.0105605569809675,0.0023100305080413,0.0215004570782184,0.009374170564115,0.0238629076629877
1774472322558421800,16.894421875,0.3485986258760094,-0.1276946520209312,0.0430108742088079,0.0417698733508586,0.1491032391786575,0.1533570140600204,-0.0075365329846739,-0.0066407531887292,-0.0319759777143597,-0.0075365329846739,-0.0066407531887292,-0.0319759777143597,-0.0732534522593021,-0.0046463645011186,-0.0114010994583368,0.0188445691019296,0.0127929337322711,0.018291350454092
1774472322568450000,16.904449951171873,0.2845575308591127,-0.2765104180037975,0.1807213088095188,0.0327347144484519,0.0751133039593696,0.1121741384267807,-0.0132779992461204,-0.0087573069512844,-0.0094394439965486,-0.0132779992461204,-0.0087573069512844,-0.0094394439965486,-0.0379646967351436,0.0289841024219989,0.0128138888657093,0.0215045344084501,0.008289260789752,0.0061587872914969
1774472322578477800,16.914477783203125,0.3109180067792534,-0.3223150145843625,0.1044376950740814,0.0267130434513092,0.0435343384742736,0.0444587394595146,-0.0065054363712668,-0.0133154086470603,-0.0193035431459546,-0.0065054363712668,-0.0133154086470603,-0.0193035431459546,-0.0037099604338407,0.0226128138244152,0.0295569338738918,0.0235771611332893,0.004193999338895,0.0015303080435842
1774472322588505900,16.924505859375,0.3801464413061737,-0.3642608899101615,0.006801496708393,0.0095691084861755,0.0479973405599594,-0.0594337955117225,-0.0052007835134863,-0.0147457337111234,-0.003733633570373,-0.0052007835134863,-0.0147457337111234,-0.003733633570373,-0.0386935955315828,0.0177186120420694,0.032713936600089,0.0260930489748716,0.0031785364262759,-0.0024591069668531
1774472322598534000,16.934533935546874,0.4372685507148504,-0.3383770915910601,-0.0003536357432603,0.0103049399331212,0.0368711873888969,-0.1586589217185974,-0.0134580319881439,-0.0306219327569007,0.0035410336077213,-0.0134580319881439,-0.0306219327569007,0.0035410336077213,-0.0453659129023551,0.030158991420269,0.0314525383621454,0.0276470258831977,0.0025019035674631,-0.0056755319237709
1774472322608562000,16.94456201171875,0.2950330399051308,-0.2218321946159005,-0.1369686763226985,0.0185617096722126,0.0174311473965644,-0.234438806772232,-0.0135758131489157,-0.0350397491991519,0.0148678987860679,-0.0135758131489157,-0.0350397491991519,0.0148678987860679,-0.0783212570428848,0.0419657490700483,0.0207967043131589,0.027481909841299,0.0017423699609935,-0.0018810601904988
1774472322618590000,16.95458984375,0.1470528479635715,-0.1246799803748726,-0.3051590048611164,0.0093666138127446,-0.0152141470462083,-0.2666137814521789,-0.0149365801081061,-0.0298538709938526,0.0024774960294365,-0.0149365801081061,-0.0298538709938526,0.0024774960294365,-0.1134146361254155,0.044362873339653,0.0238566764056682,0.0324373356997966,0.004975511226803,0.0051252259872853
1774472322628618000,16.964617919921874,0.0995426165089011,0.0543023758128285,-0.3380108886271715,-0.0137469144538044,-0.03318427875638,-0.2547982633113861,-0.0179018596544861,-0.0494704256117343,0.0013292027771472,-0.0179018596544861,-0.0494704256117343,0.0013292027771472,-0.1113726089037954,0.0394902988672256,0.0079991820603609,0.0328778214752674,-0.0025878665037453,0.0100504755973815
1774472322638645800,16.974645751953126,0.2135772842288017,0.1964700820833444,-0.2412871289312839,-0.0385238975286483,-0.0368290804326534,-0.2465408593416214,-0.0035997780576348,-0.0531266100317239,-0.0056669397205114,-0.0035997780576348,-0.0531266100317239,-0.0056669397205114,-0.0904237827688455,0.0362701677769422,0.0027250410497188,0.0331726558506488,-0.0074898707680404,0.0120421294122934
1774472322648674000,16.984674072265626,0.3245157394990324,0.2720046310171485,-0.219485046967864,-0.0532436855137348,-0.0054502738639712,-0.2722657918930053,0.0116918990984559,-0.0613730448514223,-0.0207183783799409,0.0116918990984559,-0.0613730448514223,-0.0207183783799409,-0.0811665634714066,0.0470791465610265,-0.0125426707088947,0.0352142341434955,-0.0172990914434194,0.0110002998262643
1774472322658701800,16.994701904296875,0.3844648890271783,0.2612383223310113,-0.1708317829579115,-0.0477847345173358,0.0345530696213245,-0.3348372876644134,-0.0060074237212538,-0.0713169312387704,-0.0101218733027577,-0.0060074237212538,-0.0713169312387704,-0.0101218733027577,-0.0606757102370262,0.0375122767925262,-0.0383101491719484,0.0374907851219177,-0.0231947358697652,0.0068788337521255
1774472322668730000,17.004730224609375,0.3207613554015755,0.2634326175048947,-0.1414174724251032,-0.03742016851902,0.01789341121912,-0.2927565276622772,-0.0184404965758323,-0.0603600684165954,-0.0316673501566052,-0.0184404965758323,-0.0603600684165954,-0.0316673501566052,-0.0397397435836493,0.0354471609562635,-0.0144306764125823,0.0435747765004634,-0.0273790936917066,0.0022561186924576
1774472322678758000,17.0147578125,0.300941094905138,0.2763625339657068,-0.0159036715745925,-0.0585257224738597,-0.0326659008860588,-0.1386002600193023,0.0052259179547429,-0.0478419476270675,-0.0502463784202933,0.0052259179547429,-0.0478419476270675,-0.0502463784202933,-0.0655506227970123,0.0243564426213502,-0.0009574468553066,0.0461812950670719,-0.0200481470674276,0.0011421602685004
1774472322688785700,17.02478564453125,0.4985393042355776,0.3143789608880877,0.1746703382074833,-0.0977153554558754,-0.1041719242930412,0.0907645225524902,-0.0077884619191288,-0.0365431394994258,-0.0659524815961718,-0.0077884619191288,-0.0365431394994258,-0.0659524815961718,-0.1000888522148132,-0.0167091427385807,-0.0371972194939851,0.0506410263478755,-0.0125992856919765,0.0004755710251629
1774472322698814000,17.03481396484375,0.781368403866887,0.3289686272546648,0.2329641217440366,-0.1101248860359191,-0.1745384931564331,0.3331606388092041,0.0080872987352311,-0.0467886391818523,-0.0553928013980388,0.0080872987352311,-0.0467886391818523,-0.0553928013980388,-0.1104354741841554,0.0181692784190177,-0.0532750785917043,0.0411328487098217,-0.0054725450463593,-0.0011554430238902
1774472322708841700,17.044841796875,0.7401248315915465,0.341223420932889,0.2300239766389131,-0.0968983769416809,-0.181309700012207,0.4416934549808502,0.041003918300569,-0.0407592958897352,-0.0458098572775721,0.041003918300569,-0.0407592958897352,-0.0458098572775721,-0.1245556233428418,-0.0291600435107946,-0.0920744725853204,0.0372667387127876,-7.03227706253e-05,-0.0016060499474406
1774472322718870000,17.0548701171875,0.3480032903313637,0.4765533901378512,0.2832289126038551,-0.0953103378415107,-0.1097494885325431,0.4426543116569519,0.0280205180868506,-0.0426765276879072,-0.0307774155795574,0.0280205180868506,-0.0426765276879072,-0.0307774155795574,-0.1256096624404191,-0.0550590393990278,-0.1477934371978044,0.0260568913072347,0.002938040997833,0.0013379291631281
1774472322728897800,17.064897705078124,0.12477818005234,0.4878589202672242,0.1300070206165313,-0.0985319316387176,-0.1444365829229354,0.574630618095398,0.0354180809922516,-0.0520569349735975,-0.0424564551964402,0.0354180809922516,-0.0520569349735975,-0.0424564551964402,-0.1580428824029862,-0.0474625929206609,-0.1898690763831138,0.0131160598248243,-0.0008937153033912,0.0063342857174575
1774472322738925800,17.07492578125,-0.1115966269180178,0.4439075503379106,-0.0442979914098978,0.0044993804767727,-0.1267577111721038,0.5281318426132202,0.0012090835288167,-0.0915127470493316,-0.0514396798580884,0.0012090835288167,-0.0915127470493316,-0.0514396798580884,-0.1782772766582667,-0.0439402640134096,-0.188662038680911,0.0096134524792432,-0.0054976232349872,0.018369223922491
1774472322748953900,17.084953857421876,-0.4086456828206777,0.0197574243932962,0.1805085428416729,0.036425843834877,-0.0330982320010662,0.3206180036067962,0.0027919688060879,-0.0962123030424118,-0.0333303149327635,0.0027919688060879,-0.0962123030424118,-0.0333303149327635,-0.2008206785082817,-0.02413315525949,-0.1310112292230129,0.0101330345496535,-0.0103850569576025,0.0272812284529209
1774472322758980900,17.09498095703125,0.0070057871088385,-0.5737386298656463,-0.0114303255528211,-0.168966993689537,-0.138581782579422,0.2995441555976867,0.007685586066544,-0.0735024585843086,-0.01294306820333,0.007685586066544,-0.0735024585843086,-0.01294306820333,-0.1869848992489278,-0.0351133989572525,-0.0728770201623439,0.0165425315499305,-0.0180800277739763,0.0298265665769577
1774472322769009000,17.1050087890625,-0.3102969522714615,0.0656190118581056,-0.1002630397379398,-0.049689196050167,-0.0818015560507774,0.4974480271339416,0.0005590951874852,-0.066451955550909,-0.0054842766299843,0.0005590951874852,-0.066451955550909,-0.0054842766299843,-0.1293652155816555,-0.0594090513020753,-0.0091658877521753,0.0264739915728569,-0.0201469082385301,0.0247905291616916
1774472322779037000,17.115036865234377,-0.0429652815014123,0.1992047677442431,-0.1101408751517534,0.0999152138829231,0.0904048308730125,0.4308444857597351,-0.0404898312985897,-0.0401508086025714,0.0175008776381611,-0.0404898312985897,-0.0401508086025714,0.0175008776381611,-0.0973171955443918,-0.0597790536582469,0.0223234754890203,0.0323264896869659,-0.0214752592146396,0.0152378799393773
1774472322789065000,17.12506494140625,0.1699658137783408,-0.5692755129769445,0.3803612531006336,0.1383267939090728,0.2261212766170501,0.0478814840316772,-0.0408151177302002,-0.0050713119149208,0.0045320904716849,-0.0408151177302002,-0.0050713119149208,0.0045320904716849,-0.0879402953900396,-0.0949263548851013,0.0094265845149755,0.0351763367652893,-0.0288362354040145,0.0067876698449254
1774472322799093000,17.135093017578125,0.5229582906991243,-1.2474173511251807,0.2255617365330457,0.1479789018630981,0.4406660795211792,-0.3831082582473755,-0.0337235520340502,0.0208989956438541,-0.0173269823759794,-0.0337235520340502,0.0208989956438541,-0.0173269823759794,-0.0978846201688051,-0.0911012436389923,-0.0625584552437066,0.022831505164504,-0.0376338176429271,0.0013312338851392
1774472322809120800,17.145120849609373,0.5056044203162193,-0.7634396562054753,0.249116215121746,0.1631466448307037,0.5304117798805237,-0.4823086857795715,-0.0329483298778533,0.0129570967286825,-0.0267506442815065,-0.0329483298778533,0.0129570967286825,-0.0267506442815065,-0.1340133336484432,-0.0665706134945154,-0.1330021107792854,0.0110475495457649,-0.0364314019680023,0.0006052562966942
1774472322819149000,17.155149169921874,0.6878647752612829,-0.2915282466545701,0.2571884624183178,-0.0026066382415592,0.3444232642650604,-0.3880407810211181,-0.0393158190831542,-0.0214613057017326,-0.0072466101273894,-0.0393158190831542,-0.0214613057017326,-0.0072466101273894,-0.1476433612026274,-0.0613999328583478,-0.1242331133902072,0.0028889114037156,-0.0259208586066961,-0.0046558338217437
1774472322829176800,17.1651767578125,-0.0984296868309378,1.457355986590683,0.0572118335187435,-0.1945429295301437,0.0087775811553001,-0.1225056275725364,-0.0241869312733411,-0.0668693041801452,-0.0158668466955423,-0.0241869312733411,-0.0668693041801452,-0.0158668466955423,-0.1525298180699348,-0.0565717820495367,-0.0970253729909658,0.0013786328490823,-0.0121736209839582,-0.010099334642291
1774472322839205000,17.175205078125,-0.2705699220389128,1.4190516826376318,-0.309618906879425,-0.2138252705335617,-0.3086467087268829,0.266735315322876,-0.0272001416146755,-0.076312255308032,-0.0119055418491363,-0.0272001416146755,-0.076312255308032,-0.0119055418491363,-0.1472556770592928,-0.0744540602207183,-0.0461719685882329,0.0008921767584979,-0.0002036374062299,-0.0141823105514049
1774472322849233000,17.18523291015625,-0.2484790862619876,0.8561249541655183,-0.6584101327180862,-0.3447236120700836,-0.4860678017139435,0.5502990484237671,-0.0056466275848448,-0.0672474898427724,-0.024383038367331,-0.0056466275848448,-0.0672474898427724,-0.024383038367331,-0.1306587625235319,-0.0372591788142919,-0.053197337180376,-0.0050101871602237,0.0064177797175943,-0.0209398157894611
1774472322859260700,17.1952607421875,0.0274438872426748,0.9914163449257613,-0.7226566871792077,-0.4514162242412567,-0.5326632261276245,0.7426652908325195,0.003318769159168,-0.0615975012570619,-0.0340086525857448,0.003318769159168,-0.0615975012570619,-0.0340086525857448,-0.10449614726305,-0.016641338199377,-0.0759258863389492,-0.013419346883893,0.0075761643238365,-0.0292304754257202
1774472322869289000,17.2052890625,-0.0015887304961681,1.1000766261309385,-0.5146510656028985,-0.6252394318580627,-0.4126634001731872,1.0043158531188965,0.025617548598349,-0.0516647207856178,-0.0411260833755135,0.025617548598349,-0.0516647207856178,-0.0411260833755135,-0.1011303240917623,0.0131833066999912,-0.0692705201029777,-0.0166918393224477,0.0100720785558223,-0.0256511885672807
1774472322879316700,17.215316650390626,0.1112839077070355,1.8096315474137663,-0.4582148926317692,-0.5482264161109924,-0.2184643596410751,1.3831223249435425,0.0336930107653141,-0.0282505274504423,-0.0331342078387737,0.0336930107653141,-0.0282505274504423,-0.0331342078387737,-0.1269979019284248,-0.0014864391654729,-0.0490519079387187,-0.0158998407423496,0.011808943003416,-0.0151952132582664
1774472322889345000,17.225344970703127,0.2881538017854094,2.208414300128817,-0.1352998663276433,-0.2006403505802154,0.1591085791587829,1.3710705041885376,0.0466179587900638,-0.0154003982275724,-0.0419666258528828,0.0466179587900638,-0.0154003982275724,-0.0419666258528828,-0.1509615458399057,-0.0410807829290628,-0.0028185645520687,-0.0115953721106052,0.0063814218156039,-0.0071857562288641
1774472322899372800,17.235372802734375,0.4589449604719877,0.7900511842772364,0.4110223488241434,-0.1887551993131637,0.4608844220638275,1.2364989519119265,0.0540986699342727,0.0035234979510307,-0.0332493586510419,0.0540986699342727,0.0035234979510307,-0.0332493586510419,-0.150698949380964,-0.0526841269612312,0.0433873063057661,-0.0049776807427406,0.001850557513535,0.0012292875908315
1774472322909400800,17.24540087890625,0.7382450091943145,1.8808517402797933,0.7014794591158628,-0.6244072318077087,0.3622742295265198,1.215112805366516,0.035823008531332,0.0033791210442781,-0.027768004630506,0.035823008531332,0.0033791210442781,-0.027768004630506,-0.1428325999200344,-0.0557481907069683,0.0665384647905826,0.0073578152805566,-0.0001287036575376,0.0058432142250239
1774472322919428900,17.255428955078123,-0.4856424132615327,4.482784004463255,0.7187818915724754,-0.8083440661430359,0.2474179416894912,1.2559936046600342,0.0208088331423699,-0.0072018942028284,-0.0162409407049417,0.0208088331423699,-0.0072018942028284,-0.0162409407049417,-0.1206711831249296,-0.0470773929953575,0.0891945332348346,0.0219340957701206,-0.0059282695874571,0.0056978054344654
1774472322929457000,17.265456787109375,-0.8561842831373214,6.350554437112808,0.7429816823273897,-0.4237645268440246,0.3386372327804565,0.8165658712387085,0.0066141574427485,-0.0101326869577169,-0.0071054480910301,0.0066141574427485,-0.0101326869577169,-0.0071054480910301,-0.085488079932332,-0.0434925202459096,0.0766390030443668,0.0289536528289318,-0.0179324671626091,0.0006551099941134
1774472322939485000,17.27548486328125,-0.2350777528971433,5.260411760497093,0.8269868302255868,-0.0249481685459613,0.1300621628761291,-0.1550309062004089,-0.011465981388092,-0.023254618859291,0.0022121230915188,-0.011465981388092,-0.023254618859291,0.0022121230915188,-0.0399947412580251,-0.0236012403398752,-0.0037958851516246,0.0314877405762672,-0.0272409729659557,-0.0061340555548667
1774472322949513000,17.285512939453124,0.1310755266308784,3.883594414737821,0.8324509408503771,-0.1090864390134811,-0.2673848867416382,-0.9642757177352904,0.0005927051961421,-0.0342296018600463,-0.0092798695206642,0.0005927051961421,-0.0342296018600463,-0.0092798695206642,-0.0510259844906628,-0.0002203647524118,-0.106432083761692,0.0248119924217462,-0.0341857001185417,-0.0050650630146265
1774472322959540700,17.295540771484376,0.5093839388549327,3.350611573630572,0.3759007665604352,-0.6421756744384766,-0.1871441155672073,-1.273692965507507,0.001680208171904,-0.0516156209468841,-0.0124757429525256,0.001680208171904,-0.0516156209468841,-0.0124757429525256,-0.0726947954632341,0.0337485403448343,-0.1818997049391269,0.0115742422640323,-0.0334021188318729,-0.0030829971656203
1774472322969569000,17.305569091796876,1.842334670358896,2.309750814317167,-0.4578641794979572,-0.938042938709259,-0.0487705692648887,-1.1488112211227417,0.0393432916119694,-0.0542377861440181,-0.022124445785582,0.0393432916119694,-0.0542377861440181,-0.022124445785582,-0.1103251456774771,0.0424795438110828,-0.2407838555842638,-0.0062556215561926,-0.023168122395873,0.0070796255022287
1774472322979595800,17.315595703125,2.8561121924355626,0.9552107668176292,-0.994006945940852,-0.810346782207489,-0.1272627115249633,-0.7912416458129883,0.048975043310225,-0.0468932686001062,-0.0371299994766712,0.048975043310225,-0.0468932686001062,-0.0371299994766712,-0.1490174260348081,0.0378512994885444,-0.2379296351969242,-0.0243140757083892,-0.0054506617598235,0.0141516309231519
1774472322989624000,17.3256240234375,2.619461198872328,-0.7016428329840302,-0.7921125007212162,-0.5752418637275696,-0.0489938594400882,-0.154359295964241,0.0522445665001869,-0.0356938291937112,-0.0372039414957165,0.0522445665001869,-0.0356938291937112,-0.0372039414957165,-0.1345985861904919,0.0483913982033729,-0.1753437074244022,-0.0311501435935497,0.0025542676448822,0.0163205079734325
1774472322999651800,17.33565185546875,1.37443483453691,-3.8011110695794224,-0.3595218786895275,-0.7138413190841675,0.1330861896276474,0.6767070293426514,0.0574782293699681,-0.0427852487593889,-0.0422743766278028,0.0574782293699681,-0.0427852487593889,-0.0422743766278028,-0.0969710124552249,0.0430225646466016,-0.0898170490473508,-0.0255377292633056,-0.0013238880783319,0.0177204106003046
1774472323009680000,17.345679931640625,-0.4101902819141745,-6.468854068800806,0.2369318563312292,-1.1109814643859863,0.1976586282253265,1.2974116802215576,0.0689116236627101,-0.0190542445600032,-0.0348722836777567,0.0689116236627101,-0.0190542445600032,-0.0348722836777567,-0.0364326648622751,0.0281844764769077,-0.0106412210017442,-0.0174249429255723,-0.0095029883086681,0.0161832347512245
1774472323019708000,17.3557080078125,-1.9559487745791675,-7.218183074328303,0.2188292134076356,-1.2977230548858645,0.1857124865055084,1.5548259019851685,0.0504768261753022,0.0031669395983219,-0.0338350495845079,0.0504768261753022,0.0031669395983219,-0.0338350495845079,-0.0045953649662435,0.0588712911635637,0.0568120205461978,-0.0046047354117035,-0.0144515763968229,0.0101904738694429
1774472323029735700,17.365735595703125,-1.7248586300134658,-6.029864685642719,-0.6910416517317295,-1.034379243850708,0.0848696902394294,1.6219114065170288,0.0242810392975807,-0.0059346507459878,-0.0119052495881915,0.0242810392975807,-0.0059346507459878,-0.0119052495881915,0.0228752641528844,0.024847441008687,0.1012485436439514,0.0014363795053213,-0.008414190262556,0.0041946335695683
1774472323039764000,17.375763916015625,-1.3749182341396808,-2.756228507404029,-2.143703635287285,-0.8724798560142517,0.061563566327095,1.57899808883667,0.038282968904078,-0.0255611422359943,-0.016777531799674,0.038282968904078,-0.0255611422359943,-0.016777531799674,0.0078816931605339,0.0029623569369316,0.0881207665234804,0.0089301159605383,0.0064437855035066,-0.0023934473283588
1774472323049791700,17.385791748046874,-1.1254437070995569,0.5653823049306869,-1.7403981444507837,-0.831200361251831,0.1690490245819091,1.451973557472229,0.0352487157747149,-0.0326432094514369,-0.0304947992458939,0.0352487157747149,-0.0326432094514369,-0.0304947992458939,-0.0067759238757193,0.0147585931926965,0.0572661940544843,0.0074462029151618,0.014425279572606,-0.011880425736308
1774472323059820000,17.395820068359374,-0.9457125783711672,2.09440155197978,-0.7645265746593475,-0.7979393005371094,0.3196007013320923,1.183528184890747,0.0422244000062346,-0.0232160404145717,-0.0233095639169216,0.0422244000062346,-0.0232160404145717,-0.0233095639169216,-0.000243307236582,0.0002530979782342,0.0068558572441339,0.0036275647580623,0.0132184382528066,-0.0199316311627626
1774472323069847800,17.405847900390626,-0.5895620758108794,2.0076687326833604,-0.5066255800575018,-0.7119359374046326,0.4185939729213714,0.8349466919898987,0.0321508958898484,-0.0520803158491849,-0.03269347833395,0.0321508958898484,-0.0520803158491849,-0.03269347833395,-0.0138936469264328,0.0310024565070867,-0.0329448227465152,-0.000274765305221,0.0090327486395835,-0.0202368292957544
1774472323079875800,17.415875732421874,-0.1510935016565024,1.3498945597812533,-0.477491840031743,-0.547513484954834,0.4453281164169311,0.5188459753990173,0.0478441395841538,-0.0493301403582096,-0.0522451510220766,0.0478441395841538,-0.0493301403582096,-0.0522451510220766,-0.0440226815998554,0.0183761991679668,-0.0264805951684713,0.0023883141111582,0.0079226791858673,-0.0155534371733665
1774472323089903900,17.42590380859375,0.2177199369914829,0.7608844187647104,-0.3917144217640161,-0.3349047005176544,0.4383622109889984,0.3187110722064972,0.0641778731390833,-0.0566249735414981,-0.0479582674831151,0.0641778731390833,-0.0566249735414981,-0.0479582674831151,-0.0810990511931478,0.0182324067831039,0.0265916543275117,0.0085575263947248,0.0115973092615604,-0.0105048809200525
1774472323099932000,17.435931884765626,0.5497583270803094,0.4823299277126789,-0.0451619147628545,-0.1091693118214607,0.4275330007076263,0.2744919657707214,0.0687666622340679,-0.0354085825115442,-0.0689358813211321,0.0687666622340679,-0.0354085825115442,-0.0689358813211321,-0.0980437562532722,-0.0053097968459129,0.0799573338121175,0.0128949405625462,0.0150918215513229,-0.008613558486104
1774472323109960000,17.4459599609375,0.680272128175199,0.5099444953471421,0.5365279663681983,0.1314888745546341,0.4700506031513214,0.3599062263965606,0.0775084793552756,-0.0274216754108667,-0.0521653637841343,0.0775084793552756,-0.0274216754108667,-0.0521653637841343,-0.0768010617382824,-0.0220393978506326,0.0879319659531116,0.0156222842633724,0.0146715752780437,-0.012501772493124
1774472323119988000,17.455988037109375,0.7641900361813604,0.3891004398733377,1.1310007567048073,0.3359171152114868,0.5491374135017395,0.5052660703659058,0.0775675160661339,-0.0133814596205949,-0.0572255697831511,0.0775675160661339,-0.0133814596205949,-0.0572255697831511,-0.0500403344541788,-0.0371381827831268,0.0648170478254556,0.0194493047893047,0.0122153274714946,-0.0165171213448047
1774472323130015700,17.466015625,0.4645324052155017,0.0569882538959383,1.516553733229637,0.4695006608963012,0.5071110129356384,0.634570837020874,0.0642415860250592,-0.0055102878540754,-0.0700809597030282,0.0642415860250592,-0.0055102878540754,-0.0700809597030282,-0.0473784217685461,-0.0341974531561136,0.0631874007970094,0.0175651181489229,0.0204572770744562,-0.0106887919828295
1774472323140044000,17.4760439453125,-0.3648822366788983,-0.1952528152480721,1.3665502187669276,0.5519116520881653,0.4393761157989502,0.747924268245697,0.0511354362145066,-0.0160685067474842,-0.0309159472674131,0.0511354362145066,-0.0160685067474842,-0.0309159472674131,-0.0686335373736918,0.0005003507375717,0.0581055674880743,0.0143176820129156,0.0277751889079809,-0.0118793509900569
1774472323150071800,17.48607177734375,-0.8345289161682128,-0.4025944199576973,0.9758043497741222,0.633573591709137,0.3931747376918793,0.8033118844032288,0.0316635507643222,0.003179799079895,-0.0259428350299596,0.0316635507643222,0.003179799079895,-0.0259428350299596,-0.0353122825302183,0.0212906253099441,0.0958931540906429,0.0115194991230964,0.0413197576999664,-0.0227426514029502
1774472323160100000,17.49610009765625,-0.6606614187762141,-0.592598228636384,0.5479173753887414,0.6263042092323303,0.2672272026538849,0.7347983121871948,0.0042442134410142,0.0149520699381828,-0.0210600314244627,0.0042442134410142,0.0149520699381828,-0.0210600314244627,0.0194587337076663,0.0359212082087993,0.1436515150874853,0.017311755567789,0.0605600588023662,-0.0333250537514686
1774472323170128000,17.5061279296875,-0.6907755481414497,-0.6035857788577675,0.2136678851217031,0.5425471663475037,0.0613586083054542,0.5859060287475586,0.0032782910183072,0.0083183310121297,-0.015736790575087,0.0032782910183072,0.0083183310121297,-0.015736790575087,0.0597309767328202,0.0126268418610095,0.2362099717974662,0.0337940603494644,0.0676403492689132,-0.0458546951413154
1774472323180156000,17.516156005859376,-0.3975695775330066,0.0395899598494172,0.0618465075820684,0.2619447410106659,-0.15224689245224,0.3714531064033508,0.0162312960937619,0.0180471133440732,-0.0279492064163088,0.0162312960937619,0.0180471133440732,-0.0279492064163088,0.0848905524305999,0.0390144980490207,0.2590758836001157,0.046860072761774,0.0682055652141571,-0.0591221414506435
1774472323190183000,17.526182861328124,0.0271776375219225,0.4035463138550519,0.0259428350299596,-0.0992175713181495,-0.2171146869659423,0.2960214614868164,0.0274653684221208,0.0114706575632095,-0.0488110849201679,0.0274653684221208,0.0114706575632095,-0.0488110849201679,0.0770377931036055,-0.0022013094365596,0.2113333046942949,0.0544623360037803,0.062342882156372,-0.0670341327786445
1774472323200210700,17.536210693359376,0.7870243838019668,0.2775073200866579,0.004403203395009,-0.3912134766578674,-0.0764672979712486,0.5083990097045898,0.0410801984071731,0.013187398353219,-0.0487950105682015,0.0410801984071731,0.013187398353219,-0.0487950105682015,-0.0143424136072397,-0.0311421572387218,0.2072480812072754,0.0649284496903419,0.0790477097034454,-0.0523709394037723
1774472323210239000,17.546239013671876,1.7212258264690636,-0.2214668684348464,-0.2565472419053315,-0.5234421491622925,0.3465652167797088,0.9440351128578186,0.0333446357190609,0.0105909521192312,-0.0534700166419148,0.0333446357190609,0.0105909521192312,-0.0534700166419148,-0.163338066201657,-0.0188899939090013,0.2710410466820001,0.0752071887254715,0.1004054620862007,-0.0326563566923141
1774472323220266800,17.556266845703124,2.632263981822133,-1.015195572181046,-0.8418348552674054,-0.475625604391098,0.8995922207832336,1.3995872735977173,0.0435489266082644,0.0163134214192628,-0.0771867000550031,0.0435489266082644,0.0163134214192628,-0.0771867000550031,-0.1923623545035719,0.0360650005936622,0.3682423607617616,0.0895620882511138,0.1135869398713111,-0.0146896690130233
1774472323230295000,17.566294921875,2.945487635195255,-1.9063132215335965,-1.618826943746209,-0.3262653648853302,1.4006102085113523,1.592502236366272,0.0689838121160864,0.0116758247464895,-0.0657566667631268,0.0689838121160864,0.0116758247464895,-0.0657566667631268,-0.0948924526154994,0.0400958635449409,0.4768500349968672,0.1222025901079177,0.1009989753365516,0.001340962247923
1774472323240322800,17.57632275390625,2.1714766083538533,-2.7151997469231484,-2.3376088353186844,-0.2828912734985351,1.6927813291549685,1.4168918132781982,0.0421513347700238,-0.0033358664244413,-0.0792307731032371,0.0421513347700238,-0.0033358664244413,-0.0792307731032371,0.0270440742701292,0.0279319630205631,0.6016629941016435,0.1702349483966827,0.057118397206068,0.0088162943720817
1774472323250350800,17.586350830078125,0.98569329110384,-2.449966801998019,-2.374215687704086,-0.2801948189735412,1.5848205089569092,1.0014920234680176,0.0503128677852451,-0.0131073188543319,-0.0829819423303008,0.0503128677852451,-0.0131073188543319,-0.0829819423303008,0.1372099377326667,0.0424736985921859,0.6863473564356565,0.2256324291229248,-0.0208347234874963,0.0016558526549488
1774472323260379000,17.59637890625,-0.2518517775654793,-1.764994825568795,-2.4156150350630283,-0.2444730401039123,1.1192669868469238,0.6035100817680359,0.0768926855444908,-0.0042114802151918,-0.0935252559155225,0.0768926855444908,-0.0042114802151918,-0.0935252559155225,0.2885632593691349,0.0881616830557584,0.6744248634517193,0.2802266180515289,-0.0921046957373619,-0.0050243474543094
1774472323270407000,17.606406982421873,-0.926747473399341,-1.2173217803299423,-2.914374704051017,-0.2735046744346618,0.5012425184249878,0.4280475676059723,0.0804617762029171,0.0112836105585098,-0.1089335451886057,0.0804617762029171,0.0112836105585098,-0.1089335451886057,0.329450419422239,0.1608189229875803,0.7035252857297658,0.3387426733970642,-0.1532157212495803,-0.0144705800339579
1774472323280435000,17.61643505859375,-0.7695794741347431,-0.6138999598622322,-3.346408276721835,-0.2796054482460022,0.0859843045473098,0.4187195599079132,0.0814678845055401,0.0240425543665885,-0.11467910310328,0.0814678845055401,0.0240425543665885,-0.11467910310328,0.3916004399955272,0.1844710167318582,0.7985013249754905,0.4058733880519867,-0.1862887889146804,-0.0112939141690731
1774472323290463000,17.626462890625,-0.0365051455765962,-0.6192395673245191,-3.251061650598049,-0.1087554171681404,0.0301970969885587,0.4808794558048248,0.0824962046399712,0.0315074834197759,-0.1056269048586487,0.0824962046399712,0.0315074834197759,-0.1056269048586487,0.4073614882290363,0.201750652834773,0.8892156151235103,0.4753134548664093,-0.2035758942365646,-0.0287496037781238
1774472323300490800,17.63649072265625,0.7531026788473129,-1.1509095722675322,-3.0841496714323755,0.05613898858428,0.2404885590076446,0.5610195994377136,0.0419827002048492,0.0359954424887895,-0.100221538683772,0.0419827002048492,0.0359954424887895,-0.100221538683772,0.5367046381093561,0.078192077705264,0.8201771502107381,0.5274341106414795,-0.2155293226242065,-0.0451074093580246
1774472323310519000,17.64651904296875,1.3566226989924908,-1.2197282569497825,-2.70797008793056,0.3161065280437469,0.4935549199581146,0.6147676110267639,0.0124167062416672,0.0449888962835073,-0.0897358005046844,0.0124167062416672,0.0449888962835073,-0.0897358005046844,0.5778099709577859,0.0431570046812295,0.8196697852104902,0.5813383460044861,-0.2232708632946014,-0.0708705708384513
1774472323320546800,17.656546875,1.6746984685719013,-1.1716495779573917,-2.382482580789924,0.522956907749176,0.7271106839179993,0.5904156565666199,-0.0001791559591889,0.043152328506112,-0.0719119745224714,-0.0001791559591889,0.043152328506112,-0.0719119745224714,0.5896399633526802,-0.01771744299829,0.8459726857244968,0.6430841684341431,-0.1638184934854507,-0.1179494261741638
1774472323330575000,17.6665751953125,1.883534111231565,-1.2645868048518896,-1.844634179472923,0.8699358105659485,0.7696195244789124,0.4508443176746368,-0.0059703065812587,0.0483639256745576,-0.0875982039541006,-0.0059703065812587,0.0483639256745576,-0.0875982039541006,0.5649404063820839,-0.1074602577656507,0.9006307431071996,0.6966859102249146,-0.0108345346525311,-0.1651233285665512
1774472323340603000,17.676602783203126,1.743090744535625,-1.4316089663937688,-0.8727712608009577,1.2651208639144895,0.6541706919670105,0.2237070500850677,-0.013030746486783,0.0448567943364381,-0.102273210516572,-0.013030746486783,0.0448567943364381,-0.102273210516572,0.4536920083798468,-0.314762699508667,0.8963456131339073,0.7432941794395447,0.1842467933893203,-0.21248260140419
1774472323350631000,17.686630859375,1.569538596703112,-1.7503467070132492,0.0671539663404226,1.6454488039016724,0.3047564625740051,-0.0467635914683342,-0.0315326178610324,0.0454003996938467,-0.1091556635066866,-0.0315326178610324,0.0454003996938467,-0.1091556635066866,0.3480916992671787,-0.4585141678392886,0.8782552451699972,0.7861189246177673,0.3158522248268127,-0.2479716092348098
1774472323360659000,17.696658935546875,0.9568927285552024,-1.5897782516553998,1.2269681450754404,1.9816222190856927,-0.2746054232120514,-0.3333535492420196,-0.0248480255305767,0.0436731375098228,-0.1256891574174165,-0.0248480255305767,0.0436731375098228,-0.1256891574174165,0.2905547254472971,-0.4406733907222747,0.6523924798637628,0.789307713508606,0.2758905291557312,-0.2699661552906036
1774472323370687000,17.70668701171875,0.3856307179361581,-1.3778718232482672,2.3548586608052253,2.28281044960022,-0.9121467471122742,-0.518031656742096,-0.0263667595304548,0.0424637617200613,-0.1421925484508276,-0.0263667595304548,0.0424637617200613,-0.1421925484508276,0.3630887773908674,-0.5486012659996747,-0.0955962169706821,0.7445961236953735,0.1799205839633941,-0.2554963827133178
1774472323380715000,17.716715087890623,0.3155219934433698,-1.2306363121941686,2.939269491332769,2.3969078063964844,-1.4544553756713867,-0.6758010387420654,-0.0073541621550917,0.030904841351509,-0.1574216817647218,-0.0073541621550917,0.030904841351509,-0.1574216817647218,0.3222032247729599,-0.36927111928761,-0.7808715602606534,0.6697820425033569,0.0593008138239383,-0.2502630352973938
1774472323390741800,17.72674169921875,0.6720166332662105,-1.101371634377539,3.77035206643939,2.308716297149658,-1.7492166757583618,-0.7672794461250305,-0.0019850363373756,0.0263239433020353,-0.1399959151893854,-0.0019850363373756,0.0263239433020353,-0.1399959151893854,0.2267899631537497,0.0730985539585351,-0.9533832591295242,0.5918246507644653,-0.0429547168314456,-0.2675789296627044
1774472323400770000,17.73677001953125,0.5604135766074061,-1.0705310904338956,4.778356558072566,1.906334638595581,-1.5142436027526855,-0.70358806848526,-0.0318507438994944,0.0239881938308477,-0.1388406076744198,-0.0318507438994944,0.0239881938308477,-0.1388406076744198,0.1945925977736711,0.3135936557292938,-0.772125359225273,0.5488482117652893,-0.0665204226970672,-0.2727125585079193
1774472323410797800,17.7467978515625,0.777879100446403,-0.746836019667983,5.471018504482507,1.2617524862289429,-0.8659363985061646,-0.3667094111442566,-0.0429626511529088,0.0529103369325399,-0.1023562126249074,-0.0429626511529088,0.0529103369325399,-0.1023562126249074,0.0457039126850664,0.287783507168293,-0.5347533579111099,0.5090648531913757,-0.022978002205491,-0.2562696635723114
1774472323420825900,17.756825927734376,0.8517392864271998,-0.1057651442855596,5.613737707155942,0.6268289685249329,-0.1081091985106468,0.1553947776556015,-0.061294280526787,0.0722416448682546,-0.0999500282660126,-0.061294280526787,0.0722416448682546,-0.0999500282660126,-0.0899642024330794,0.0386637849152088,-0.3426777113944292,0.4875701665878296,0.0507126338779926,-0.2609668374061584
1774472323430854000,17.76685400390625,1.3700573501050473,0.6476026152387261,4.515414646694064,0.2051363289356231,0.4055382311344147,0.66362464427948,-0.0824514887154102,0.0683358696013689,-0.100801676659286,-0.0824514887154102,0.0683358696013689,-0.100801676659286,-0.0997590357385575,-0.1877197893947362,-0.1334095225363969,0.4723118543624878,0.0975690931081771,-0.2593974173069
1774472323440882000,17.7768818359375,2.325567099869251,1.204934007921815,2.1524323006659745,0.1905435472726822,0.6851946711540222,0.8894449472427368,-0.0796048671126365,0.0305313318639993,-0.1151414599180221,-0.0796048671126365,0.0305313318639993,-0.1151414599180221,-0.1038851757578551,-0.3511632156670093,-0.0564361729711294,0.4557047188282013,0.102751225233078,-0.2279345542192459
1774472323450910000,17.786909912109376,2.78469618473649,0.8687482888951897,-0.2015109988600015,0.4652274549007416,0.6564602255821228,0.741914689540863,-0.058578884088248,-0.0120750531971454,-0.1735521478325128,-0.058578884088248,-0.0120750531971454,-0.1735521478325128,-0.1241074411839246,-0.4827653965204954,-0.2923275803387165,0.4296752512454986,0.0920575708150863,-0.1907027512788772
1774472323460938500,17.7969384765625,1.893777272826433,0.3020093086585402,-1.2118050627350807,0.8243105411529541,0.4606691896915436,0.3583555817604065,-0.0081166709601879,-0.04923603233397,-0.1671717991456389,-0.0081166709601879,-0.04923603233397,-0.1671717991456389,-0.1852367404073476,-0.274010417881608,-0.435840563738346,0.3910844027996063,0.0184158012270927,-0.1756909042596817
1774472323470966300,17.80696630859375,1.0015887793719769,-0.133288234244287,-0.7262310385346412,1.202203631401062,0.0118091665208339,-0.0802395194768905,0.0217347158156335,-0.0465998386114835,-0.1215697393998503,0.0217347158156335,-0.0465998386114835,-0.1215697393998503,-0.1183515080057084,-0.0383159943908453,-0.4113093490719795,0.3510967791080475,-0.0723087713122367,-0.1617540568113327
1774472323480994600,17.81699462890625,0.2683534150332212,-0.3858291631177067,0.0786070882469415,1.5031954050064087,-0.441407561302185,-0.3736263811588287,0.0067725628748536,-0.037016602230072,-0.1048825162321329,0.0067725628748536,-0.037016602230072,-0.1048825162321329,-0.1232468788318335,-0.1530091260194778,-0.47863516484797,0.3060482442378998,-0.159178540110588,-0.1383984684944152
1774472323491022300,17.827022216796873,0.0759925218343734,-0.5036141232818365,0.8002426156848669,1.6120567321777344,-0.6112375259399414,-0.5533146262168884,-0.0463316891945898,-0.0661807373940944,-0.0854535931408405,-0.0463316891945898,-0.0661807373940944,-0.0854535931408405,-0.1250502749919891,-0.2764303385049104,-0.5707131445646285,0.2613177895545959,-0.2351563870906829,-0.1346117109060287
1774472323501050400,17.83705029296875,0.6990960711106657,-1.069482165902853,1.635002417999506,1.521174669265747,-0.5840924382209778,-0.7662210464477539,-0.0652335196718573,-0.0409019192308187,-0.0754515468254685,-0.0652335196718573,-0.0409019192308187,-0.0754515468254685,-0.051662382698059,-0.2783475703030824,-0.638663814240694,0.2099955081939697,-0.3119440078735351,-0.1489446759223938
1774472323511078400,17.847078369140625,0.9294546865314244,-2.1106594438195225,2.5676643761396405,1.2721246480941772,-0.625003457069397,-1.0665993690490725,-0.0558444906882941,-0.0174982472896575,-0.0837564338341355,-0.0558444906882941,-0.0174982472896575,-0.0837564338341355,-0.0784330468542873,-0.230842891806364,-0.6562970860868692,0.1198933124542236,-0.3678458631038666,-0.165099412202835
1774472323521106400,17.8571064453125,0.324251827865839,-2.470496087546646,3.024398674824833,0.9450170397758484,-0.8404473066329956,-1.3746434450149536,-0.0531717643477022,0.0158522336483001,-0.1055102927416563,-0.0531717643477022,0.0158522336483001,-0.1055102927416563,-0.1729939294278621,-0.2661936066508293,-0.6452361783683299,0.0309672430157661,-0.3796221613883972,-0.154061809182167
1774472323531134500,17.867134521484374,-0.3350723509572446,-2.3490733554020524,2.580257900252938,0.6482847332954407,-1.0182387828826904,-1.6792625188827517,-0.0309317293584346,0.0327764804422855,-0.1329658704221248,-0.0309317293584346,0.0327764804422855,-0.1329658704221248,-0.3167332689292729,-0.1712865409880876,-0.438244702270627,-0.0394488684833049,-0.3424763679504394,-0.1165770143270492
1774472323541162500,17.87716259765625,-0.8109390740051865,-1.885823683473468,2.1573113048791885,0.4148229956626892,-1.011622428894043,-1.9557058811187744,-0.0197371122576296,0.0326847105056047,-0.1463090438589453,-0.0197371122576296,0.0326847105056047,-0.1463090438589453,-0.3739380881853401,-0.0299672682404518,-0.1138672021985054,-0.0943680852651596,-0.3245859742164612,-0.099999114871025
1774472323551190300,17.887190185546874,-1.2135562903165815,-1.226867168918997,2.564395145210624,0.147238940000534,-0.9486035704612732,-2.278381586074829,-0.0395683325394988,0.0037894554108381,-0.13755349047333,-0.0395683325394988,0.0037894554108381,-0.13755349047333,-0.181855719666928,-0.0469809468835592,0.1028285063117742,-0.1122893020510673,-0.3442342281341553,-0.1214572638273239
1774472323561218600,17.897218505859374,-1.8218208746403453,-0.702895609524101,3.279803760957717,-0.065853364765644,-0.9343165159225464,-2.619837999343872,-0.0668405164770782,-0.0026741876453161,-0.1030304586246609,-0.0668405164770782,-0.0026741876453161,-0.1030304586246609,0.1333459557808935,-0.0411789826065301,0.2095832461565732,-0.107723444700241,-0.3686577677726745,-0.1422872394323349
1774472323571246300,17.907246337890626,-1.4137187971770762,-1.3628916962593791,4.276427026876807,-0.2412153035402298,-0.7742868661880493,-2.8189542293548584,-0.0993953169927001,0.0251303496032953,-0.0462403576493263,-0.0993953169927001,0.0251303496032953,-0.0462403576493263,0.2999351327329874,-0.0824316149711608,0.1481412277221679,-0.1083362400531768,-0.3948507308959961,-0.1510120183229446
1774472323581274600,17.917274658203127,0.3323949484415352,-2.519505909909308,5.049341490653157,-0.4011445045471191,-0.578623354434967,-2.641615152359009,-0.0862356834292411,0.0596621492803096,-0.0342044674187898,-0.0862356834292411,0.0596621492803096,-0.0342044674187898,0.3622071722507476,-0.2060989111721515,-0.1954933460056781,-0.1392331421375274,-0.4118940830230713,-0.1608932614326477
1774472323591301400,17.92730126953125,2.535397598785162,-3.1707685089603066,4.992314366051555,-0.570496141910553,-0.3336799442768097,-1.7920345067977903,-0.0734863842323422,0.0664759209483861,-0.0509422517299652,-0.0734863842323422,0.0664759209483861,-0.0509422517299652,0.4255366118669509,-0.1531073256969451,-0.4432733440876006,-0.1695921123027801,-0.3834408819675445,-0.149098128080368
1774472323601329700,17.93732958984375,5.340924974626303,-3.109917149895429,3.950832552230358,-0.634077787399292,0.0770977586507797,-0.4086160659790039,-0.0790644766256213,0.0905523775845766,-0.051104748815298,-0.0790644766256213,0.0905523775845766,-0.051104748815298,0.3206704622477292,0.0995060838907957,-0.4206050006836652,-0.1982696950435638,-0.3842645287513733,-0.1163628697395324
1774472323611357400,17.947357421875,8.179292543795704,-2.482323303462565,1.5061317079365253,-0.6684995293617249,0.7606982588768005,0.909554958343506,-0.1056597842149436,0.0829869107663631,-0.0460536029055714,-0.1056597842149436,0.0829869107663631,-0.0460536029055714,0.3702700671970844,-0.037956513428688,-0.3555231644421815,-0.2167032957077026,-0.372933566570282,-0.0723954141139984
1774472323621385200,17.95738525390625,9.339253437525034,-1.4250439087897535,-1.743151827073097,-0.7572613954544067,1.221885323524475,1.826622486114502,-0.1135084518887102,0.0340875630408525,-0.0384942735671997,-0.1135084518887102,0.0340875630408525,-0.0384942735671997,0.3822967512078583,-0.0282926130264997,-0.2176028864830732,-0.2372530996799469,-0.3158503174781799,-0.0309733189642429
1774472323631413500,17.96741357421875,7.62886289332509,0.1919067196905612,-3.2087638930946585,-0.8456923961639404,0.9814971089363098,2.058732509613037,-0.0989662779256701,-0.0233364519238471,-0.0517734418570995,-0.0989662779256701,-0.0233364519238471,-0.0517734418570995,0.3672393211990594,0.165752287736535,0.0203027833163738,-0.2373814582824707,-0.2449319660663604,0.0009428039193153
1774472323641441300,17.977441162109375,1.6161948416769505,3.6807398923143744,-5.278105822619795,-0.5045419931411743,0.4662380218505859,1.6949779987335205,-0.069083473098278,-0.0916840119630098,-0.0611807371497154,-0.069083473098278,-0.0916840119630098,-0.0611807371497154,0.4356225370734929,0.2679179462254047,0.5064800341069698,-0.1804271042346954,-0.2085659652948379,-0.0210413224995136
1774472323651469600,17.987469482421876,-5.345543282076716,6.579549070703983,-8.648251533281803,-0.1389552503824234,-0.1406007707118988,0.6615309119224548,-0.0509501427754759,-0.1257429334312677,-0.0721533820629119,-0.0509501427754759,-0.1257429334312677,-0.0721533820629119,0.667684303150326,0.5817974331587553,1.1054214942902325,-0.0548979341983795,-0.2482505291700363,-0.075080320239067
1774472323661497300,17.997497314453124,-10.101994882333278,7.238651277339458,-12.099634680694342,-0.0593200735747814,-0.2794665098190307,-0.1244561001658439,-0.0002896305963397,-0.1541004283875227,-0.0604579758331179,-0.0002896305963397,-0.1541004283875227,-0.0604579758331179,0.8750076415508985,0.6497264755249023,1.360992000117898,0.1109238490462303,-0.3396148085594177,-0.1077046766877174
1774472323671525400,18.007525390625,-7.739375524398684,5.021097977465391,-9.636160162347554,0.1817958503961563,0.1411842554807663,-0.2492909133434295,0.05713438436836,-0.1379822372794151,-0.0364797188743948,0.05713438436836,-0.1379822372794151,-0.0364797188743948,0.8425117316156625,0.6348346113413572,0.9779583129376171,0.1708644181489944,-0.3705208003520965,-0.1379438042640686
1774472323681553400,18.01755346679688,-0.2380944703698158,-0.5228901938989758,-2.678418414753675,0.2298272848129272,0.359282523393631,0.2013178169727325,0.0674979574725031,-0.0960351929098367,-0.041322774991393,0.0674979574725031,-0.0960351929098367,-0.041322774991393,0.5817687915861606,0.7374719789952039,0.7213046880483627,0.0804146900773048,-0.3209728598594665,-0.1807608902454376
1774472323691581400,18.02758154296875,3.809869837835431,-1.3178136603876949,0.1214525427609682,0.0350016392767429,0.3650742173194885,0.4951761364936828,0.0305906608358025,-0.0432294853955507,-0.0512114240601658,0.0305906608358025,-0.0432294853955507,-0.0512114240601658,0.3333424584247171,0.4145031766772269,0.2549626030623912,-0.0130705162882804,-0.2791774570941925,-0.1989295035600662
1774472323701609500,18.037609375,4.150934268814325,0.0081564184486865,0.1375163733333349,-0.0509319081902504,0.429747998714447,0.7373579144477844,0.030445261015743,0.0032557869255542,-0.0953249988138675,0.030445261015743,0.0032557869255542,-0.0953249988138675,0.2435954058736562,0.285750540035963,0.0709545276671648,-0.0570335462689399,-0.187396302819252,-0.1961376368999481
1774472323711637500,18.04763745117188,1.6855092009216546,0.3755199505493045,1.3309364690721035,0.0388862416148185,0.3037094175815582,0.9299870729446412,-0.0057144321240484,0.0127893389463424,-0.1202966507241129,-0.0057144321240484,0.0127893389463424,-0.1202966507241129,0.2321140807859599,0.5242506685972214,0.1532172158122062,-0.1170247122645378,-0.014939047396183,-0.2029321640729904
1774472323721665300,18.057665283203125,-0.8176432478189468,-0.2733484468415379,1.0236147332191468,0.1186862736940383,0.1070363223552703,1.0281137228012085,-0.0463142996683716,0.0248766671031713,-0.1544867973566055,-0.0463142996683716,0.0248766671031713,-0.1544867973566055,0.2642622001968324,0.612682400766015,0.1948579707115888,-0.1932297348976135,0.231725588440895,-0.2443131655454635
1774472323731693600,18.067693603515625,-2.4164038473531604,-0.658535512663424,1.0569634605914353,0.251166969537735,0.0859885290265083,0.94624000787735,-0.0634589112147688,0.0013297872990369,-0.1651613361060619,-0.0634589112147688,0.0013297872990369,-0.1651613361060619,0.2951606118075549,0.448998151475191,0.0746726714074611,-0.2712843120098114,0.4597483873367309,-0.3304102420806885
1774472323741721300,18.07772143554688,-2.108416633328796,-0.8648524505004286,0.973411901679635,0.2424674779176712,0.0251984093338251,0.6241474747657776,-0.0997989293575286,-0.0136532622992992,-0.1740451920464635,-0.0997989293575286,-0.0136532622992992,-0.1740451920464635,0.428970824099332,0.4123205719411373,0.0639338352501392,-0.3466810286045074,0.5818925499916077,-0.4671984016895294
1774472323751749600,18.08774951171875,-1.619950833209604,-0.9063654873669148,0.5953086566388607,0.2346927672624588,-0.0464127846062183,0.3300053179264068,-0.1147708730399608,-0.0252279647588729,-0.1513765563815832,-0.1147708730399608,-0.0252279647588729,-0.1513765563815832,0.645205344838649,0.357795785549283,0.2240706211924552,-0.3434069454669952,0.6471906304359436,-0.6343285441398621
1774472323761777400,18.09777734375,-0.8050459243133664,-1.0241258976116776,0.4070031763106584,0.2416281700134277,0.0484114624559879,0.217508852481842,-0.0693020842850208,-0.0252490075469017,-0.1188327156513929,-0.0693020842850208,-0.0252490075469017,-0.1188327156513929,0.6323948169738054,0.2189829426646232,0.765911307016015,-0.257548987865448,0.6920255422592163,-0.7706055641174316
1774472323771805400,18.10780541992188,-0.195939336207509,-1.0788754326701164,0.0873930367708206,0.2507377862930298,0.1655998229980468,0.3069796562194824,-0.036267683558911,0.0158557407796382,-0.0896948839724063,-0.036267683558911,0.0158557407796382,-0.0896948839724063,0.3496190549649298,-0.1145534308969974,1.1432792235195637,-0.1287614703178405,0.7622376680374146,-0.8157493472099304
1774472323781833500,18.11783349609375,0.0902846665591001,-0.6183940564110875,-0.2924509144574403,0.2517404556274414,0.1864118874073028,0.4077866971492767,-0.037643209695816,0.0180669870883226,-0.0622977584809064,-0.037643209695816,0.0180669870883226,-0.0622977584809064,-0.0680254884779453,-0.4150070345461368,1.0834183367967605,0.0019311571959406,0.786504328250885,-0.8190385103225708
1774472323791860200,18.12786010742188,-0.5423574031740427,-0.250343418829143,-0.3006213614314794,0.254947304725647,0.1336514204740524,0.459489494562149,-0.0399658074244856,0.0213104990541934,-0.0544964370802044,-0.0399658074244856,0.0213104990541934,-0.0544964370802044,-0.3215589355200529,-0.4856675477027893,0.8681880246639251,0.0996577143669128,0.6948984861373901,-0.8385211229324341
1774472323801888500,18.13788842773437,-1.2459183447390794,-0.0104226098150014,-0.3113455845415592,0.2734528183937073,0.1065391227602958,0.4618034958839416,-0.0318961904764175,0.0292442146629095,-0.0639624768227338,-0.0318961904764175,0.0292442146629095,-0.0639624768227338,-0.3838143161639571,-0.419161816138029,0.4803267711967229,0.1447857171297073,0.5434208512306213,-0.8411434888839722
1774472323811916300,18.147916259765623,-1.3121996198982,0.2915729625791311,-0.586729044342041,0.2735491394996643,0.1443835198879242,0.4443638324737549,-0.0201820795461535,0.0132832599431276,-0.068702949348092,-0.0201820795461535,0.0132832599431276,-0.068702949348092,-0.5480927319556474,-0.4482330123215913,-0.1021083753436803,0.1314946860074997,0.3682397305965423,-0.8194352388381958
1774472323821944600,18.157944580078127,-0.9076116880357264,0.3740136376395821,-0.5911755023568869,0.3156435787677765,0.2467631548643112,0.4561989307403564,-0.0135644149720668,-0.0135953946322202,-0.0658230099976062,-0.0135644149720668,-0.0135953946322202,-0.0658230099976062,-0.8115763489954173,-0.4128980795681476,-0.5720633901298046,0.0861175134778022,0.2000452429056167,-0.765720546245575
1774472323831972400,18.16797241210937,-0.2160305225998163,0.2264487485006451,-0.5071048880070448,0.3337515592575073,0.3534044027328491,0.4868674874305725,-0.0030023966863751,-0.0462567242622375,-0.0628691286280751,-0.0030023966863751,-0.0462567242622375,-0.0628691286280751,-1.0754710310541091,-0.2589846981853246,-0.7627659947276115,0.0561212636530399,0.0540784485638141,-0.6805737018585205
1774472323842000400,18.17800048828125,0.0185559396490454,0.1464770939022302,-0.2760346171855926,0.3186248242855072,0.3701754212379455,0.4766971468925476,0.0198735981188714,-0.0407984588563442,-0.0574281066179275,0.0198735981188714,-0.0407984588563442,-0.0574281066179275,-1.2977201359078288,-0.1331640233427286,-0.7624895158737898,0.0478290952742099,-0.0793342366814613,-0.5698518753051758
1774472323852028400,18.1880283203125,-0.4321224199980497,0.1463224878624081,0.1956616883099079,0.3191690444946289,0.3338034749031067,0.496267020702362,0.0372165087163448,-0.0295107566446065,-0.0792901020750403,0.0372165087163448,-0.0295107566446065,-0.0792901020750403,-1.4311784660220146,-0.1056985087901353,-0.7337590959519148,0.0659718811511993,-0.1571496725082397,-0.4779427647590637
1774472323862056400,18.19805639648437,-0.7342594466894865,-0.0939423122838139,0.4561451006203889,0.3291894495487213,0.2726722061634063,0.5071899890899658,0.0443219568073749,-0.0364233125120401,-0.0543052984222769,0.0443219568073749,-0.0364233125120401,-0.0543052984222769,-1.4816832031175493,-0.1164782614797353,-0.6536363424450159,0.1013393178582191,-0.2021827101707458,-0.4371630549430847
1774472323872084500,18.20808447265625,-0.8569009069740772,-0.3297252908408641,0.5354109450370073,0.3292592167854309,0.2373494356870651,0.5102432370185852,0.064842474527657,-0.0264151287168264,-0.0417915615469217,0.064842474527657,-0.0264151287168264,-0.0417915615469217,-1.3336463125526905,-0.1565051514416933,-0.4697597844749688,0.1380528509616851,-0.244052916765213,-0.4325067698955536
1774472323882112500,18.218112548828124,-0.7956061880558729,-0.3609288228780031,0.6665156977623701,0.3234729468822479,0.2345946580171585,0.510850191116333,0.0833987064376473,-0.0173918643057346,-0.0329316710039973,0.0833987064376473,-0.0173918643057346,-0.0329316710039973,-1.112245641221851,-0.3617822248369455,-0.525402176719904,0.132604569196701,-0.2764604091644287,-0.4329736232757568
1774472323892140300,18.228140380859376,-0.6022954467862844,-0.3176695268660783,0.6353279478162527,0.3179120123386383,0.2525573968887329,0.5109255909919739,0.0729164753898978,0.0007417582780122,-0.0277878783747553,0.0729164753898978,0.0007417582780122,-0.0277878783747553,-0.9447374497286974,-0.4673334341108798,-0.7678571803867816,0.0951037928462028,-0.2951819002628326,-0.4300284385681152
1774472323902168600,18.23816845703125,-0.4550248644188046,-0.1826037615552544,0.5834539681941271,0.2850941717624664,0.2528519332408905,0.5129698514938354,0.0951705389045178,-0.0169756847202777,-0.0147960025936365,0.0951705389045178,-0.0169756847202777,-0.0147960025936365,-0.8969982318237424,-0.460921228981018,-0.8363280745446682,0.0686335042119026,-0.3331660032272339,-0.4075744450092315
1774472323912196400,18.2481962890625,-0.4751259876832365,0.05911123739928,0.597413519963622,0.251047670841217,0.2383811920881271,0.5231207609176636,0.0873719939827919,-0.0363221902251243,-0.0058808747321367,0.0873719939827919,-0.0363221902251243,-0.0058808747321367,-0.8647440216898917,-0.2803928123950958,-0.7274491821527481,0.0649953633546829,-0.3721328377723694,-0.3866893947124481
1774472323922224600,18.258224609375,-0.5536170483350753,0.2239630691647529,0.595320931598544,0.2197563201189041,0.2169131785631179,0.5419700741767883,0.0550786208823323,-0.0624181699901819,-0.0122685299426317,0.0550786208823323,-0.0624181699901819,-0.0122685299426317,-0.7720105006739497,-0.1273246496647596,-0.6474456711113452,0.0590520277619361,-0.4375495016574859,-0.3617821335792541
1774472323932252400,18.26825244140625,-0.5406481150381267,0.3378130279675126,0.573012069156766,0.196852445602417,0.2174758017063141,0.560233473777771,0.0403296723008155,-0.075187635192275,-0.0022094927430152,0.0403296723008155,-0.075187635192275,-0.0022094927430152,-0.6814660141348838,-0.0899877294391393,-0.6213637198716402,0.0507831759750843,-0.4818040430545807,-0.3355305790901184
1774472323942280400,18.278280517578125,-0.392199574932456,0.475134463250637,0.5271452209949493,0.1744342297315597,0.2111657112836837,0.5700046420097351,0.058357788683474,-0.088608257779479,-0.0173372115090489,0.058357788683474,-0.088608257779479,-0.0173372115090489,-0.6387671284846961,-0.0627548545986413,-0.580852261263132,0.0002885868889279,-0.503697395324707,-0.2875795662403106
1774472323952308500,18.28830859375,-0.2808990083515644,0.6416577353596687,0.5367547608613967,0.1598246395587921,0.209754928946495,0.6002840995788574,0.050688861490786,-0.0824625946313142,-0.0202624513059854,0.050688861490786,-0.0824625946313142,-0.0202624513059854,-0.7423964297853409,-0.2543956168293952,-0.7300234165549278,-0.0828315988183021,-0.4988394975662231,-0.2148302495479583
1774472323962336500,18.29833642578125,-0.1531193083956837,0.6717515525892377,0.5184048651784658,0.162498727440834,0.1995315849781036,0.6362854838371277,0.046847091370821,-0.0572229394346475,-0.0141983289614319,0.046847091370821,-0.0572229394346475,-0.0141983289614319,-0.8772741251781583,-0.3450555464416742,-0.9577280103355644,-0.1894878596067428,-0.5250007510185242,-0.1395419538021087
1774472323972364500,18.308364501953125,-0.0213543381959199,0.6659013652563095,0.3847591957986354,0.1557623893022537,0.181799054145813,0.6581311821937561,0.0386591087400913,-0.0360012877076864,-0.0027297172248363,0.0386591087400913,-0.0360012877076864,-0.0027297172248363,-0.840565565983951,-0.1931768857568502,-1.0842132865667342,-0.2911737263202667,-0.5330701470375061,-0.0736548230051994
1774472323982392600,18.318392578125,-0.0962891676709055,0.7598062681391835,0.3537666761636733,0.1624730229377746,0.1388465315103531,0.6982591152191162,0.0593076367542147,-0.0168833302617073,0.0257008429676294,0.0593076367542147,-0.0168833302617073,0.0257008429676294,-0.7358977154158055,-0.0460094715029001,-1.041583520630002,-0.3607195019721985,-0.5537026524543762,-0.0349773243069648
1774472323992419600,18.328419677734374,-0.0195095871120691,0.8354638589307666,0.2982826893508434,0.1539096236228943,0.1014765202999115,0.7503015398979187,0.0388943788006901,-0.0058200844556093,0.0352408247292041,0.0388943788006901,-0.0058200844556093,0.0352408247292041,-0.5049737211972475,-0.1542261005938053,-0.9764975927352904,-0.4078614711761474,-0.5820658206939697,-0.0288115739822387
1774472324002447400,18.338447265625,0.1176229014702141,1.0252958181738854,0.2538748078256845,0.1462181508541107,0.0823699384927749,0.8116722702980042,0.0691276045009493,0.0417938996344804,0.0602095540300011,0.0691276045009493,0.0417938996344804,0.0602095540300011,-0.2161366133227944,-0.2891366753429174,-0.8957482317626476,-0.4382715821266174,-0.5670550465583801,-0.0703454613685607
1774472324012475400,18.34847534179688,0.3042372138410806,1.2297948929339646,0.3463601992994546,0.138125330209732,0.0751203373074531,0.871642529964447,0.053643035121262,0.0554179358392953,0.0906271963864564,0.053643035121262,0.0554179358392953,0.0906271963864564,0.076670274965465,-0.2678022108912468,-0.7243804422318935,-0.4374537169933319,-0.4323073923587799,-0.1853157132863998
1774472324022503400,18.35850341796875,0.4663650274701416,1.4092559725493192,0.3053179948151111,0.1282804161310196,0.0667758584022522,0.928579330444336,0.0640586306735873,0.0245931739866733,0.1054226144582033,0.0640586306735873,0.0245931739866733,0.1054226144582033,0.2717600086063146,-0.2660217572152614,-0.6737602620631455,-0.4395056366920471,-0.1762728840112686,-0.3850695490837097
