time,seconds_elapsed,imu1_accel_x,imu1_accel_y,imu1_accel_z,imu1_gyro_x,imu1_gyro_y,imu1_gyro_z,imu2_accel_x,imu2_accel_y,imu2_accel_z,imu2_gyro_x,imu2_gyro_y,imu2_gyro_z,imu3_accel_x,imu3_accel_y,imu3_accel_z,imu3_gyro_x,imu3_gyro_y,imu3_gyro_z
1774472498556899800,0.07589990234375,0.1721685845196247,-0.0851851514630019,0.2577651663277298,-0.3514254689216614,-0.3449779450893402,-0.3703215718269348,-0.253428233101964,0.092703710399568,0.1852149669669568,0.2470638155937194,0.4056796729564667,-0.2226178795099258,-0.5388064326941967,-0.0046375966727733,1.277680387441814,0.1675222367048263,1.0281531810760498,0.6201978921890259
1774472498566928000,0.085927978515625,0.0439157140940427,-0.1965845022432506,0.2905349065019749,-0.3323356509208679,-0.379055768251419,-0.3103490769863128,-0.2012625770568847,0.1447968857303261,0.2192756420008838,0.2759728133678436,0.4046638607978821,-0.17315673828125,-0.4144108222186565,0.4612627358950674,1.3969206609807907,0.2128228694200515,0.6858190894126892,0.6694837212562561
1774472498576956000,0.095955810546875,-0.1392798758745193,-0.353553764065355,0.3574288884656503,-0.3164467811584472,-0.4407238364219665,-0.2454142421483993,-0.2008101571142673,0.1921896282851695,0.1926741969317197,0.3101076185703277,0.4461090266704559,-0.1318308711051941,-0.5153741191804408,0.7531878729127347,1.355695062753558,0.2475567162036895,0.4043668508529663,0.7224479913711548
1774472498586984000,0.10598388671875,-0.2532394325315952,-0.3842864637203514,0.4219397564187646,-0.3161002993583679,-0.4941156804561615,-0.199783369898796,-0.3126362088739872,0.5940779458001255,0.0958371861197054,0.2706277072429657,0.4155430495738983,-0.0720434114336967,-0.481658312061429,0.8012665519051253,1.0517437531817704,0.258061021566391,0.1984176635742187,0.7504023909568787
1774472498597011700,0.11601171875,-0.2032470288723707,-0.4154498098775744,0.5434761780709028,-0.3348094522953033,-0.5249622464179993,-0.1768505275249481,-0.7217822424322367,1.015639224295318,-0.135074825400114,0.2725062966346741,0.6317908763885498,0.0503922253847122,-0.2585679340779781,0.6757200178287923,0.6802814074601977,0.2544382810592651,0.0641204267740249,0.7432581186294556
1774472498607040000,0.1260400390625,-0.061669981971383,-0.4159067598648369,0.5397037103274837,-0.3774445056915283,-0.5650705099105835,-0.1631943732500076,-0.924215032312274,0.3621875907674431,0.4493012260749935,0.4160893261432647,0.8600751161575317,0.1667482554912567,0.0041080198407173,0.4856505965679883,0.3935892757251858,0.2466767728328704,-0.0288089793175458,0.7145804166793823
1774472498617067800,0.13606787109375,-0.0233253460079431,-0.3729560914106666,0.5428960035627708,-0.4276717603206634,-0.5692771077156067,-0.1441182941198349,-1.071361403778195,0.3557832766830921,0.8413622693195939,0.5874062180519104,0.9757465720176696,0.2573319375514984,0.2224117480695247,0.3765089615866541,0.1465411721143871,0.237449437379837,-0.1028263717889785,0.683352530002594
1774472498627096000,0.146095947265625,0.0468593663305044,-0.3552288576707244,0.5482900080934167,-0.4705113768577575,-0.5650932788848877,-0.0647896453738212,-0.8633645500302314,0.7414110720098018,0.3625967560902238,0.7104389071464539,1.12606680393219,0.290853887796402,0.2228226669579744,0.3986092958442866,0.0126416010387241,0.2107355445623397,-0.171667218208313,0.6646001935005188
1774472498637123300,0.156123291015625,0.0503407787054777,-0.313665113530308,0.5033111217472702,-0.5184779167175293,-0.6609123349189758,0.0615959875285625,-0.5996931553333997,1.0534779565632342,0.3099428781367838,0.795756995677948,1.2667261362075806,0.2699832320213318,0.0838800602138042,0.4726873623594641,-0.0499056752238422,0.1796441376209259,-0.2132361084222793,0.6725268959999084
1774472498647151000,0.166151123046875,-0.0147235218793153,-0.2804926195077598,0.5472306717662141,-0.5688295364379883,-0.8012092709541321,0.2145362645387649,-0.5707137290865183,1.2099942139208315,0.4651018756665289,0.8857332468032837,1.4201077222824097,0.2201398164033889,-0.2481213588654995,0.545185173945874,-0.0195655550830066,0.1521265059709549,-0.2109982669353485,0.6851542592048645
1774472498657179400,0.176179443359375,-0.0918862565368413,-0.2978010433137417,0.560330355303362,-0.6219092011451721,-0.9478739500045776,0.3514127135276794,-0.7756815904021263,1.2566194792345164,0.5885232342824339,1.0081121921539309,1.6669632196426392,0.1754815280437469,-0.4242518327534199,0.5295242250859737,-0.0200589646231383,0.1341805309057235,-0.1573173403739929,0.6891502737998962
1774472498667207200,0.186207275390625,-0.1995493433982133,-0.2098486190944909,0.5641812585778534,-0.6534777879714966,-0.9974790215492249,0.4426645934581756,-0.8358411678105592,1.3363149472400546,0.5490555856384337,1.154423713684082,1.9412575960159304,0.1117608621716499,-0.4284779260158539,0.4035713021658361,-0.103569753133133,0.1407657265663147,-0.0704705938696861,0.6728842258453369
1774472498677235500,0.1962353515625,-0.1020452469795942,-0.1763205896325409,0.6148703392643481,-0.6516157388687134,-0.9258666634559632,0.4756329357624054,-0.5492436555564403,1.355415076768398,0.7564104882210493,1.2961690425872805,2.122766494750977,0.0070456364192068,-0.2367091534912586,0.2248196859940886,-0.1665293365236371,0.1642438769340515,0.0261218752712011,0.6364493370056152
1774472498687263200,0.20626318359375,0.1001660091042518,-0.2749808703489601,0.4406619925454259,-0.6434142589569092,-0.8747850656509399,0.4826213419437408,-0.0906646057873964,1.2849506707057357,0.8517956927895546,1.4042956829071045,2.103205680847168,-0.128076285123825,0.0829027396142482,0.0480409773305058,-0.2524669137891381,0.1811024844646453,0.1051650270819664,0.6010793447494507
1774472498697291300,0.216291259765625,0.1411579447060823,-0.396518899436295,0.3328286636836826,-0.6379193067550659,-0.8642867803573608,0.4902588725090027,0.5075134688079357,1.256988020285964,0.5429007162705064,1.4336596727371216,1.7656164169311523,-0.2546275556087494,0.3264414468646049,-0.0925157866120338,-0.3978046283978969,0.1710067838430404,0.1495800912380218,0.5757301449775696
1774472498707319300,0.2263193359375,0.1537304260313511,-0.5049212603576481,0.4706408781584352,-0.6409260034561157,-0.8879236578941345,0.4926741123199463,0.778835670518875,0.7315244687676429,-1.1318231790035962,1.1607977151870728,0.792481005191803,-0.3388962149620056,0.4269634297996759,-0.1538669118925929,-0.4974797121800482,0.1450329720973968,0.1495321542024612,0.5684376358985901
1774472498717347300,0.236347412109375,0.179652218273282,-0.4970356216743588,0.6311331995401531,-0.6491109728813171,-0.9350944757461548,0.4791056215763092,0.3411608770906925,1.0559171664088964,0.3124038614228367,0.9056304097175598,0.4437523186206817,-0.3516804575920105,0.533516509592533,-0.2005756177060306,-0.4665312508825212,0.1199270486831665,0.1098796278238296,0.5629737973213196
1774472498727375400,0.246375244140625,0.3063841627418994,-0.4768485736921429,0.7529787602066993,-0.6603846549987793,-1.0356727838516235,0.4289700090885162,0.1153887126773595,0.8089283187046646,0.7123170794725417,0.8195743560791016,0.9333549737930298,-0.2629626393318176,0.6565384936273098,-0.2151575391575693,-0.2949463845349848,0.1019211485981941,0.0469741597771644,0.5648587942123413
1774472498737403400,0.2564033203125,0.5456868398576975,-0.474628121163696,0.9314295668009668,-0.6605014801025391,-1.1306408643722534,0.3158458769321441,-0.3448684994369745,0.5259750081717968,0.9233212983429432,0.9077404737472534,1.0350924730300903,-0.0835044756531715,0.6728168437331915,-0.1878051295906305,-0.1317573714151978,0.0846734121441841,-0.0432385541498661,0.5721901655197144
1774472498747431200,0.26643115234375,0.841684633141756,-0.4641089191064238,1.030629434286803,-0.6360179781913757,-1.179672360420227,0.1177442222833633,-0.861022955340147,1.0974100372701885,0.6874512260243296,1.0293898582458496,0.8649219274520874,0.1442670673131942,0.6472013409614562,-0.1239548809707164,-0.0870316561125218,0.0708838328719139,-0.1379884928464889,0.5770096778869629
1774472498757460500,0.27646044921875,1.133804123687744,-0.505737399046123,0.9012526743978262,-0.6265947222709656,-0.9407076239585876,-0.0739767402410507,-1.3206243338942527,1.7020424025714396,0.2299938737615942,1.1080793142318726,1.0338855981826782,0.3667222261428833,0.6102747551023959,-0.0641769963562488,-0.1197524608448147,0.0581853799521923,-0.20489002764225,0.5723433494567871
1774472498767488300,0.28648828125,1.305190617918968,-0.6797070416383445,0.1306383042573928,-0.6199027299880981,-0.2713857889175415,-0.1761965900659561,-1.611845998817682,2.016843388263881,-0.2541094933643937,1.145272731781006,1.3416461944580078,0.548679530620575,0.5927823530316353,-0.0431423916339874,-0.1658409158680588,0.0475902594625949,-0.2326002269983291,0.5606880187988281
1774472498777516300,0.296516357421875,0.963137760424614,-0.8749901058942079,-1.175324028686434,-0.5595102310180664,0.2656393051147461,-0.14750736951828,-1.8813702111959456,2.6352044191882014,-0.1038560957938432,1.174349069595337,1.7157467603683472,0.6430843472480774,0.5661889451384544,-0.007187573416531,-0.2135911666236817,0.0347425602376461,-0.24864262342453,0.5461500883102417
1774472498787544300,0.30654443359375,0.1603705946981906,-0.7298093354128301,-1.5754238553494213,-0.4530679881572723,0.368385910987854,-0.0095223290845751,-1.7631436447441575,3.287684285074472,0.3149345489442348,1.2643150091171265,1.939844846725464,0.7178472876548767,0.4875859485447406,0.0036707974672317,-0.2756539473049342,0.0175752900540828,-0.25551837682724,0.5322427749633789
1774472498797572400,0.316572265625,-0.8138017699599266,-0.0956358183287084,-0.8593686122618616,-0.4015909135341644,0.1228514313697815,0.1161062493920326,-1.231823183891177,3.0075846104070543,-0.5601397281020879,1.4729098081588743,1.9360069036483765,0.7586621046066284,0.3799450735151767,0.0166381233289837,-0.3039094431914389,-0.0068379654549062,-0.2517920732498169,0.5220305323600769
1774472498807600400,0.326600341796875,-1.5636778879761697,1.1601346428610384,0.2570940621331334,-0.2277086079120636,-0.1579120606184005,0.1956522017717361,-1.144233747765422,2.366261806090176,-0.6472399194061755,1.7194392681121826,1.7195223569869995,0.7555935978889465,0.316730200189352,0.0704395638823509,-0.2584860279481857,-0.0231588818132877,-0.2352988421916961,0.5059391856193542
1774472498817628400,0.33662841796875,-1.9434896905004977,1.5501549740582703,0.1625084835097193,0.0807120725512504,-0.3214303851127624,0.1917669177055359,-0.9225123200476169,1.4808487981200218,-0.3134580466508865,1.9505585432052608,1.7285557985305786,0.7280181646347046,0.327304785695672,0.1781573035404086,-0.2052118992045521,-0.0445498079061508,-0.2250633537769317,0.4917980432510376
1774472498827656200,0.34665625,-1.9636153636842968,1.7973121640667318,0.3508423131495713,0.3657448887825012,-0.4286878705024719,0.2514092028141022,-0.5769236896425485,0.8388625614583491,-0.0956061538428068,2.164877653121948,1.8642878532409668,0.6471920609474182,0.2902244705796241,0.2648991829261183,-0.1986974027439951,-0.0610899031162261,-0.2158410996198654,0.4806053042411804
1774472498837684500,0.3566845703125,-1.7571096252769232,1.2297324952222406,0.5823632503479719,0.6525905132293701,-0.4228134751319885,0.388159304857254,-0.1856447366863489,0.5309878678977489,-0.2342678978189825,2.325192213058472,1.7223185300827026,0.497423380613327,0.2144131505310535,0.2953244240671396,-0.223739562607184,-0.0664644539356231,-0.1927828192710876,0.4785084724426269
1774472498847712300,0.366712158203125,-1.1740092928260564,0.5578937027409673,0.8996575141608715,0.8856663703918457,-0.3871457576751709,0.6058623194694519,0.062774143821001,0.3488236668035387,-1.0728270924165844,2.3620848655700684,1.4482498168945312,0.3220685422420501,0.1301917295336723,0.283456583879888,-0.2361413635406643,-0.0567732118070125,-0.1584165841341018,0.4859874546527862
1774472498857740300,0.376740234375,-0.7229688218683004,-0.2091138750791549,0.7000554176621139,1.0444382429122925,-0.3726999461650848,0.777816116809845,-0.0765618461549282,-0.0344432446107268,-1.877710519644618,2.212702989578247,1.4336576461791992,0.1819833368062973,-0.0219943896651268,0.1835880964174866,-0.3143292034622281,-0.0324687287211418,-0.1180648952722549,0.5076795816421509
1774472498867768300,0.386768310546875,-0.437051108571887,-0.5291059996739029,0.0562992487184703,1.1152442693710327,-0.3331368267536163,0.8467506766319275,-0.4367196846604347,-0.69321344281286,-2.2705217967346307,1.9454150199890137,1.4438766241073608,0.0847972929477691,-0.23579262316823,0.0644812399998307,-0.3948316770017147,0.0031494500581175,-0.0604442134499549,0.546225905418396
1774472498877796400,0.39679638671875,-0.0627782354742288,-0.2569492468349635,-0.3147833039052784,1.1050831079483032,-0.2266144752502441,0.8084242939949036,-0.3850935423195362,-1.0479013254746794,-2.49174141241014,1.596305012702942,1.4133185148239136,-0.0041104760020971,-0.406630835866928,-0.0316308175384998,-0.4792730243600904,0.0293536484241485,0.0017209323123097,0.5797478556632996
1774472498887824400,0.406824462890625,0.270666368150711,0.5382030599735677,-0.1921954735040664,1.0363059043884275,-0.1049453020095825,0.6616854667663574,0.0501449638724327,-1.2810399270027877,-2.436554947239161,1.2649284601211548,1.3772883415222168,-0.0888115018606185,-0.4238695554375648,-0.0740329121991991,-0.630647607980296,0.0310117322951555,0.0485156029462814,0.6226462721824646
1774472498897852400,0.416852294921875,0.368293798688054,0.963354033523798,0.1435192670099437,0.9178285002708436,-0.0593192800879478,0.453216552734375,0.580654692864418,-1.606734647153318,-2.109965031814576,1.0342351198196411,1.3660125732421875,-0.1992107182741165,-0.5573077195465564,-0.1630973893135786,-0.8829325893312692,0.0002138450508937,0.0860638916492462,0.6800495982170105
1774472498907880200,0.426880126953125,0.2789677480280399,0.8390550152905285,0.2729876507051288,0.7302879095077515,-0.3018869161605835,0.2794383764266968,0.7825158203363418,-1.6013059001028538,-1.4431430445820093,0.911246418952942,1.347126841545105,-0.3335464000701904,-0.896043999838829,-0.2642129542276263,-1.0502191739629954,-0.0370632223784923,0.1236549466848373,0.7561392784118652
1774472498917908500,0.436908447265625,-0.3470078495532274,0.5284406676329672,0.2583639359384775,0.5023616552352905,-0.7361738085746765,0.1631179600954055,0.4618213926911353,-1.2129919344320892,-1.017862745563686,0.8522846102714539,1.2830055952072144,-0.4437749087810516,-1.191052197563648,-0.349798649315536,-1.1204935373462737,-0.0712227076292038,0.1758566498756408,0.8461146950721741
1774472498927936300,0.446936279296875,-0.917113091352582,0.0088274495780467,0.2376028874605893,0.3010631501674652,-1.185782790184021,0.1205174922943115,-0.1002110172897577,-0.93198099013865,-1.274160396622121,0.8220967054367065,1.301645278930664,-0.4691486060619354,-1.4536989253878592,-0.39461657294631,-1.1254789245434105,-0.1015502512454986,0.2367162704467773,0.955573320388794
1774472498937964500,0.456964599609375,-1.069262385672331,-0.0141144500702619,0.6013695641130209,0.1761296242475509,-1.5297704935073853,0.1869168281555175,-0.3878115691065788,-1.198288870818913,-1.564016326150298,0.7831773161888123,1.3442491292953491,-0.3828499615192413,-1.7933306932151316,-0.3685606329306959,-1.100865584551543,-0.1260218471288681,0.3091587126255035,1.090789556503296
1774472498947992300,0.466992431640625,-1.1151438468813897,-0.009489128357172,1.0684612984225152,0.1634556353092193,-1.6435189247131348,0.3332726955413818,-0.1840226884424686,-1.358875154094398,-1.298886841599643,0.6507931351661682,1.2668259143829346,-0.2906530797481537,-2.14141698565483,-0.2799389311477542,-1.026989105023071,-0.1461915671825409,0.4028391242027282,1.2449040412902832
1774472498958020400,0.477020263671875,-0.4852402622014284,-0.2458668579369783,1.0626713168442248,0.2587206363677978,-1.502421736717224,0.4923087954521179,0.5522621265947818,-1.2176014740541576,-1.1078387845650317,0.42923703789711,1.0631932020187378,-0.2733830213546753,-2.430117023146152,-0.161515088558197,-0.9161194772053508,-0.1608389019966125,0.4976693987846374,1.413424730300903
1774472498968048400,0.48704833984375,0.3536638003110885,-0.5054527368858456,0.7096288633018731,0.439259797334671,-1.2607760429382324,0.6168930530548096,0.9730155958384274,-0.9481669857859611,-0.847343097294867,0.2332061976194381,0.874711811542511,-0.2984672486782074,-2.57477274684012,-0.0455997216582298,-0.8869920938551425,-0.1880473494529724,0.5686362385749817,1.5783183574676514
1774472498978076200,0.497076171875,0.8086936331659555,-0.6095981710150837,0.3463102226778864,0.6474432349205017,-1.104412317276001,0.7434151768684387,0.4938426708519458,-0.2827007970765233,-0.0920002383053302,0.136738508939743,0.814274787902832,-0.3198542892932892,-2.610470083165169,0.0264803029075264,-0.9655085081439464,-0.2391760796308517,0.6150304079055786,1.7444120645523071
1774472498988104400,0.5071044921875,0.5853402203321456,-0.6117243693888187,0.1746574787259101,0.8184394836425781,-1.0614653825759888,0.8781647682189941,-0.2611877611875534,0.6143176007524133,0.6169461956903338,0.1808920204639434,0.8816238045692444,-0.3153679072856903,-2.6886820346146822,0.0468193265810608,-1.0522446884412318,-0.3256108164787292,0.6396915912628174,1.9135576486587524
1774472498998132200,0.51713232421875,0.1534814197063446,-0.6105632166549563,0.174771460494399,0.8592337965965271,-1.1269346475601196,0.9891328811645508,-0.8459376144111156,1.2093678987160323,0.8151394483044743,0.3223799169063568,1.0092941522598269,-0.2696278393268585,-2.773686130422353,0.0389218513295054,-1.1217938793551177,-0.4347133338451385,0.6234166622161865,2.0902414321899414
1774472499008160300,0.52716015625,-0.1870510963529348,-0.563759672164917,0.0062716276153922,0.7083766460418701,-1.2300567626953125,1.0184087753295898,-1.0937357326716184,1.391078218562901,0.7010752622291445,0.4705819487571716,1.2026548385620115,-0.2030816525220871,-2.839897262954712,0.0667877633765339,-1.1121030178807676,-0.5492891669273376,0.5701172351837158,2.2827181816101074
1774472499018188300,0.537188232421875,-0.1420803202480077,-0.6217340144887566,-0.3027542818069458,0.390474796295166,-1.1836096048355105,0.9720496535301208,-0.8828834894925356,1.0629109708189963,0.426019426947832,0.5452417731285095,1.380180835723877,-0.1709386259317398,-2.959156679585576,0.2336959431499242,-0.9897218159675596,-0.6559911966323853,0.4980141222476959,2.477980375289917
1774472499028216300,0.54721630859375,0.1756827301204204,-0.3596542728975415,-0.6018453649312258,0.0860155671834945,-0.9060676097869872,0.922426700592041,-0.3262935628265142,0.4474649505585432,0.3236471399709582,0.5341941118240356,1.4663487672805786,-0.1904593855142593,-2.904092379489541,0.4909253221005201,-0.9168231684952972,-0.7708874344825745,0.4107481837272644,2.6601386070251465
1774472499038244400,0.557244384765625,0.4666308387994766,0.1753115587204694,-0.8766045553535222,-0.0974085852503776,-0.5295253992080688,0.9330729842185974,0.303456877118349,-0.0631280718252062,0.2608858556315303,0.4546122252941131,1.3659230470657349,-0.2337581217288971,-2.648018600314856,0.7012830597609281,-0.9857947787169368,-0.8953972458839417,0.327553391456604,2.8133294582366943
1774472499048272400,0.5672724609375,0.6935428208976984,0.5923480532675981,-1.086203583601117,-0.2344082593917846,-0.2853941619396209,1.0467265844345093,0.4957493812561034,-0.3923521351456642,0.2628250070005655,0.3279265165328979,1.156169891357422,-0.2395251542329788,-2.324368245473504,0.7538648953914642,-1.1095838746666908,-1.0328272581100464,0.2529947459697723,2.940964460372925
1774472499058300200,0.577300048828125,-0.0380664035439491,0.9621414428636432,-1.01566348195374,-0.3379084467887878,-0.1534842997789383,1.1898853778839111,0.335883813470602,-0.665544222381711,-0.14113427156955,0.1973594576120376,0.9806899428367616,-0.1764455139636993,-1.972079825168848,0.7475824541211128,-1.1780519923456012,-1.178770899772644,0.1924085915088653,3.0328564643859863
1774472499068328400,0.587328369140625,-0.044842181289196,0.745870097245276,-0.5435679480075836,-0.4283097088336944,-0.1926620602607727,1.2761590480804443,0.2747393166780472,-0.8411839901432394,-0.6455664332360029,0.0742176473140716,0.8878463506698608,-0.0802966505289077,-1.492922682273388,0.7923854724436998,-1.2024017129652202,-1.3209195137023926,0.1565651148557663,3.078366994857788
1774472499078356200,0.597356201171875,-0.3645195408463478,0.4386477301135659,-0.3715437403947115,-0.4635289013385772,-0.2294947952032089,1.2673792839050293,0.6481751544296741,-0.6603440233901142,-0.4217559242844581,-0.0104040270671248,0.8204649090766907,-0.0528786107897758,-0.9448217670112848,0.9931459451973438,-1.1214395129594952,-1.4421204328536987,0.1514361202716827,3.102766513824463
1774472499088384500,0.607384521484375,-0.1987269210994243,0.3200488232180476,-0.1197907470285892,-0.4429237842559814,-0.2641558647155761,1.1343512535095217,1.3806255058705803,-0.4025467814236879,-0.014791326418519,-0.0346982702612876,0.4813658893108368,-0.0830387771129608,-0.5097258841603994,1.3875620271354914,-0.8903580631569027,-1.5312540531158447,0.1540143340826034,3.116261959075928
1774472499098412300,0.617412353515625,0.0559060116171836,0.1904769791483879,0.0415606754004955,-0.3523986041545868,-0.3349968492984772,0.8858676552772522,1.6294512136131525,-1.0491770444989204,-0.1945668788105249,-0.0538503937423229,0.255814254283905,-0.0770373418927192,-0.154511931797862,1.8313620254457,-0.6097394061166793,-1.5981885194778442,0.147096186876297,3.1173465251922607
1774472499108440300,0.6274404296875,0.2723474531054496,0.0126680506542325,0.1139420210003852,-0.2034413516521453,-0.5353855490684509,0.5579028129577637,1.2524340102434155,-0.856211171144247,-0.0478799415498971,-0.1272785365581512,0.1968870311975479,-0.0356371738016605,0.1615858157068491,2.1318635598897933,-0.3708339846901595,-1.639840841293335,0.1313515901565551,3.1036596298217773
1774472499118468400,0.63746826171875,0.2827420058697462,0.3362827496603131,0.4444491098687052,-0.0411702394485473,-0.874642550945282,0.2315480858087539,0.8321043193697929,-0.0158192081615328,-0.3037374476253986,-0.1901525855064392,0.1158496960997581,0.0213454216718673,0.4527636414885521,2.332524079400301,-0.1206462678793817,-1.6689578294754028,0.1094828471541404,3.071425199508667
1774472499128496400,0.647496337890625,0.0010042086064815,0.658781596378982,0.6729577135086059,0.0961015969514846,-1.265429973602295,-0.0407614707946777,0.2417144144326448,0.2106847776576876,-0.1027373208969831,-0.1313213557004928,0.1274618804454803,0.0984679907560348,0.7660118447810411,2.457183309248089,0.0984433865627273,-1.6781362295150757,0.0834115669131279,3.01729416847229
1774472499138524400,0.6575244140625,-0.0291273102849721,0.2864408603876829,0.602486585444212,0.2073201984167099,-1.3960702419281006,-0.2101041376590728,0.0665431409657001,-0.2946542697206139,-0.165340199804306,-0.0217378735542297,0.2906593084335327,0.1574591398239135,1.1283803450733425,2.5459412046313283,0.2683607946220785,-1.664890170097351,0.0558514297008514,2.9324820041656494
1774472499148552400,0.667552490234375,0.7218903789818286,-0.5999582360103726,0.6092194008305668,0.2381164580583572,-1.3885396718978882,-0.2912245690822601,0.6787713682234287,-1.0025964951097963,-0.6282201616376638,0.056282602250576,0.4990369081497192,0.1427029371261596,1.4774907198637723,2.5455115810424087,0.417961281241849,-1.619235634803772,0.0265561267733573,2.8184852600097656
1774472499158580200,0.677580322265625,1.090890864634514,-1.1895666351810097,0.9886483415171504,0.1781287193298339,-1.1971584558486938,-0.2849887311458587,1.436796890425682,-2.21278330899328,-1.5914426777362822,-0.0418183989822864,0.4193665981292724,0.0364231020212173,1.778885403755307,2.498535310333967,0.6056255410570651,-1.5457768440246582,0.0100125689059495,2.649949073791504
1774472499168608500,0.6876083984375,1.1489262894958256,-1.511369024068117,0.6909025355219841,-0.1625082343816757,-0.850739598274231,-0.1865199357271194,2.347923893105984,-3.239109054736793,-2.3392834905326363,-0.3257234692573547,0.2117240130901336,-0.1385688036680221,2.2496657634496686,2.3238725709110497,0.6886895356476307,-1.4644700288772583,-0.044861864298582,2.435059070587158
1774472499178636300,0.69763623046875,0.7171060673147439,-1.3927774236962198,0.3465978074476122,-0.540910005569458,-0.639731764793396,-0.0563093200325965,2.28636672385931,-3.3814453955724835,-2.7550246845722195,-0.7048662304878235,-0.0314462929964065,-0.2566538751125335,2.59030641605854,2.0423744276225566,0.5990360796641558,-1.3736627101898191,-0.1260886192321777,2.225167751312256
1774472499188664300,0.707664306640625,0.0915560016691684,-0.8442401628434657,-0.1440951672017574,-0.6075428128242493,-0.482225239276886,0.0381828323006629,1.0954384449362755,-2.907818706536293,-2.3590654648453,-1.0027319192886353,-0.1173452287912368,-0.2285912781953811,2.5602438707500697,1.7579998521149158,0.7075653549008071,-1.2502888441085815,-0.2195615768432617,2.028130054473877
1774472499198692400,0.7176923828125,0.1165717849820852,0.5535661949306726,-0.630636867390573,-0.6086015105247498,-0.2843098938465118,0.0977643877267837,-0.2780225761324167,-1.6921733349859711,-1.6692220829874276,-1.1439340114593506,-0.0708925053477287,-0.0882624089717865,2.506786421328783,1.5255331584990024,1.0032483831472694,-1.095249056816101,-0.3225454092025757,1.834628701210022
1774472499208720400,0.727720458984375,0.450052044442296,1.5853005217194556,-0.310903978253901,-0.6703048348426819,-0.0795998871326446,0.1614424288272857,-1.0844921035081148,-0.5082268777742982,-0.4347217888414859,-1.058105707168579,0.1216358393430709,0.0578895099461078,2.494009357342124,1.331666536912322,1.206655863278359,-0.917511522769928,-0.4354967176914215,1.6382482051849363
1774472499218749200,0.737749267578125,0.2944195841819048,1.2728215492337942,-0.1405588097691535,-0.688197910785675,0.1909399777650833,0.2135488986968994,-0.8563397659599781,0.2988207417502999,1.0385223794937133,-0.8082224130630493,0.2788427770137787,0.1110347583889961,2.4625486356735227,1.1884282788008451,1.2652642657220363,-0.7314202785491943,-0.5360787510871887,1.4390151500701904
1774472499228777500,0.747777587890625,0.7401397368997334,0.4668634785115718,-0.5419494068950415,-0.6273718476295471,0.3428997099399566,0.2030507177114486,0.1456184312462806,0.7126762681737542,1.8054577688604592,-0.5038121342658997,0.2854765951633453,0.0439342185854911,2.37193429876864,1.024563412246108,1.1848895832806825,-0.5594133734703064,-0.6099662780761719,1.246557354927063
1774472499238805200,0.75780517578125,0.7903168494760989,-0.2767436422377825,-1.0521575216144323,-0.6179479956626892,0.363428920507431,0.1909083127975464,1.0809990006953478,0.9962494641706346,1.6983371183127165,-0.2333923578262329,0.1232373788952827,-0.0976032018661499,2.208980117318034,0.8798340387940407,1.0292169371403752,-0.4109543561935425,-0.6416198015213013,1.0749305486679075
1774472499248833500,0.76783349609375,0.2504576928585768,-0.7090326509743928,-0.923077260453999,-0.6981951594352722,0.2265120893716812,0.2164794504642486,0.7486141352564096,0.6884136413156986,1.689174737691879,0.00021578441374,-0.1075769066810607,-0.1763782501220703,1.9351403798282143,0.7849982848018408,0.817596193806827,-0.2846930921077728,-0.6375843286514282,0.927137017250061
1774472499258861300,0.777861328125,-0.2507943774670362,-0.7417679226234555,-0.7104892795234918,-0.8341759443283081,-0.0057092742063105,0.2694075107574463,-0.266516847255826,0.3141556735262275,1.3490917189657687,0.164220705628395,-0.1617080569267273,-0.1250942945480346,1.659916786764562,0.6483733073502779,0.640697512025386,-0.1764867007732391,-0.6142290234565735,0.8062613606452942
1774472499268889300,0.787889404296875,-0.5153717810928822,-0.2368207971721887,-0.3006558482229709,-0.9371859431266784,-0.1733259707689285,0.3147723376750946,-1.0369418323040007,0.4719917813107371,0.8248691074192523,0.2336805313825607,-0.0956240445375442,-0.0200682338327169,1.3659966765373943,0.523868975803256,0.5259073497630655,-0.0776666402816772,-0.5739785432815552,0.7132757306098938
1774472499278917400,0.79791748046875,-0.3438414944767952,0.1997480808407068,0.2741720381841063,-0.947974979877472,-0.2713683843612671,0.3275805711746216,-0.759682057237625,-0.2217553299874067,-0.2610913150757551,0.2564393877983093,-0.0321702361106872,0.0612164996564388,1.148873682525754,0.4120592906564473,0.4807809447050094,0.0165393520146608,-0.5201244354248047,0.6447946429252625
1774472499288945400,0.8079453125,-0.1013011506140232,0.1385378253355622,0.4311196726962923,-0.8513616323471069,-0.2289415597915649,0.2893226742744446,-0.5243664039313792,-1.1220356522217392,-0.5128694428831339,0.1430703401565551,0.0525689758360385,0.0957626402378082,1.1371204086288809,0.2225193000972271,0.4620310899190604,0.0897171571850776,-0.4401001930236816,0.5785184502601624
1774472499298973400,0.817973388671875,0.0835246709048748,-0.2437871290534734,0.2575046887606382,-0.7340109944343567,-0.1096512973308563,0.2223885506391525,-0.1563935077607631,-0.986302655173838,-0.7889630967795849,-0.0628908053040504,0.0558928661048412,0.0650984793901443,1.2376043976411222,-0.0360100555360317,0.3671678633980453,0.1331543177366256,-0.3331623077392578,0.5156224370002747
1774472499309001500,0.82800146484375,0.2197550960808992,-0.3885501125141978,0.1012295466825366,-0.6730978488922119,-0.0157479736953973,0.1556268334388733,0.3455950601458549,-0.9654138886630534,-1.1135305664658546,-0.211815059185028,0.0590554550290107,0.0349087491631507,1.3686492368727925,-0.2414998948991298,0.3157655929408967,0.1539347022771835,-0.2163006663322448,0.4569407403469085
1774472499319029200,0.838029296875,0.1424742880016565,-0.2046107184410095,0.2459086512520909,-0.674985408782959,0.0427088662981987,0.1055772304534912,0.6631377457618713,-0.8962965132951736,-1.6318647044956682,-0.3525905609130859,0.0456259325146675,-0.0109370369464159,1.4713283978417515,-0.3539829492628574,0.3254176567748189,0.1570504158735275,-0.10135979950428,0.400012195110321
1774472499329057500,0.8480576171875,0.1525491072922944,-0.0137760118961334,0.3587736906707287,-0.7146739363670349,0.18510702252388,0.1062350273132324,0.9417951126664876,-0.8740645154818892,-2.1471914774030445,-0.5132522583007812,0.0011435092892497,-0.086169958114624,1.6258043815433978,-0.4115151007771492,0.3726572545945644,0.1419718712568283,-0.0021727622952312,0.3350861966609955
1774472499339085300,0.858085205078125,0.0927916809439659,0.0144119717121124,0.5190478392571211,-0.7305845022201538,0.1019157841801643,0.1780769079923629,1.002679497218132,-1.0129226588129996,-2.421875264501572,-0.6759833693504333,-0.0053162542171776,-0.1873048245906829,1.8113129246294497,-0.4621691832154989,0.4113724774360656,0.1082157120108604,0.0459259040653705,0.2749025821685791
1774472499349113300,0.86811328125,-0.253635153850913,-0.2317728661328554,0.6681818774089217,-0.6838441491127014,-0.0706376135349273,0.3107286989688873,1.0689175177574155,-0.9853644975408912,-2.439229134884477,-0.7996945381164551,-0.0292587783187627,-0.2648229897022247,1.955894998565316,-0.4983674548000097,0.4907432435318827,0.0679700225591659,0.0191020108759403,0.2264002859592437
1774472499359141400,0.878141357421875,-0.5210615171670914,-0.3289367708116769,0.596320756290853,-0.5817152857780457,-0.0747692510485649,0.4611796438694,1.2684604314148424,-0.867692057840526,-2.033129044893384,-0.8703694939613342,-0.1010663881897926,-0.3497876822948456,2.056665695564449,-0.4799503390997648,0.6168595403201877,0.0200175419449806,-0.080300398170948,0.2109316140413284
1774472499369169200,0.888169189453125,-0.0584831686288118,-0.1290618487209081,0.6954302420794963,-0.4539253413677215,-0.08106230199337,0.6050359010696411,1.3985264887422322,-0.7640107340916991,-1.4573410812824965,-0.8868101239204407,-0.2120289355516433,-0.4681029319763183,2.064088831302524,-0.5230909771680832,0.8657657659530639,-0.0008049171883612,-0.1804501712322235,0.1925155967473983
1774472499379197400,0.898197509765625,0.0240998375117778,-0.1818383301407098,0.574526273111999,-0.3588734865188598,-0.0787448585033416,0.7254385352134705,1.369005795225501,-0.2736474297881126,-0.8006348298728465,-0.8532788157463074,-0.3237767815589905,-0.5872678756713867,2.068680250746012,-0.4637912314593791,1.1602341577127575,-0.0083489334210753,-0.2963059842586517,0.1813795417547226
1774472499389225200,0.90822509765625,-0.1149649343073368,-0.0856590525850653,0.1756976354286074,-0.3015132546424866,0.04330675303936,0.819322407245636,0.9780231948673724,0.5445432227805257,-0.3259598008275032,-0.7919164896011353,-0.4930154383182525,-0.6525945663452148,2.0116303297907114,-0.4635545000940561,1.096523755954951,-0.0205318294465541,-0.4295428693294525,0.179164856672287
1774472499399253200,0.918253173828125,0.1409060157716274,-0.0479746340960264,0.2694327347025275,-0.2545260488986969,0.0240805931389331,0.8771582841873169,0.0285375276982784,0.8428849488422274,0.1335480542242527,-0.6481992602348328,-0.6080368161201477,-0.6246005296707153,1.9324170923441648,-0.5096195011764765,0.9701202397231012,-0.028172193095088,-0.5552874803543091,0.1688131988048553
1774472499409281300,0.92828125,-0.260882640761137,-0.1424412625148892,0.3121566086634993,-0.2165813148021698,0.0214568469673395,0.8787892460823059,-0.946070890289545,0.6655626348212361,-0.0479191045165061,-0.5342422127723694,-0.5249969959259033,-0.5025258660316467,1.9138158522486688,-0.4555073872387409,0.8985769523825496,-0.0330998413264751,-0.6555179953575134,0.1528816372156143
1774472499419309300,0.938309326171875,-0.5606874251127243,0.0451943557277321,0.2168152432367205,-0.2268329113721847,0.0508526042103767,0.8032107949256897,-1.508051277822256,0.1696320517793297,0.0816547853797674,-0.4685758352279663,-0.385971188545227,-0.345671534538269,1.8232102831721304,-0.4317904115647077,0.7729529691558331,-0.0430680364370346,-0.7276324033737183,0.1364793330430984
1774472499429337300,0.94833740234375,-0.5209773460149765,0.341254985114932,0.2059331992164254,-0.3336211442947387,0.0631119310855865,0.6874700784683228,-1.4989958647072317,-0.2850900303006172,0.0341641354084014,-0.449999064207077,-0.3082435429096222,-0.209820955991745,1.6952780230030415,-0.3826765443056821,0.6009756694246083,-0.0485405661165714,-0.772341251373291,0.1195472329854965
1774472499439365400,0.958365478515625,-0.685745883411169,0.9817679343536496,0.3158618929222226,-0.4739610850811004,0.0727437809109687,0.5887423753738403,-1.2045014617234469,-0.6563078997418283,0.128940852689743,-0.4540305733680725,-0.2666098177433014,-0.1075963154435157,1.5594915422022342,-0.3429863389521837,0.4922689187292009,-0.0384567342698574,-0.7852789759635925,0.0978848859667778
1774472499449393200,0.96839306640625,-0.5240507621109486,1.0029705891191958,0.3920706878557801,-0.5447713136672974,0.0992899090051651,0.5370616316795349,-0.8253051607489585,-0.7848121145799756,0.4455997412085533,-0.4962562620639801,-0.1959220618009567,-0.0620827600359916,1.4213663893207906,-0.327062209111452,0.4260517948474734,-0.0139825493097305,-0.7668509483337402,0.0724021568894386
1774472499459421400,0.97842138671875,-0.1294447105586528,0.5519307026833296,0.2356333409532904,-0.5187444090843201,0.1645224839448928,0.523227334022522,-0.3273322582244873,-0.6497773289293051,0.6293365984469652,-0.5385632514953613,-0.1495263278484344,-0.0674309208989143,1.2471803274989128,-0.3162251732766628,0.3919185660339891,0.0247547458857297,-0.714030921459198,0.0508454144001007
1774472499469449200,0.98844921875,0.1025876832932233,0.137305360931158,-0.0597647328719496,-0.420470267534256,0.2810315489768982,0.5100947618484497,-0.0447159245610237,-0.3939420346856117,1.0609054762154817,-0.5135014057159424,-0.1079701036214828,-0.0866604298353195,1.059300963628292,-0.3048392713874578,0.3635585137944668,0.0753209814429283,-0.6288856267929077,0.0297838039696216
1774472499479477500,0.9984775390625,0.3431055814176798,-0.3240338012009859,-0.2227332351088523,-0.3140049874782562,0.4114058017730713,0.4725906252861023,0.0664157151937484,0.1376873459860682,1.3760066138982772,-0.4349967241287231,-0.0466891676187515,-0.1162079274654388,0.9257222220048308,-0.3307710005015135,0.3185595345083624,0.1262988150119781,-0.5138885378837585,0.0047266157343983
1774472499489505300,1.00850537109375,0.6751876645177602,-0.4464250861167907,-0.2326543251425027,-0.3069811761379242,0.4979412257671356,0.409619927406311,0.2287806985795497,0.5990615794315934,1.303678459790349,-0.304239422082901,-0.0186570938676595,-0.1637933701276779,0.7718342673242091,-0.3190957602769136,0.2815681397847831,0.179616630077362,-0.3707140684127807,-0.0248994529247283
1774472499499533300,1.018533203125,0.653130731010437,-0.0630003537923097,0.0233250537469983,-0.3143718838691711,0.5338118672370911,0.3585273921489715,0.3948457055270671,0.5648828309759497,2.118711232849956,-0.0702476799488067,0.1298282593488693,-0.2072609663009643,0.6790940243065356,-0.2477162851959466,0.2554253252033144,0.2309128642082214,-0.2163813561201095,-0.0550732016563415
1774472499509561300,1.028561279296875,0.5762134955465793,-0.0265232652664184,0.3019286446377635,-0.2865740656852722,0.4898968636989593,0.3302275836467743,0.6739414638489485,0.571889202606678,1.9985686036437749,0.133126214146614,0.0987187102437019,-0.247125893831253,0.598047726213932,-0.1778477991998195,0.2346262097373604,0.2834991216659546,-0.0595877394080162,-0.0810518115758895
1774472499519589400,1.03858935546875,0.2693371653735637,-0.2411369068056345,0.3441170965477824,-0.2073832899332046,0.4384181201457977,0.3119156658649444,0.7513350846529007,0.5410755466699599,1.6139514466643332,0.2967817187309265,-0.0230450071394443,-0.2740166187286377,0.5488178313598037,-0.157436294811964,0.2349628212805837,0.330384224653244,0.0833019986748695,-0.1232422292232513
1774472499529617400,1.048617431640625,-0.1082201362222433,-0.3198813576966524,0.4366641550809145,-0.1056662499904632,0.2999401390552521,0.333497405052185,0.6974182010263205,0.1724292812824249,1.376051622083783,0.4375748336315155,-0.0629895776510238,-0.2922923266887665,0.6200520527511835,-0.2237806983351707,0.2170440835565328,0.3636625409126282,0.1961177587509155,-0.1734760999679565
1774472499539645400,1.0586455078125,-0.6036340019136667,-0.1987608233690261,0.5089581146582961,-0.0522896125912666,0.1497252285480499,0.4019128382205963,0.6805787099063396,-0.0642094373211264,1.008583752825856,0.5282658338546753,-0.111304648220539,-0.3206046521663666,0.6661772595882416,-0.3253554051935672,0.1394666306182742,0.3772961795330047,0.2664484083652496,-0.2187462896108627
1774472499549673200,1.068673095703125,-0.7772884410768747,-0.1488005684137344,0.5506871323630214,-0.0619062855839729,0.0420509651303291,0.4917870759963989,0.3902957871377467,-0.1959764533475041,0.6101549281150103,0.5730631351470947,-0.1999351680278778,-0.3282071053981781,0.6268652398973703,-0.4299667032688856,0.1227491584427654,0.3748442232608795,0.286553144454956,-0.2495899498462677
1774472499559701500,1.078701416015625,-0.4564227485179901,-0.0465279424190521,0.5420718642309308,-0.0892483294010162,0.0310037806630134,0.5619161128997803,-0.2071136411726474,-0.3805041687026619,0.3170861740201711,0.5813642144203186,-0.2004651427268982,-0.2894429266452789,0.6340118967816233,-0.4961731596261262,0.1956077661655843,0.3578898310661316,0.2489307075738906,-0.2718091011047363
1774472499569729300,1.088729248046875,0.016425065100193,0.0031289456754922,0.350719855813682,-0.1266210079193115,0.1854351609945297,0.5719447731971741,-0.8102502149581908,-0.3972521821469068,0.0343932679891586,0.562915027141571,-0.0856623128056526,-0.2130094468593597,0.6051657415255904,-0.4983563488841056,0.2510976712625473,0.3321274518966675,0.1653740257024765,-0.2760733366012573
1774472499579757600,1.098757568359375,0.5261638087421655,-0.165545366987586,-0.1351584120303392,-0.1553303450345993,0.3219051957130432,0.5301303267478943,-1.007776528096199,-0.3890291282027959,-0.1637812799245119,0.5332806706428528,0.0733009725809097,-0.1359444856643676,0.5268038602113724,-0.4544119932174682,0.3261359611120075,0.3054360449314117,0.0604250282049179,-0.2719028294086456
1774472499589785300,1.108785400390625,0.70689330085814,-0.3139554747790098,-0.5417325492739677,-0.1502652764320373,0.3031690716743469,0.4973106384277344,-0.8172714918971061,-0.3500610996440053,-0.2518330728650093,0.5038450956344604,0.1751445233821869,-0.092289313673973,0.4826023149132728,-0.4013035033643245,0.3582977437220513,0.2740245759487152,-0.0510897785425186,-0.2626603245735168
1774472499599813000,1.118813232421875,0.3595604571342468,-0.3668722414523362,-0.7275418288722634,-0.1940962225198745,0.2320570051670074,0.4407636225223541,-0.4439817846179008,-0.2770478858813643,-0.208373285844922,0.477407842874527,0.2402212619781494,-0.0902192443609237,0.465117511627078,-0.35353052932024,0.3560928540889173,0.2394256889820099,-0.1618408411741256,-0.2508491575717926
1774472499609841400,1.12884130859375,0.2559539521872997,-0.0171159699738025,-0.8222446041345596,-0.2982487380504608,0.2804503738880157,0.3241371214389801,-0.0386982717067003,-0.1181876957461237,-0.0307084419965744,0.4573299884796142,0.2671276032924652,-0.1218825280666351,0.4220391251400113,-0.3443611344367265,0.3001651420965791,0.2010183781385421,-0.2549366652965545,-0.2370150983333587
1774472499619869200,1.138869140625,0.0468751484215259,0.8398731998056173,-0.3720812082722783,-0.4236334562301636,0.3431168496608734,0.1170364245772361,0.2817266913473606,0.0658472676560282,0.2086304754763841,0.4549057185649872,0.2757408022880554,-0.1811083108186721,0.41087008087188,-0.3788303902715444,0.2318232080806046,0.1653374433517456,-0.3321765661239624,-0.2288691848516464
1774472499629898200,1.148898193359375,-0.2174199311316013,1.2541408141613006,-0.0887421132922172,-0.4994062483310699,0.3043755888938904,-0.1291238218545913,0.5496493137478828,0.3094534871846437,0.1461708044320344,0.4678561389446258,0.1697110384702682,-0.2389429360628128,0.4151140020519495,-0.4184890314429998,0.1307644148550927,0.1242659091949462,-0.3869873583316803,-0.2219692021608352
1774472499639929000,1.15892919921875,-0.5031079273253679,1.1225146679103373,1.34440034627e-05,-0.4386777579784393,0.44062539935112,-0.3927152752876282,0.5727051951646804,0.4784384732320904,0.1135726031661033,0.4954201281070709,0.0342770516872406,-0.2760748863220215,0.4195131137937307,-0.4534902021974324,0.0087306746726855,0.0911956503987312,-0.4236941039562225,-0.2159794718027115
1774472499649958100,1.168958251953125,0.0232259772866964,0.8332938214153051,0.2650833073213696,-0.2853566408157348,0.4309357404708862,-0.633023738861084,0.4406780668973922,0.3775134624540806,0.2274643552839756,0.512946367263794,-0.0451092980802059,-0.296234667301178,0.3774439043492079,-0.4713730648905038,-0.0600177577849477,0.0630750656127929,-0.4387689232826233,-0.207331120967865
1774472499659986000,1.17898583984375,0.3365945920884609,0.9169698834896088,-0.03078179949373,-0.2601845860481262,0.3282057046890259,-0.73272705078125,0.3192091575235128,0.3933174730464815,0.0723918669939041,0.4924488365650177,-0.0987573415040969,-0.3145473599433899,0.3210901489645242,-0.4482733443319797,-0.107937227627635,0.0421752817928791,-0.4318934679031372,-0.1928554028272628
1774472499670014200,1.18901416015625,-0.6129805069297551,0.236066763934493,-0.5753153776630759,-0.2995224297046661,0.4077812135219574,-0.7240400910377502,0.1839198125898838,0.4041226524382829,-0.1268067632704973,0.4577193558216095,-0.1221196576952934,-0.3314194679260254,0.2585048057138919,-0.4043044387459755,-0.1421202503995969,0.0263566374778747,-0.4072206020355224,-0.1813878268003463
1774472499680042000,1.1990419921875,0.2461491820096969,0.0738695383310318,-0.4615802774116396,-0.3474719822406769,0.3938309550285339,-0.6683336496353149,0.0645002369612455,0.2569113990426063,-0.2860474771559238,0.4078695178031921,-0.1311871856451034,-0.3489406704902649,0.219611888217926,-0.3515934237778186,-0.173323818969354,0.0122700836509466,-0.3713454306125641,-0.1702438741922378
1774472499690070300,1.2090703125,0.249390355888009,0.3377694810867309,-0.2951993363827467,-0.3595680594444275,0.3111421763896942,-0.5824661254882812,-0.0172369660049676,0.1529474589601159,-0.3528179971367121,0.34392911195755,-0.124367631971836,-0.3706123232841491,0.1898603085547685,-0.3347328898698091,-0.1933811396246776,0.0052089784294366,-0.3308403491973877,-0.1616381406784057
1774472499700098000,1.21909814453125,-0.0088654435008764,0.5446592503756285,0.2612465056374669,-0.3255956768989563,0.1865010857582092,-0.462711751461029,-0.0061713821113109,0.1703217876091599,-0.4012134869933128,0.2829219698905945,-0.1154516339302063,-0.3909892439842224,0.1727840860694646,-0.349990664756298,-0.215000412367098,-0.0015094900736585,-0.290998637676239,-0.1557962447404861
1774472499710126000,1.2291259765625,-0.5104302330374717,0.8842115232259035,-0.0081176938734948,-0.3297672569751739,0.2104450464248657,-0.2955019772052765,0.0325929405689239,0.1886921415582299,-0.4109323324531316,0.237004280090332,-0.132662832736969,-0.4083957374095917,0.1491337458908558,-0.3428828785777091,-0.2150355932783335,-0.0008226608624681,-0.2531577944755554,-0.1497942805290222
1774472499720154000,1.239154052734375,-0.552229977890849,0.7312497434794902,0.0528613832242786,-0.3429195880889892,-0.4834577739238739,0.1754620373249054,0.1218506021678447,0.2222548039421439,-0.3517652732133865,0.210834726691246,-0.1843396127223968,-0.4174057245254516,0.0999526586145162,-0.3251426392257213,-0.1995292504582554,0.0036030462943017,-0.211883008480072,-0.1434301882982254
1774472499730182000,1.249181884765625,-2.0986270607203243,0.2416203064084053,0.0764382197752595,-0.2815822064876556,-0.9852972030639648,0.7505485415458679,0.2039572229683399,0.2363499647900462,-0.3613292203724384,0.1943606883287429,-0.2489210069179535,-0.4232939779758453,0.0706672351583838,-0.3528016305238008,-0.1890085140310227,0.0127603253349661,-0.1715664714574813,-0.139626920223236
1774472499740210200,1.259210205078125,-0.8808937769800425,0.0599906505823135,0.4748740587487816,-0.1497230976819992,-1.0715975761413574,1.2281533479690552,0.2047568489134311,0.2479340195998549,-0.3349947556763887,0.179211288690567,-0.3056080043315887,-0.4276730120182037,0.0279267023235559,-0.3740314655572175,-0.1752650161650031,0.0224791038781404,-0.1330649703741073,-0.1369878202676773
1774472499750238000,1.269238037109375,-0.197436881288886,0.3188181123793125,0.8242921843141316,-0.0324848815798759,-0.9168300628662108,1.3846734762191772,0.1405851132541895,0.262600258333981,-0.3099702045351267,0.1616557240486145,-0.3544611036777496,-0.4245259463787079,0.0024386253237724,-0.3795826699435711,-0.1906030897460877,0.0296597853302955,-0.0976949855685234,-0.1330266296863556
1774472499760266000,1.279265869140625,-0.1871183163702487,0.2141565454214811,0.0466261420965194,-0.0022571668960154,-0.8044669032096863,1.2458362579345703,0.091916651675105,0.1750283578649163,-0.3840571850091219,0.1417928040027618,-0.3821054995059967,-0.408339262008667,-0.0185948103547096,-0.3518447681903839,-0.1688351657805964,0.0366332978010177,-0.0681742280721664,-0.126357153058052
1774472499770294000,1.2892939453125,-1.2243980023264884,0.1452659645467996,-0.1235512686058878,-0.0136999702081084,-0.8143685460090637,0.9412364959716796,0.0802601161509752,0.0759787855699658,-0.4130670063942671,0.1169589459896087,-0.3925012350082397,-0.3975690603256225,-0.0634302696421742,-0.3214455382734537,-0.1512909604573622,0.0459208041429519,-0.0416291691362857,-0.1199607700109481
1774472499780322000,1.299322021484375,-1.7503607355386015,0.5286188006788491,0.3040226943075657,-0.0115108611062169,-0.8130911588668823,0.6603178977966309,0.095035075956583,0.0402834950715303,-0.3853928175270557,0.0907968506217002,-0.4035440385341644,-0.3920299410820007,-0.0821019446253776,-0.2711731486290693,-0.11294000435099,0.0477995835244655,-0.0201465524733066,-0.1116877049207687
1774472499790350000,1.30935009765625,-1.1306050353854893,0.6479577122867107,1.0310022131219505,0.0365192480385303,-0.7925779223442078,0.5130445957183838,0.1164221473783254,-0.0101049221679568,-0.3959358388513326,0.0589534528553485,-0.4312894940376282,-0.3878695964813232,-0.0728705904215574,-0.2347539277702569,-0.0706821769991889,0.0514049716293811,-0.0081527400761842,-0.1017730236053466
1774472499800378000,1.319378173828125,-0.2244657579898834,0.3454232107102871,1.047949840791523,0.0517316944897174,-0.6379078030586243,0.4604023694992065,0.040256022542715,-0.1033466849669814,-0.2721130598276853,0.0222218036651611,-0.4383718967437744,-0.3678277134895324,-0.0627244594603776,-0.1948199767887592,-0.0572865792553871,0.0519426390528678,5.60372136533e-05,-0.0894640162587165
1774472499810406000,1.329406005859375,0.7279927875101566,-0.0344365226089954,0.7655158779576421,0.0570263266563415,-0.3489545583724975,0.4290830492973327,0.0295399827390909,-0.1027154013261198,-0.074042556810379,-0.0120208701118826,-0.4402504861354828,-0.3536793291568756,-0.0757557904690504,-0.1736129381090402,-0.0010938231186941,0.0561509653925895,0.0043455902487039,-0.0735921114683151
1774472499820434200,1.33943408203125,1.4591203659147025,-0.1336076754570007,0.4618728306174278,0.0437043160200119,-0.0114207351580262,0.4043202400207519,0.1224199264883995,-0.0620037439703941,0.0888572641044855,-0.0314883105456829,-0.4501438438892364,-0.3514025807380676,-0.0879132612526416,-0.1432125391483306,0.029349063276872,0.0585442185401916,0.0110462978482246,-0.0593314543366432
1774472499830462000,1.3494619140625,1.590100615477562,-0.1791302402257919,0.1581719156101346,-0.017304178327322,0.2544690072536468,0.3859252333641052,0.2328092234432697,-0.0070537179037928,0.2625684018909931,-0.0323819369077682,-0.4772282838821411,-0.356602281332016,-0.0898667334079742,-0.0897989288687706,0.0383643270445987,0.0597764663398265,0.0239338669925928,-0.0414621792733669
1774472499840490000,1.359489990234375,1.1293448061913252,-0.1777589518725872,0.3246335206598043,-0.0878085494041442,0.4104819595813751,0.3715350329875946,0.3015875761151314,0.0230032744467258,0.3502683126538992,-0.0253783538937568,-0.5160931348800659,-0.3600004911422729,-0.072606386527419,-0.0228711724996566,-0.0027722046596929,0.0607747435569763,0.0465552471578121,-0.0266418363898992
1774472499850518000,1.36951806640625,0.4987316119372844,-0.2360351997524499,0.8807403399839997,-0.0912695974111557,0.4405237436294555,0.370974987745285,0.2693453486800193,-0.0283446354746818,0.3468669797778129,-0.0252743456512689,-0.5548363924026489,-0.3491429984569549,-0.0581412233233451,-0.0036094226688146,-0.0052846624046564,0.0593486204743385,0.0711032003164291,-0.0130732953548431
1774472499860546000,1.379546142578125,0.041966333591938,-0.340786783081293,1.2419441804111002,-0.0353526249527931,0.4054442048072815,0.4155789315700531,0.1906862379848957,-0.0680114599525928,0.1571633230894804,-0.0417276211082935,-0.5917999744415283,-0.3139602541923523,-0.0469996515840291,-0.000842880564928,0.020021774417907,0.0567230135202407,0.0952115803956985,0.0025505919475108
1774472499870574000,1.389573974609375,-0.4209346710294485,-0.6348509779542684,1.3126596386253833,0.0725179091095924,0.3912200033664703,0.5022059082984924,-0.0313777195602655,-0.2033361684605479,-0.0750076024502515,-0.0716995149850845,-0.5992341637611389,-0.2557709813117981,-0.0236678758352994,-0.0061117608785629,0.0396714275877922,0.0558412447571754,0.0997570604085922,0.0112538021057844
1774472499880602000,1.39960205078125,-0.4162859684407711,-0.9815443547308444,1.1474588472917675,0.1867747604846954,0.3517948091030121,0.6465790867805481,-0.3582254091382026,-0.3077653879672288,-0.2572226569488644,-0.123344600200653,-0.5432731509208679,-0.1772657930850982,0.0311105930566787,0.0199520701825618,0.0591795533951371,0.0496895350515842,0.0890935808420181,0.0140952710062265
1774472499890630000,1.4096298828125,-0.3190320473909377,-0.921605726596713,0.9861635389640928,0.2982261776924133,0.2995792627334595,0.8380473256111145,-0.4792775544047355,-0.3263958541572094,-0.3202876004099845,-0.1718837618827819,-0.3966867625713348,-0.1102176681160926,0.0873100346624851,0.0005342530071735,0.0706124362312257,0.0484690070152282,0.0611303895711898,0.018819186836481
1774472499900658200,1.419658203125,-0.2496983989238738,-0.5941670853883028,0.9598118308722972,0.4034359753131866,0.2928995490074157,1.0104955434799194,-0.3358563409417867,-0.2290688678711652,-0.3823047883838414,-0.2103864103555679,-0.2527777850627899,-0.0813809633255004,0.0532785857230424,-0.0596440291017293,0.1284537998251617,0.0480247661471366,0.0306487660855054,0.0279385186731815
1774472499910686000,1.42968603515625,0.0930716669291257,-0.42434477173388,0.800574331857264,0.5206174850463867,0.4149338603019714,1.1306700706481934,-0.049803018566966,-0.1764607287555933,-0.3541039452940225,-0.2169390022754669,-0.1522043198347091,-0.0826366692781448,0.0020528408765792,-0.0915519100159406,0.1787958571722731,0.0517278909683227,0.0002301414497196,0.0392590835690498
1774472499920714200,1.43971435546875,0.4928057290196418,-0.3975567180514335,0.567004645435512,0.5502909421920776,0.5782533884048462,1.2014285326004028,0.2361497660428285,-0.2065621447697281,-0.2537123107403516,-0.2153043448925018,-0.0998729392886161,-0.1036436855792999,-0.0351136912181973,-0.0778232443928718,0.1708435464609414,0.0600494071841239,-0.0186131820082664,0.0465212315320968
1774472499930742000,1.449741943359375,0.8179705800771713,-0.2503893037974834,0.5083247851908207,0.5204664468765259,0.6400469541549683,1.154650330543518,0.4911556237250566,-0.2341021858632564,-0.2101654299587011,-0.2190482020378112,-0.0792632699012756,-0.1305958926677703,-0.0165612587004899,-0.0499549942582845,0.1387926038142293,0.0674476623535156,-0.0204592831432819,0.0493194162845611
1774472499940770000,1.45977001953125,0.3851064018011093,0.1266162091344594,0.6007508476927876,0.4449636042118072,0.646433413028717,0.9858956336975098,0.6760533414363861,-0.2886708113968372,-0.1101911440342664,-0.2265833467245102,-0.0771487206220626,-0.1704570204019546,0.0065180035918951,-0.0395493355780839,0.0717892249256372,0.071657970547676,-0.0109838647767901,0.0500163845717906
1774472499950798000,1.469798095703125,-0.1701566601753234,0.6113280635476112,0.4114028725743293,0.329687088727951,0.616850733757019,0.7926241755485535,0.8541331958264112,-0.2912067596152424,5.0268882513e-05,-0.2320845276117324,-0.1038904935121536,-0.2263626903295517,0.013090367719531,-0.0271568869948387,0.0124966761427,0.0766934752464294,0.0112918801605701,0.0550138056278228
1774472499960826000,1.479826171875,-0.4714823704838752,1.0438929666161536,0.2986678892761468,0.2779470384120941,0.5378262400627136,0.6287316083908081,0.9295049554139376,-0.3047878334611654,0.0336748905867338,-0.2453997880220413,-0.1636829972267151,-0.2881674468517303,0.0139887778639793,-0.0303179813742637,0.0011612988643348,0.0838261023163795,0.0273801423609256,0.0562135428190231
1774472499970854100,1.489854248046875,-0.5924380696386099,0.9893716873556376,0.2195598657697439,0.2419858276844024,0.5239890217781067,0.4991078078746795,0.7336445296615361,-0.3231505886256695,0.1196981003090739,-0.2628791928291321,-0.180579587817192,-0.3403947949409485,0.0126379477769136,0.0061819035053253,0.0156654423719272,0.0902424603700637,0.0406386889517307,0.0609382539987564
1774472499980882000,1.4998818359375,-0.453045381039381,0.6577168897569179,-0.0219216166898608,0.2301879376173019,0.5827394723892212,0.3989476263523102,0.4970160401910543,-0.2674573429763316,0.1485530233934521,-0.281494140625,-0.1610623449087143,-0.3715300858020782,0.0561257918477058,0.015466449201107,0.0509448455458506,0.0986183509230613,0.04828991740942,0.0615127608180046
1774472499990910000,1.509909912109375,-0.0622007278472185,0.5639508108228445,0.0208776605948805,0.2027970552444458,0.679584264755249,0.3656668961048126,0.2459258946478366,-0.153525258848071,0.216187758988142,-0.2915420234203338,-0.1555598080158233,-0.3787660300731659,0.0831856482088565,-0.019860300245881,0.0525058660511858,0.1021395772695541,0.0521368533372879,0.0672492086887359
1774472500000939000,1.51993896484375,0.0505903695523738,0.5341816955029964,0.1305403968408703,0.1662478595972061,0.7454432845115662,0.3772520422935486,-0.1025093573600053,-0.0192991592317819,0.4181055850833654,-0.2882218658924103,-0.0920207872986793,-0.361350804567337,0.1048258176088333,-0.0610772767752408,0.0473377061656676,0.1032180562615394,0.0530482605099678,0.0716573596000671
1774472500010967000,1.529967041015625,0.0654074149340391,0.4003828813880681,0.0349263519525527,0.1435902267694473,0.7410194873809814,0.4034474194049835,-0.3186614605128764,0.1651636741936206,0.5793213984340428,-0.261169821023941,0.0048312777653336,-0.3335944414138794,0.1381926651597023,-0.0717874713599681,0.0490549401460215,0.0974043756723404,0.0543537437915802,0.0748859122395515
1774472500020995000,1.5399951171875,-0.0962631564468145,0.2944014640033245,-0.0017205401822924,0.1703844368457794,0.6325136423110962,0.50489741563797,-0.3985521588295698,0.2938052516758441,0.7410384393051266,-0.2042106837034225,0.0878017991781234,-0.3099788725376129,0.1596615696460008,-0.0680757573604583,0.0289057582224719,0.0971300676465034,0.0566584467887878,0.0757317319512367
1774472500031023000,1.550023193359375,-0.6019669454842805,-0.1609580391973257,-0.2740335064962506,0.2077227532863617,0.6418424248695374,0.6003570556640625,-0.3891004398733377,0.3689531393796205,0.9410048390716312,-0.123592272400856,0.1361200511455536,-0.3000644445419311,0.190353645029664,-0.0996358477503061,0.0044655463078059,0.096720203757286,0.0618058070540428,0.0747072175145149
1774472500041051100,1.560051025390625,-0.3701262748122215,-0.519447067707777,-0.2858826419830322,0.1841266602277755,0.7786945700645447,0.6052348613739014,-0.2393465162575244,0.3805848327234387,0.954573345696926,-0.0362408570945262,0.1525227278470993,-0.2925149202346802,0.2210746542468667,-0.1513905849069357,-0.0157617058206349,0.0999422743916511,0.0707130804657936,0.0757881253957748
1774472500051079000,1.570078857421875,0.2080757642030715,-0.3126940765410661,-0.202275699622184,0.1105728223919868,0.942452073097229,0.5400228500366211,-0.0567974074989557,0.2651969968289137,0.7537047363936901,0.0459229834377765,0.1437078565359115,-0.2939221560955047,0.1995411600917577,-0.1777531066536903,-0.0240419515783898,0.1002378910779953,0.0828043594956398,0.077285885810852
1774472500061107200,1.580107177734375,0.4432470406025648,-0.2614233235090971,-0.2328488248012959,0.0597532875835895,1.1179001331329346,0.4610687792301178,0.0396785149157047,0.0672974664643406,0.5568164288982749,0.1031015813350677,0.0830453112721443,-0.3010740578174591,0.1980792708456516,-0.1736509320318698,-0.0118683151112869,0.1023454964160919,0.0935976281762123,0.0778080224990844
1774472500071135000,1.590135009765625,0.7386153038114309,-0.1960878047674894,-0.0700137396857142,0.0320801138877868,1.211991786956787,0.3731578290462494,0.018215455648303,-0.148183897820115,0.2841387209251523,0.1352334320545196,0.0132205011323094,-0.3016700744628906,0.1971750154823064,-0.1569353595525026,-0.0260453090237453,0.1005324199795723,0.1049267202615737,0.0781443789601326
1774472500081163000,1.6001630859375,0.8459265084952116,-0.1108873096048831,0.2451530105791985,0.0217028763145208,1.1590774059295654,0.254614919424057,-0.0444902991116046,-0.3088736414700746,0.016937983058393,0.1401344537734985,-0.0178002659231424,-0.3001206517219543,0.1977706432878971,-0.1558405500531196,-0.0389496709181927,0.1067437306046485,0.1227351576089859,0.0776238664984703
1774472500091191000,1.61019091796875,0.4969353761702775,-0.2146113034516572,0.6306053032085299,0.0094645852223038,0.9323116540908812,0.1110841184854507,-0.1055944638937711,-0.3924173093363642,-0.2385302314385771,0.1183227449655532,-0.0366635173559188,-0.2950964272022247,0.1874029785305261,-0.1636748969405889,-0.049768002052512,0.1063104346394538,0.1483052372932434,0.0781351923942565
1774472500101218800,1.62021875,0.1255120472848415,-0.1551040524721145,0.6314851547829806,0.0120335053652524,0.6120066046714783,-0.048520490527153,-0.1744663400679826,-0.4670727373480796,-0.3594856383323669,0.0871914625167846,-0.076015718281269,-0.2878835201263428,0.1870677552267909,-0.1758902353912591,-0.0661434010583907,0.113831840455532,0.1777513325214386,0.0766662880778312
1774472500111247000,1.6302470703125,-0.1126321074455976,-0.0114922848731279,0.5771816099263727,-0.0344588942825794,0.4071181714534759,-0.1770110726356506,-0.1340875679284334,-0.4571414181813597,-0.3016097879469394,0.0664321184158325,-0.115622878074646,-0.2794041335582733,0.2033838069945573,-0.1527080972462892,-0.0485680699445307,0.1182095482945442,0.2064729779958725,0.0767863988876342
1774472500121275000,1.64027490234375,0.2593640528917312,0.0872977597028017,0.3598189619399607,-0.0776681452989578,0.4327127635478973,-0.3054241836071014,-0.0549164160579443,-0.3487283897355198,-0.285304842095077,0.0589060299098491,-0.1746792644262313,-0.2684260606765747,0.2462386138588189,-0.1183119066476821,-0.032365634619072,0.1293916255235672,0.2350918501615524,0.0741458758711814
1774472500131303200,1.65030322265625,1.0494535233527422,-0.0376812036186456,-0.1615356929548084,-0.0569572746753692,0.649764895439148,-0.3618254065513611,-0.0536544332981109,-0.2398877835273742,-0.2535641344413161,0.066625602543354,-0.2248122245073318,-0.2476577460765838,0.2583171741873026,-0.1498316650271415,-0.031917488992773,0.1298385113477707,0.2570285499095917,0.0668842270970344
1774472500141331000,1.6603310546875,1.5323983680933713,-0.4610451476216315,-0.7139382509335875,0.0020294140558689,0.737827479839325,-0.2768885493278503,-0.0983031378418207,-0.073359835243225,-0.2524070733606815,0.0857681408524513,-0.2796032726764679,-0.2145807445049286,0.3014356004238128,-0.1841185500323772,-0.0619331629522144,0.1303359270095825,0.2756662666797638,0.0640174224972724
1774472500151359000,1.67035888671875,1.0886305184870957,-0.1934621324390172,-0.5426788902133703,0.0594314523041248,0.7020540237426758,-0.1774034947156906,-0.2497387309342622,-0.0372559639438986,-0.319067118704319,0.1072824820876121,-0.3452843129634857,-0.1583404392004013,0.2872644517302513,-0.2378518937855958,-0.0550263427058234,0.1334116160869598,0.2861221134662628,0.0604815408587455
1774472500161387000,1.680386962890625,0.3277145355403423,-0.1394517253100872,-0.4433015472687781,0.1112915351986885,0.6733560562133789,-0.1509852856397628,-0.4426233557462692,-0.0692141137406229,-0.3930740196794271,0.1264668256044387,-0.3517227470874786,-0.0983671098947525,0.2753834598004818,-0.216493463936448,0.0090244151885621,0.1396358460187912,0.279729962348938,0.0578563660383224
1774472500171415000,1.6904150390625,-0.0775257227510213,0.0588783054262399,-0.2980295913726091,0.1254896521568298,0.7709997892379761,-0.2375119179487228,-0.3438952704906463,-0.0475765746891498,-0.470197883631289,0.1293635666370391,-0.3407626152038574,-0.0550828278064727,0.2491027711182832,-0.1996919667392969,0.0404859953736886,0.1416976749897003,0.2807600796222687,0.0566331781446933
1774472500181443000,1.700443115234375,0.2469219199478626,-0.2012070474773645,-0.3452390863150358,0.1858668178319931,0.7596049308776855,-0.3277351856231689,-0.0527057542711496,-0.0725488111212849,-0.6178998431533574,0.1199775114655494,-0.326109379529953,-0.0463226251304149,0.2431581835001706,-0.1950830116391181,0.0581755091854371,0.1476715058088302,0.2805157601833343,0.0496643930673599
1774472500191471000,1.71047119140625,-0.0249450561642646,-0.0550292287826538,-0.2781155151128768,0.2322226017713546,0.616847813129425,-0.3851510882377624,-0.0943646293491125,-0.2201820893213152,-0.6186126675978303,0.0891651362180709,-0.3350812792778015,-0.0604087486863136,0.2293044301927089,-0.1825631372839212,0.065671490964014,0.1510992646217346,0.2763412594795227,0.0488364174962043
1774472500201499000,1.720498779296875,-0.3110638449907302,-0.094967855939269,-0.0323740371212363,0.2400685101747512,0.5109306573867798,-0.4767658412456512,-0.2214887880057096,-0.3629436698317527,-0.5101806421905756,0.0411976054310798,-0.3346754014492035,-0.0611605569720268,0.2015080762505531,-0.1650911934792995,0.06711737892339,0.1506043672561645,0.2859398126602173,0.0477886870503425
1774472500211527200,1.730527099609375,0.0221551331847906,0.1553384457498788,0.0464105996496975,0.1746799200773239,0.4697397649288177,-0.6146230101585388,-0.3217091576457023,-0.3081763068556785,-0.4611985846176743,-0.0182439815253019,-0.331290453672409,-0.0403821766376495,0.1968070589527487,-0.0731178431808948,0.0695949845506809,0.1538600772619247,0.2915816903114319,0.044511929154396
1774472500221555000,1.740554931640625,0.446491721612215,0.4510065686881542,0.1176720013089478,0.0781556144356727,0.5454411506652832,-0.8146547079086304,-0.3915127617120743,-0.2465329206302761,-0.4710863569036126,-0.0770143494009971,-0.3460496962070465,0.0082237077876925,0.2066112446084618,-0.0291717339485883,0.0659418323379941,0.1596530675888061,0.3036787211894989,0.0397783927619457
1774472500231583200,1.750583251953125,0.956540846377611,0.5834393551468848,0.121392190875858,0.0064907483756542,0.6206014156341553,-1.0043960809707642,-0.2770674673646688,-0.232599672345817,-0.3714052087068557,-0.1141760051250457,-0.3485763967037201,0.0573533438146114,0.2004901313796639,0.0002151040554046,0.0816371218589134,0.1635588705539703,0.3109760582447052,0.0380963385105133
1774472500241611000,1.760611083984375,1.0585685577005148,0.0631739567935466,-0.1508893573865294,-0.0258560460060834,0.7269316911697388,-1.2090271711349487,-0.0396621483027935,-0.0824263542741537,-0.2790016502976417,-0.1430052518844604,-0.3577669858932495,0.0858414471149444,0.2007400144875049,0.0126513917803764,0.1058406937398016,0.1675012558698654,0.3159723281860351,0.0372746661305427
1774472500251639000,1.77063916015625,1.092622802993655,-0.4767565114945173,-0.4121884699940681,-0.0491003841161727,0.8610527515411377,-1.4229950904846191,0.046222237470746,0.0773366299197077,-0.1758203850254416,-0.1480094492435455,-0.4092788994312286,0.1023309603333473,0.1718278082579374,0.0270914205431938,0.1424419749009423,0.174370601773262,0.314633309841156,0.036078106611967
1774472500261667000,1.7806669921875,1.2201140413969755,-0.7252478727161884,-0.3640829029947519,0.0072046611458063,0.959459900856018,-1.6417653560638428,-0.0965934113144874,0.1485530233934521,-0.1173635198816657,-0.1196124404668808,-0.4585721492767334,0.1254890114068985,0.1614239031434059,0.0487263292461633,0.1408596193466335,0.1769589930772781,0.3108135759830475,0.0401455461978912
1774472500271695000,1.790695068359375,1.5580349136531353,-1.1927408813029527,-0.4961015556946396,0.1162810772657394,1.0126478672027588,-1.8952988386154173,-0.3970248031318187,0.0577177372142672,-0.2332531678184866,-0.0793074965476989,-0.4557098150253296,0.1767031252384185,0.1143207911849021,0.0823439366877079,0.1783419759249314,0.1836104989051818,0.313384860754013,0.0479041337966918
1774472500281723100,1.80072314453125,1.821124709069729,-1.4569588039666412,-0.5154961381249129,0.1566972136497497,1.0245569944381714,-2.223890781402588,-0.6473270131677389,-0.119791039289534,-0.4971931503236294,-0.0681384652853012,-0.4117085337638855,0.2387188225984573,0.1128098021000623,0.1382832660526037,0.189070966541674,0.1884944140911102,0.3218981921672821,0.0535054616630077
1774472500291751200,1.810751220703125,1.944095255178213,-1.1107079102605582,-0.1148614739328622,0.1173348873853683,1.03170907497406,-2.6150460243225098,-0.7739373770833015,-0.284648424012959,-0.7171364624530077,-0.1078929454088211,-0.3971734941005707,0.3130635917186737,0.0851011264413595,0.1723211447328329,0.1737081238455139,0.1879844218492508,0.3364470303058624,0.0615237057209014
1774472500301780000,1.820780029296875,2.0214245785743,-0.6874304754972458,0.1910948187857866,0.0953388586640358,1.0266507863998413,-3.0310089588165283,-0.8349860122859477,-0.5557005766108631,-0.9744608262106776,-0.1771191507577896,-0.2390091568231582,0.385893851518631,0.1061120580270886,0.169978380998969,0.1485412416241131,0.1904280632734298,0.3517602384090423,0.069536343216896
1774472500311808000,1.83080810546875,1.9072113394171,-0.44290158816576,0.3279937178079039,0.1929090768098831,0.972206711769104,-3.3385210037231445,-0.8623696937739849,-0.5685176803469657,-1.2196464238852265,-0.2995888590812683,-0.1076824814081192,0.429758071899414,0.137275550314784,0.17956278642416,0.1442285112578421,0.196165844798088,0.3672102987766266,0.0725491791963577
1774472500321836000,1.8408359375,1.505423851928115,-0.3772340609908103,0.4654603337153792,0.3430867195129394,0.8281137347221375,-3.453651428222656,-0.6721300305128097,0.1762882947981357,-2.071190772262216,-0.5354043245315552,0.3370979130268097,0.4137447476387024,0.1457119547486305,0.1774842265844345,0.1340643879822455,0.1990417838096618,0.3837699890136719,0.075920283794403
1774472500331864000,1.850864013671875,0.7473854702442884,-0.4138075956284999,0.4865890464618801,0.4696015119552612,0.7569402456283569,-3.370975971221924,-0.7050111403733491,-0.1611117684543132,-1.654073905955255,-0.6184843182563782,0.4985336661338806,0.3863052129745483,0.1420189454495906,0.1494733531087637,0.1094656975702382,0.200711041688919,0.4002501666545868,0.081198401749134
1774472500341892000,1.86089208984375,0.477618681281805,-0.1424085292890667,0.7852638769354671,0.6453851461410522,0.8622570633888245,-3.024901390075684,-0.5391968933165073,-0.7973635531172156,-1.0186816607311366,-0.6152557730674744,0.613567590713501,0.3704530000686645,0.1187853693783283,0.096396427437663,0.0963572096721269,0.1998776197433471,0.4202239513397217,0.0854517817497253
1774472500351920000,1.870920166015625,0.6305296076238155,0.1507806363150477,1.4724062562063336,0.8852638006210327,1.254647970199585,-2.530849933624268,0.0042699324041604,-1.0546265420764684,-1.084148112376034,-0.6506109833717346,0.6574657559394836,0.3367853164672851,0.115587450119853,0.1273778411567211,0.0906739398713223,0.2048175185918808,0.4385283887386322,0.092181846499443
1774472500361948000,1.880947998046875,1.3409732944399118,0.2578366971939802,1.8748323338598007,1.062317132949829,1.316245436668396,-2.037567138671875,0.7941857998639344,-1.1577183754995464,-1.1185177072286605,-0.7602453231811523,0.5862110257148743,0.2530025243759155,0.0817120685249567,0.1329518418967723,0.0923300547815859,0.2083787471055984,0.4584914445877075,0.0967514067888259
1774472500371976200,1.89097607421875,0.7098258471786976,0.2502227150589227,1.3277373807698487,1.0952335596084597,1.200888752937317,-1.5756282806396484,1.6889917823404073,-1.1483990507513284,-1.252797290597856,-0.91719388961792,0.4148892760276794,0.1425555944442749,0.0676730217784643,0.1523632293313741,0.0896808189144358,0.2122941315174102,0.4827946722507477,0.1012510806322097
1774472500382004000,1.90100390625,-0.2362000349253415,0.2061640853628516,0.6640149669878185,1.025928020477295,0.9859832525253296,-1.227896213531494,1.748167024886608,-1.0732660683557391,-0.9584393734753132,-1.04450523853302,0.295632928609848,0.0142721841111779,0.1003396121054887,0.1441162099897861,0.0846654567041434,0.2157013267278671,0.5041598677635193,0.1030163913965225
1774472500392032300,1.9110322265625,-0.7122264785796404,0.2661918530851602,0.1403064424432814,0.9765282273292542,0.8602460622787476,-1.025044322013855,1.5995646093934774,-0.7417679226234555,-0.8055839767128229,-1.0958856344223022,0.1020292043685913,-0.0895567759871482,0.1295329733639955,0.0786824915707111,0.0832726871714927,0.2171165198087692,0.5181811451911926,0.103202536702156
1774472500402060000,1.92106005859375,-0.9802069686472415,0.4185834317281842,-0.0413011111488565,0.9061340093612672,0.688589870929718,-0.940405547618866,1.111838375595212,-0.5656862563133239,-0.3187804107174277,-1.0317580699920654,-0.110753633081913,-0.1083376556634903,0.1372229433447122,0.0510386978417634,0.0928733861443586,0.2113273441791534,0.5211969017982483,0.1080265939235687
1774472500412088000,1.931088134765625,-1.3948153592646122,0.6180372057974338,0.0936226153427735,0.7867657542228699,0.4395590126514435,-0.8980090618133545,0.6501221968442201,-0.4474705035164952,0.4338610803589224,-0.8842467665672302,-0.3955307900905609,-0.054439727216959,0.1612748500615358,0.0578881253451108,0.1058699198342859,0.2103275954723358,0.5172381401062012,0.1081949025392532
1774472500422116000,1.9411162109375,-1.8715385530114168,0.6225102595582604,0.2458978375971317,0.6448255181312561,0.1645568609237671,-0.8060247898101807,0.3436100238084792,-0.1398657129384577,0.8222071947336197,-0.7015408277511597,-0.7246854901313782,0.0652896016836166,0.2040071995899081,0.0230126267969608,0.1137705003583803,0.2059833109378814,0.507709801197052,0.1061168015003204
1774472500432144000,1.951143798828125,-1.5447288573563098,0.425303387632966,0.0233237020401284,0.5774664282798767,-0.0866673812270164,-0.6422036290168762,-0.2047708774387836,0.3848281693816184,0.9466963287115095,-0.5259133577346802,-0.9148045778274536,0.238359123468399,0.2637228326231241,-0.0176648360282182,0.1099124001581221,0.2037169635295868,0.4931547939777374,0.0993342623114585
1774472500442172200,1.961172119140625,-0.983204981419444,-0.0099967856183648,-0.303640563122183,0.5326468348503113,-0.2317983657121658,-0.5223287343978882,-0.4169213437348604,0.8903821746848523,0.962596493154764,-0.3607347905635834,-0.9995309114456176,0.4138846099376678,0.307811857457459,-0.0584720627129077,0.0958278703020885,0.1936065256595611,0.4690549373626709,0.0926910862326622
1774472500452200000,1.971199951171875,-0.8827940576434135,-0.0756052760824561,-0.1388948951449245,0.5076258778572083,-0.1762072741985321,-0.4863001704216003,-0.0152665427148342,1.186909544800967,0.7034609883219003,-0.1639520823955536,-1.092751383781433,0.5446540117263794,0.3387120226338505,-0.09711071318686,0.1006067568753845,0.1808862090110778,0.4422132074832916,0.0844320878386497
1774472500462228000,1.98122802734375,-0.8086153072327374,-0.1247366789981722,0.0600855623241513,0.5107159614562988,0.0421174354851245,-0.5192084908485413,0.4782213233500719,1.2455918892636897,0.5039437936276198,0.0764083266258239,-1.1538532972335815,0.6262117028236389,0.3517889463499188,-0.112193131506443,0.1008774087766185,0.1748294979333877,0.4147998690605163,0.0738841295242309
1774472500472256000,1.991256103515625,-0.6647036799043416,-0.3399313352957367,-0.0741670599728822,0.563595175743103,0.2291355282068252,-0.6340439915657043,0.9961515567541122,1.0569012090101837,0.4296352793574333,0.3158764243125915,-1.2150253057479858,0.6200125217437744,0.354912339067459,-0.1366366678893566,0.1136512213602662,0.1740952730178833,0.3882034122943878,0.061525460332632
1774472500482284000,2.001283935546875,-0.5132733475089073,-0.6625029549896717,-0.372211775849387,0.6143754720687866,0.2648806273937225,-0.7994801998138428,1.5885434491634367,0.7708309355005621,0.2002832106307149,0.4686049818992615,-1.2400630712509155,0.513346791267395,0.3223924637347459,-0.1626835478156805,0.1261334853851236,0.1674774289131164,0.3584693968296051,0.0485778823494911
1774472500492312000,2.01131201171875,-0.4690548510760068,-0.8926236700013279,-0.5100510975267738,0.6137975454330444,0.1945153921842575,-0.9893507957458496,1.683095125517249,0.2407519991412758,-0.1218017945900559,0.4883544743061065,-1.1235952377319336,0.3335524797439575,0.3325619755715132,-0.1921130559176206,0.0987076269894838,0.1646227836608886,0.3312673270702362,0.0320740044116973
1774472500502340000,2.021340087890625,-0.3658031509160995,-0.8100237127259373,-0.300892944914475,0.568355917930603,0.1633629649877548,-1.1713377237319946,1.738430059248209,-0.5122019188851118,-0.3771399529665708,0.3860547244548797,-1.0434157848358154,0.1059600710868835,0.340825946047902,-0.2125876886695623,0.075599723124504,0.1691483110189438,0.3053296208381653,0.0127686150372028
1774472500512367900,2.031367919921875,0.0188677820771932,-0.6626619449436664,0.032929479046911,0.5148375630378723,0.1543963700532913,-1.3552789688110352,1.618759723728895,-1.1189186892449856,-0.5511567957013845,0.2039513736963272,-1.0393662452697754,-0.1058771163225174,0.3235544932514428,-0.2171691712409257,0.0674159965437836,0.175739899277687,0.2919245958328247,-0.0038516414351761
1774472500522396200,2.041396240234375,0.2621417009115219,-0.5504398796036839,0.3014390344899147,0.4938759207725525,0.201065719127655,-1.5400415658950806,1.2837737358808516,-1.331672089870274,-0.5933999004080891,-0.0121934488415718,-1.081862211227417,-0.2311040014028549,0.31440263402462,-0.2300035183727741,0.050313507106062,0.1823262274265289,0.2874713540077209,-0.0227963663637638
1774472500532424000,2.051423828125,0.2029132668733596,-0.6336813496530056,0.2716919118061661,0.5256937742233276,0.4154134392738342,-1.6594241857528689,0.5333809005141258,-1.2757698776453732,-0.5640674229398369,-0.2268948405981063,-1.1672329902648926,-0.2220976650714874,0.2962254645600914,-0.2269441308021545,0.019020196159929,0.1885255426168441,0.2907622158527374,-0.0406613834202289
1774472500542452200,2.0614521484375,0.5607230809479952,-0.8408106267862021,0.2076556390948593,0.6139563322067261,0.5938126444816589,-1.68659508228302,-0.0211351424872875,-1.229848668947816,-0.4756526419058441,-0.4209974408149719,-1.1292445659637451,-0.1571301072835922,0.2909855180799961,-0.2083335383564233,0.0007854330229572,0.1930055469274521,0.2959630787372589,-0.0585579350590705
1774472500552480000,2.07147998046875,0.501641946426034,-1.192397474692762,0.0732028911158442,0.7162864208221436,0.7000632286071777,-1.6293933391571045,-0.2969236759573221,-0.927489816199243,-0.3507484973862767,-0.5695592164993286,-1.1473249197006226,-0.1063792183995246,0.2863762707188725,-0.1947241151988506,-0.0119958504810929,0.2006070017814636,0.3059549927711487,-0.0749542191624641
1774472500562508000,2.081508056640625,0.3470668862640857,-1.4578585292853414,0.0991290672719478,0.7768951058387756,0.7050389647483826,-1.4924499988555908,0.1115945810914039,0.2211526879191398,-0.0732242261648178,-0.5027130842208862,-1.4612311124801636,-0.0958400294184684,0.2559296945288777,-0.2027940244078636,-0.0101555015777237,0.2070944160223007,0.31377974152565,-0.0874710977077484
1774472500572536800,2.091536865234375,0.1961924341857433,-1.3344409700617192,0.4839383127573877,0.7862744927406311,0.5435428023338318,-1.3016959428787231,0.0883230110973119,-0.0607797551333904,1.09951431607306,-0.3465866148471832,-1.572965145111084,-0.0949243009090423,0.2458022682681679,-0.1971130561619997,-0.0062962140673771,0.2102715671062469,0.3209652304649353,-0.1003490760922432
1774472500582565000,2.101565185546875,-0.3259206378608942,-1.3251733755007384,0.8053599586986004,0.8227471113204956,0.3514918088912964,-1.051413893699646,0.0308224237650632,-0.3374900796234607,1.1122098392561075,-0.3044575154781341,-1.5175118446350098,-0.1216978579759597,0.2110612097546458,-0.1744330223202705,-0.0233456764099188,0.2162189930677414,0.3226675391197204,-0.1131518557667732
1774472500592593000,2.111593017578125,-0.2222813996881246,-1.5605248307727275,0.9818275555863976,0.9240005016326904,0.2276814579963684,-0.7766213417053223,-0.4107335950106382,-0.2903486814811825,0.9796490425035356,-0.289177656173706,-1.4983240365982056,-0.1221091970801353,0.1834378742918372,-0.1355798523128032,-0.0203154784011654,0.2177558988332748,0.3157331943511963,-0.1226990297436714
1774472500602621200,2.12162109375,0.0964279916197061,-1.7509131087243557,1.1133025298636403,1.064138412475586,0.1663931310176849,-0.4635494351387024,-0.961468365907669,-0.3727135148264467,1.008733098168671,-0.2276698052883148,-1.2950334548950195,-0.1560346782207489,0.1494026259601116,-0.1192681844592094,-0.0299620806086808,0.2206011265516281,0.3095900416374206,-0.1295695006847381
1774472500612649000,2.13164892578125,-0.0698287385076284,-1.666088461136818,1.2218217220976948,1.1742531061172483,0.1146473735570907,-0.1406358182430267,-1.683442331519723,-0.1973039025589823,0.641577071338892,-0.1759307086467743,-1.113142967224121,-0.1525962650775909,0.127325818708539,-0.0893330649226903,-0.0074823916446417,0.2186197340488433,0.3007012009620666,-0.1353988945484161
1774472500622677000,2.141677001953125,-0.473109094902873,-1.296563951610029,1.232086218741536,1.1826025247573853,0.0518004074692726,0.1149231866002082,-2.046688199168444,-0.3130262311048805,0.6760597711771726,-0.1470998525619506,-0.8656503558158875,-0.0928884446620941,0.0991813819810748,-0.0687070410013198,-0.0060514089934527,0.220466747879982,0.2903937995433807,-0.1416061967611313
1774472500632705000,2.151705078125,-0.8064104906648397,-0.651053047953546,1.3911466076239942,1.0948777198791504,-0.0654119774699211,0.2591224312782287,-1.688568588492274,-0.5326464487597345,0.6869765942499041,-0.1651588976383209,-0.6689198017120361,-0.0543586798012256,0.0637473727673292,-0.0575210455983877,-0.0302056618398986,0.2228838354349136,0.2882422208786011,-0.147133320569992
1774472500642730200,2.161730224609375,-1.1184037254601715,-0.2443606911577284,1.4915410186566411,0.9192457795143129,-0.1533276289701461,0.3370985686779022,-0.7445294962912797,-0.7338548114113509,0.6607894290700554,-0.1958044171333313,-0.5870542526245117,-0.081865943968296,0.027473405598104,-0.0189630591452121,-0.0428068395366892,0.2227564603090286,0.2800920903682709,-0.1485219299793243
1774472500652758300,2.17175830078125,-1.261044602200389,0.2004328482344746,1.7231380898311732,0.6947218775749207,-0.228222906589508,0.3590613901615143,0.2527513567537069,-0.8446633566915989,0.7427614637054503,-0.2192804515361786,-0.568835973739624,-0.1892044246196746,-0.0093497198864817,-0.0015793781459331,-0.0576548828448168,0.2229998707771301,0.2833374142646789,-0.1476351022720337
1774472500662786300,2.181786376953125,-1.310440793532133,0.5025777659714221,1.9014938385531304,0.4903589785099029,-0.3702429831027984,0.3391086757183075,0.7883587011456489,-0.6981773488305508,0.6948213164009154,-0.237363576889038,-0.6380214691162109,-0.3161868453025818,-0.0541962850898504,0.0263566765278577,-0.0596006374845746,0.2237236946821212,0.2875396013259887,-0.1490739583969116
1774472500672814300,2.191814453125,-1.5225304695516824,0.5901712937504052,1.7802327267110347,0.3161618709564209,-0.5065906643867493,0.3007809817790985,0.4090788135409355,-0.5340279662460088,0.6728834792286157,-0.2431748658418655,-0.6682361364364624,-0.3616778254508972,-0.0717763654440641,0.0378495459228754,-0.0694430910577531,0.22566619515419,0.2938227951526642,-0.1484915167093277
1774472500682842400,2.20184228515625,-1.4617249954551457,0.5911050674691796,1.4577918937899172,0.1977727860212326,-0.5262037515640259,0.2664142549037933,-0.206543732330203,-0.597553512956202,0.692852646676451,-0.2313062101602554,-0.5872049331665039,-0.3465641438961029,-0.0926692236080765,0.033525252982974,-0.0868075193672906,0.2199033349752426,0.2938772439956665,-0.1486171334981918
1774472500692870400,2.211870361328125,-1.076218780681491,0.5412285452745854,1.2410057305172084,0.2129376232624054,-0.5700657367706299,0.2718851864337921,-1.0063356816381217,-0.4661126601442694,0.986561890631914,-0.1774946451187133,-0.496541291475296,-0.2915209531784057,-0.1112874148383736,0.0346814372807741,-0.0847873934502247,0.21869558095932,0.2919704020023346,-0.1454037725925445
1774472500702898200,2.221898193359375,-1.0984405493617058,0.3713026251152158,1.197453662103787,0.2669265270233154,-0.7129655480384827,0.3356516659259796,-1.473145968657732,-0.3634637481831014,1.799389993254095,-0.0849322229623794,-0.4112050831317901,-0.1964087933301925,-0.1487502995312213,0.0590565846025943,-0.0758878376171924,0.2180674523115158,0.2860453128814697,-0.1419287025928497
1774472500712926500,2.231926513671875,-1.3097048804730176,0.299427621602267,0.856245146479085,0.2942747771739959,-0.8692273497581482,0.3891079723834991,-1.7144225761950016,0.5236871894955635,1.7438837946094572,0.0011628449428826,-0.3312684297561645,-0.0578721426427364,-0.1634726523667573,0.0670750558853149,-0.079284110725671,0.211809828877449,0.2781349420547485,-0.1417806297540664
1774472500722954200,2.241954345703125,-1.1887965275913477,0.4353260383449495,0.50089616956003,0.2976188957691192,-1.0536205768585205,0.3916510343551636,-1.7980875323534011,1.1512265292622148,1.626471613280475,0.1554493606090545,-0.245552197098732,0.105804942548275,-0.1519265914797782,0.0534586184650659,-0.1117221255943644,0.2040362507104873,0.2645725011825561,-0.1417572349309921
1774472500732982300,2.251982177734375,-1.24194476493299,0.713797381158173,0.1430734960038215,0.2497123479843139,-1.2194989919662476,0.3759064376354217,-1.975037505930662,1.2330002648465337,1.879069679168612,0.4223092794418335,-0.1354864090681076,0.2646152079105377,-0.1463531752616167,0.0536310524225234,-0.1236616701778024,0.1935918629169464,0.2496902048587799,-0.140247493982315
1774472500743010300,2.26201025390625,-1.3603443498641252,0.9356779449604452,0.0089701459843665,0.1292712241411209,-1.238939881324768,0.3242053985595703,-2.1586130351275203,1.302800215651095,1.903627781841904,0.7360650897026062,0.0367010571062564,0.4008593261241913,-0.1728004526823759,0.028390812703967,-0.1162318124379962,0.1814526319503784,0.2244661748409271,-0.1353552788496017
1774472500753038300,2.272038330078125,-1.0888058750540015,1.507587605833262,0.1132674827396869,-0.0493238307535648,-1.0707669258117676,0.1922305971384048,-2.161491220912337,1.5183862093538043,1.667802279317379,0.9963977336883544,0.2448000311851501,0.5169764757156372,-0.2219295175105333,0.0063572600722312,-0.0983616904954891,0.1731185317039489,0.1965051144361496,-0.1259359568357467
1774472500763066400,2.28206640625,-0.3522463347285985,1.697420295728743,-0.1298624975793063,-0.2761324346065521,-0.799334704875946,-0.0236222278326749,-2.0226941601186987,1.5385621514201164,1.3549404449939726,1.1882025003433228,0.4308266341686249,0.6108944416046143,-0.2614297532498836,0.0283826293975114,-0.1053322875599376,0.1683951765298843,0.1770417392253875,-0.117336980998516
1774472500773094400,2.292094482421875,0.3785170865386724,1.461191326969862,-0.8951146100342273,-0.4463185667991638,-0.3739852905273437,-0.2863222956657409,-1.89010881344676,1.2321250894472002,1.004467841939628,1.3255125284194946,0.5895287990570068,0.7098459601402283,-0.2838525974601507,0.072037646728754,-0.110698536433978,0.1613886803388595,0.1652921289205551,-0.107605792582035
1774472500783122200,2.3021220703125,1.190194703951478,1.1361401654198766,-1.6078605824433263,-0.4717457592487335,0.0663453191518783,-0.5259478688240051,-1.7470003191947936,0.94766546600461,0.9624255205020308,1.4375770092010498,0.8789787292480469,0.817970335483551,-0.2920569467037916,0.0771767631828784,-0.1580129621887579,0.1528510898351669,0.1611281186342239,-0.1012132689356803
1774472500793150500,2.312150390625,1.7475526923805471,0.8484840840235353,-2.051661019144952,-0.4056082963943481,0.4078456461429596,-0.7382537126541138,-1.4170306982040404,0.6657891370534896,0.967485141979158,1.494260311126709,1.2318073511123655,0.8918659687042236,-0.2767293214514851,0.0601683452367782,-0.1904225820800289,0.14569091796875,0.1628820747137069,-0.0919918119907379
1774472500803178200,2.32217822265625,1.8129226979136464,0.813517400060594,-2.17724101709947,-0.2291226834058761,0.7150576710700989,-0.804246187210083,-0.4804910218477249,0.6635445729970931,-0.4101144401989877,1.3808623552322388,0.8848456144332886,0.9155287146568298,-0.2656844880849123,0.0490542460262775,-0.2079294510675594,0.1390225440263748,0.1620359569787979,-0.08220686763525
1774472500813207300,2.332207275390625,1.7287515457987783,0.9300945918701587,-1.824784546751529,-0.0218874774873256,0.8080155849456787,-0.6762296557426453,0.0009463409394025,0.6936240694403648,-0.0373860200643539,1.2796720266342163,0.6932006478309631,0.9394027590751648,-0.2591682380586862,0.0551747747331857,-0.2065834798187017,0.133108988404274,0.1589648127555847,-0.0719864517450332
1774472500823235300,2.3422353515625,1.3830401657968758,0.8518861475519836,-1.2048305475473404,0.147821769118309,0.6186532974243164,-0.4864499568939209,0.3110428022027015,0.2804892585068941,0.7749849864400923,1.2850857973098757,0.6109355688095093,0.9819926023483276,-0.253029004651308,0.0393394922196865,-0.2040876444149762,0.128967136144638,0.1509240865707397,-0.0634179264307022
1774472500833263400,2.352263427734375,1.1199345882892608,0.7267449794061481,-0.9589655893065034,0.2414132356643676,0.4263746440410614,-0.4358075261116028,0.7338005970060825,0.4406169843599199,1.1112472778342664,1.317224621772766,0.4170432388782501,1.0035475492477417,-0.2607265734165906,0.0234627086520195,-0.206249845683854,0.128577783703804,0.1492604166269302,-0.0517330430448055
1774472500843291400,2.36229150390625,0.8435901745021342,0.7148826921768486,-1.0682025744210928,0.276758462190628,0.3128221035003662,-0.591780960559845,1.0919921038746834,0.7097288165450095,1.2633848817162214,1.3469282388687134,0.3485326468944549,0.9917784333229064,-0.2642074012696743,0.0071188920944929,-0.2155174767774529,0.1218746528029441,0.1520634144544601,-0.0405256673693656
1774472500853319400,2.3723193359375,0.4262187489122152,0.7401308229409158,-1.1971225304532795,0.2453614026308059,0.1829434484243393,-0.8944225907325745,1.7367127339363098,0.8849892296001315,0.9847795372597872,1.387961745262146,0.3487259745597839,0.9099631905555724,-0.2661380770713091,-0.0222720375627279,-0.2520722153831273,0.1173536702990531,0.1588201224803924,-0.0297337397933006
1774472500863347200,2.38234716796875,-0.0363151759624481,0.9546871813349426,-1.160635651185736,0.1327195465564727,0.0224143750965595,-1.2695729732513428,2.5522587172150613,1.1282774692207571,0.9201309778690338,1.4722473621368408,0.3019864559173584,0.7106783390045166,-0.268085119485855,-0.0513619384467601,-0.2889255168102681,0.1119176670908927,0.1664803475141525,-0.0210432410240173
1774472500873375500,2.39237548828125,-0.25434943960011,1.0156632627580315,-0.88784308466129,-0.0496928617358207,-0.2173755913972854,-1.6858458518981934,3.1348610370159147,1.2832944279313088,1.511054405160993,1.6280007362365725,0.4713525772094726,0.3838007152080536,-0.2671446237653493,-0.0703764355182647,-0.2997889291953295,0.1043926402926445,0.1772632300853729,-0.0117314979434013
1774472500883403300,2.4024033203125,-0.602754880991578,0.9619176440451294,-0.8219024396333843,-0.1905303746461868,-0.2506114542484283,-2.024597644805908,3.3540462242543696,1.8462416146695613,1.65820048436597,1.8270288705825808,0.7298280596733093,0.0075807496905326,-0.2818237219810485,-0.0837543880075216,-0.3070323975175619,0.1001941114664077,0.1918256282806396,-0.0052714627236127
1774472500893431600,2.412431640625,-0.4417337134301662,0.7339560798287391,-0.6896700711175799,-0.0778400376439094,0.0067468504421412,-1.992039442062378,3.3084652072966096,2.750871948806941,1.0009364529430866,1.861523985862732,1.4715023040771484,-0.4281984865665436,-0.2683130830228328,-0.109287473192811,-0.3050136233073659,0.0946502089500427,0.198952779173851,0.0038943383842706
1774472500903459300,2.422459228515625,0.4490642024487257,0.1831097748486325,-0.5042850082807243,0.2172869890928268,0.0639303624629974,-1.5136055946350098,3.655069736745953,4.179086888848245,-0.0165571670472621,1.8965972661972048,2.214321613311768,-0.9811761975288392,-0.2564171857848763,-0.1356634389430284,-0.2944519338152371,0.0864857882261276,0.2009970247745514,0.010978665202856
1774472500913487400,2.4324873046875,0.5978256078958512,-0.4332812711769714,-0.7732469106011092,0.4409067332744598,-0.1612588167190551,-0.8423385620117188,3.0770243495970964,2.7325439726948737,1.1869412551134824,2.2742276191711426,2.8525092601776123,-1.642876386642456,-0.2424596798419952,-0.1479623640239238,-0.2930744166506454,0.0790307968854904,0.1987722218036651,0.0171907544136047
1774472500923515400,2.442515380859375,0.4499135127544403,-0.6372928181484341,-0.8777156584005802,0.4426680505275726,-0.3765585720539093,-0.2787619531154632,3.1194916184484955,2.229182362869382,1.2643334146127103,2.6796538829803467,3.608383655548096,-2.40957260131836,-0.2155260802090167,-0.1539572205245494,-0.2796014976206235,0.0682545825839042,0.1934282034635543,0.0238665789365768
1774472500933543400,2.45254345703125,0.422300698685646,-0.3135342171596363,-0.3197607269916683,0.2882912755012512,-0.5018448233604431,0.0054830852895975,2.8913667534291743,2.1710136670172213,0.2191723277568817,2.81833553314209,3.988807439804077,-3.0518360137939453,-0.1996118872404098,-0.1609557011097669,-0.2634017839752137,0.0616201162338256,0.1820013672113418,0.0283918213099241
1774472500943571500,2.462571533203125,0.0969546458423137,0.2380188843829557,0.1332734750665724,0.0854630917310714,-0.6500276327133179,0.0164842884987592,2.174830594956875,1.7843159043714405,-0.5497174105480312,2.692941427230835,4.195678234100342,-3.4094130992889404,-0.1881038202762603,-0.1460778654515743,-0.244452735089045,0.0570855252444744,0.1666784584522247,0.0358251072466373
1774472500953599500,2.472599609375,-0.632695845746994,0.4528897520862519,0.0751563632711768,-0.0591239146888256,-0.8241744041442871,-0.0827456265687942,1.5812626445055007,1.3358768480837344,-0.6817877934351563,2.435904264450073,3.8885867595672607,-3.475993633270264,-0.1527788243949413,-0.1298725805819034,-0.2222146728611551,0.0532835982739925,0.1547839790582656,0.0420587696135044
1774472500963627300,2.482627197265625,-1.567904565760493,0.2446558747120201,0.0564968171171844,-0.1855265945196151,-1.066143274307251,-0.2086472511291504,0.2651432208150625,0.3128288088366389,-2.561158647507429,2.167286157608032,2.621488571166992,-3.116431474685669,-0.1500911927461624,-0.1199462298512458,-0.2290877187021076,0.0451935306191444,0.1490450352430343,0.0494511388242244
1774472500973655300,2.4926552734375,-2.151371977958083,0.0364379986245185,0.5128675431869923,-0.3391289412975311,-1.4434170722961426,-0.3305667638778686,0.5003951612353325,-0.9963251597553492,-3.020629093158245,1.917901992797852,1.4721646308898926,-2.5653223991394043,-0.1432382581114769,-0.1055190605700016,-0.2409798165477812,0.037196859717369,0.1482559442520141,0.055345244705677
1774472500983683300,2.502683349609375,-2.730444954589009,0.0250856336787343,0.781010384209454,-0.4845148026943207,-1.7910962104797363,-0.3861691355705261,1.4553151284128427,-1.6280708651706577,-2.29275467133075,1.56282377243042,0.5059250593185425,-2.0408389568328857,-0.1037123034089803,-0.1012128878086805,-0.242274550799746,0.0297517832368612,0.1436275243759155,0.0607332699000835
1774472500993711400,2.51271142578125,-2.7559149114102124,-0.0581410041276365,0.3673293375700712,-0.5347915887832642,-2.05940318107605,-0.3680868148803711,2.3498428784698246,-1.0304787737697363,-2.870515980841219,1.1745465993881226,-0.4579035937786102,-1.8003100156784058,-0.0769862090468406,-0.070375850996375,-0.2250906484225764,0.0208573583513498,0.1365799903869629,0.0659498646855354
1774472501003739400,2.522739501953125,-2.1057792705625293,-0.4547026467271149,-0.1102874440155923,-0.4180498123168945,-2.048160552978516,-0.2586940228939056,3.0783558904618022,0.1023082818299531,-2.5614815958514807,0.9736968278884888,-1.3250982761383057,-2.052823543548584,-0.0441810870319604,-0.0230436064571142,-0.2273581732294522,0.013854457065463,0.1295903623104095,0.068342700600624
1774472501013767200,2.53276708984375,-1.111259698924422,-1.045256071662903,0.0602640606962144,-0.0813660472631454,-1.7400991916656494,0.0049040615558624,2.919230327388644,1.267543901091814,-0.7193877485111355,0.9258803725242616,-1.866238713264465,-2.4566328525543213,-0.0176753574222326,-0.0144552263319492,-0.214212641256582,0.0083739385008811,0.1154324635863304,0.0715238451957702
1774472501023795500,2.54279541015625,-0.6510001487225294,-1.4569567581400271,1.105849656574428,0.2239501625299453,-1.6340268850326538,0.3280546963214874,2.354894901162386,2.862473251900077,1.0974129598796367,1.0755537748336792,-2.402747869491577,-2.8741843700408936,-0.0054199792221188,-0.0224532393485307,-0.1924878805793821,0.0059776077978312,0.1027238368988037,0.0751497969031333
1774472501033823200,2.5528232421875,-1.0827186640948057,-1.4846617805369198,0.9135527685225008,0.297333300113678,-1.8652139902114868,0.514700174331665,1.119744034153223,3.5709906468287107,2.571206871052086,1.4714288711547852,-2.8060495853424072,-3.197181940078736,0.0114320791184902,-0.0284819981187582,-0.1762674346731975,0.0025583752430975,0.089646115899086,0.076955422759056
1774472501043852300,2.562852294921875,-1.594557594886422,-1.1109763519383966,0.2781631536468863,0.2530637085437774,-2.1106252670288086,0.542842447757721,-0.1442091489702463,3.6186215820536014,2.5989333746284244,1.860270023345948,-2.82436752319336,-3.4363057613372803,0.0130973819822072,-0.0542220040529966,-0.1922669678376987,0.0015720947412773,0.083482451736927,0.0811916142702102
1774472501053880600,2.572880615234375,-1.8211323078542947,-0.4500919380612671,0.3469870990261435,0.1874008029699325,-2.228060483932495,0.4999479353427887,-2.195263142132759,2.70618992651552,1.148295590376854,2.154649257659912,-2.1575448513031006,-3.44424819946289,0.0119441202938556,-0.0434551108449697,-0.1831664734719321,0.0017947349697351,0.0831583440303802,0.0831865891814231
1774472501063908400,2.582908447265625,-1.7528735951423644,0.1418151665057987,0.958628174045682,0.0788909420371055,-2.30826187133789,0.4256177544593811,-4.2579941290855405,0.5914404369033873,0.4735527470171451,2.322991371154785,-1.5261441469192505,-3.094909191131592,0.0203372701078653,-0.0477782347410917,-0.184701756747812,0.0056254821829497,0.0914284139871597,0.0814112424850463
1774472501073936100,2.59293603515625,-1.5512164658099412,0.3404803109480068,1.4699264220893382,-0.0528290010988712,-2.440903902053833,0.3574267029762268,-7.30310182994008,-1.4324839956626296,0.6839436562947928,2.362407684326172,-0.9988104104995728,-2.2548840045928955,0.0441162051022052,-0.0568675501257181,-0.1951626527465879,0.0097613707184791,0.1010541394352912,0.0818227007985115
1774472501083964400,2.60296435546875,-1.4991823271900415,0.3499279017183929,1.6719319264680146,-0.2222768515348434,-2.5999672412872314,0.2376615852117538,-9.326022200030089,-2.449879415975511,-0.4350634418860077,2.1400156021118164,-0.9814141392707824,-1.086562991142273,0.0656821402221918,-0.1119020396053791,-0.1875004110230133,0.0166687630116939,0.1146753877401351,0.0812850147485733
1774472501093992200,2.6129921875,-1.4149246658354997,0.4916743138369172,1.5801540987417102,-0.3560519516468048,-2.628006935119629,0.098093569278717,-9.963743764984606,-2.2732221417345104,-1.93095228048861,1.6517667770385742,-1.0872504711151123,0.1596780866384506,0.0580447772115469,-0.1591331618577242,-0.1809552636958658,0.0216299649327993,0.127451092004776,0.0808639675378799
1774472501104020500,2.6230205078125,-0.9634662617266178,0.4384857444848865,1.4674845818951725,-0.4444133043289184,-2.480855941772461,-0.0184407830238342,-8.134072176843882,-1.854601446735859,-2.57819366119951,1.1461174488067627,-1.084809422492981,0.9781819581985474,0.0646264936894178,-0.1925163760215044,-0.1787471226597204,0.0283266324549913,0.1410138756036758,0.0771922469139099
1774472501114048300,2.63304833984375,-0.3345885129630565,0.4023577251249924,1.491436243107915,-0.5002083778381348,-2.38141131401062,-0.0760129988193512,-5.42502306150496,-1.813125527009368,-1.337343413504958,0.850360095500946,-0.7745717763900757,1.3246952295303345,0.0827279675692319,-0.2385334463089704,-0.1851643692908808,0.0321557261049747,0.1526169925928115,0.0773842632770538
1774472501124076300,2.643076171875,-0.068535191565752,0.4236914223916828,1.6448498582750557,-0.5635942220687866,-2.3820624351501465,-0.0871123075485229,-3.337977717506885,-1.4466826168850064,-1.411824361732602,0.6414361596107483,-0.4627025425434112,1.41736102104187,0.1089616022393107,-0.2599503283470868,-0.1730137849058024,0.0344906561076641,0.1674451380968094,0.0751282572746276
1774472501134104300,2.653104248046875,0.0109182843774557,0.4046240991543978,1.4803200980708002,-0.6032132506370544,-2.346728801727295,-0.0481097847223281,-2.0460317810863256,-0.7714986056290567,-1.9038095681495963,0.4292277693748474,-0.2925609946250915,1.4704549312591553,0.0918447554826736,-0.2724696181803941,-0.1699216823756694,0.0314229577779769,0.1830888092517852,0.0740568712353706
1774472501144132400,2.66313232421875,0.1355593940466642,0.3196571204867214,1.2767273245006798,-0.6530596017837524,-2.349217653274536,0.0013973210006952,-0.8255670265555382,-0.4618813792500644,-1.476849060959369,0.3004255890846252,-0.2093379944562912,1.4016032218933103,0.1136450838804244,-0.2349158403337001,-0.166485625246074,0.0288267247378826,0.1981189399957656,0.0763696059584617
1774472501154160400,2.673160400390625,0.1793734013319015,0.2746441857405006,1.1118296077668666,-0.7393529415130615,-2.4090704917907715,0.0059553207829594,0.5543973850578069,0.3334845703091472,-0.0248890881933271,0.3774713575839996,-0.1499141752719879,1.184230923652649,0.1257794660493731,-0.1937771897375583,-0.1261264345898292,0.0208564158529043,0.2066045701503753,0.0759184658527374
1774472501164188400,2.6831884765625,-0.1245756432175636,0.3761366211429238,1.2088666711956262,-0.8650166392326355,-2.407911777496338,-0.0461442321538925,0.0907265651077032,1.050622128740698,1.1848721937544644,0.6178954243659973,0.2443417906761169,1.004878044128418,0.1467868905037641,-0.1463484990864992,-0.1131093513022176,0.0111730638891458,0.2095211893320083,0.0761102214455604
1774472501174216200,2.69321630859375,-0.3939776905208826,0.6351230728939176,1.4493097505182029,-0.976762056350708,-2.2853305339813232,-0.1226789504289627,0.1869523121535778,1.4503447926543651,2.226746367894113,0.8907357454299927,0.6346148252487183,0.789362907409668,0.1690951684236526,-0.1199713642925024,-0.0657182801146525,0.0032664048485457,0.2005418092012405,0.0758231356739997
1774472501184244500,2.703244384765625,-0.1638560987263917,0.6787568282414227,1.4751649072647093,-1.015479564666748,-2.0703957080841064,-0.1540592759847641,1.417093242046237,2.552100311782956,2.340037231509388,0.9966176748275756,0.9428964853286744,0.2384190559387207,0.1963186909139156,-0.1042664301604032,-0.0364254314038902,-0.0013194291386753,0.1838598400354385,0.0763443559408187
1774472501194272300,2.713272216796875,0.4803168343245982,0.2417341420464217,1.1336048017233609,-0.9753481149673462,-1.85085928440094,-0.1410835534334182,3.060200640568137,2.1884299351118504,1.8541174626111985,1.2465624809265137,1.1701940298080444,-0.3390840291976928,0.2144780324608087,-0.0906061535984277,0.0083466985900886,-0.0061235055327415,0.164619043469429,0.0752655118703842
1774472501204300300,2.72330029296875,1.067038864403963,-0.4887732586331665,0.4440957663863897,-0.8825067281723022,-1.5695605278015137,-0.1463648229837417,3.691801676815748,0.7319754274055361,2.2256359224341806,1.6288273334503174,1.151936173439026,-0.8284774422645569,0.2229910092622041,-0.080430212020874,0.0335762159852311,-0.0090446220710873,0.140409231185913,0.0718256756663322
1774472501214328300,2.733328369140625,1.7861521798878908,-1.1362325929436832,-0.1913724666833877,-0.7578747868537903,-1.1457732915878296,-0.2168499082326889,3.212948485302925,-0.1492307765245437,2.436272038644552,1.9288578033447263,0.7482231259346008,-1.0337718725204468,0.2415264906451106,-0.0802180305749177,0.0622293876861222,-0.0044911485165357,0.121262177824974,0.0652162432670593
1774472501224356400,2.7433564453125,2.5001743097126483,-1.4822124876886604,-0.3642091597229242,-0.5759392976760864,-0.6447334289550781,-0.2996495962142944,1.695724889987707,-1.0881978261582552,2.7691780053481456,1.9582782983779907,0.1893507987260818,-0.8358768820762634,0.2442854339644312,-0.0881540842711925,0.0478591727565042,0.000923469022382,0.1072295010089874,0.0555781498551368
1774472501234384400,2.75338427734375,2.9921733985245225,-1.9117589197188607,-0.4500602277487516,-0.3779356777667999,-0.0002061300911009,-0.3523029685020447,0.5211281526625157,-1.7267469279780985,2.9098183559209105,1.740340232849121,-0.4296159446239471,-0.4187824428081512,0.2265583463549614,-0.0754033237695693,0.0543992055171169,0.0100453281775116,0.0988107174634933,0.0424652770161628
1774472501244412400,2.763412353515625,3.538352405813336,-1.8971838663995264,-0.7622007620602845,-0.2606903910636902,0.7225328087806702,-0.334961324930191,0.3541811021834611,-1.7076283860102297,3.1331460497915744,1.549053430557251,-0.973993480205536,-0.0514457263052463,0.2073781373277306,-0.0606903232842683,0.0642574046486988,0.0212526191025972,0.0968952029943466,0.0327530279755592
1774472501254441200,2.773441162109375,3.754866328015923,-1.2904805400431156,-0.510106992432475,-0.2669866383075714,1.3579808473587036,-0.2940439879894256,0.7014759519845247,-1.072269604664296,3.1879914464399217,1.531195044517517,-1.2023766040802002,0.1299222707748413,0.1618888903066515,-0.0570171877294778,0.0589641570787876,0.0338778682053089,0.1043563187122345,0.0266301520168781
1774472501264469500,2.783469482421875,3.5379508392751213,-0.6847847832940518,-0.364330740275979,-0.3202285468578338,1.982480764389038,-0.1755773425102234,1.680889139905572,-0.4502570654951036,3.206810713200271,1.6276984214782717,-1.295641303062439,0.062339499592781,0.1323714116603136,0.002016015997529,0.0732711888453923,0.0457472130656242,0.1139899790287017,0.0165876522660255
1774472501274497300,2.793497314453125,3.2061165934562683,0.0538074319027364,0.0758154117017984,-0.4074340164661407,2.3683321475982666,0.0242412313818931,2.7057319536149502,-0.2869119850307703,2.6868834607601166,1.680253267288208,-1.392032265663147,-0.1788600385189056,0.1309542383387684,0.036578210812807,0.0605197707566432,0.0568278282880783,0.1257696598768234,0.0073643256910145
1774472501284525300,2.803525390625,2.2131676321357485,0.3946685953944921,0.7737842323482036,-0.5669737458229065,2.098251342773437,0.2586389780044555,2.9442355893075463,0.5370362081512808,1.948060943938792,1.5907297134399414,-1.3824398517608645,-0.4210926294326782,0.1520908421307802,0.0230284088879823,0.0510982642755843,0.0648494437336921,0.1308858394622802,-0.0020762025378644
1774472501294553300,2.81355322265625,0.3637783670902252,0.4667443821765482,1.276013038751483,-0.7243769764900208,1.5862915515899658,0.4012736082077026,2.1184002672046423,2.6257898173719645,2.2189608285844327,1.603421926498413,-1.320677638053894,-0.471858412027359,0.1797246989876031,-0.0291097746282815,0.0529715656004846,0.0723259970545768,0.1290093809366226,-0.0077106524258852
1774472501304581400,2.823581298828125,-0.485114005473256,0.0818311648599803,1.3971961169213056,-0.8069020509719849,1.287176251411438,0.4058427512645721,2.8523884957373142,1.6672105970345437,1.6736394610382614,1.6220691204071045,-1.4535810947418213,-0.6090455651283264,0.1811544395297765,-0.051337973049283,0.0790957302804104,0.077698104083538,0.1183555200695991,-0.0131327118724584
1774472501314609400,2.833609375,-0.2847656206518411,-0.3503285914737731,1.178417172396183,-0.7645338177680969,1.0640754699707031,0.2082380652427673,2.4486802693188188,1.6427938025280833,1.349537855298072,1.735536813735962,-1.832666039466858,-0.638039767742157,0.1590448990523815,-0.0625730682909488,0.0812244494047947,0.0808092057704925,0.1030623242259025,-0.0187469217926263
1774472501324637400,2.843637451171875,-0.1206616846442222,-0.90979633859843,0.6426905855387449,-0.6858850121498108,0.946757197380066,-0.1687709093093872,0.9482838901638984,1.612362277776748,0.9600806378763168,1.870021939277649,-2.040427923202514,-0.5207379460334778,0.1421349730446934,-0.0687222385704517,0.0819072257708758,0.0817862898111343,0.0908758044242858,-0.0218815933912992
1774472501334665200,2.853665283203125,0.2373258240848779,-1.2130011406518515,0.5446726943790913,-0.58866286277771,0.9569360613822936,-0.5859175324440002,-0.4530699309587478,0.9757200324915348,-0.2508509664924815,1.895630955696106,-1.9035433530807493,-0.3126368522644043,0.1225853461831808,-0.0748322458833456,0.0742746302668936,0.0815870910882949,0.0856237858533859,-0.0218893159180879
1774472501344693500,2.863693603515625,0.5429132834911347,-1.25095283177495,0.685775694027543,-0.4118177592754364,1.0397475957870483,-1.0006084442138672,-1.0088818589895965,0.4881631639108061,-1.4235837731093168,1.7838304042816162,-1.567573070526123,-0.1404682993888855,0.0799988348662853,-0.0807978762894868,0.0497456988891586,0.0837049931287765,0.0863020569086074,-0.020493384450674
1774472501354721300,2.87372119140625,0.8347709082305431,-1.406340669624507,0.2592652686923742,-0.2428151667118072,1.280372977256775,-1.3207087516784668,-0.5466238284468651,0.1472109611347317,-2.2132485884174704,1.521731972694397,-1.323213815689087,-0.1123053207993507,0.0814250682771205,-0.0715823041766881,0.0288718924854882,0.0817297250032424,0.0869108512997627,-0.0235195346176624
1774472501364749300,2.883749267578125,1.6183955665916203,-1.687258090415597,-0.3028907676681876,-0.058182805776596,1.925714373588562,-1.4570194482803345,0.3088759795576334,-0.6076521515138447,-2.735575887736678,1.194832444190979,-1.1984801292419434,-0.2319012284278869,0.0824777922004461,-0.0705570527821779,-0.0008447619947604,0.0801481902599334,0.09058777987957,-0.0235072653740644
1774472501374777300,2.89377734375,3.4544191541075704,-1.496163563890755,-0.9476061370328068,0.2008050829172134,2.839359998703003,-1.2763711214065552,0.6574953559607267,-1.5283493849635124,-2.9306936784282325,0.8574504852294922,-1.1159954071044922,-0.4160548746585846,0.0660538961440324,-0.0708113198041915,0.017246464485675,0.0769209712743759,0.0913688838481903,-0.0227669067680835
1774472501384805400,2.903805419921875,4.9328649827390905,-0.6904997268747538,-1.372997202949226,0.4188496768474579,3.549604654312134,-0.7790744304656982,0.1469382816731929,-1.348971599717438,-3.294576090414822,0.4728591442108154,-0.8437341451644897,-0.577836275100708,0.050312137132883,-0.1023790089786052,0.0210446146596223,0.0757658779621124,0.0877008810639381,-0.0224255342036485
1774472501394833400,2.91383349609375,4.810120062080025,-0.200545953220129,-1.2726137517020106,0.5246211290359497,3.622673273086548,-0.2431750446557998,-0.3107411889076232,-0.6563695668011903,-3.261919729220867,0.1268779188394546,-0.5707073211669922,-0.6639360785484314,0.0453872479513287,-0.1086807394713163,0.0259757143862545,0.0764934569597244,0.0792434811592102,-0.0216223243623971
1774472501404861400,2.923861328125,3.2831513178199527,0.4369371998686343,-0.3812105634063482,0.4762404859066009,3.1917409896850586,0.1535764783620834,-0.437601143670082,-0.4878994714733213,-2.6573335411489007,-0.1035505011677742,-0.4350501596927643,-0.7128332853317261,0.0250882640272378,-0.0879231981247663,0.0347677455910481,0.0777445212006568,0.0663670748472213,-0.0222192928194999
1774472501414889200,2.93388916015625,1.5775164437144993,0.6172226745441556,0.262428701159358,0.3531387746334076,2.700709819793701,0.3432992696762085,-0.4612012149661779,0.1736312044180929,-2.276765659560263,-0.2689540088176727,-0.3394097089767456,-0.7136883735656738,0.0195551798194646,-0.1078524719536304,0.0384550558016635,0.0781114995479583,0.0544560849666595,-0.0220842715352773
1774472501424917200,2.943917236328125,0.7894792296081781,0.701710345262289,0.4151470275387168,0.2128959596157074,2.2939484119415283,0.3413600623607635,-0.8172551252841949,0.8940378476481884,-1.5099148797370492,-0.2772271037101745,-0.4401970505714416,-0.5906133055686951,0.0220411514163017,-0.0867594150424003,0.0326581786917056,0.0811719223856926,0.0426677949726581,-0.0224913470447063
1774472501434945300,2.9539453125,0.6459276677638291,1.058165895183757,0.5748877999007701,0.0522357113659381,2.136830568313598,0.1411683857440948,-2.6323855623751875,1.2445628384768963,-0.9648904493108392,-0.1732896417379379,-0.3498788774013519,-0.2877563536167145,-0.0010930559337139,-0.0598936199486255,0.0056372661014553,0.083076611161232,0.0395526923239231,-0.0189152546226978
1774472501444974300,2.963974365234375,1.3719418486773969,0.8598601221058517,0.4637856785014271,-0.2361281663179397,2.3584563732147217,-0.3150958120822906,-4.043286379522085,1.5301692938670517,-1.4788094012469053,-0.0331786088645458,0.0908013135194778,0.0420260615646839,-0.023489596658945,-0.0235188227534294,-0.0024255192470271,0.0845260992646217,0.0417143777012825,-0.0182179845869541
1774472501455002400,2.97400244140625,2.556049926191568,1.8432848106905817,0.5232477751649915,-0.5987532734870911,3.035984992980957,-0.8504481911659241,-4.3869729756981135,1.2809426041081546,-2.836379025700688,0.0206875596195459,0.6457891464233398,0.3057962656021118,-0.0248167536094784,0.0272422271907329,-0.015617219316028,0.0901552215218544,0.0489219576120376,-0.0156874489039182
1774472501465030400,2.984030517578125,3.419120461711288,2.648638193517923,1.2489907379217444,-0.9568200707435608,3.576546192169189,-1.0196152925491333,-3.938325537356734,0.230667535239458,-3.501221237292885,-0.0612658932805061,1.0106908082962036,0.4819452166557312,-0.0233592482775449,0.0363625222355127,-0.0306033285211306,0.0936333462595939,0.0539728999137878,-0.0155061930418014
1774472501475058400,2.994058349609375,3.827622352147102,1.2223458921022712,0.7976262957066297,-1.1348609924316406,3.8497350215911865,-0.9085726141929626,-3.1037621343970296,-0.7495082345519214,-3.4651945228829977,-0.3074784874916076,1.1370216608047483,0.5613706111907959,-0.013433482068777,0.007730301991105,-0.0514164359798189,0.099986582994461,0.0568344667553901,-0.0139892566949129
1774472501485086500,3.00408642578125,4.488157221934199,0.7981549957558512,-0.3615405250355601,-1.063701868057251,4.1813554763793945,-0.4802151620388031,-0.5629395879536867,-0.9112839468076824,-3.994971261425316,-0.7045909762382507,1.4853819608688354,0.1106827929615974,-0.0170464118689298,-0.029543489870429,-0.0565368842660915,0.10292649269104,0.052538689225912,-0.0115816872566938
1774472501495114200,3.0141142578125,4.687700720113516,0.2933264917155727,-1.26954705760777,-0.8296704888343811,4.511289596557617,0.1133006289601326,1.994248986878991,-0.4214405747249722,-4.21267439341247,-1.0184046030044556,1.3210557699203491,-0.3347553312778473,-0.0135214526131749,-0.067617492198944,-0.0771034696178045,0.1077779754996299,0.0478129088878631,-0.0086881630122661
1774472501505142500,3.024142578125,4.865037647181749,-0.5198788467211648,-1.8281898251503703,-0.3846445381641388,4.306106090545654,0.7236393690109253,8.204289622408151,0.7124277733054012,-2.559220665182173,-1.1032336950302124,0.0958337113261222,-1.758057951927185,-0.0232207165896892,-0.0808200881212949,-0.0931909093946218,0.11031174659729,0.0470447279512882,-0.007777121849358
1774472501515170300,3.03417041015625,2.829814260357618,-2.1490642855376003,-1.4851580396212636,0.0795053094625473,4.921903133392334,1.649633526802063,10.081548306632042,1.658324695267528,-1.5406656995706258,-0.9234933257102966,-1.3203200101852417,-2.935454607009888,-0.0228933843314647,-0.0802495947569608,-0.1288301771231927,0.1142716035246849,0.0511688962578773,-0.0023935423232614
1774472501525198300,3.0441982421875,1.7304127570092678,-3.020575609405338,-0.8292918922975658,0.4059921503067016,4.605923652648926,2.070962429046631,-0.0064735799282789,2.0584407424129543,-1.2775339647084474,-0.6725016236305237,-0.759688675403595,-3.2833821773529053,-0.0311199454069137,-0.0884071822494268,-0.150005624221405,0.1126848012208938,0.0561244674026966,0.0022333886008709
1774472501535226400,3.054226318359375,-0.4621235905081033,-4.38586852158755,-0.0213869983565062,0.6351121068000793,3.422689199447632,1.6474270820617676,-4.429502203869819,0.4915450614340603,-0.9692196376215666,-0.9252696633338928,0.7396613955497742,-2.7199509143829346,-0.0375005863547325,-0.0938052419006824,-0.1867303399659693,0.1093369424343109,0.0651182308793068,0.0087464153766632
1774472501545254100,3.064254150390625,-4.660028284811974,-4.228017508494854,0.2631671715017408,0.8762151598930359,3.060880422592163,1.0236809253692627,-2.1012042177319525,0.3185088272344321,0.1186747394775506,-1.0857621431350708,0.4088355898857116,-1.9643365144729608,-0.0241948223188519,-0.1106739591151475,-0.2160251523049548,0.1044463813304901,0.0740558505058288,0.0158087871968746
1774472501555282400,3.074282470703125,-4.730422840508818,-3.1044638529255986,1.1452473087221384,0.6805090308189392,3.399265050888061,0.5978524088859558,1.0870721831291914,0.9074095895923674,-1.968044724433869,-0.9675068855285645,0.0578742586076259,-1.3675525188446045,-0.0043231238961219,-0.125721890643239,-0.2160770651552826,0.1015129089355468,0.0805494338274002,0.0222539044916629
1774472501565310200,3.084310302734375,-3.4474440543979403,-1.1853059089966118,3.7537317710280416,0.3717780113220215,3.0392470359802246,0.6336645483970642,0.8607780406683683,-0.0678834861913696,-3.7600378854349255,-0.9565826058387756,0.8868443965911865,-0.7380595803260803,0.0172907420188188,-0.1563625281006097,-0.2438002077307552,0.0923559293150901,0.0822948813438415,0.0312048401683568
1774472501575338200,3.094338134765625,-4.379305217549205,0.7331723821051418,5.862057218942046,0.2062007337808609,-0.0658829510211944,1.269564867019653,1.695909598904848,0.0318665990557521,-2.518861182264984,-0.9974478483200072,0.2975150644779205,-0.252722829580307,0.010973521696031,-0.1700263117939233,-0.2472276614287868,0.0845968052744865,0.0817808881402015,0.0388073660433292
1774472501585366300,3.1043662109375,-13.67773038560152,-0.3206261847145855,5.516249392828345,-0.0431964360177516,-0.4982754588127136,0.439749151468277,0.3772504276037215,-0.0003381093805655,-0.7779994388904422,-1.041615009307861,0.4414541125297546,-0.0523873381316661,0.0214426010012626,-0.2102460939794778,-0.2461086856025271,0.0725758969783783,0.0810730829834938,0.0496170744299888
1774472501595394300,3.114394287109375,-10.31917282140255,0.0680653820969164,1.6362912887662648,0.2915549278259277,1.356854796409607,-1.062867283821106,-0.4234229807138442,0.622429011015594,0.3621753158077597,-0.8542616963386536,0.2770403325557709,0.0012830684427171,0.0334486806154251,-0.2207651499062776,-0.234113474442251,0.0645909458398819,0.0796171352267265,0.0586670264601707
1774472501605422300,3.12442236328125,-0.6301689576178788,0.67424146970883,-2.2166082741089164,0.8048406839370728,2.054884433746338,-1.5358353853225708,0.2824982602417469,2.957649489893019,-1.517945187588036,-0.6800869107246399,0.7408948540687561,-0.0725693181157112,0.0441635513752698,-0.2297194407343864,-0.2347380360813811,0.053740244358778,0.0836603790521621,0.0666006281971931
1774472501615450400,3.134450439453125,1.7178367685526608,-1.3815920128151773,-2.717289997200668,0.8751422762870789,1.1485302448272705,-0.8995601534843445,0.3074614365845918,3.240975140869617,-0.9533410274229944,-0.4784215986728668,0.3080279231071472,-0.0323097892105579,0.0593643353775143,-0.2263070019423961,-0.2407908515806309,0.0451797805726528,0.0882958769798278,0.0763600468635559
1774472501625478100,3.14447802734375,-0.5169961674243212,-1.3084597027175129,-0.8096959420762956,0.5746566653251648,0.9966946244239808,-0.4704152643680572,-0.0796241563349962,1.0310507284387946,0.3186690958300605,-0.391023576259613,0.0916878804564476,-0.051851000636816,0.0669859162971377,-0.2198287458389997,-0.2457965874460525,0.0383163169026374,0.0954663008451461,0.0831239223480224
1774472501635507500,3.154507568359375,1.767771889066696,-0.7123685173988342,1.2694504653654992,0.2625799775123596,0.6201891899108887,-0.1576235294342041,-1.4450111765414475,1.293375969223678,-0.1593725418378599,-0.2928739786148071,0.0303970109671354,0.061531014740467,0.078762863330543,-0.2126356194645166,-0.2365983500605449,0.031617134809494,0.1093964949250221,0.0904425531625747
1774472501645535000,3.164534912109375,1.6588345444858072,1.1001990104015915,1.503112360115349,0.3051406145095825,-0.1171855181455612,0.0083077438175678,-1.2101871061444285,0.8462102208074181,0.6957839508879929,-0.2077574878931045,0.0465557388961315,0.1613619923591613,0.1087929676741361,-0.19149872341156,-0.2288066915373317,0.0277468431740999,0.1209370866417884,0.0973412543535232
1774472501655562800,3.174562744140625,0.1396393568366765,1.32255997813195,-0.1222843174099922,0.323820024728775,-0.8912599086761475,-0.0137123372405767,-3.13505685184896,1.1183093982402237,1.163680644904822,-0.1179925799369812,0.3174899518489837,0.338028609752655,0.137303607365489,-0.1670312216311693,-0.2140839003103785,0.0214644465595483,0.1338307708501815,0.1049184799194336
1774472501665591000,3.184591064453125,-0.5016951379179955,0.57215815574117,-0.4550459072068333,0.1887012273073196,-2.29910945892334,-0.3100093603134155,-0.3028063042551279,0.2192431645033881,1.1077456263888628,-0.1932697594165802,0.3870013654232025,0.0131136383861303,0.1461965233951807,-0.1601817941278219,-0.1852914297366514,0.0126996776089072,0.1408507078886032,0.109540581703186
