time,seconds_elapsed,imu1_accel_x,imu1_accel_y,imu1_accel_z,imu1_gyro_x,imu1_gyro_y,imu1_gyro_z,imu2_accel_x,imu2_accel_y,imu2_accel_z,imu2_gyro_x,imu2_gyro_y,imu2_gyro_z,imu3_accel_x,imu3_accel_y,imu3_accel_z,imu3_gyro_x,imu3_gyro_y,imu3_gyro_z
1774472694445738500,6.843738525390625,1.3398163794897495,1.2285616978771985,3.0652070705533028,0.2692406177520752,1.1710405349731443,0.1622977256774902,-0.1061439144700765,-0.0856301187515258,0.3939684112358838,-0.3763135969638824,-0.0831997096538543,0.1714250296354293,0.0912333455860614,0.2573369309782982,0.2601259771749377,0.2835757732391357,0.5902084708213806,-0.1979648470878601
1774472694455766800,6.853766845703125,1.0281009387224913,2.1607867259047926,3.3616461778640745,0.0851792767643928,1.4847880601882937,-0.0374339558184146,-0.1073649806976318,0.0134013333648443,0.438620038389042,-0.4027133584022522,-0.0286509953439235,0.1676112562417984,0.0295370601296424,0.2776572499513626,0.2877422983750701,0.3312875926494598,0.6624179482460022,-0.2452995330095291
1774472694465794600,6.863794677734375,1.485145326270163,1.631238243160397,1.7747218543350696,0.0038061230443418,1.7818199396133425,-0.1733630299568176,-0.0407704018056392,0.1512897548809647,0.5879873738400637,-0.4031709134578705,0.0153151294216513,0.1500863283872604,0.1902934392750263,0.2024409731864929,0.0640364188417792,0.3243953287601471,0.6489740610122681,-0.3005358874797821
1774472694475822600,6.873822509765625,2.0730396149992942,1.53047514494583,2.5711329290330407,-0.0105932159349322,1.5773298740386963,-0.0379810221493244,-0.0298696530848741,0.26200521505028,0.774291743478924,-0.3751659393310547,0.0217813625931739,0.1374546736478805,0.2056073282629251,0.0441565371125936,-0.2759992536112666,0.2911733388900757,0.5846298933029175,-0.3267145454883575
1774472694485849600,6.883849609375,0.8760942677438258,1.8182813023373483,2.4839520737081764,-0.0113673973828554,0.8330780267715454,0.1356360465288162,-0.1364952135920524,0.3519903141409158,0.9863077697403728,-0.3251469731330871,0.021145399659872,0.1425402462482452,0.0999672716617584,0.0447416435241699,-0.4175283697172999,0.246111586689949,0.481582373380661,-0.3231403231620788
1774472694495877600,6.893877685546875,-1.3057085043132304,2.0931880845367905,1.4986726241022348,0.1219557672739029,0.1798363327980041,0.1137251481413841,-0.2747948462575674,0.2754477572083473,1.0486047975689172,-0.2826517224311828,0.0103737125173211,0.1453621387481689,0.2495464232325553,0.0687432813584804,-0.3881669584155082,0.1829447597265243,0.2671155333518982,-0.314278095960617
1774472694505905700,6.90390576171875,-2.1370438851371407,1.8792635943055152,0.8138304115325212,0.25275319814682,0.1712801158428192,0.2914040684700012,-0.5354150366902352,0.2902151182293891,0.9495509144250304,-0.2242176830768585,-0.0923449397087097,0.1279993951320648,0.4037468048632144,0.0334428353965282,-0.519243654090166,0.0913189724087715,0.0040599419735372,-0.2862174212932586
1774472694515933700,6.91393359375,-1.4435330668129025,1.528613004335761,0.3435673537105321,0.1758084446191787,0.6382080316543579,0.572145938873291,-0.8773299470186233,0.3970107746064663,0.9906683030374348,-0.180196464061737,-0.0200793016701936,0.1511843204498291,0.0900584565877914,-0.0061503393232822,-0.5850108422473073,0.0210531242191791,-0.1572476327419281,-0.2414182126522064
1774472694525961700,6.923961669921875,-1.9383798001408576,0.9824263982623817,0.3691916243106126,-0.1193257197737693,1.4001154899597168,0.6567878723144531,-1.218626433187723,0.3600017711609601,0.789873270427063,-0.1496358811855316,0.2502528429031372,0.189447820186615,-0.3360059785455465,0.0635427901059389,-0.3425666522353887,0.0043415213003754,-0.1505172848701477,-0.1988864541053772
1774472694535989800,6.93398974609375,-2.522276251405477,0.2647729992631822,0.374271119531989,-0.5319005846977234,2.2390408515930176,0.5909036993980408,-1.2631155632555484,0.5298980268344283,0.5494989454917609,-0.1252845525741577,0.5003934502601624,0.2298889011144638,-0.6386211441427468,0.2096481280863285,-0.0081602178409695,0.0282401498407125,-0.0348614417016506,-0.1525080204010009
1774472694546017500,6.944017578125,-1.5903566360652446,-0.5793258554134517,0.0031347908943891,-0.853356659412384,2.9869210720062256,0.4864031076431274,-1.0346855778098103,0.7750751489415765,0.451489968290925,-0.1067817062139511,0.6614776849746704,0.2426707446575164,-0.7903016519069671,0.2672960149347782,0.2361433363020419,0.0729120075702667,0.0746288299560546,-0.095194399356842
1774472694556044500,6.95404443359375,-0.600801920292899,-1.021781161116436,-0.6161106216490269,-1.0612472295761108,3.341026782989502,0.2850198149681091,-0.6541524752736091,0.7643827822744846,0.5689393398251384,-0.0977975651621818,0.6987283825874329,0.2355994880199432,-0.7366314365178346,0.28450667745471,0.3318178792059421,0.1168470084667205,0.1485630422830581,-0.0531317852437496
1774472694566072600,6.964072509765625,-0.3433200278859585,-0.9250674113579094,-1.068484387037158,-1.157587647438049,3.453044891357422,0.0845653042197227,-0.4819371290028095,0.3090153880283236,0.9509018906425684,-0.0808563977479934,0.6973296999931335,0.2316439002752304,-0.3904793270111084,0.2238239529550075,0.2623600198373198,0.1382814645767212,0.1888787746429443,-0.074242927134037
1774472694576100600,6.9741005859375,-0.1712941215063445,-1.0702805497389287,-1.0755804827779532,-1.2633641958236694,3.675439834594727,0.0176645126193761,-0.2859574607849121,0.0864601398348808,1.1640373493880032,-0.0669634267687797,0.6671334505081177,0.2329473197460174,-0.0026782792985439,0.0864478648751974,0.0290630128771066,0.1259027272462844,0.2121253460645675,-0.1289598792791366
1774472694586128600,6.984128662109375,-0.1052665288473479,-1.0406328688416628,-1.2712637983977797,-1.3191747665405271,4.172796249389648,0.1240127831697464,-0.2496662502199411,0.1029421958193183,1.0501159327842295,-0.0756133794784545,0.5724823474884033,0.244900643825531,0.1066056867629289,-0.0286246214598417,-0.2484443072095513,0.1064075976610183,0.2711292803287506,-0.1735667586326599
1774472694596156700,6.99415673828125,0.4936924487262964,-0.8100127529405057,-1.744095829924941,-1.4027806520462036,5.035660266876221,0.2999800145626068,-0.4800023615479469,-0.0577159836485981,0.7856208006143569,-0.1361078470945358,0.5192168354988098,0.297524482011795,0.0190764563918113,-0.0149070617526769,-0.2319754029676318,0.1106615513563156,0.3281722366809845,-0.2163934111595153
1774472694606184700,7.004184814453125,0.9473756162125616,0.3588229366399347,-1.7666951997458933,-1.3030521869659424,5.710626125335693,0.3847218155860901,-0.6541875465869903,-0.0868161136656999,0.5189782811522483,-0.250058650970459,0.5772002935409546,0.4234965145587921,-0.0004167641073465,0.062871174454689,-0.0351309346139431,0.1200686395168304,0.3334801793098449,-0.2489153891801834
1774472694616212500,7.01421240234375,0.2729175080783665,-0.1058920220682397,-2.135377120968699,-0.9007058143615723,5.827548980712891,0.4890284836292267,-0.5697399156183004,0.0585445434272289,0.2202848190434277,-0.37695974111557,0.5531519055366516,0.5293383598327637,-0.12105740596354,0.0675251377403736,0.1173246491760015,0.1357354372739792,0.2784267663955688,-0.2537348568439483
1774472694626240800,7.02424072265625,-0.1240533729091286,-0.9730853000737726,-1.596114761200547,-0.451171725988388,5.7943925857543945,0.593280553817749,-0.1342529876232147,0.1783203851476311,0.1324253338046372,-0.4703395068645477,0.481458842754364,0.5765396952629089,-0.1946206548243761,0.0835509743899106,0.1766856235526502,0.1365865767002105,0.1877815723419189,-0.2304638773202896
1774472694636267800,7.034267822265625,-0.0293783624365925,-1.3711800705246626,-0.5550953041940927,-0.098631352186203,5.682319641113281,0.6266310214996338,0.1747176844805479,0.040024844135344,0.3298535933956503,-0.5260175466537476,0.5346360206604004,0.6352226138114929,-0.273365105715394,0.0463227752357721,0.0541033461093902,0.121264599263668,0.1208042502403259,-0.1865081787109375
1774472694646295600,7.044295654296875,-0.026287118422985,-2.237844246622174,-0.1322808107674122,0.0774816200137138,5.586822509765625,0.7041473984718323,0.1571282517760992,-0.0864309137403964,0.5584449068829417,-0.578136146068573,0.5893847346305847,0.7081940174102783,-0.3539391101211309,0.0119739309102296,-0.0500301053211092,0.1010802313685417,0.091941975057125,-0.1362769603729248
1774472694656323600,7.054323486328125,0.5955670153141022,-3.190070298540592,0.3216717482447624,0.2213478982448578,5.032527923583984,0.8160991072654724,0.0696399379372596,0.0448690692961216,0.6609722382910549,-0.576822817325592,0.6196585893630981,0.7600077986717224,-0.3915735519886016,-0.0322416429132223,-0.0686864366047084,0.0838426798582077,0.0984224006533622,-0.1024404019117355
1774472694666351600,7.0643515625,0.5939890984728932,-2.584674839912355,1.1670838774770498,0.4885061085224151,4.102764129638672,0.8722033500671387,-0.0749333681702613,0.2150532020002603,0.6096250590220094,-0.5713515877723694,0.7284348607063293,0.7623343467712402,-0.4364946437329053,-0.0045908349215984,-0.0560028961203992,0.0713242217898368,0.111465498805046,-0.0753113180398941
1774472694676379600,7.074379638671875,0.7606032637357711,-1.8028214290075,-0.1190606791883707,0.8460909724235535,3.0474228858947754,0.9311811327934264,0.1166752453565597,0.3744441380113363,0.5603397807188332,-0.4919097125530243,1.1399285793304443,0.6661436557769775,-0.4556459189265966,0.0330225641578435,-0.05515270903185,0.0576724372804164,0.0972608029842376,-0.0353402122855186
1774472694686407700,7.08440771484375,0.9414324168339372,-1.0094245875641703,-1.631988623136282,1.2451457977294922,1.9779391288757324,0.9915406107902528,0.349490898540616,0.3581716331243514,0.7517170697078108,-0.2215088456869125,1.5640721321105957,0.4238636791706085,-0.4144833029329776,0.0418494292140007,-0.0752453567288816,0.0365043021738529,0.039074994623661,0.0183246135711669
1774472694696435700,7.094435791015625,0.4919710317611694,-0.8111386882305145,-1.265458911511302,1.4161313772201538,1.025130271911621,0.908583402633667,0.9664134210944176,0.5298562335193157,0.3256386060491204,-0.1803179234266281,1.7933845520019531,0.125516727566719,-0.345811333245039,0.0603711743324995,-0.1315934130251407,0.003996352199465,-0.0306507647037506,0.0601650848984718
1774472694706463500,7.10446337890625,-0.9920084656000135,-1.154848226890713,-0.3112549836486578,1.3209489583969116,0.2785938084125519,0.6002426147460938,1.0264520024716854,0.6252890766218304,-0.5316352258905768,-0.2860038578510284,1.9753639698028564,-0.1043918430805206,-0.2420902620077133,0.0377706354677677,-0.1898250911109149,-0.0328623279929161,-0.0959970131516456,0.0856864228844642
1774472694716490800,7.11449072265625,-2.17627670211196,-0.889004456590861,0.0842354495227336,1.0968738794326782,-0.0498904250562191,0.3876078128814697,0.7657564087152481,-0.2123068259015679,-0.4018041463628411,-0.4394148290157318,2.181252241134644,-0.2917266488075256,-0.1986579475164413,0.0534592029869556,-0.191067930778861,-0.0527957268059253,-0.1082151681184768,0.0947008654475212
1774472694726518500,7.1245185546875,-1.1677841347008944,-0.5759795041276141,-0.6170008484870195,0.7966379523277283,-0.0114881759509444,0.3796585500240326,0.563485531398654,0.2851473134458064,-0.1690846470296382,-0.4155164062976837,2.26932430267334,-0.4544788300991058,-0.1440145031809806,0.0671907912194728,-0.1110328555554151,-0.0508012883365154,-0.0737706422805786,0.0883662700653076
1774472694736546800,7.134546875,-0.1555780997246503,-0.5908118566762656,-0.881017695620656,0.5326034426689148,-0.2040410786867141,0.4150744676589966,0.2643827578365803,0.4742079960554838,-0.3083268212422728,-0.4722958207130432,2.4555790424346924,-0.5729652643203735,-0.0106400519579648,0.0742751965224742,-0.0486522410966455,-0.0512307435274124,-0.0564108155667781,0.0558475106954574
1774472694746574600,7.14457470703125,-0.6464125286713243,-0.397537136568129,-0.3663572776675224,0.3393676578998565,-0.907580018043518,0.3727909028530121,-0.1462573136717081,-0.7253533789172768,-0.7775812865436077,-0.6669462323188782,2.7277395725250244,-0.514358401298523,0.1396621531903743,0.0679062460124492,-0.066370853138715,-0.0575882419943809,-0.0564350523054599,0.0127442479133605
1774472694756603000,7.154602783203125,-1.3159881985262036,-0.4270943261703476,0.499649895825982,0.1522897332906723,-1.7617429494857788,0.2715101838111877,0.1822550942480564,-0.2389750525966286,-1.2275380539178848,-0.9864848852157592,2.600986957550049,-0.2774771749973297,0.2101964096188545,0.0747258628994226,-0.0241527367427945,-0.0684393122792244,-0.1062582284212112,-0.025901935994625
1774472694766630700,7.164630615234375,-0.7865843849495053,-0.7409279646679758,1.3255050916731357,0.0380244068801403,-2.5722830295562744,0.1682250797748565,0.3816162215977907,0.0285948108434677,-0.9442404599919916,-1.2749992609024048,1.9465572834014893,-0.0239756815135478,0.2598141347467899,0.0892781198650598,-0.0204994749322533,-0.0943926200270652,-0.20445616543293,-0.0405064448714256
1774472694776658700,7.17465869140625,-0.2508949152320623,-1.446268336995691,1.9524533336788408,-0.0304100979119539,-3.298246145248413,0.0512282326817512,0.8492138596028089,0.1989627756819129,-0.843351981832087,-1.560140609741211,0.5261312127113342,0.1115441843867302,0.0486357283532619,0.0790852271527051,-0.1304956809163093,-0.129944309592247,-0.2790911495685577,-0.0153607856482267
1774472694786685700,7.184685791015625,-0.3366396002739668,-1.1109821971572935,2.508514268034697,0.1149015575647354,-3.949513912200928,-0.1895356476306915,1.2352934903502464,0.3096124771386385,-0.9803834942579268,-1.6355509757995603,-1.0619157552719116,0.3176478445529938,-0.3247136001586914,0.1136333934426307,-0.1640147964194417,-0.1502447873353958,-0.2631097733974457,0.0451784580945968
1774472694796713500,7.19471337890625,-1.1707003144085406,-1.2279466347187755,2.021335146725177,-0.0616116411983966,-3.998667001724243,-0.5024512410163879,1.098437626752257,-0.303000073261559,0.3941539238706231,-1.545393705368042,-2.5176703929901123,0.5320457220077515,-0.6314122356772423,0.1730155567377805,-0.0005348375290632,-0.1361988335847854,-0.1960354596376419,0.1213983446359634
1774472694806741800,7.20474169921875,0.0881558378368616,3.0978838900133967,3.582372164803743,-0.1673319339752197,-4.178096294403076,-0.5201966762542725,1.471950036871433,-0.3909720789641142,0.6529661880984902,-1.5242040157318115,-3.854467868804932,0.5439234375953674,-0.6712146692335605,0.2439841129302978,0.2226166229918598,-0.0997822433710098,-0.1417304128408432,0.1785042434930801
1774472694816769500,7.21476953125,0.3092863139241933,2.0938521014034746,1.3340531397879123,0.1294536292552948,-4.3559250831604,-0.4094589352607727,2.1107716720223424,0.176159115460515,-0.0067675944387912,-1.628000020980835,-4.944558620452881,0.3316776156425476,-0.4978396315336227,0.2818494409441948,0.3353156581938266,-0.0642456337809562,-0.1250375062227249,0.2049120962619781
1774472694826797800,7.2247978515625,0.7115368888802825,0.7507192908421159,-0.2086807443588972,0.4198814630508423,-4.499873638153076,-0.2994669377803802,2.919202854859829,1.585657372333109,-0.8338678219109773,-1.7566351890563965,-5.818106651306152,-0.064446821808815,-0.2622802325993776,0.2584428463935851,0.3078188717201351,-0.042348064482212,-0.1119419485330581,0.1948062032461166
1774472694836825600,7.23482568359375,0.8755962550938129,0.7593450803682208,0.2535679338335991,0.5887235403060913,-4.384296894073486,-0.1675472855567932,3.057197367098927,2.153142494761944,-0.9957346465162932,-1.759253740310669,-6.280682563781738,-0.4431241750717163,-0.0128776017516851,0.1682230617642402,0.2072723388656973,-0.0254914481192827,-0.0978830754756927,0.1637095063924789
1774472694846852900,7.244852783203125,0.9784897894658148,0.0150748012687079,-0.0407125341385602,0.6751841306686401,-3.906722068786621,-0.1427607089281082,2.6988825261116025,1.670428536167741,-0.493156880544871,-1.6832304000854492,-6.32664680480957,-0.799041748046875,0.2025157919883728,0.1075233861297369,0.1182905715987086,-0.0276451464742422,-0.0957517474889755,0.1211186498403549
1774472694856880600,7.254880615234375,0.666407561212778,-0.6931852396316825,-0.320857509252429,0.6644806861877441,-3.5503346920013428,-0.1412499845027923,2.0836656384319068,0.9734832133501768,-0.1226478900253772,-1.6624975204467771,-5.466048717498779,-1.3376076221466064,0.2022632785320282,0.1084597901970148,0.0933630510911345,-0.0246827695518732,-0.0926075428724289,0.0897808447480201
1774472694866908000,7.264907958984375,-0.5583528446853161,-0.4222881314650177,-0.2401853051692247,0.6353917121887207,-3.203863859176636,-0.1091354638338089,1.725697418925166,0.8013038151755929,0.439825760916993,-1.505612015724182,-4.485225677490234,-1.7222893238067627,0.1253214931488037,0.1307265670627355,0.1213926292672753,-0.0136064160615205,-0.0900365337729454,0.0710641518235206
1774472694876935700,7.274935791015625,-0.982537457421422,-0.4785886588251218,-0.0510129788786172,0.6660864353179932,-2.9421043395996094,-0.1311416029930114,0.6529512827903032,0.9660796590954064,1.1009143921293318,-1.2707120180130005,-3.279139757156372,-1.9526997804641724,0.0871603970587253,0.1321656599551439,0.1517012582913041,-0.0069898506626486,-0.1138614565134048,0.0654261335730552
1774472694886964000,7.2849638671875,-1.9794301879316567,-1.032935519272089,-0.5902852755188942,0.704049289226532,-2.661830425262451,-0.1522551327943802,-1.2393868971437214,0.6686947953671216,1.4098726431429385,-1.005954623222351,-1.956038475036621,-1.966037631034851,0.0877682998239994,0.1344435417592525,0.1801622136220335,-7.46863661333e-05,-0.1468036919832229,0.0704483240842819
1774472694896991700,7.29499169921875,-1.9864076257288448,-0.6819950064450502,-1.105629584082961,0.6483514308929443,-1.9483740329742432,-0.2083373218774795,-2.709595643305778,-0.31152123336941,1.8188889128416776,-0.6906476616859436,-0.5875154137611389,-1.7058202028274536,0.0445440751254558,0.1099947446793317,0.2187467958211898,0.0141490381211042,-0.1457723975181579,0.072833739221096
1774472694907019800,7.305019775390625,-0.7565829221785068,-0.0870069417963735,-0.5620189659774303,0.4810042381286621,-1.4752188920974731,-0.2548331916332245,-3.1446453489273787,-0.624546587691456,2.1225233384840188,-0.3763094544410705,0.6449052095413208,-1.169375777244568,0.0407803386777639,0.1088888292640447,0.229751881699264,0.0295104179531335,-0.1214489564299583,0.0600274018943309
1774472694917047800,7.3150478515625,-0.966671779769659,0.8524892280116677,-0.4406266289710998,0.3747843205928802,-1.1246832609176636,-0.1846591532230377,-3.1848961107730864,-1.3187471418455243,1.845755584718287,-0.1871303766965866,1.714267373085022,-0.4808278679847717,0.0563403113812208,0.0806564219921827,0.1863838646158576,0.0501067042350769,-0.0843525156378746,0.0377857312560081
1774472694927075600,7.32507568359375,1.2566998509943486,0.0464548771828412,-1.0242582918196916,0.326046347618103,-0.6603901982307434,0.2276485115289688,-2.562837394374609,-1.3873399088174103,1.4890160302236677,-0.1573405265808105,2.6085593700408936,0.2125388979911804,0.0569727640658617,0.0346720849305391,0.1756990967333316,0.0657876655459404,-0.0605044439435005,0.0156676471233367
1774472694937104000,7.335103759765625,2.033813520026207,-1.0724897502209991,-1.504215645182133,0.3675844073295593,-0.9220041036605836,0.2539854347705841,-2.339955690705776,-0.7336264094829559,0.9152833917073904,-0.1978815197944641,3.450312852859497,1.0420998334884644,0.0609001666426658,0.0196095403552055,0.1063040734678506,0.0709763914346695,-0.0554310381412506,-0.0076140197925269
1774472694947131600,7.345131591796875,-2.1770319043934343,-0.2102793751945719,-0.5654010096311569,0.2418368905782699,-1.2642996311187744,0.1360321640968322,-2.0117489877343178,-0.0035538930892944,0.1142342819452285,-0.3458395600318908,4.201994895935059,1.7035489082336426,0.1319242524147033,-0.0266442612975835,-0.0764580935195088,0.0491387359797954,-0.0651004463434219,-0.0300173293799161
1774472694957159000,7.355158935546875,-1.8069418699383728,-0.4253738590532913,1.1038666660636662,-0.0915684252977371,-1.0706353187561035,0.0564972572028636,-1.6110475419163703,0.9276574278511106,-0.1583300287812948,-0.4468678534030914,2.7814781665802,2.006748914718628,0.1499707812368869,-0.0617220044195652,-0.2666550866827368,0.0197463352233171,-0.0531878508627414,-0.0577557198703289
1774472694967186700,7.365186767578125,-0.823426580460742,1.3479679756328462,0.5781143607318401,-0.0629940405488014,-0.2915501594543457,-0.2044075727462768,0.3539309268146753,0.6931579132333398,2.3229620319373905,-0.3407526016235351,-1.5467469692230225,1.5831081867218018,0.0931634368658065,-0.0650000031769275,-0.2326198383510112,0.0112391328439116,-0.0260057635605335,-0.0785901546478271
1774472694977214700,7.375214599609375,-0.617827946960926,-0.7468259366653859,-0.7331669752776623,0.0595326274633407,0.134045124053955,-0.5756596326828003,3.3669062903493643,0.4703095273122191,2.2489918097108603,-0.1322665959596634,-2.216603279113769,1.46603262424469,-0.0161737206876277,0.016484686332941,-0.050336394791305,0.0190551951527595,-0.0140076056122779,-0.0839518755674362
1774472694987242800,7.38524267578125,-1.1164764837246388,-1.463272809419036,-0.3569318621963262,0.0696832612156868,0.1698193699121475,-0.6899694204330444,1.4429209262639284,1.523036373247206,2.5682886455178258,0.1711177825927734,-1.7361774444580078,1.3664802312850952,-0.1371177294045686,0.045097617354989,0.1191100712880492,0.0368941165506839,-0.0226703360676765,-0.0741202905774116
1774472694997270800,7.395270751953125,-0.8560883484821766,-0.7037322064787149,0.2490051559627056,0.0997472181916236,0.0026645802427083,-0.6306889653205872,0.6646960811197757,0.6417080042421818,3.4689790098577737,0.5485753417015076,-0.9077807068824768,1.1458733081817627,-0.274892461413145,0.0671907912194728,0.1644867978453636,0.0525988116860389,-0.0293036699295043,-0.0517906285822391
1774472695007298800,7.405298828125,-0.1216681582730263,-0.3686099519651383,0.6408639546334743,0.1351712644100189,-0.0811991617083549,-0.5509528517723083,-0.0041150341033935,-0.1265747080802917,1.6927620946593582,0.8137771487236023,0.0249640122056007,0.6843495965003967,-0.3361690601527691,0.0687555563181638,0.0028565584748983,0.0423965081572532,-0.0347295925021171,-0.0179772730916738
1774472695017326800,7.415326904296875,0.3127075205445289,0.4719504629196598,0.931259105604887,0.2368466854095459,-0.0376005284488201,-0.5223172903060913,1.2030524319589138,0.0877656694754958,-0.1947244805250316,0.88962721824646,0.3093404471874237,0.2744970917701721,-0.3099947544544935,0.0612958879619836,-0.1915463619455695,0.0126948310062289,-0.0513045489788055,0.0140423886477947
1774472695027354600,7.425354736328125,0.3589454670410603,0.2864600765448063,1.0625707790791987,0.2856768071651459,-0.0584370978176593,-0.469450294971466,1.4521522804677485,-0.3803223823949694,-0.7443863614935428,0.7084167003631592,0.4490927457809448,-0.117349237203598,-0.2697381473898887,0.0643114363908767,-0.2756628612637519,-0.0176540203392505,-0.0889648422598838,0.0489391200244426
1774472695037381600,7.435381591796875,0.0742377871215343,0.6030955841880291,1.4354209258973598,0.24497652053833,-0.0964541286230087,-0.3736647367477417,1.2576520371526478,-0.4717325458526611,-1.447652923221886,0.5100863575935364,0.2334485650062561,-0.4529140889644623,-0.2785053912132978,0.0702577775746583,-0.1970148564845323,-0.0406183041632175,-0.1191023141145706,0.0873136818408966
1774472695047409700,7.44540966796875,0.2532195587873458,0.9256653772510588,1.898990039038658,0.1854958832263946,-0.1112831458449363,-0.2524176836013794,0.6559925501823425,-1.0714952592909337,-0.1068809235077351,0.429792046546936,0.1972058713436126,-0.6284366250038147,-0.3310147461295127,0.1282534549474716,-0.0736027040883898,-0.046960886567831,-0.1373100876808166,0.1217424944043159
1774472695057437700,7.455437744140625,0.6178652832966297,0.9950083780683576,2.282202005395293,0.1217689588665962,-0.1904376000165939,-0.0799925252795219,-0.0949123263597488,-0.8403750118479132,-0.0764434804722666,0.3968265056610107,0.2802179455757141,-0.6919441223144531,-0.3567570901513099,0.136393506783247,0.005029810860753,-0.0489924885332584,-0.1337756067514419,0.1434242129325866
1774472695067465700,7.4654658203125,0.623197365039587,1.1386167846664783,2.5453829862266777,0.1186048537492752,-0.5458167791366577,0.1999826729297638,-0.3650117082774639,-0.2917413048833608,-0.0559130989450961,0.432784765958786,0.3517115712165832,-0.7109726667404175,-0.2714063728630542,0.1780190641134977,0.081316054944694,-0.031820960342884,-0.1143547743558883,0.1399309486150741
1774472695077493800,7.47549365234375,-0.3366916227221488,0.9975618619434536,2.0243419273257253,0.143606036901474,-0.804757297039032,0.6450209617614746,-0.6081658001244068,-0.227838449293375,0.2481245737358927,0.5060526728630066,0.3627352118492126,-0.676116406917572,-0.1312719259858131,0.1961591164380312,0.1547787660405039,-0.0201024003326892,-0.1321626752614975,0.1331626772880554
1774472695087521800,7.485521728515625,-0.4260030603349208,1.1946220919396728,1.4776543859928846,0.225498229265213,-0.3887595534324646,0.810419499874115,-1.4676438641101122,-0.2180836557373404,0.1660616459466516,0.2319901138544082,0.2310248911380767,0.0768928602337837,-0.023840309792757,0.1687432862460613,0.004623275886476,-0.0338107533752918,-0.171306625008583,0.1165650561451911
1774472695097549600,7.495549560546875,-1.7116285615622997,0.8424621933855115,1.425619662851095,0.308736115694046,0.2356197386980056,0.7426505088806152,-1.3087199610888958,0.096444942754507,0.1513433847643435,0.2180197089910507,0.1597666889429092,0.2953357100486755,-0.0182534495711326,0.0799649325966835,-0.0610942279100418,-0.0513699389994144,-0.1914534568786621,0.1037676334381103
1774472695107577900,7.505577880859375,-3.031192572748661,1.033464730777964,2.352867194727063,0.5640890598297119,1.1573553085327148,0.6319325566291809,-1.0082435610860585,0.1228270459845662,0.281808962803334,0.2327562570571899,0.1147771626710891,0.4595177173614502,-0.0841448486298322,0.1131470712304115,0.0325254282906651,-0.0557782687246799,-0.195400521159172,0.1114130392670631
1774472695117604600,7.5156044921875,-1.5394213985979557,0.379940324274823,1.7315362080812453,0.7396368980407715,2.154054880142212,0.8508224487304688,-0.7281704821646213,0.1107198440834879,0.343327115213871,0.2592560350894928,0.0932649448513984,0.5638864040374756,-0.0708043055415153,0.1636322268426418,0.0164674429371953,-0.0723901018500328,-0.2253472208976745,0.1289287805557251
1774472695127633000,7.5256328125,0.2193207963168621,-0.2665424200884997,0.9528133502870798,0.6077638268470764,2.98746395111084,0.903481662273407,-0.3870587049126625,0.0091264325246214,0.1435902864195406,0.2200133204460144,0.0664154067635536,0.5860929489135742,-0.0970458312571048,0.0872141730725765,-0.0842187906488776,-0.1045736074447631,-0.3310792446136474,0.1655288785696029
1774472695137660700,7.53566064453125,1.1770599125683308,-0.0727178840778768,-0.153708214199543,0.3145126700401306,3.631200075149536,0.7414435148239136,0.1500759951770305,-0.1636588225886225,-0.0580430236458778,0.1359391808509826,0.0278802663087844,0.5199959874153137,-0.359244815313816,0.0519622424274682,0.0147387194484472,-0.1270243376493454,-0.4499287903308868,0.2477754205465316
1774472695147688700,7.545688720703125,0.2706418547639623,1.3003943235531448,-1.5213725316882132,-0.035402987152338,3.6892263889312735,0.2839078903198242,0.5857996545374393,-0.2733665670201182,-0.0759701638720929,0.0592655166983604,0.0146998912096023,0.3962804675102234,-0.7286310854136944,0.1567407137632369,0.2683475698143243,-0.1204593703150749,-0.552177906036377,0.3681931793689728
1774472695157716700,7.555716796875,-0.6711432844977826,0.6260540696449577,-2.6980226944118737,-0.0377702228724956,3.605398654937744,0.1216099709272384,0.7209159809917212,-0.3882429462611675,-0.1072279103145003,0.0183545686304569,0.0729046091437339,0.2461216002702713,-0.8386369360089302,0.2266547924667596,0.2448804772481322,-0.1253635138273239,-0.669257640838623,0.4880669414997101
1774472695167744500,7.56574462890625,0.1098304940283298,-0.7267660221941769,-2.6747908719062803,0.2790649831295013,3.0572471618652344,0.3404986262321472,0.7486930457115173,-0.2699775091037154,-0.0742458242975175,0.0054283654317259,0.1541875451803207,0.0895199924707412,-0.7360539288908243,0.1862117229193449,0.0363590151041746,-0.1506880521774292,-0.8324106335639954,0.560505747795105
1774472695177772800,7.575772705078125,-0.8047982331626117,-1.25888377090469,-2.171764193123579,0.5432705879211426,2.445033311843872,0.8232753872871399,0.6783627874225377,-0.0914382205083966,0.104702337359637,0.027313157916069,0.2198738902807235,-0.0663854554295539,-0.2815706240028143,0.1465618495762348,-0.1142810436964035,-0.2011241912841797,-1.0534743070602417,0.5805129408836365
1774472695187800600,7.585800537109375,-1.372367819004506,-1.65231098793596,-1.829303339350224,0.6744701266288757,2.329122304916382,1.150905966758728,0.5961363396346568,-0.0046837739020586,0.2401350362867116,0.0535455234348773,0.285225361585617,-0.2048951685428619,0.1806061579972505,0.0445429060816764,-0.3596536883756518,-0.2942091524600982,-1.2251075506210327,0.5749378800392151
1774472695197827800,7.595827880859375,-1.5989695661097765,-1.6471207258164882,-2.792704719147086,0.6928854584693909,2.6116185188293457,1.162877082824707,0.3745072663754225,0.0623293226629495,0.0524685845144093,0.0800764709711074,0.3584993183612823,-0.294585108757019,0.3298684987038374,-0.0115717798501253,-0.572431931181252,-0.3861620128154754,-1.2534048557281494,0.5486916899681091
1774472695207855600,7.605855712890625,-1.6026859562844038,-0.4382465289015322,-3.030407559850812,0.6573650240898132,3.0667898654937744,0.9310632348060608,-0.0334738150566816,-0.0318348156780004,0.523322447836399,0.1358310729265213,0.4519722759723663,-0.3279350697994232,0.1780611496895551,-0.060123921573162,-0.4665121808558702,-0.4341476559638977,-1.1985703706741333,0.5279176831245422
1774472695217884000,7.6158837890625,-0.2994838818341493,-0.4832680122803896,-2.59530466273725,0.486009806394577,3.2589895725250244,0.7716778516769409,-0.2946814499884844,0.239269067107141,0.3997890071481466,0.1835812926292419,0.5651060342788696,-0.3254263699054718,-0.0373714070171117,0.0339583837032318,-0.1738859098315238,-0.4387033581733703,-1.075323462486267,0.5160157084465027
1774472695227911700,7.62591162109375,1.1897554357513784,-1.1158259108614177,-0.7770534632772207,0.1687058508396148,2.977165699005127,0.7009211182594299,-0.2954524343609809,0.2543725282147526,0.5368507685817778,0.2239506095647812,0.591344952583313,-0.3040634989738464,-0.2076964094966649,0.0928770211398601,0.0688125472024083,-0.394536942243576,-0.8637439608573914,0.4973650872707367
1774472695237939700,7.635939697265625,1.8103993169158696,-1.7021017315432427,0.5812181719660758,-0.2080206274986267,2.4150726795196533,0.5527929067611694,-0.1939034464657306,0.2098980111941695,0.5972901858448982,0.2485361099243164,0.4795880615711212,-0.2659144997596741,-0.238797065681219,0.0881441473990678,0.303410407628119,-0.3429226279258728,-0.6414752006530762,0.4472137987613678
1774472695247967700,7.6459677734375,1.746697244594991,-2.231517966210097,0.8352110532134771,-0.4650564193725586,1.66462504863739,0.3570827841758728,-0.0887146407634019,0.1081163835868239,0.4171269493095576,0.2177139371633529,0.303229808807373,-0.2157648503780365,0.0768465083152055,-0.0081844754993915,0.2073053643524646,-0.3163711726665497,-0.5765739679336548,0.3461550772190094
1774472695257995800,7.655995849609375,1.0067445546999574,-2.245264313620329,0.7150280919969082,-0.5832589864730835,0.5961021780967712,-0.030002748593688,0.04707271682024,-0.1551943611040711,0.1130957794345915,0.1252295523881912,0.1240707114338874,-0.1748176962137222,0.4054173684239387,-0.1001736078888177,-0.0205903680860996,-0.3146007657051086,-0.6326501965522766,0.2236547619104385
1774472695268023800,7.66602392578125,-0.190618433445692,-1.987366387758404,0.4222071751832962,-0.5157158970832825,-0.7800732851028442,-0.4804777801036834,0.2790595179647207,-0.3225362561196088,-0.0474359971746802,0.0229819528758525,-0.0446126088500022,-0.1843936890363693,0.2686462604999542,-0.06079904435575,-0.2179506770074367,-0.3379881083965301,-0.680804967880249,0.1670335531234741
1774472695278050600,7.676050537109375,-0.9024418841823936,-1.2133856829900294,-0.2536485978543758,-0.2282624989748001,-2.214146375656128,-0.8307163119316101,0.5895505315035581,-0.308126914756,0.11019377438277,-0.030926551669836,-0.0932842716574668,-0.265311449766159,-0.1317424661070108,-0.0303694193005561,-0.289657776607573,-0.3691872060298919,-0.704036295413971,0.2180406302213668
1774472695288078800,7.686078857421875,-1.012599418208003,-0.2863542780827731,-1.290619656252861,0.2041381895542144,-3.385613441467285,-1.0523837804794312,0.6914946561962366,-0.1280304598465561,0.6383189463257789,-0.000104387756437,-0.1568103730678558,-0.3653402328491211,-0.4995733234584331,-0.0176309337586164,-0.2847226582929492,-0.4455648064613342,-0.8620520234107971,0.3427420556545257
1774472695298106600,7.696106689453125,-0.4243210985973477,-0.5751858329992741,-1.7570657861351966,0.5547120571136475,-4.148538589477539,-1.160984754562378,0.3735515730857849,0.175271226710081,1.1564959940977393,0.0878363847732544,-0.1915715485811233,-0.4176079630851745,-0.6819383078217506,0.1702215421050787,-0.5566781894713639,-0.5816971063613892,-1.2405812740325928,0.4760544896125793
1774472695308135000,7.706135009765625,0.2521136433720588,-1.1586021725967526,-1.4970745412558315,0.6407513618469238,-4.591253757476807,-1.1135777235031128,0.0222919113069772,0.2582917474851012,1.0361280317030843,0.1444167643785476,-0.1605309545993805,-0.4200004041194916,-0.7200105565845966,0.0555272414326667,-0.5812281088382005,-0.7146173715591431,-1.648306131362915,0.5620170831680298
1774472695318162700,7.71616259765625,1.1980290508389473,-1.1225399484820664,-1.312259241130948,0.6350760459899902,-4.573807716369629,-0.921240508556366,-0.1666384229212999,0.0514116228073835,0.6834225550301373,0.1445493847131729,-0.1695127338171005,-0.3797571063041687,-0.7453413971960544,0.0527040007054805,-0.2946738512039184,-0.807355523109436,-1.901466488838196,0.6314099431037903
1774472695328190700,7.726190673828125,1.7384639615178108,-1.774424624954164,-1.150891452088952,0.4899052679538727,-4.7486772537231445,-0.5654919743537903,-0.0582055207312107,-0.0698299075514078,0.5515386346258223,0.1121158972382545,-0.2504215538501739,-0.3148493766784668,-0.9033534460693596,0.3391062826484441,-0.1702156968861818,-0.8435097932815552,-1.9106347560882568,0.7248016595840454
1774472695338218800,7.73621875,1.359684424650669,-1.6476472339086234,0.1736333963751792,0.1902325749397277,-4.899697303771973,-0.0656269192695617,0.3146913878381252,-0.0835007055073976,0.5519238345511257,0.07322309166193,-0.3640077710151672,-0.2611128985881805,-0.9012702100545168,0.4909662386327981,-0.0467193733379244,-0.8514259457588196,-1.7166893482208252,0.7865127325057983
1774472695348246800,7.746246826171875,1.7221376806169748,-0.5695119520813227,1.3968337133497,-0.2040545642375946,-4.437996864318848,0.3771845996379852,0.6375538071721791,-0.1455985575020313,0.6891787804692984,0.1889758706092834,-0.4344027936458587,-0.2492383122444152,-0.6525736816495656,0.4397369866549968,0.0649269379407167,-0.8311483860015869,-1.4130167961120603,0.7954827547073364
1774472695358273800,7.756273681640625,1.0640285766720772,-0.6320309520974755,0.4216781828731298,-0.7085107564926147,-2.8774573802948,0.697405219078064,1.1217349157094956,0.4128668076470494,-0.6825400731071829,0.3308669328689575,-0.2173312157392501,-0.4075214266777038,-0.4597837493836879,0.4065747217655182,0.1355091251641511,-0.7947914004325867,-1.1512384414672852,0.7692065834999084
1774472695368301600,7.766301513671875,-0.5331541060209274,0.6598778671830893,-0.3143552877515554,-0.9524009227752686,-0.8310968279838562,0.7513036131858826,0.6255448049485683,0.1986900962203741,0.7387235864914953,0.4306843280792236,0.1179575398564338,-0.5849583148956299,-0.2562695940077305,0.2937655041873455,0.2113677914857864,-0.7790427803993225,-1.0800561904907229,0.692279040813446
1774472695378329900,7.776329833984375,-2.78411867710948,0.4618935811445117,-1.6913988434821363,-0.6182377934455872,0.0668140649795532,0.5609974265098572,1.0206278263628483,-0.3047974780723452,0.7106912318363785,0.3391053974628448,0.0852051898837089,-0.7460044622421265,-0.0982645593971014,0.1469049639254808,0.180213651548326,-0.7601366639137268,-1.1576138734817505,0.5220952033996582
1774472695388357600,7.786357666015625,-6.189808579361438,-2.2285214147426187,-2.410966332474351,-0.4422619342803955,0.1922225952148437,-0.1708102077245712,1.271777593138814,-0.1491866451218724,0.1022770099088549,0.1469715386629104,-0.0680635273456573,-0.8906573057174683,-0.1374976686328649,0.2822095064282417,0.16219956369102,-0.6800156831741333,-1.088832139968872,0.4396799802780151
1774472695398385700,7.7963857421875,-6.6782888463974,-0.4409874251075089,-1.3968120860397817,-0.9439817667007446,-0.0525150559842586,-0.8775319457054138,0.824105137309432,-0.3338505540773272,0.058530368771404,0.022833090275526,-0.1203056871891021,-0.9232376217842102,-0.5425210693031549,0.6780132433325052,0.3366249872267246,-0.6168311238288879,-0.8557392954826355,0.4917831122875213
1774472695408413700,7.80641357421875,-4.161529312586784,1.773167902891338,-0.3657528820335864,-1.4310299158096311,0.2630058825016022,-0.9824122786521912,0.2065384716331958,-0.7193181904062629,-0.0026839783869683,-0.0515212193131446,-0.0773637518286705,-0.808653712272644,-0.604612491557002,0.5619032306432724,0.3869263107046484,-0.6058716773986816,-0.7204799652099609,0.52628093957901
1774472695418441700,7.816441650390625,1.4920049829065798,0.7431543354805559,0.6508709693849086,-1.775509476661682,0.9766815304756165,-0.4878641664981842,0.5106342311769724,0.5186906963825225,-1.2930046516932547,-0.2443569898605346,0.6246604323387146,-0.747166097164154,-0.4939876322805881,0.5301321278512477,0.3075684040904045,-0.614576518535614,-0.7763800024986267,0.5203593969345093
1774472695428469800,7.8264697265625,5.477033234727382,-0.2685997910097241,2.256616313239932,-2.096315860748291,1.5597773790359497,0.1937183588743209,1.6632020920455457,1.463417332456261,-1.7971153263203798,-0.2708882391452789,0.2763264775276184,-0.8628994226455688,-0.6408101786196232,0.4141676611125469,0.0366734878808259,-0.6488889455795288,-0.8635551333427429,0.4996969699859619
1774472695438496800,7.836496826171875,6.172668059468269,-1.7783777464941144,2.294714865487814,-2.400375843048096,1.2645972967147827,0.9290911555290222,1.1867413486272096,-0.2340139230579137,-0.5097634396918118,-0.236454352736473,-0.4164828658103943,-0.9645927548408508,-0.9255348827391864,0.5095616335093974,0.0765448950201272,-0.7440756559371948,-0.8666819334030151,0.5081630945205688
1774472695448524800,7.84652490234375,3.224828308188915,-3.552066166128218,-0.0232926127821207,-2.422003507614136,0.4010224938392639,1.3251090049743652,0.3807902921676635,-1.174211245138943,-0.488160679692775,-0.258428156375885,-0.1264417618513107,-0.8736371397972107,-1.233340018194914,0.6232318518310785,0.1526841318488121,-0.7919933795928955,-0.8247607946395874,0.5802969336509705
1774472695458552800,7.856552734375,-0.8380296177655457,-4.423257172000408,-2.701238733848929,-1.800743818283081,-0.0671260952949523,1.0549907684326172,-0.2606342189580202,-1.465638954028487,-0.4924485861450433,-0.3301947712898254,0.1239201426506042,-0.7165540456771851,-1.3388508954584597,0.34174364541471,0.2383580897420644,-0.7401463389396667,-0.730648398399353,0.7041087746620178
1774472695468580600,7.86658056640625,-4.361946086469293,-4.825353871569037,-4.50956475162208,-0.8292028903961182,-0.7052961587905884,0.4670740067958832,-0.7123305234760046,-0.9729005911566316,-1.0377953803934157,-0.4337569773197174,0.0015982037875801,-0.5424765944480896,-1.0522580593794584,0.2024889039814472,-0.2971484246239066,-0.6767990589141846,-0.6445596218109131,0.838437020778656
1774472695478609000,7.87660888671875,-7.734612255519628,-5.217494409790635,-4.967614809080958,0.0948395729064941,-1.305900812149048,-0.231804147362709,-1.2270873875409365,0.1431321673884987,-1.5032562986306846,-0.5538740754127502,-0.0455658473074436,-0.2846839427947998,-0.4577800083458423,0.1897697076618671,-0.7014128236204386,-0.6674802303314209,-0.6148416996002197,0.9348710179328918
1774472695488636700,7.88663671875,-6.166184542667866,-4.3168467155486345,-2.28953658606708,0.7179047465324402,-1.5512921810150146,-0.4938986003398895,-1.6611872450917955,0.4940240187682211,-1.5524835631363092,-0.5578562617301941,0.0135177131742239,0.0774585530161857,-0.1187321778863668,0.0275566999673843,-0.6069710373818874,-0.6777810454368591,-0.6620270609855652,0.950308620929718
1774472695498665000,7.8966650390625,-2.55112240666151,-2.770410762013495,0.1948468647956848,1.1132280826568604,-1.4244955778121948,-0.2072311788797378,-1.75702194699347,0.2613958509802818,-0.8406473990485072,-0.415928453207016,-0.0713207423686981,0.4606687724590301,-0.0138917472302913,-0.1663642821550369,-0.5356462150976061,-0.690893828868866,-0.6848047375679016,0.8860729336738586
1774472695508692700,7.906692626953125,1.0180243658661845,-0.991646719615534,2.1886446007758376,1.2445789575576782,-0.5298295617103577,0.2552485764026642,-1.120566456452012,0.7860249975010752,-0.4787772036671638,-0.2404036968946457,-0.3974345326423645,0.7598057389259338,-0.0506850620985031,0.078973583471775,-0.6043965107187629,-0.6669871807098389,-0.5948793888092041,0.8163273930549622
1774472695518719700,7.9167197265625,4.632952061837911,1.1246655623339117,3.196372029033303,1.2225693464279177,0.7157052755355835,0.6026908159255981,-0.7855787150382996,0.5494919312290847,-0.2416955636017024,-0.1141962110996246,-0.7788181304931641,1.010772943496704,-0.1595224534362554,0.2567746209204197,-0.1089881979852914,-0.6036126017570496,-0.3903940320014953,0.7310076355934143
1774472695528747800,7.926747802734375,6.010144086128473,2.6655513343960044,3.2721330801993607,1.0151938199996948,1.6505626440048218,0.6861559152603149,-0.4587637586861848,0.6276634045377373,-0.4402722625754773,-0.0833361446857452,-1.2078256607055664,1.21672260761261,-0.2392225976169109,0.242210088995099,0.128754390206933,-0.5273618102073669,-0.0939900577068328,0.6645681262016296
1774472695538775800,7.93677587890625,4.544229822289943,4.85434060433954,3.624410979110002,0.6571758389472961,1.837990164756775,0.4375796318054199,-0.5434072044879198,0.4510021847739815,-1.0803409021127968,-0.1039199829101562,-1.5544222593307495,1.4225034713745115,-0.747824446183443,0.1862573156267404,-0.085726857124269,-0.4114157557487488,0.2335117310285568,0.6799014806747437
1774472695548803800,7.946803955078125,1.999543586155772,6.906405528110265,3.52704424533546,0.3596229553222656,1.4464759826660156,0.0828196853399276,-0.8962924216419458,0.0228512987554073,-1.6354818720795212,-0.1960805803537368,-1.7399955987930298,1.6486707925796509,-1.3710866931527852,0.0284995337754487,0.0150543612688779,-0.3017039000988006,0.6104068160057068,0.7488288879394531
1774472695558831600,7.95683154296875,0.4488134425580501,7.293079617619514,3.209030435076356,0.2602975964546203,0.5806176066398621,-0.1845608353614807,-1.183810555872321,-0.1934621324390172,-2.184949545650184,-0.36344775557518,-1.8922977447509768,1.841375470161438,-1.1624550486326215,0.24056699796319,0.2032493669599294,-0.2522918879985809,0.74936443567276,0.8362372517585754
1774472695568860000,7.96685986328125,-1.0531500397831202,6.274575359281897,2.6431986328125,0.3373122215270996,-0.5190473794937134,-0.3459174931049347,-1.3031161497324704,-0.2575567112088203,-1.9664232607118783,-0.546009361743927,-1.915834903717041,1.981622338294983,-0.3032441111505031,0.2958469866365194,-0.1650596292972564,-0.2568868994712829,0.4550255239009857,0.918611228466034
1774472695578887700,7.9768876953125,-3.0839976957410573,4.505093159165978,1.6720032381385563,0.4667538106441498,-1.3729875087738037,-0.5120556950569153,-1.161568328925967,-0.039161213043332,-1.598011096341163,-0.6571230888366699,-1.806894302368164,2.0499532222747803,0.3025637276709079,0.3716197282403707,-0.4802174656033515,-0.263299822807312,0.0693030431866645,0.9614914655685424
1774472695588915700,7.986915771484375,-4.095058652335405,2.191141093766689,1.1483107879459855,0.4630892872810364,-1.300708293914795,-0.6371214985847473,-0.7077817741304635,0.1372226510837674,-1.4289511453613637,-0.6430402398109436,-1.6284997463226318,2.0282890796661377,0.459056311891973,-0.3900134630650281,-0.6164324009492993,-0.4353253841400146,-0.2086364179849624,0.9334065914154052
1774472695598942700,7.996942626953125,-2.441560792702436,0.8440904521744698,0.4113561108231544,0.5682054758071899,-0.3678867220878601,-0.5977029204368591,-0.2106587664335966,-0.0176101832315325,-1.0816216626383364,-0.568213164806366,-1.3978084325790403,1.9085973501205444,0.5974389466658234,-0.8159078023284673,-0.677068071436882,-0.5026477575302124,-0.320026695728302,0.8509374260902405
1774472695608970800,8.006970703125,0.2182382800434716,0.6523493713743984,-0.899177037167549,0.4005954563617706,1.4659643173217771,0.0192122068256139,0.646685208132863,0.4649330949708819,-0.7477051306527107,-0.4801733493804931,-1.3375768661499023,1.6605793237686155,0.6307783216878772,-0.3018406740933656,-0.3509910739704966,-0.4986317157745361,-0.2426501512527465,0.6980128884315491
1774472695618998800,8.016998779296875,2.0237673423081635,1.6377353500947356,-1.987875944715738,0.5651744604110718,1.720153570175171,0.2285622656345367,1.40257780995965,0.5186065252304077,-0.1709981707670725,-0.3412333130836487,-1.333037257194519,1.3289459943771362,0.631973961213231,-0.4376093269765377,-0.4887120299652218,-0.4964664578437805,-0.1251685321331024,0.5267245173454285
1774472695629026600,8.027026611328125,-1.150971531587839,0.6326077290721237,-0.5287251836627721,0.6882716417312622,1.0537081956863403,0.2732101678848266,1.6997884861648085,-0.0036631986826658,-0.1424025379396974,-0.2117277830839157,-1.3717210292816162,1.0053761005401611,0.7601578580558299,-0.6121662679374218,-0.3904682210952043,-0.4682095348834991,-0.1671372801065445,0.3816959857940674
1774472695639054800,8.037054931640625,-1.1204103891074657,-1.260027534112334,1.005678094512224,0.7217888832092285,1.104421615600586,0.7159533500671387,0.9439338782608508,-0.7663426841706037,-0.6881923997804522,-0.2262952774763107,-1.304270625114441,0.7084856033325195,0.6183002406477928,-0.4535539150834083,-0.0018570260435342,-0.4538068771362304,-0.4093855619430542,0.3742276728153229
1774472695649082600,8.04708251953125,3.8894519085943697,-6.74908438411057,1.9744372019499536,1.113377332687378,1.719364047050476,1.1290115118026731,0.3699403968513011,-1.000717257234454,-1.1331667025670409,-0.3671743273735046,-1.079256534576416,0.4636309146881103,-0.0401005397200584,-0.2180576445132493,0.075950436258316,-0.4445617198944092,-0.6399452686309814,0.4469031989574432
1774472695659111000,8.05711083984375,3.0881314345449207,-4.623057567550242,0.8692407485872506,1.1361042261123655,1.2222357988357544,0.7327206134796143,0.3189659964174032,-0.9314815161839128,-1.2431453728944062,-0.5331289172172546,-0.8831874132156372,0.2311691790819168,-0.0989168858259916,-0.1520429113358259,0.3957484995856881,-0.378974586725235,-0.6478264927864075,0.3998328149318695
1774472695669138700,8.067138671875,-2.747696533641219,2.252291728039086,0.3226847246795892,0.8142897486686707,0.8562373518943787,0.4912397861480713,0.7622095298886299,-0.4529197088330984,-0.8014980225734413,-0.6372525691986084,-0.7939605116844177,0.0301150288432836,0.3540343871891498,-0.3276759570956229,0.5451964259922504,-0.2875386774539947,-0.3918682336807251,0.2199849933385849
1774472695679166000,8.077166015625,-2.787521179029345,1.2485185903653502,-0.1271364336162805,0.6953566670417786,0.5553054213523865,0.3299548625946045,0.7390653856664896,-0.1854442456781864,-0.3506474481645971,-0.6472103595733643,-0.6766466498374939,-0.054719965904951,0.793908736488223,-0.3616448621928692,0.501492601083219,-0.1817602068185806,0.0252688489854335,-0.0290243066847324
1774472695689193700,8.08719384765625,-2.418996494194865,-0.5998845862522721,-0.2856792283654212,0.6069331169128418,0.4340343773365021,-0.0147090256214141,0.4378612559109926,-0.3946250485137105,0.1441537289885804,-0.5542234778404236,-0.644782304763794,-0.0091857956722378,0.9092670540273188,-0.392406495681405,0.5684829012945294,-0.1328925341367721,0.1624980717897415,-0.1370815336704254
1774472695699221800,8.0972216796875,-1.124169376314804,-0.3717448159247636,0.1772737987041473,0.4198860228061676,0.3198288679122925,-0.2027065902948379,0.6077338384479284,-0.3989002416148781,0.6085099373869598,-0.428937166929245,-0.7555743455886841,0.077070266008377,0.5113146146565676,-0.2536678870767355,0.4855564885437488,-0.1317497044801712,-0.0111187770962715,-0.1605757623910904
1774472695709249800,8.107249755859375,-1.15090672272332,0.5281282406829297,-0.2638292156070471,0.3873352706432342,0.1787201911211013,-0.3723193407058716,0.6014852994471788,-0.321202377167344,0.6165685945495962,-0.3269131779670715,-0.9649373292922974,0.1501883268356323,0.6167699623405933,0.1101128181010484,0.7399740249440073,-0.1381538063287735,-0.3486563265323639,-0.1946767270565033
1774472695719277800,8.11727783203125,-0.8547071232568472,0.1024197793804109,-1.271911448651552,0.431320309638977,0.2138374149799347,-0.4408467411994934,0.1399982532769441,-0.4154612080544233,0.953680561575666,-0.2551191449165344,-1.1341173648834229,0.2192997634410858,0.5826748005151748,0.264952082157135,1.0259867230474948,-0.0862421095371246,-0.6157307028770447,-0.244188904762268
1774472695729305900,8.127305908203125,0.3614653409074991,0.1173025834746658,-1.948672061574459,0.3898540735244751,0.3683961033821106,-0.4327406287193298,-0.2052133605092763,-0.1313730482727289,1.3377616389170288,-0.1859539002180099,-1.2122750282287598,0.3027890622615814,0.03267477363348,0.398540468391776,1.3642711679190396,-0.0152853820472955,-0.5428450107574463,-0.3109671175479889
1774472695739333600,8.137333740234375,1.487310103088617,0.3522191544607281,-2.008043118953705,0.258106529712677,0.7811761498451233,-0.3656505346298218,-0.273572026464343,0.3305231632202863,1.7203221556276085,-0.0569988451898098,-1.2920141220092771,0.4276774525642395,-0.1567179174095392,0.554712442356348,1.2650722502812743,0.04800720885396,-0.4733074009418487,-0.445512592792511
1774472695749361700,8.147361572265625,2.651167419734597,0.6961985961034893,-1.1583955441087483,0.1188794001936912,0.8272687792778015,-0.1612422615289688,-0.4466261616468429,0.6592267097979784,1.7295137623429298,0.1465920507907867,-1.3348912000656128,0.6396973133087158,0.8273147470057011,0.5293517911285162,0.6242389830470084,0.0792319700121879,-0.4163684844970703,-0.9511443972587584
1774472695759388700,8.157388671875,0.9429899484742432,-0.3074161361381411,-1.0417448486715557,0.0999395027756691,0.7290666699409485,0.0789698138833046,-0.796129919669032,0.7436348855391144,0.9563150017324834,0.3053736984729767,-1.3589476346969604,0.9299222230911256,1.7550059309959412,0.2483691961467266,0.31215543961972,0.0121631668880581,-0.558366060256958,-1.3705437183380127
1774472695769416700,8.167416748046875,0.3764725020337849,-1.1257535037010908,-0.7308499305069446,0.1684565097093582,0.9712220430374146,0.1484679281711578,-1.2124217333287,0.4934279525712132,-0.5785206034451723,0.2960953712463379,-1.3198922872543335,1.2528220415115356,1.4260995553225275,0.2501385439068079,0.3351137058809399,-0.0164980385452508,-0.6952437162399292,-1.635035753250122
1774472695779444700,8.17744482421875,0.6117993343211711,0.3358209773674607,0.858706495091319,0.1902576237916946,1.4474763870239258,-0.3653826117515564,-1.6716624618768692,-0.1833510727912187,-2.191803210937232,0.0469398908317089,-1.0862659215927124,1.544260859489441,1.0984332428380843,0.711132253602147,0.4775289571717381,0.0162619110196828,-0.8005262017250061,-1.7693153619766235
1774472695789472800,8.18747265625,-0.7753793925851583,1.8324105115853249,1.464947464632988,0.248621866106987,1.263738036155701,-0.4857993125915527,-1.561761240699887,-0.8620236568152904,-2.9381144760787485,-0.3416564464569092,-0.8788756728172302,1.6514707803726196,0.4419260211318731,1.0057301169604065,0.7104281969860196,0.1603493094444275,-0.7375680208206177,-1.83990490436554
1774472695799500800,8.197500732421876,-2.6715532051593063,0.2283870230868458,0.2817997565835714,0.2728596329689026,0.4652541577816009,-0.2847439646720886,-0.4358580993950366,-0.5818728364825249,-2.383070902071893,-0.7134923338890076,-0.917664349079132,1.45845627784729,-0.2900590508848428,1.1736714391738177,0.9529197332710028,0.3107653856277466,-0.6662772297859192,-1.8388408422470093
1774472695809528800,8.20752880859375,-3.354851110896468,-0.8196161553271114,1.0065461095184087,0.2844622135162353,-0.3027666211128235,0.0425217822194099,0.7293044546306133,0.181765264904499,-1.5414938209578395,-0.8926928639411926,-1.078325271606445,1.0895452499389648,-0.6125818630009889,0.9510176990419624,0.8973834317490458,0.4169458746910095,-0.6766589879989624,-1.7278430461883545
1774472695819556600,8.217556640625,-2.04061019442901,-0.9056995708040892,1.3168459843993183,0.3169837594032287,-0.3557048738002777,0.0879802256822586,1.1160136154532432,0.7711486231476068,-0.4075272001847624,-0.7930471897125244,-1.1183825731277466,0.716709315776825,-0.7423182499825954,0.5757020388931036,0.6872448897972703,0.4226274788379669,-0.6310943961143494,-1.520065426826477
1774472695829585000,8.2275849609375,-0.0233950502432882,-0.4362713563710451,0.8236731756329536,0.4655564427375793,0.0535281598567962,-0.0998511984944343,0.9063093732655048,1.302956867517531,0.9782594878412784,-0.4550318121910095,-1.1318740844726562,0.4004324078559875,-0.6927659913063049,0.3697030809640884,0.2412950199767947,0.3624906539916992,-0.6630803346633911,-1.2029012441635132
1774472695839611600,8.237611572265624,0.8658376621454954,-0.227352565472573,0.9031324967950582,0.5962284207344055,0.5755138397216797,-0.3366248607635498,0.397013112694025,1.810140958240628,1.779204844968021,-0.0554319657385349,-0.9112448692321776,0.1957730054855346,-0.6922329073429108,0.3593471066445112,-0.1377171566024422,0.2415874600410461,-0.9446216821670532,-0.6319141387939453
1774472695849641000,8.247640869140625,1.0809444940291344,0.1282981708720326,0.8588654850453138,0.6761459112167358,0.7582493424415588,-0.4232747852802276,-0.4393815973460674,1.943275463227928,1.773464693880826,0.2689711451530456,-0.5181716084480286,0.0695428997278213,-1.079582704156637,0.0889303293406963,-0.4257601914897561,0.0292770620435476,-0.9108176827430724,-0.1203057244420051
1774472695859669000,8.2576689453125,0.4187627338178455,-0.2697942614912986,0.4224795623838901,0.5308523774147034,0.4845091104507446,-0.2766422033309936,-1.2050140874207018,1.660030184011161,1.185676495874673,0.4755674600601196,0.0670937374234199,-0.0319240689277648,-1.138076978701353,0.0021656536012887,-0.2019011672213673,-0.1794832348823547,-0.8487879633903503,0.2108127176761627
1774472695869696800,8.26769677734375,-0.4078127391278743,-1.1493664344787595,-0.0843406634628772,0.3912231028079986,0.2502651810646057,-0.2046867907047271,-1.84469613879323,1.3727400133177636,0.2513974579267203,0.5417690277099609,1.0018091201782229,-0.1904033124446869,-1.1674556333988904,0.1455839444547891,-0.0903489639669656,-0.4616203904151916,-1.097986102104187,0.4952298104763031
1774472695879725000,8.27772509765625,-0.7075064643204212,-1.4695963133521377,-0.3818178816497325,0.2800951600074768,0.034213799983263,-0.1357824355363845,-1.886764179193973,1.0076014637902375,-0.2786754870831966,0.4853895902633667,1.7589635848999023,-0.2683084905147552,-1.205745032043755,0.4347416625857353,-0.5521513596966863,-0.7308441400527954,-1.4432392120361328,0.7976751923561096
1774472695889752800,8.2877529296875,-0.4747101003587246,-1.456116800184548,-0.5017553436726332,0.4160538017749786,0.1636018753051757,-0.1943179219961166,-1.1696394071787597,1.0554781904697417,-0.5503432873614132,0.3345848023891449,2.030067682266236,-0.2219906151294708,-1.3204232583642006,0.3281511733919381,-0.7267506784945726,-0.9490100741386414,-1.638750433921814,1.161913514137268
1774472695899780900,8.29778076171875,0.1602192035287618,-0.8559357152037322,0.3335889805316925,0.1956155002117157,0.2052771002054214,-0.2230925858020782,-0.4832096331566572,1.3561620957434175,0.2985981850408017,0.3554051220417022,1.8422423601150515,-0.24134062230587,-1.2926625602573156,-0.1472229438334703,-0.6719248633295297,-1.1356507539749146,-1.611256122589111,1.584918975830078
1774472695909809000,8.307808837890626,-0.5591209064483642,0.5052246272183955,0.8096388050615787,-0.2177789956331253,-0.1744457334280014,-0.0216191187500953,0.8442021689206362,2.2497239233776924,0.6476014461949468,0.3039222359657287,1.5974432229995728,-0.3865526616573334,-1.2407096701800822,-0.4084486989438533,-0.6493854070022702,-1.2761974334716797,-1.3599551916122437,1.9893929958343504
1774472695919836700,8.317836669921874,-1.4296113628357647,0.3794990833133458,-0.6025608197242022,-0.2308147251605987,-0.3438876867294311,0.0914408639073371,0.6084130528837443,0.8011731745332479,-0.5172236925698817,0.2365900874137878,1.6139020919799805,-0.5620903968811035,-1.293085169583559,-0.2743336584866047,-0.343483767080307,-1.2258087396621704,-1.0856064558029177,2.21960711479187
1774472695929864000,8.327864013671874,0.1357020173877477,1.3883346189431844,0.6975257530540228,-0.1400571316480636,0.4267248809337616,-0.2286101132631302,0.1203033727258443,-0.0869034996882081,0.1972454503700137,0.1520330160856247,1.6894803047180176,-0.6597694158554077,-0.7025865435749292,0.0921036986798048,0.2380859948024153,-0.8939443230628967,-0.6840267777442932,1.9977891445159912
1774472695939891700,8.3378916015625,2.101648454368114,1.6490394189193844,4.256833853134513,0.0202854350209236,0.92243629693985,-0.093445636332035,-0.1262415306031704,-0.0308636325582861,-0.5374373362980782,0.0238289795815944,1.6173582077026367,-0.6800293922424316,0.571566546523571,-0.1548673211067915,0.2189873265787959,-0.6259080171585083,-0.216972604393959,1.427822470664978
1774472695949920000,8.347919921875,2.703154796603322,-4.322294751821458,1.87013453143239,0.2251035571098327,0.5092849731445312,0.0794984400272369,-0.4632873735904693,0.0915060250476002,-0.4523013577390462,-0.0347856692969799,1.4725403785705566,-0.6412532925605774,1.3506266734480856,-0.7010112570822239,-0.582749034795165,-0.5896533131599426,0.122257649898529,0.7676045298576355
1774472695959947800,8.35794775390625,-1.105018904838711,-2.291038222801685,-1.290513273268938,0.2244688272476196,0.0678217858076095,0.0784849748015403,-0.537897501155734,0.4739508064240217,0.4568983301404863,-0.0059633422642946,1.3488980531692505,-0.5515287518501282,1.3235501582130789,-0.3001215952157974,-0.9138862382605673,-0.5252264738082886,0.2686595022678375,0.2186377495527267
1774472695969976000,8.36797607421875,-1.6866430272571742,1.1369736936345696,-2.04703014447391,0.1441678702831268,0.0276570562273263,-0.1335295438766479,-0.5192372243493795,1.0767205927237868,1.0955549109227956,0.1124512031674385,1.3983863592147827,-0.4725332260131836,0.863941765396297,0.5178139135479927,-0.3226025993540883,-0.4024949073791504,0.196463868021965,-0.150048941373825
1774472695980003800,8.37800390625,-0.60977776536569,1.1218015512049198,-2.806490667915344,-0.0545668117702007,0.5467516183853149,-0.5019701719284058,-0.4331628689616918,1.7404080813229084,1.620446800033003,0.2493430078029632,1.644618272781372,-0.4001985788345337,0.4549807330161333,0.6174976920932531,-0.02148468657732,-0.3642270267009735,0.0622441917657852,-0.3676358461380005
1774472695990032000,8.388031982421875,0.1080056166887283,0.8370765548244118,-2.915591678625345,-0.0993113815784454,0.7788823246955872,-0.7880226969718933,-0.0931511619061231,2.024956844353676,1.9195245852842928,0.3609858453273773,1.979921698570252,-0.4425506591796875,0.543449582324922,0.540156093737483,-0.2125914880618453,-0.395391583442688,0.089910976588726,-0.4449679255485534
1774472696000060000,8.398059814453125,-0.9600326340161264,0.0125615215398371,-1.292460315683484,-0.0762062147259712,0.5526505708694458,-0.812287449836731,0.3998573962092399,1.6020806838676334,1.62325922710523,0.4826086759567261,2.15519118309021,-0.6534003019332886,0.5707543533578515,0.5599111800432205,-0.020723931337893,-0.3653998076915741,0.2935338020324707,-0.5264438986778259
1774472696010086700,8.408086669921875,-1.3406687585353851,-0.0644753947809338,0.6027934594362974,-0.1300119310617447,0.1829340308904647,-0.6015232801437378,1.1773872448265552,1.8940940836906432,1.4365104746997357,0.5794227719306946,2.010935068130493,-0.8397247195243835,0.6760448658689856,0.6913064401477574,0.4342231916695833,-0.3440899848937988,0.1455946564674377,-0.5903025269508362
1774472696020115000,8.418114990234375,-1.2902448315910997,-0.0989649627514183,0.9323626829326151,-0.1424480080604553,0.0294700730592012,-0.3579470515251159,1.989608467596769,2.1018889851257203,1.4212253734149038,0.7031897306442261,1.6952675580978394,-1.0805823802947998,0.6026625265330076,0.4879729020357131,0.0667567837163806,-0.4398697316646576,-0.043037325143814,-0.6246810555458069
1774472696030142700,8.428142822265626,-0.8197099710904061,0.0161300276763737,-0.0393780706644058,-0.1594869196414947,0.0360715165734291,-0.1528999060392379,2.4981331592738627,2.00887197099328,1.0747804915066808,0.8848272562026978,1.2951589822769165,-1.3773603439331057,0.0015355390042066,0.6763041013270616,-0.6265683027774095,-0.5571481585502625,-0.1141586378216743,-0.6245196461677551
1774472696040171000,8.4381708984375,-0.7244996846973896,0.0788888277977705,-0.6164134039878845,-0.1028752252459526,-0.0988528057932853,-0.003056320361793,2.536671271982789,1.7555384304374455,0.5109738018622622,1.1483361721038818,0.7352227568626404,-1.668166995048523,-0.6477443617969751,0.6256944425523281,-0.8407304011568426,-0.6068254709243774,-0.0489105246961116,-0.5642984509468079
1774472696050198800,8.44819873046875,-0.7787548603676259,-0.3145512487150728,-0.355427302852273,-0.1040033400058746,-0.2010111361742019,0.0768116116523742,2.237254025644064,1.4250687509700657,0.1658246223203837,1.4617841243743896,0.1173525005578994,-1.8576672077178955,-1.235087154123187,-0.5084001885145902,-0.6278513283252716,-0.5514945983886719,0.2388738542795181,-0.4135182797908783
1774472696060226800,8.458226806640624,-0.193506409972161,-0.0565083614245057,0.5108136793971061,-0.1493933200836181,-0.2402272522449493,0.1400535553693771,1.574816537106037,0.7248433835685253,-0.1234584209569729,1.788745999336243,-0.4637974500656128,-1.908599138259888,-1.1789826973244548,-0.702014296644926,-0.4392380972221493,-0.3505282998085022,0.4216201305389404,-0.1154481321573257
1774472696070254800,8.4682548828125,0.2641635621279478,-0.2007040663912892,0.6259007787793874,-0.1285093426704406,-0.1241858750581741,0.1303575187921524,0.2662994051128626,0.3420549033209681,-0.3455542897440493,2.099555969238281,-0.6448156237602234,-1.7847940921783447,-0.8798188412249088,-0.2857341734230518,0.0467561982169747,-0.2365404814481735,0.4114244878292084,0.0731193795800209
1774472696080283000,8.478282958984375,0.5231052979543804,-0.4165305908516049,-0.2441594694972038,-0.0781154260039329,0.1582703441381454,0.007975960150361,-2.070403421276808,0.1382563780456781,-0.8065142433002591,2.297548532485962,-0.3873351216316223,-1.433889865875244,-0.3997451680064201,-0.2141319955021143,0.3706219493746757,-0.1998921483755111,0.2783661484718323,0.12412591278553
1774472696090311000,8.488310791015625,0.2312299914278089,-0.3986630718581378,-0.7088391742289066,-0.0137612046673893,0.3528129160404205,-0.1323294788599014,-2.873921697631478,0.2488043726935982,-0.760796959676966,2.395581722259521,-0.1461442410945892,-0.8700014352798462,-0.1436567757844924,-0.0327127675563096,0.4693839368999004,-0.1813157945871353,0.181498184800148,0.177256241440773
1774472696100338000,8.498337890625,-0.4643447736889123,-0.4622983625531196,-0.1085509756118059,-0.0260029230266809,0.3822038173675537,-0.1981713622808456,-2.6093665058374405,0.5141340559914708,-0.4304405313257127,2.43536639213562,-0.2777134478092193,-0.2369323372840881,-0.233297299221158,0.204725284731388,0.5864551958367228,-0.1719112396240234,0.0512459948658943,0.2333119511604309
1774472696110366000,8.508365966796875,-0.608637217028439,-0.4257381257884204,0.798603031784296,-0.0526363961398601,0.3070265054702759,-0.2188076674938202,-1.9622265396744007,0.8660282162815331,0.5492786172719673,2.498270273208618,-0.3818198144435882,0.3153191208839416,-0.1144102230340242,0.2718704832434654,0.6305296076238155,-0.2518934309482574,-0.0139668313786387,0.3281268775463104
1774472696120393700,8.518393798828125,-0.5385993658147752,-0.3436449489913881,1.0402280143678189,-0.0374235585331916,0.1534395515918731,-0.1730258166790008,-1.4884224482446908,1.5932693086415528,0.1897559348648413,2.4741480350494385,-0.7236237525939941,0.7648564577102661,-0.243275087878108,0.1355044489890337,0.1332315356209874,-0.4262343943119049,-0.1683811098337173,0.4867157936096191
1774472696130421800,8.528421875,-0.8918053393557667,-0.0349896264471113,1.1965145546227691,-0.1242386102676391,-0.4571985006332397,-0.0112771270796656,-1.078915180158615,1.8849498232483863,0.2351930133072659,2.5039610862731934,-0.7594871520996094,1.0463008880615234,-0.3806038296848535,0.0315250190764665,-0.4564326853901148,-0.6446418166160583,-0.4059513211250305,0.6098859310150146
1774472696140449800,8.53844970703125,-1.360573774705827,0.039735798060894,1.192421732351184,-0.1322547197341919,-0.6183319091796875,0.0688367933034896,-0.514447067463398,1.6708640049755572,0.3922275589179247,2.4887681007385254,-0.4373775124549866,1.1669543981552124,-0.5315408256053924,-0.3104816611886024,-0.769941585445404,-0.90383380651474,-0.4158193469047546,0.7364054322242737
1774472696150477800,8.548477783203126,0.3786282918281853,-0.2653480957373976,0.4841980596721172,-0.0191942136734724,-0.2253729254007339,-0.0889610946178436,-0.4005898021370172,1.7348115764901042,-0.2843458608698099,2.382056951522827,0.0170379448682069,1.0926567316055298,-0.6005033026725053,-0.5101426482677459,-1.1276119910493492,-1.1724215745925903,-0.3506294190883636,0.8305204510688782
1774472696160505900,8.558505859375,0.8425123161375522,0.1490348155610263,0.5133306306540966,0.0956663638353347,0.0999184846878051,-0.2904451191425323,0.339621246433258,1.207231471209228,-0.5854878121092916,2.221679210662842,0.1581532657146453,0.8419473171234131,-0.6560238221034407,-0.0790285285294055,-1.243565644133091,-1.4660049676895142,-0.338482528924942,0.90134197473526
1774472696170534000,8.568533935546874,-0.3388438323199749,-0.1678092202663421,0.7721785507172345,0.2631994187831878,0.0951303839683532,-0.3173986971378326,1.0214011488229036,0.3104199941292405,-1.0216618455857038,2.000124216079712,-0.0506316311657428,0.5322141051292419,-0.867526053623855,0.5182680870562791,-1.2016656537756325,-1.7768847942352295,-0.4030838906764984,1.0174014568328855
1774472696180561700,8.578561767578124,-0.1182125379264354,-0.3899024039059877,1.034300377884507,0.3496024310588836,0.0855891555547714,-0.2636923193931579,1.7881909922391177,-0.7341805362343787,-1.2977452703490853,1.6739991903305054,-0.6702123284339905,0.1570734977722168,-1.0505962636470794,1.0688584810465571,-1.2346841262802482,-2.1077640056610107,-0.335331529378891,1.1335642337799072
1774472696190589000,8.5885888671875,0.2461263856559991,-0.1070981464549899,0.7962479930907488,0.3514916598796844,0.0423356927931308,-0.2512418031692505,2.131633842787146,-0.8167740637689829,-1.4368290391296148,1.277357816696167,-1.1015650033950806,-0.256227046251297,-0.9301952757656574,1.3847832100719213,-0.8016752788364887,-1.9584285020828247,-0.3709310889244079,1.1821630001068115
1774472696200617000,8.598616943359374,-0.5792236371479929,0.1738693970881402,1.3251006025254726,0.3367021083831787,-0.0566483400762081,-0.2238403558731079,1.6526292601048946,-1.231185762770474,-0.965328110075742,0.9259433150291444,-1.4310086965560913,-0.6598498225212097,-0.6357049644351005,1.2469926959723234,-0.0080003511041402,-1.5370447635650637,-0.108277678489685,1.1388264894485474
1774472696210645000,8.60864501953125,-0.9604394612513482,0.3308618936553597,2.510216980299353,0.3488975167274475,-0.1785002201795578,-0.1398671567440033,1.2058137133657931,-2.0085756183952093,-0.278175866997987,0.570068895816803,-1.4634302854537964,-1.068983793258667,-0.2634869780406356,0.8840525332719087,0.1417762227348983,-1.3014367818832395,0.1901739835739135,1.0565475225448608
1774472696220672800,8.6186728515625,-0.7083490526244044,0.2889250784188509,2.5946400613486764,0.292713314294815,-0.172766774892807,-0.1049556732177734,0.3587193301349878,-2.4176965175122023,-0.3197295281358063,0.2437770515680313,-1.1157610416412354,-1.4277361631393433,-0.3878697290346026,0.5028887316167354,-0.4574477076515555,-1.2216579914093018,0.3242129981517792,1.0360660552978516
1774472696230701000,8.628701171875,-0.5351552167102694,0.1510897022642195,1.4778396794319153,0.2603223323822021,-0.0529290400445461,-0.0864230021834373,0.0762082104116678,-2.127429669095576,-1.103357109106332,-0.0327844284474849,-0.6711732149124146,-1.6230839490890503,-0.8706944545269012,0.4962620069533586,-0.8300142152227461,-1.1624341011047363,0.3607339859008789,1.1032224893569946
1774472696240728800,8.638728759765625,-0.0182762459248304,0.0821088127575814,0.5727127939492463,0.3562337160110473,0.1194150149822235,-0.0576784461736679,0.2041343331009149,-2.3245015164643523,-1.1346610327780249,-0.2642214000225067,-0.2893944382667541,-1.7960810661315918,-1.0389616476938128,0.5547913528114556,-0.6088691260881721,-1.0934176445007324,0.3878031373023987,1.1825878620147705
1774472696250756900,8.6487568359375,0.5897881396517157,-0.6187370246298611,0.7149830838114023,0.4967207908630371,0.1406715661287307,0.0017188349738717,0.7982540722161531,-2.3592487124577164,-1.4528803024813532,-0.4045434296131134,-0.0757244676351547,-1.9821332693099976,-1.027155474565923,0.6946750397980213,-0.3058621846944093,-1.056230902671814,0.3651153743267059,1.2678582668304443
1774472696260785000,8.658784912109375,0.2630669990628957,-1.2065642394721507,0.2470803253799676,0.6198179721832275,-0.220503956079483,0.0998310148715972,1.1006991419434546,-2.162391092361509,-0.9502315171003342,-0.3531449437141418,0.2377269268035888,-2.1208786964416504,-0.9176298087030648,0.8683300634831189,-0.1994830001637339,-1.0851842164993286,0.3162533938884735,1.3290024995803833
1774472696270812000,8.66881201171875,-0.4786031622745096,-0.0269867911249399,0.8199433414548635,0.5255998373031616,-0.8357303738594055,0.3588790893554687,0.5516717594861984,-2.356082941903174,-0.4457129923246801,-0.2781997621059418,1.199384689331055,-2.210073947906494,-0.6422451798588037,0.9690560445576906,-0.1883684625618159,-1.1487659215927124,0.1938299983739853,1.3780393600463867
1774472696280840000,8.67883984375,-0.4698404484957456,0.8344879996359348,0.2597510063827037,0.3178375661373138,-0.4633755385875702,0.3530245423316955,0.5068506209850311,-2.3984239540264007,-1.8703662943616508,-0.3504555821418762,1.484632968902588,-2.131993770599365,-0.595093552583456,1.6533458839416504,-0.6201951144836843,-1.2984983921051023,0.0106003377586603,1.4824179410934448
1774472696290867700,8.68886767578125,1.9745324790179728,0.5152011007010936,-0.0287613995820283,-0.1622219979763031,-0.120104469358921,0.3532855212688446,0.3400011856615543,-2.0054063407093285,-2.32597495001778,-0.3716993629932403,1.2357934713363647,-1.9060163497924805,-1.2374883700460195,2.07220784035027,-1.1374866846580058,-1.459283471107483,-0.0158648248761892,1.5910817384719849
1774472696300896000,8.69889599609375,0.6027909752182662,1.0537323697157204,2.512009708935022,-0.4200392961502075,-0.0279801078140735,0.1354425251483917,-0.766028795915842,-2.074665901026875,-1.4460574707239866,-0.3479876518249511,1.1158840656280518,-1.5587619543075562,-1.5133007227830588,0.4694622628331184,-1.030340022886172,-1.480998992919922,0.2684883773326874,1.6116806268692017
1774472696310923800,8.708923828125,0.2305886247843503,-0.0662445964105427,0.4107055379599332,0.0347857177257537,0.6002180576324463,-0.092953622341156,-1.804789660340548,-2.063439865874499,-1.1992680180493742,-0.2973668277263641,1.2990387678146362,-1.1287744045257568,-0.4810957097426057,0.7913327485203743,-1.0159696252934634,-1.5800983905792236,0.4324032664299011,1.611369013786316
1774472696320952000,8.7189521484375,0.2965793925642967,-0.6626717356853187,-1.207397183164954,0.2256574034690857,0.855018675327301,-0.192405104637146,-3.01289879116714,-1.4730723188996313,-0.400829894503206,-0.1722763031721115,1.5947151184082031,-0.630098819732666,-0.0342738793931901,1.4834171873033046,-1.1761595296625047,-1.7645386457443235,0.3165352344512939,1.617287039756775
1774472696330979800,8.728979736328125,0.4893725397005677,-0.4210819705456495,-0.8436655778259038,0.0459214150905609,1.0714383125305176,-0.1437552869319915,-2.953901827797293,-0.6210132989987731,0.5531045687682926,0.0095861097797751,1.892422795295716,-0.234473779797554,0.0817220053970813,1.5380980410397052,-1.2883338834032416,-1.8396530151367188,0.1309776306152343,1.4334352016448977
1774472696341008000,8.7390078125,1.319670978692174,0.5551574096448719,0.4305401192426681,-0.1192897632718086,1.2437744140625,-0.0450097620487213,-2.040948194211721,0.6485927953198551,1.0218863750565796,0.2261226773262024,1.8363279104232788,0.0428174883127212,0.8450280983507633,1.6902274616152049,-1.1384341215759517,-1.8692657947540283,0.0738285258412361,1.1697033643722534
1774472696351035000,8.749034912109375,0.3139142659857869,0.1392779761783778,-1.410647719168663,0.032464612275362,1.0401177406311035,0.0621348023414611,-1.1290957998663187,1.4100157048754394,0.8582450150594114,0.4048734307289123,1.6188637018203735,0.2124708890914917,1.1144266385227442,1.4498562784850595,-0.6066570395292714,-1.895083785057068,0.1075393483042717,0.9695096015930176
1774472696361062700,8.759062744140625,-0.9417617949187757,-1.2855958367414773,-2.429588030835986,0.1018290892243385,0.4988012313842773,0.072299800813198,-0.0284025031417608,0.5754835738368332,-0.0248573413481935,0.3908963501453399,1.2394611835479736,0.1607309877872467,0.4586199663013219,0.8382914835721254,-0.2134230800477787,-1.9256304502487185,0.1715408414602279,0.8946491479873657
1774472696371091000,8.769091064453125,-0.7225915129885077,-1.7074449922673405,-1.522548005208373,0.0284805744886398,0.2886951267719269,0.1462579220533371,1.611564259266853,-0.7776642886519431,-0.7449043209530413,0.1885272115468979,0.7301488518714905,-0.0198771972209215,-0.2652319220118224,0.8476584468543529,-0.1191016322532668,-1.950400829315185,0.1555743962526321,0.8940496444702148
1774472696381118700,8.77911865234375,0.2064708132244646,-1.979786161762476,-2.925982139736414,0.066365972161293,0.0238591711968183,0.1098176017403602,-0.1153144783973693,-1.21772290847674,0.1894859222844243,0.0212790984660387,0.3286712169647217,-0.1190751492977142,-0.2619534117978066,0.9352566508084535,0.0714083723818883,-1.9771184921264648,0.1261564344167709,0.9693154096603394
1774472696391147000,8.78914697265625,-1.06617757139951,-0.8620103589423,-2.437631052038073,0.0741780847311019,0.0075963111594319,0.1250423491001129,0.992681250295043,-0.4877009532265365,0.4832842327628284,-0.1805895566940307,-0.1312725841999054,-0.2834505140781402,-0.1552174497187137,1.049483918491006,0.1408477827783674,-2.047798156738281,0.0279158800840377,1.035282015800476
1774472696401174800,8.7991748046875,-0.6378989673480391,-0.6273214592322707,-2.023395586386323,0.0121082598343491,0.0436872616410255,0.1323327869176864,2.764270067301392,0.2631115688569843,-1.1760894601009786,-0.4901338517665863,-0.9615412950515748,-0.4756812155246734,-0.2463346215792,1.513608911949396,0.066507046739012,-2.147326231002808,-0.1036706194281578,1.1862070560455322
1774472696411202800,8.809202880859376,-0.7818813218250871,-0.3333323754221201,-1.666462555146217,-0.1638475954532623,-0.069330908358097,0.1564865857362747,3.574001226821541,-0.1679239326871931,-0.9172242966420948,-0.769827663898468,-1.478811740875244,-0.6776402592658997,-0.4419073164314031,2.241459076118469,0.1065671083182096,-2.1639766693115234,-0.1675966084003448,1.3319780826568604
1774472696421230800,8.81923095703125,-0.8481383393257856,-0.2818022408016026,-1.5140946496397256,-0.0559310875833034,-0.0939534455537796,0.1523529589176178,0.6419634403079748,-0.3619616730570792,-0.982394687949866,-1.100398063659668,-1.1655272245407104,-0.7074724435806274,-0.5682147518776357,2.623079973891377,0.2948663050360977,-2.123446226119995,-0.1713407635688781,1.3929972648620603
1774472696431259000,8.8292587890625,-0.8408984512001275,-0.6772400670029223,-2.702496040433645,-0.0434690937399864,-0.0137819107621908,0.1047521457076072,-3.508533021610975,0.124897422517836,-1.2073120621647686,-1.281050682067871,-0.6560809016227722,-0.5189328789710999,-0.4691472055345773,2.819040352886915,0.2430398178175091,-2.092558145523072,-0.1873974949121475,1.3691872358322144
1774472696441286000,8.839285888671874,-1.0188676848225295,-0.6283639540225266,-1.0277174923628567,-0.0960805267095565,-0.0167202875018119,0.0890424102544784,-3.5670617829471825,0.3549513559035956,0.6710775988504291,-1.292109489440918,-0.2694095969200134,-0.3917110562324524,0.0529383939832448,2.576287827578186,0.8791999786742031,-1.9740240573883057,0.035558633506298,1.406396508216858
1774472696451314000,8.84931396484375,-0.6535439879864454,-0.3253486831918358,-0.2577180392503738,-0.1016300320625305,-0.0271851792931556,0.0876980498433113,-2.315916058948636,1.458296774572134,1.2136442608609794,-1.289060354232788,-0.030725160613656,-0.3748289346694946,-1.1013239958435297,2.5933126121371983,1.6975757785513996,-1.810293197631836,0.1553055346012115,1.6668190956115725
1774472696461342000,8.859342041015625,-0.6934387760013342,-0.0736842448920011,0.0016565350353717,-0.0888061970472335,-0.1006739512085914,0.0394242666661739,-1.66101188852489,2.4780033944368363,1.0270187695089728,-1.2375761270523071,-0.0586792975664138,-0.3169515430927276,-0.4838333180129527,3.1072295182466507,1.050390219680965,-1.69054913520813,-0.1735838651657104,1.8997161388397217
1774472696471370000,8.869369873046875,-0.8228209427177906,0.1341828449964523,0.4484036927133798,-0.0466108061373233,-0.1306691318750381,-0.0239800047129392,-1.8942986663520336,2.1374242627568543,1.1808595971122384,-1.0966119766235352,0.0027707312256097,-0.1701004654169082,0.7648936544060707,0.5597656340926885,2.606175016319752,-1.3181835412979126,-0.2056816220283508,1.8901673555374143
1774472696481397800,8.879397705078125,-0.4318757517606019,0.2780713837102055,0.4952770875692367,-0.0365488119423389,-0.0732430443167686,-0.0968090444803237,-1.9050521155565976,0.8891272792529314,0.4821165406903251,-0.9825160503387452,0.0605773068964481,0.0044897235929965,2.039376999372244,-5.036143570905924,3.979548359104991,-0.4670702517032623,0.7032589316368103,1.319348931312561
1774472696491425800,8.88942578125,-0.0253758487969636,0.4790373159080743,1.17407709736526,-0.0312073063105344,-0.1186922863125801,-0.1346288621425628,-1.510516791152954,0.1320616881240159,0.3309828896865248,-0.8545584082603455,-0.1598963439464569,0.2137834876775741,3.283482741731405,-2.662695360442996,5.096403101557493,0.5146644115447998,0.8476448655128479,1.042670965194702
1774472696501453800,8.899453857421875,-0.1872662004083395,0.361544324427843,1.6460902137249709,-0.0182843003422021,-0.2586294412612915,-0.1372132003307342,-1.749629498654604,-0.0795464149236679,0.4262993398677557,-0.7601687908172607,-0.4270875751972198,0.4452095329761505,3.640179041606188,-1.93354521959126,3.809975636297464,1.0310680866241455,0.5683208107948303,1.028499960899353
1774472696511481900,8.90948193359375,-0.0592243423849344,-0.0340909240417182,1.5871470263689755,-0.0020914822816848,-0.3299736678600311,-0.1138897687196731,-1.9233277769595385,-0.3942459860682487,0.7064375199146569,-0.5647604465484619,-0.4760063290596008,0.6810022592544556,2.267228308147192,-2.952629908165336,0.9842508372105656,1.3381575345993042,0.3469743132591247,0.893703043460846
1774472696521508900,8.9195087890625,-0.3655968146890401,-0.2820351727746427,1.990883309838176,-0.0312525443732738,-0.5257288217544556,-0.1348917186260223,-1.790831277614832,-0.4175999736487865,0.6330145563073456,-0.363074243068695,-0.3611012995243072,0.8335702419281006,1.2395043860435484,-1.453768483492732,-0.2266086152374744,1.4573360681533811,0.5358920097351074,0.7244641780853271
1774472696531537000,8.929536865234375,-0.8798017439596354,-0.4956232706584036,2.696218275338411,-0.0675021633505821,-0.4993142187595367,-0.1194326058030128,-1.1682488296031952,-0.4821292905740439,0.3335037134010344,-0.1696953326463699,-0.3654312193393707,0.8302128911018372,1.2496727288365364,-0.3392196798950433,-0.0467079751610755,1.4643490314483645,0.5936034917831421,0.5457996726036072
1774472696541565000,8.93956494140625,-0.2937624354474246,-0.3420293304882943,2.659499779272079,-0.1754970550537109,-0.3404026329517364,-0.0625307112932205,-0.0788648624002933,-0.7655249380469322,0.5319140428319573,0.005228548310697,-0.3932543098926544,0.6303368210792542,1.168301436573267,-0.2976560818850994,0.2354601763434708,1.3069297075271606,0.5375305414199829,0.3038694858551025
1774472696551592700,8.9495927734375,0.0473719920277595,-0.1065517646186053,2.8982132583230733,-0.2963049411773681,-0.2042250633239746,0.0135427471250295,1.1425263593256474,-0.7069919389270246,0.391778865302354,0.1758772134780883,-0.4115599393844604,0.3727219998836517,1.124741623244807,-0.5627490338176488,-0.5318330865502358,1.0769619941711426,0.5282118320465088,0.006312096491456
1774472696561621000,8.95962109375,0.3974452205009758,0.0889865895725786,2.584902511188388,-0.3373801112174988,-0.2086405009031295,0.0815165415406227,1.3552373821139334,-0.5767721523426472,0.3623592940725386,0.3082994222640991,-0.2546347677707672,0.2563381493091583,0.7374188605684786,-0.180228556856513,-0.6240399533435702,0.8403301239013672,0.5694068670272827,-0.2526359558105469
1774472696571648800,8.969648681640624,0.2541746675550937,0.7176530336730181,2.257546872088313,-0.4645684361457824,-0.3713372945785522,0.1301296055316925,0.4032733421325683,-0.2008008047640323,-0.0525089895900338,0.3749050796031952,-0.0275823343545198,0.3035788834095001,0.1138285506885498,0.3250497002452612,-0.9735643157623708,0.5191670060157776,0.601212739944458,-0.3730907440185547
1774472696581677000,8.979677001953124,-0.0561764991216361,1.163503827033192,2.6027713453561065,-0.6274892091751099,-0.6676737070083618,0.2150723934173584,-0.2824246104836463,0.1668352606676519,0.7778660948343574,0.4996131658554077,0.0836576372385025,0.4043411910533905,-0.1242951457757502,0.6404238096505404,-1.5485336564667522,0.2873486876487732,0.5399884581565857,-0.4018460214138031
1774472696591704800,8.989704833984375,0.4256850804269314,1.3752474660940468,2.0233593460291623,-0.7577164769172668,-0.9752086400985718,0.0911722779273986,-0.0872433991670608,0.8308668865293264,0.6329539121612906,0.5161992311477661,0.2901428043842315,0.5280736684799194,0.547315902364254,0.7529027723610401,-1.1349337122395633,0.0564475432038307,0.3997895419597626,-0.5489518046379089
1774472696601732900,8.99973291015625,-0.979928151705861,0.6636721448995173,0.1550759954214096,-0.5436043739318848,-0.4005173444747925,0.0957759693264961,0.5848796170830727,0.2923274342082441,-0.3332142289351671,0.4302342534065246,0.0681097432971,0.5316956043243408,1.0318260967254638,1.2275462372243404,-2.0976833501294254,-0.2422804832458496,0.4547367095947265,-0.7284336090087891
1774472696611759900,9.009759765625,-0.2121224092453718,-1.5576697336025536,-3.576926758879423,-0.4788586795330047,-0.2554304599761963,-0.0123470369726419,1.787505932584405,-0.3439097374074161,-0.1651223923351615,0.3155345618724823,-0.108208566904068,0.4140826463699341,0.7687187656521797,0.7892676326841116,-2.5250559452518817,-0.502637505531311,0.5655633807182312,-0.9081496000289916
1774472696621788000,9.019787841796877,-0.4772514554046094,-0.4334823101744055,-1.2801391787707803,-0.5023679137229919,-0.274208128452301,0.0093466993421316,1.4372861352473496,-0.2342709665589034,-0.537201554780826,0.1336736977100372,-0.1865100264549255,0.2435133010149002,0.5342669991662725,-0.7640092727869748,-1.6883428169123826,-0.4997184872627258,1.019598126411438,-1.017358660697937
1774472696631816000,9.02981591796875,-0.8717172217033803,0.2091150441229343,-1.9032278227388857,-0.4403122663497925,-0.6732154488563538,0.0409102141857147,1.1986918986618518,-0.441024542247504,-0.3899277575429529,-0.0090411528944969,-0.3423034846782684,0.0472856983542442,-0.8132721931278705,-0.1550333253234624,0.3144000036761164,-0.4422943294048309,1.1736191511154177,-1.0693084001541138
1774472696641843700,9.03984375,0.6410289359368383,-0.5932046700969338,-2.541063953983784,-0.235319897532463,-0.4391883313655853,0.2851848900318146,1.0914525901705026,-0.2634846399530768,-0.0762194624580442,-0.1044081524014473,-0.3582512736320495,-0.1756738871335983,0.1121311356535181,-0.0902601166397333,0.8711243703767657,-0.299058049917221,0.9947153329849244,-1.1134473085403442
1774472696651872000,9.0498720703125,1.4502384096704422,-0.7693444963350892,-3.325730230352282,-0.2939485907554626,-0.4306403696537018,0.2873719036579132,1.1816238594830035,0.2686065130114555,0.2687660874873399,-0.1574186384677887,-0.4436810314655304,-0.353614330291748,0.9758628019630908,0.0679834029018879,1.081520978742838,-0.1677431613206863,0.7337915897369385,-1.1802266836166382
1774472696661899800,9.059899658203124,-1.027448612293601,-1.1243605880379677,-0.7649538601607084,-0.2645398676395416,-0.3173654675483703,0.2838839590549469,0.8527005326747894,0.3336635070726275,0.163587583983317,-0.2665563225746155,-0.5604156255722046,-0.3897323906421661,0.6329822614729405,0.684990681129694,0.4165226998060941,-0.1175354644656181,0.5517523288726807,-1.1719619035720823
1774472696671927800,9.069927734375,-0.6136977152884007,-0.8459994276009499,-2.6742852604717013,-0.236805185675621,-0.2468494623899459,0.250472217798233,0.356356108134985,0.2566650230661034,-0.1060301518972963,-0.376914769411087,-0.3785381615161896,-0.3301981985569,-0.4374883309453725,1.067574286454916,-0.3521498886168003,-0.1193916872143745,0.4859102368354797,-1.072783350944519
1774472696681955800,9.079955810546876,-0.8499925888903439,-0.6457951274253427,-2.10458450782001,-0.2383725494146347,-0.2000287324190139,0.2329873442649841,-0.2371457913428545,-0.4925063076816499,-0.4340150288116187,-0.4713819026947021,-0.2627231478691101,-0.2329930961132049,-1.1825205160617829,1.3719476938962936,-0.3619499826192855,-0.0897189080715179,0.5013130307197571,-0.909996509552002
1774472696691983000,9.089983154296876,-0.768990568330884,-0.7535343482628464,-1.9341262343496084,-0.1613992005586624,-0.1153575256466865,0.2301718592643737,-0.5281897616118192,-1.1594045750208195,-0.6681929833248257,-0.4468754529953003,0.0349683910608291,-0.1284905970096588,-1.6112462793588638,1.6623521972179411,0.2401591478146612,0.0400300361216068,0.5020264387130737,-0.7162855863571167
1774472696702011000,9.100010986328124,-0.4180566313751042,-0.8996943390399217,-2.253108012858033,-0.0553989820182323,-0.0291338767856359,0.2270369678735733,-1.509489201670885,-2.1815702784754336,-0.9950794705431908,-0.3777789175510406,0.4188377559185028,-0.0258113667368888,-1.5172878927230835,1.524851021453738,1.1180706941135228,0.2048617303371429,0.4029866456985473,-0.5478266477584839
1774472696712038700,9.11003857421875,-0.3855469851754605,-0.4150185788534581,-2.1029607060104607,-0.0612547397613525,0.0873112455010414,0.2014322727918625,-1.5068775578677651,-1.888905136745423,-0.8680331994283944,-0.1365568190813064,0.9239258170127868,-0.1024854704737663,-1.2234393864274025,1.0220242491573095,1.1935213641561566,0.3306425511837005,0.2245303392410278,-0.3782053887844085
1774472696722067000,9.12006689453125,-0.2945113541185856,0.0136532622992992,-1.430409235215187,-0.1062919870018959,0.1002033427357673,0.1631069928407669,-1.0624468604385853,-1.90780755174458,-0.934916459068656,0.2355272620916366,1.544081449508667,-0.4277559518814087,-0.796542007601261,0.6636562166780233,0.508087177042663,0.3223232328891754,-0.132566899061203,-0.2009049952030182
1774472696732094700,9.1300947265625,-0.7052718371361494,0.1693951742835343,-1.0077648376584052,-0.1088579446077346,-0.0404525771737098,0.1307493150234222,-1.6797241877794264,-1.9759609043858943,-0.972228390983492,0.610374927520752,2.303762912750244,-0.7475855946540833,-0.4646136537581682,0.5782435400694609,-0.5224186308644712,0.1094378679990768,-0.531669557094574,-0.0511892735958099
1774472696742123000,9.140123046875,-0.7711620671510696,0.0127330787144601,-0.902524594029784,-0.1783464550971985,0.0022208380978554,0.1228349134325981,-2.447199090850353,-1.0895030635379257,0.1202488295270129,0.9155455231666564,2.732674121856689,-0.9057360887527466,-0.8276122686475514,0.0481400537908077,-0.8858288952946662,0.0423053540289402,-0.6344244480133057,0.1500154286623001
1774472696752150800,9.15015087890625,-0.1379598793171346,0.2250746836684644,-0.5989028817385434,-0.2569829523563385,0.3185828030109405,0.06873519718647,-2.9292250671803948,-1.672693120098859,0.1267680204289965,0.9397691488265992,2.282282829284668,-0.5951738953590393,-0.9118325206011532,0.6808259626656771,0.5845047924213111,0.0669662281870842,-0.8846350908279419,0.2663055658340454
1774472696762178800,9.1601787109375,0.9816123054005204,0.4255415803030133,-0.8070517111778259,-0.2640735805034637,0.7393749952316284,0.011646594852209,-3.153820589029789,-0.9664375326223672,-0.6858693636603653,0.6387709975242615,1.6743541955947876,0.2191264778375625,0.1142004162082448,-0.0053980596512556,0.8586876442603767,-0.0008633675752207,-1.1131699085235596,0.3328929543495178
1774472696772205800,9.170205810546875,0.8182688323713838,-0.3129300772540271,-0.1841530368238687,-0.1512058824300766,0.8774644136428833,-0.1048054471611976,-1.446798644480109,1.3196546120792627,0.9629175418026744,0.4107152223587036,0.6438664197921753,0.644503653049469,-0.1309200438082218,-1.0904518886953591,0.1263324237570166,-0.1225506514310836,-1.0379366874694824,0.4206201434135437
1774472696782233900,9.18023388671875,0.6522786442257463,-0.2624440448589623,0.5936264026403427,-0.1099580898880958,0.7611185908317566,-0.1216351985931396,-0.010498013138771,3.5329601913809774,2.077356747546047,0.1382557302713394,0.0548939444124698,0.6960847973823547,-0.5676297915965318,-0.6783797385573387,-0.05814151558429,-0.1336420774459839,-0.8230292201042175,0.4918915629386902
1774472696792262000,9.190261962890624,0.0419869379885494,-0.3840007786467671,1.2983113797992467,-0.052144855260849,0.4360358417034149,-0.105576068162918,-0.2584709034442901,4.3056852700650685,2.2456373847164213,0.176535427570343,-0.3413067758083343,0.5140558481216431,-0.1641384227991104,-0.1058972462326288,0.4628511741302907,-0.1370908617973327,-0.6493154764175415,0.5018573999404907
1774472696802290000,9.2002900390625,-0.25393910523355,-0.7374937524355948,1.5644728377461432,-0.0965193882584571,0.3131437301635742,-0.0336218476295471,0.3001397153943776,3.2852743013232946,2.1761500069923696,0.3073959946632385,-0.9784461855888368,0.2688860595226288,0.2954179475694894,0.6624228754907846,0.2757657371163368,-0.118864044547081,-0.5142196416854858,0.4712372422218323
1774472696812318000,9.21031787109375,0.6208358966052532,0.2512304307967424,-0.3376385481834411,-0.2324955910444259,0.393104076385498,0.144626185297966,1.1500263596922158,2.5005226847589013,1.8721034934178,0.5336228609085083,-1.5856890678405762,0.1214610263705253,0.647330520299077,1.7193074256271124,0.3609503040574491,-0.0502476952970027,-0.5065755844116211,0.4421448707580566
1774472696822346000,9.220345947265624,-0.2736310631752014,0.1296234281264245,-1.297292558145523,-0.2782283127307892,0.5671401023864746,0.1744123697280883,0.6707534814625978,2.4486349688723683,1.5264378522537647,0.6382341980934143,-2.026234865188598,0.1702951341867447,0.5474228698700666,2.3620921191900965,0.3982797716289758,0.033910047262907,-0.6066426038742065,0.4572374820709228
1774472696832373800,9.230373779296874,-0.002260346147418,0.0166071436688303,-1.1696826617985965,-0.3768337070941925,0.6862614750862122,0.1677358150482177,0.3924579336076975,2.028768365465849,0.8301165065534413,0.6421148180961609,-2.397504568099976,0.3632969260215759,0.1869867989450693,2.377977670586109,0.0714611620150506,0.1403059959411621,-0.6875206828117371,0.5056529641151428
1774472696842401000,9.240401123046874,-0.7977418849103153,0.0832004073865711,-1.6180039369255304,-0.3886410593986511,0.6409476399421692,0.0828186050057411,0.3751274441003799,1.8077420804053543,1.155719237571582,0.6803239583969116,-1.9716699123382568,0.5845496654510498,0.0179424793592421,3.0002251875549555,0.3141450060017406,0.3354395031929016,-0.7336967587471008,0.5923600196838379
1774472696852428300,9.25042822265625,-1.040541756492108,-0.3896142346143722,-1.9015841471850872,-0.3582496047019958,0.5151646733283997,-0.0158062390983104,0.612221797516942,2.044188491307199,1.2555226239085198,0.9768927097320556,-1.4337613582611084,0.9314359426498412,-0.2292272733032703,2.722345234763622,1.0066004700541495,0.5522155165672302,-0.8068508505821228,0.6289257407188416
1774472696862456000,9.2604560546875,-0.8372767535716295,-0.3638138767950236,-1.5444623153746126,-0.2459083348512649,0.3630915880203247,-0.0781238004565239,-1.163170503425598,1.955491678461432,1.503480901166797,1.3514463901519775,-0.7378120422363281,1.5139721632003784,0.3265712107241154,1.9439713365376,0.455465155532211,0.5733854174613953,-0.6084007024765015,0.5862893462181091
1774472696872484000,9.270484130859376,-1.0038689992636445,-0.8023472598139196,-0.2614630709975957,-0.1905508041381836,0.1239980459213256,-0.2075086832046508,-0.8767658833950758,2.408654694531113,0.5858882826689631,1.5845340490341189,0.1330524384975433,1.854675769805908,-0.8316004615008831,-2.2001433153897523,-0.5502009562812745,0.3158960938453674,-0.2581521272659302,0.8657286763191223
1774472696882512100,9.28051220703125,-0.3081020725756883,-0.6058765201434493,0.2320440842896699,-0.3172178268432617,-0.0032290439121425,-0.1330639570951461,1.0711749412953853,2.4935943468004464,-0.4575862393394112,1.7067140340805054,0.5600783228874207,1.7914597988128662,-3.394733623951673,-13.71939510589838,-4.393519620862603,-0.6662300229072571,0.231849730014801,0.547776997089386
1774472696892540200,9.2905400390625,-0.2569866562359035,-0.6126986943136901,-0.1381330439269542,-0.2544833421707153,0.0569365583360195,-0.1363193988800048,3.059223319968581,2.685835413011908,0.1815096096429973,1.908839464187622,0.4357588589191437,1.4490251541137695,4.14935722875595,-6.454826127970218,-3.024815731193125,-0.2519545257091522,0.1086031645536422,-0.2092145681381225
1774472696902568200,9.300568115234377,0.3508268233194947,-0.6299373408190906,0.9128262078136206,-0.2953118085861206,0.0977848917245864,-0.1054103821516037,6.336681979104876,1.7687806277178226,0.6483063065286725,1.8728833198547363,-0.7698885202407837,0.677505612373352,3.073453505373001,-2.1429799971878527,3.834156137830018,-0.0077812867239117,0.297549843788147,-0.6034743189811707
1774472696912596200,9.31059619140625,-0.1513894158631563,-0.2915450516588986,2.085209360742569,-0.2149208188056945,0.0022911285050213,-0.1466550230979919,12.91110187022686,-1.671855500230938,-2.6943133184999226,1.5271074771881104,-1.696236491203308,-0.7451239824295044,1.0512450829446316,-3.597908172109723,-1.2256228679463266,-0.1411380022764206,0.2768882215023041,-0.9860171675682068
1774472696922624000,9.3206240234375,-0.6274731426626443,-1.3562138259306549,1.5515128184080125,0.2106638550758361,-0.2353118956089019,-0.219861090183258,9.623172670480608,-3.077010905593633,-3.72661813865304,1.0748389959335327,-1.6216893196105957,-1.8113847970962524,1.7666040143311024,-3.4646786823153493,-0.2844955715388059,-0.0493869222700595,-0.2366804182529449,-1.2210785150527954
1774472696932651000,9.330651123046875,-0.5465946023523807,-0.9808990425646305,-0.0117243400633335,0.2022714465856552,-0.2965057790279388,-0.1452888548374176,2.4319196886539456,-1.85927089985162,-2.476650810784101,0.7865356802940369,-1.3744288682937622,-2.0013976097106934,0.6373977398276328,-2.944146741980314,-0.6210980546727776,-0.0495903864502906,-0.8549724221229553,-1.2691792249679563
1774472696942679000,9.340678955078126,0.1342155782222747,2.0786495638355613,2.4474784923136235,0.0045983497984707,-0.4224874079227447,-0.138009637594223,-1.3069593811571598,-2.030345697785169,-2.0113095734037456,0.5189177989959717,-0.8717851638793945,-1.6213611364364624,-7.18961924314e-05,-2.419384032207727,-1.926391694574803,-0.1023557633161544,-1.764870047569275,-1.148729920387268
1774472696952707000,9.35070703125,-0.2800830157935619,1.2238484056197103,2.3386475307166577,0.0445881076157093,-0.4745293259620666,-0.1289783269166946,-2.725703313019872,-2.2502333342045544,-1.388466136368364,0.2031395733356475,-0.1958298534154892,-1.0957062244415283,-0.932909795421362,-1.5515852991223331,-2.1179643600054083,-0.1431825459003448,-2.6923491954803467,-0.7771115899085999
1774472696962735000,9.360735107421876,-0.1876110683232545,-0.3657727557778358,0.1915922469139099,0.195835456252098,-0.3914856314659118,-0.0591214299201965,-1.71332484408617,-1.1914919041551648,-0.9918370545558632,-0.1181838512420654,0.1010007485747337,-0.8020405173301697,-1.9843243897140024,-0.7467892579168081,-2.011807878314704,-0.163576990365982,-3.219555854797364,-0.356469988822937
1774472696972763100,9.37076318359375,0.2718810046374798,-0.9225352625317872,0.0883504836261272,0.1937153190374374,-0.1499329358339309,0.0137032382190227,-0.5177116222172975,-0.1367617555737495,-1.1174547541722657,-0.3934285640716553,0.3860982060432434,-0.7307260036468506,-1.7418097648143769,-0.5570400085210799,-0.92633465481475,0.0335315503180027,-3.165234565734864,-0.0330093763768672
1774472696982791200,9.380791259765624,0.1933868752457201,-0.6905873320929705,0.6401397320121527,0.0757152065634727,0.0035500775557011,0.0317482352256774,-0.3868038533687591,-0.3723864748291671,-1.4860383295871316,-0.6487902998924255,0.6824638247489929,-0.7028472423553467,-1.035436103916168,-0.3807125507563352,1.1320954200737177,0.2901076078414917,-2.3284361362457275,0.0911316350102424
1774472696992819000,9.39081884765625,-0.1388350547164678,-0.4900547498110681,0.8056611336022615,-0.0416870526969432,0.2552041709423065,0.0336819589138031,-0.7077747598677874,-0.9937542863540352,-2.2540412020549176,-0.8929277658462524,0.7135840058326721,-0.6825588941574097,-0.3798597333192825,-0.5768494553625584,1.462651754911244,0.5414401888847351,-1.1780598163604736,0.1749279946088791
1774472697002847200,9.40084716796875,0.6366910528630018,-0.0796374542079865,1.079245435026288,-0.1396614015102386,0.6813483834266663,0.0809669196605682,0.1664712496608495,-1.618820660135895,-2.5056717380851508,-1.074067234992981,0.4499456584453583,-0.7852110266685486,-0.7318909639924764,-0.5782827030360699,1.7955469079598785,0.7705250382423401,-0.1639830321073532,0.2739766240119934
1774472697012874200,9.410874267578125,0.8859253414064645,0.3745855923086404,1.2998615318506956,-0.1127653419971466,0.8090858459472656,0.125179648399353,-0.1996720929950475,-2.1734442551650104,-1.771950782186538,-1.1299384832382202,0.16471529006958,-0.8493353724479675,-0.7720312512010336,-0.7193225743204354,1.5919235931210218,0.9016510844230652,0.442799299955368,0.3599186837673187
1774472697022902000,9.420902099609377,-0.0691068539738655,0.6491057863432914,1.056652494946122,-0.0408831797540187,0.5501254200935364,0.1018746048212051,-2.570131058514118,-2.234788658443838,-1.2067346276029944,-1.079897165298462,0.0252593792974948,-0.7758736610412598,-0.7197603812158108,-0.9305044878453016,1.435783475599438,0.9808256030082704,0.6117920875549316,0.4719736576080322
1774472697032930000,9.430929931640623,-0.8630144214183092,0.4424900116901844,0.5189794501960278,0.001043765572831,0.1476136595010757,0.0263159312307834,-3.6600714905560015,-1.7786640160895884,-0.641311260009557,-0.946971356868744,-0.1005317047238349,-0.5121278762817383,-1.103986493051052,-0.8458090195953846,1.366854316280037,0.965977430343628,0.6339911222457886,0.663205087184906
1774472697042958000,9.4409580078125,-0.8534386376909912,0.4242993982221931,0.134683195734024,0.0694557577371597,-0.1736423522233963,-0.0423760116100311,-3.293625365561246,-1.0521928851887583,0.2765022346973419,-0.7271026372909546,-0.3019164800643921,-0.1140422448515892,-1.6256617582023145,-0.583433509927988,0.7362398068517446,0.8584460020065308,0.5144503712654114,0.9114394783973694
1774472697052986000,9.450986083984375,-0.6493272470742464,0.1698966940648853,-0.2500456049263477,0.1004925072193145,-0.2626973688602447,-0.0679556727409362,-2.2976883283406493,-0.3195778447054326,0.5590582164756953,-0.5070260167121887,-0.4192991852760315,0.1981531083583831,-1.7427496760129928,-0.2565606859087944,0.236547094797343,0.7056183815002441,0.2470381408929824,1.1316910982131958
1774472697063014100,9.46101416015625,-0.2040019388929009,0.0683281977515667,-0.7924778269022703,0.1069925874471664,-0.142653077840805,-0.0052060466259717,-1.3500006505042317,0.243651812236011,0.5581573221132159,-0.331790566444397,-0.3670386373996734,0.3826779425144195,-1.094969658380747,-0.3116401835739612,0.0316518603265285,0.504890501499176,-0.1835281103849411,1.1873831748962402
1774472697073042200,9.471042236328126,-0.231435889263451,0.0169881788756698,-0.8506997142463922,0.108228825032711,0.0315408296883106,-0.0220497418195009,-0.9945897142648696,0.5856979477286338,0.4924539929725229,-0.2264234721660614,-0.2315412163734436,0.5283096432685852,0.1085299328237772,-0.2230868708521127,-0.0935542628142982,0.2601217627525329,-0.6365869045257568,1.1307122707366943
1774472697083070000,9.481070068359376,-0.4002722606204449,-0.1590930490430444,-0.5652344208925962,0.0670714527368545,0.0723162665963172,0.0376442298293113,-1.0703425821244716,0.2055950533032417,0.6962545640744269,-0.2397201061248779,0.5504962801933289,0.4967679381370544,0.3870037598550319,-0.0927741452872753,-0.181939233231917,-0.0693461075425148,-1.003942847251892,1.0003169775009155
1774472697093097200,9.49109716796875,-0.5251144458197057,-0.1573899714522063,-0.2289905419379472,0.1194947138428688,0.0863838791847229,0.018652694299817,1.1516957542091608,-0.7201466040544211,0.1337672499328851,-0.2640316784381866,0.992923378944397,0.3648101091384887,0.7744330516457557,-0.2979056727319956,-0.2043441764593124,-0.312074601650238,-1.3608295917510986,0.7836499214172363
1774472697103125000,9.501125,-0.4748373800002038,-0.5450279375575483,0.2323117953151464,0.2334230244159698,-0.2071411907672882,-0.040917545557022,-0.3084060239583254,-1.0442264363542195,-0.7405448105692863,-0.3419416546821594,0.5738680362701416,0.3701811730861664,0.6122445938706398,-0.2275678156584501,-0.2329491433706134,-0.5595515966415405,-1.9340980052948,0.5894672274589539
1774472697113153300,9.5111533203125,-1.261568626074493,-0.8272239999823272,-0.0790437260985374,0.3574781119823456,-0.7658066153526306,-0.1224680691957473,0.4472247120618819,0.1704331390291452,-0.1593155326873064,-0.4242785274982452,0.7720673680305481,0.2602840363979339,0.4869405998459085,-0.149845693552494,-0.39923013115637,-0.779411792755127,-2.566848039627075,0.4378904700279236
1774472697123181000,9.52118115234375,-2.34753445539698,-1.3672411236405373,-0.1065478190958499,0.6301922798156738,-1.559584617614746,-0.2573583424091339,1.1372761837124823,0.0753369805350899,-0.3817484696753322,-0.5252386927604675,0.5940025448799133,0.2144249230623245,0.1523673027182929,0.3686450963437557,-0.0265891701094806,-0.8702123761177063,-2.580738544464112,0.2775760293006897
1774472697133209300,9.531209228515625,-3.275858822724223,-2.130975525008887,0.2000157918661832,0.8764023184776306,-1.830460786819458,-0.405814915895462,0.7156067686676979,0.0184787827596068,-1.2466349685758351,-0.6164087653160095,0.3455811440944671,0.206194207072258,-0.964754547971487,0.0245312146663665,-0.016251096772775,-0.8982335925102234,-2.4481306076049805,0.2760417759418487
1774472697143237000,9.541237060546877,-1.1138812795996664,-2.0139922366164624,-0.4593015188246965,0.9089419841766356,-1.0192545652389526,-0.35538250207901,0.3442775478065014,0.5120725934170186,-0.7448040023837238,-0.6486340761184692,-0.0393881052732467,0.1691648066043853,-1.5095534990787505,0.5723936449974775,0.5026823953896761,-0.7177965641021729,-1.7991734743118286,0.2452816367149353
1774472697153265000,9.551264892578123,2.2787568333774804,-1.0954846221655608,-2.617048877033591,0.9205992221832277,0.4518098533153534,-0.3717532157897949,0.2118786636173725,0.1501123816646635,-1.2095075994476676,-0.7783665657043457,-0.9389728307724,0.1849482357501983,-1.99074477815032,1.1584025583714246,0.4044778956167399,-0.5805873274803162,-1.42756187915802,0.2401867508888244
1774472697163293200,9.561293212890623,5.004305832618475,-0.2645860253237188,-3.438794883996248,0.7474642992019653,2.160450220108032,-0.5394368767738342,-0.660672816953063,-0.4969781923986971,-1.6640633850499986,-0.9522832036018372,-1.7017639875411987,0.256207525730133,-1.3042530448079108,0.8054629806816578,-0.1377199330814182,-0.5041115283966064,-1.4943243265151978,0.2553386688232422
1774472697173320000,9.57131982421875,6.7166036717444655,2.110690277349204,-2.5219343061000106,0.6203356385231018,2.81536865234375,-0.1933551281690597,-0.594073561885953,-0.1948163235269487,-0.1561953548401594,-1.0071321725845337,-2.099250555038452,0.1781375706195831,-0.8923954142034053,0.8132856371313333,-0.3253137580089271,-0.5066332817077637,-1.6112146377563477,0.2491369843482971
1774472697183348200,9.58134814453125,2.8103321457743644,1.1933572596356272,-0.3849591022849082,0.4984542429447174,1.5954773426055908,-0.0163946561515331,0.3071563161581754,-0.1177557340696454,1.2388552744850516,-0.9219992756843568,-2.18127703666687,-0.0316862240433692,-0.7252677464604377,0.7682751135379076,-0.4679075807370245,-0.53165602684021,-1.598480224609375,0.2180549055337906
1774472697193376000,9.5913759765625,-2.6040841815203426,-0.2679375277087092,2.6052105552017686,0.2919833660125732,0.3441136479377746,-0.1021042317152023,1.159280510249734,-0.7971485951922833,1.7245653461553154,-0.6773457527160645,-2.040205240249634,-0.2149914801120758,-0.6006663842797278,0.8435849138051271,-0.1280821900337934,-0.5511718988418579,-1.5136401653289795,0.160793200135231
1774472697203404300,9.601404296875,-4.191080985763668,0.3488108073219657,3.6699312057912334,0.2166016548871994,-0.7818045020103455,-0.2560591399669647,1.377853703069687,-1.7980517303876578,2.1761901928722858,-0.3434005081653595,-1.9527313709259035,-0.2190709114074707,-0.4173801934182644,0.8680804726362228,0.1311896545298397,-0.5299353003501892,-1.5043325424194336,0.0782217532396316
1774472697213432000,9.61143212890625,-4.455165345175564,-0.2067027222841977,2.705055077266693,0.176538661122322,-1.3852256536483765,-0.2209261655807495,1.3940250856697558,-1.4375965163707731,1.7345464958131311,-0.1298853307962417,-1.7014235258102417,-0.2220435589551925,-0.407429329300858,1.2956862919926642,0.5658733033180237,-0.4345816075801849,-1.465577244758606,-0.0390582680702209
1774472697223460000,9.621460205078124,-2.2545877300217745,-0.8328801260478794,1.8185756091088048,0.1382393687963485,-1.4474297761917114,-0.0390243381261825,0.4921294371932744,-0.4886502167753875,1.4625316356629132,0.0093220928683876,-1.4997081756591797,-0.2604194581508636,-0.761439130038023,1.1760218016922472,0.0782394239783287,-0.4117184579372406,-1.4118659496307373,-0.1361527740955352
1774472697233488100,9.631488037109374,-0.6422047017179429,-1.471109494394064,1.9253940618395804,-0.0263466574251651,-1.1956989765167236,0.3105123341083526,-0.5647212106734514,-0.4807736381813883,1.3772501842185854,0.1111345738172531,-1.2263388633728027,-0.2597690224647522,-0.5814648402035236,0.9165396753787994,-0.1915488461636006,-0.4240584671497345,-1.5027172565460205,-0.1984835267066955
1774472697243516200,9.64151611328125,0.7201093407839536,-1.264951546511054,1.1199550465553998,-0.2676788866519928,-0.0019738366827368,0.4134508669376373,-1.8278209918379784,-0.5695799027509987,0.9894149419754744,0.2061609625816345,-1.0708211660385132,-0.2292347848415374,-0.1446376217816956,0.684522479096055,0.0279525674171745,-0.4973615407943725,-1.5990033149719238,-0.1912261843681335
1774472697253544200,9.651544189453125,2.4644997697412965,-1.0497899157002568,-1.025688616883755,-0.2673204243183136,0.0094157047569751,0.6595280766487122,-1.1873077503383158,-0.5754933645784854,0.5854965799376368,0.3216986358165741,-0.8180375099182129,-0.2525759041309356,0.0014402619361877,0.5555477241367102,0.3173533005237579,-0.4972614049911499,-1.2180231809616089,-0.2452361583709716
1774472697263571000,9.661571044921876,-0.0843266349375247,-0.1318120242118835,-0.6315759018063545,-0.5722799897193909,0.1613276153802871,0.4148655533790588,-0.6673211689263582,-0.3829204360641539,1.1976719079643487,0.5536032319068909,-0.6762665510177612,-0.3675637543201446,0.3820096048295497,0.6959066274195909,0.7858489102818071,-0.4892312586307525,-0.556273877620697,-0.3206665515899658
1774472697273599200,9.67159912109375,0.5904426580376922,1.932599755434692,-0.3741834412485361,-0.7181333303451538,0.6028349995613098,0.2780286073684692,0.2177951941847801,0.1085867775775492,1.788445259261131,0.8260940313339233,-0.7378827333450317,-0.6289150714874268,0.4057271650254726,0.8760732249557971,0.6705388157986104,-0.503132700920105,-0.1523292958736419,-0.3156185448169708
1774472697283627000,9.681626953125,0.8266521914437412,1.855348904102296,-1.1233242307275533,-0.5319437384605408,0.8872534036636353,0.1134364604949951,0.8981021014124154,-0.3909285320833325,2.561235512135923,1.163939118385315,-0.3088099062442779,-0.9824446439743042,0.5300900422751903,0.7662754641532897,0.1832484891995787,-0.5746325850486755,0.0116970064118504,-0.2926744520664215
1774472697293655000,9.691655029296877,0.1025235320158302,0.350636999835819,-0.9783364986002444,-0.3178927004337311,0.676575243473053,-0.0395925045013427,2.999552402859926,-0.6453718605119735,2.9462372845187783,1.5122021436691284,0.1960485726594925,-1.459504008293152,1.020096495965123,0.397716292527318,-0.2995822276420891,-0.6349867582321167,0.0618243515491485,-0.2880562841892242
1774472697303683000,9.70168310546875,-1.2714531834900378,-0.0435400126494467,0.3963824135750532,-0.1772167384624481,0.1991510987281799,-0.1398458927869796,4.05396442540288,-0.0608115385111421,3.742802965256572,1.810282588005066,0.4895419776439667,-2.0743744373321533,1.1637222920894623,0.1552443377256393,-0.1551914384946227,-0.6113219857215881,0.3059844970703125,-0.3261957764625549
1774472697313711000,9.711711181640624,-1.3658276035808026,0.3307879516363143,1.2889181130319831,0.005991700105369,-0.0425395555794239,-0.1198873594403266,5.315902761572599,-0.1789388823721557,2.577171624675393,1.904202222824097,1.883819818496704,-2.975389003753662,0.9564783025354148,-0.0673603025674819,0.181795075520873,-0.5115237832069397,0.9083083868026732,-0.3991972804069519
1774472697323739100,9.7217392578125,-0.1504410290971398,0.2250834514968097,1.4961965893775224,0.0641876906156539,-0.1805792450904846,-0.0228090211749076,6.819198369300365,0.3198374820223078,2.5172572541996834,1.976150155067444,2.334436416625977,-3.711049318313599,0.5126917482286691,-0.2991162175655364,0.648176177342981,-0.3368223309516907,1.602644443511963,-0.4386268258094787
1774472697333767200,9.73176708984375,-0.0065548284709453,-0.001596329280734,0.7538046896368265,0.1161052137613296,-0.2992270588874817,0.0434360429644584,2.599268305671215,1.411407451494783,3.5322564270257946,1.7684407234191897,0.126371219754219,-3.8411190509796143,-0.3633119186222553,-0.5825275009989738,0.7063667927660048,-0.1736781448125839,1.960989475250244,-0.3744774162769317
1774472697343794200,9.741794189453126,-0.3947609498530626,-0.2251195457234978,0.2073936271578073,0.1034217849373817,-0.3766542971134186,0.0712649673223495,-3.055447308561205,1.7087848625689743,1.3131573590144514,1.4112335443496704,-2.000488042831421,-3.337875843048096,-0.8320265779584646,-0.5971364565879106,0.2545890935748815,-0.0696376785635948,1.784257173538208,-0.2771753668785095
1774472697353822200,9.751822265625,-0.3251226193509995,0.0294419291920959,0.1225029285967349,0.1346912980079651,-0.2270008623600006,0.0441113784909248,-4.399916628423333,0.9097472387596964,-0.8570163500472903,1.0965712070465088,-2.6817729473114014,-3.015944480895996,-0.6564893937885761,-0.2617863116025924,-0.4071067828156053,-0.0401985608041286,1.2957819700241089,-0.2019754201173782
1774472697363850200,9.761850341796874,0.2403543781258165,-0.3769878311447799,-0.2461345689624547,0.1494443416595459,0.015253011137247,0.0418589748442173,-1.6188421413153409,0.7554357249047606,-0.7922939947679638,0.926054060459137,-2.564636707305908,-2.955552577972412,-0.4847106853693723,0.0553635753035545,-0.7540170172132551,-0.0196604058146476,0.7721779942512512,-0.1496264338493347
1774472697373878000,9.7718779296875,0.6091179862827062,0.0892598535560071,-0.1069663367688655,0.0698214098811149,0.286083459854126,0.0770640969276428,-0.9063736706733704,0.9103026806853712,-0.5935068679139017,0.7736573219299316,-1.854192495346069,-2.812755584716797,-0.600377045944333,0.1639671578854322,-0.456257767214626,0.050280325114727,0.5980189442634583,-0.1561855375766754
1774472697383906000,9.781906005859376,0.6076201489403843,0.7196664193220436,-0.0354506680876016,-0.0072752004489302,0.359156847000122,0.1573298871517181,-1.1508078654587268,0.996129344922304,-1.6159700930103658,0.5657446384429932,-1.0442570447921753,-2.51800799369812,-0.3919704423516988,0.2900368390530348,-0.0321907895088195,0.1376491785049438,0.8727189898490906,-0.2700726389884949
1774472697393934000,9.79193408203125,-0.1100403373867273,0.3781979375869035,-0.1864367638468742,-0.0210472047328948,0.0955733954906463,0.2322917431592941,-1.6790566637814044,2.1031161888331176,-2.9620062237977978,0.3286963999271393,-0.5048486590385437,-1.9546818733215328,-0.0933154034239705,0.1800122837573289,-0.0065685647353529,0.2519661486148834,1.176339864730835,-0.3789556920528412
1774472697403962000,9.801962158203125,-1.0828167176418009,0.3243222627535462,0.0329600203156471,-0.1066946312785148,-0.1904587149620056,0.352125734090805,-2.1970038483202456,2.8381875364273785,-4.039699168685078,0.0184208322316408,-0.3213180303573608,-1.2053093910217283,-0.3880132291585206,-0.0271329215973615,0.3039718409031629,0.4210048913955688,1.4411447048187256,-0.3635319173336029
1774472697413990100,9.811990234375,-1.0802633798971772,0.1678789245016873,-0.3012164047151803,-0.0614107772707939,-0.1422517746686935,0.2960949540138244,-1.9534142876654863,3.066681234759092,-4.439232447506488,-0.3169951140880584,-0.1908380538225174,-0.5068724751472473,-1.1900725388765334,-0.1842062283158302,0.6633097413279115,0.6480708122253418,1.9184595346450808,-0.2633280754089355
1774472697424017200,9.82201708984375,-0.2213467491865157,-0.3141039433389901,-0.1799322042584419,-0.0265069790184497,0.0069811209104955,0.3069937825202942,-1.2909995954811573,2.470114687013626,-4.616498062904179,-0.6660223603248596,0.1082599759101867,0.0324408411979675,-1.6582096905857324,-0.4037573262572288,0.9197767576038836,0.8964011669158936,2.5187768936157227,-0.1257994472980499
1774472697434045200,9.832045166015623,-0.0197042329013347,0.0107791681677103,0.4414671714484691,-0.0031843469478189,0.0378900356590747,0.3033598959445953,-0.8116314401835203,1.998268890044838,-4.275514588207006,-0.8999296426773071,0.464559406042099,0.3627713322639465,-1.8773183054566385,-0.5103542451918125,0.8258256774917244,1.1034224033355713,2.9820423126220703,0.0050722896121442
1774472697444073200,9.8420732421875,-0.2456102528274059,0.0372854822993278,0.6602613135427237,0.0222370605915784,-0.0189148671925067,0.2787848114967346,-0.2100964563757181,1.2727683577418327,-3.197206726291776,-0.9622979760169984,0.8425219058990479,0.6027759313583374,-1.452034207046032,-0.5313438417285681,0.5905873272053898,1.2133811712265017,2.986663579940796,0.0338201113045215
1774472697454101000,9.85210107421875,-0.2557227737799287,-0.0063778644688427,0.7310650345623493,0.0367073453962802,-0.0487449318170547,0.2471070289611816,-0.4441483733564615,0.4067281587615609,-1.5098147803634403,-0.9286032915115356,1.2104722261428833,0.8129902482032776,-0.0763502492308616,-0.5414081396251916,-0.0064613049685955,1.1316062211990356,2.489187240600586,-0.1303906738758087
1774472697464129300,9.86212939453125,-0.0308890592604875,-0.0610834142550826,0.5465022478938102,0.0656185448169708,-0.0138479862362146,0.2186800390481948,0.2526058108031749,0.0269423674613237,-0.5736325391426682,-0.8748138546943665,1.4514228105545044,0.9141887426376344,1.5126070414304733,-0.6391863768100738,-0.7794644699417054,0.9207406640052797,1.705971360206604,-0.4308802187442779
1774472697474157000,9.872156982421876,0.1418099788740277,-0.314314955741167,0.2581605223208665,0.1025150418281555,0.0148489046841859,0.2001665383577346,0.9634066404938696,-0.4001448348484933,0.2035480576455593,-0.8214255571365356,1.5658247470855713,0.913926899433136,2.166959423190355,-0.7361088739484548,-0.8804071625068783,0.6559612154960632,0.9317204356193542,-0.7608064413070679
1774472697484185300,9.882185302734374,0.0380045903541147,-0.6034164136402309,0.0935930604547262,0.130263939499855,0.0117070730775594,0.1973166912794113,0.8481289869755506,-0.3159744133859872,0.3673082947820424,-0.8241214752197266,1.494345784187317,0.8571823835372925,2.374232054316997,-0.9830056594550608,-0.7314610481426119,0.3965941667556762,0.292428582906723,-1.0745105743408203
1774472697494213000,9.892213134765624,0.1713952620595693,-0.6400481082059443,-0.0248234756112098,0.11282929033041,0.1018838360905647,0.2156040966510772,0.7210533436357974,-0.1225827158346772,0.7446563375413418,-0.779948353767395,1.2031844854354858,0.6624246835708618,2.2968109609842298,-1.141549623247981,-0.3139955145284533,0.1833964139223098,-0.1360391676425933,-1.3156400918960571
1774472697504240000,9.902240234375,0.8820489383645356,-0.5405088526979088,0.1593932740986347,0.0423170141875743,0.3698675036430359,0.3238633275032043,-0.0565296964734792,-0.5217226114243269,0.663121671409905,-0.7597615718841553,0.7581899762153625,0.4451338946819305,1.7819155652314425,-0.9951759897202253,-0.0124986854366958,0.0041898800991475,-0.3616588413715362,-1.437316656112671
1774472697514268200,9.91226806640625,1.5714739486798643,-0.4679295003078877,0.5488379973649978,-0.0126743353903293,0.5792990326881409,0.4054767191410064,-0.7972147922962903,-0.2093250336118042,0.1927133598983287,-0.7635446786880493,0.429630696773529,0.2511795461177826,1.2311831324219702,-0.657231736588478,-0.0809609578967094,-0.1523145139217376,-0.4624285995960235,-1.4711889028549194
1774472697524296000,9.9222958984375,0.5088716054186224,-0.9262912540644408,0.1306464875638485,0.0396881587803363,0.3822942972183227,0.2810006737709045,-1.2574071224808692,0.310601780436933,-0.2332625201687216,-0.8146054148674011,0.4545935690402984,0.1150161102414131,1.1510866824001074,-0.4598573991417884,-0.1770955195277929,-0.2921284139156341,-0.3561629354953766,-1.4394832849502563
1774472697534324200,9.93232421875,-1.6920947167918086,-1.3536154800005256,-0.5393897855401039,-0.0639887005090713,0.1495478451251983,0.0710453018546104,-1.4576894563287497,0.5519482383400202,-0.7956082338824868,-0.9375758171081544,0.3774018883705139,0.1130371689796447,0.6235007319003343,-0.5464437957048416,0.0644511371225118,-0.3322396278381347,-0.2846304178237915,-1.3677853345870972
1774472697544352000,9.94235205078125,-0.9221708131335676,-0.4351254012063145,-0.1809796674847602,-0.1427078992128372,0.2804464697837829,-0.148055225610733,-1.7046692439436912,0.4434764654442668,-0.8249240524768829,-1.0813244581222534,0.2044641971588134,0.2342805117368698,0.9817547826111316,-0.5832996544152498,0.0536750376947224,-0.3657627403736114,-0.3901146650314331,-1.3059132099151611
1774472697554380300,9.95238037109375,-0.5648088889569044,-0.514509465175122,-0.9801549461990594,-0.129304751753807,0.1165619567036628,-0.1671490222215652,-2.086557852742076,0.6005201076768338,-1.0976245568037033,-1.23023521900177,0.1829463392496109,0.353843480348587,1.283918697309494,-0.9172668206095697,-0.6807773012183607,-0.3895580768585205,-0.5072881579399109,-1.237839937210083
