time,seconds_elapsed,z,y,x
1773258445026188500,0.0751884765625,0.04314706780910492,-0.014051102510467171,0.2940782233983278
1773258445036203500,0.08520361328125,0.0950274771720171,0.014622837983816861,0.1608439843636006
1773258445046219500,0.095219482421875,0.09992343252003193,0.014385960488021373,-0.03844590438082814
1773258445056234500,0.105234375,0.18592121554017066,0.005268149661272764,-0.1843356999143958
1773258445066250500,0.11525048828125,0.18836977773606775,-0.029465383132919666,-0.2692345452493056
1773258445076265500,0.125265380859375,0.03443418452143669,-0.08239172135218978,-0.28757125265710054
1773258445086281500,0.135281494140625,-0.08345569732189179,-0.09109590987674891,-0.14875062832478433
1773258445096296400,0.14529638671875,-0.18309505220353603,-0.07531513402946292,-0.02140464361105114
1773258445106312400,0.1553125,-0.29045594124794005,-0.12163337922058999,-0.09153039230387658
1773258445116327400,0.165327392578125,-0.1747352201372385,-0.013917466193437575,-0.11188169093709438
1773258445126342700,0.1753427734375,0.01504793152809143,0.0623073300268501,-0.027306634196452795
1773258445136358400,0.1853583984375,0.04964928930997848,0.05895327035859227,-0.047798912202939386
1773258445146373600,0.19537353515625,0.004957914668321609,0.0027313246600329873,-0.10525193406641482
1773258445156389600,0.2053896484375,0.03608721242547035,0.001458893571421504,-0.0909276406377554
1773258445166404600,0.215404541015625,0.05011223064661026,0.01747581626214087,-0.07995773567091673
1773258445176420600,0.225420654296875,0.06005144085884094,0.02663373990356922,-0.09990527580883353
1773258445186435600,0.235435546875,0.03277297331094742,0.05823547747805714,-0.23050419790390878
1773258445196451600,0.24545166015625,-0.008157587492465972,0.05754888345338404,-0.3386030823666602
1773258445206466600,0.255466552734375,0.02898644050955772,0.0890934840131551,-0.2712230521854013
1773258445216481800,0.265481689453125,0.06986673243045806,0.0970635861095041,-0.10152834696602075
1773258445226497500,0.27549755859375,0.14507833302021025,0.02266227898932993,0.2566817184725776
1773258445236512800,0.2855126953125,0.13057751398086548,-0.03829502466805279,0.4205939678329974
1773258445246528500,0.295528564453125,-0.08677110548019408,-0.0892967515002936,0.2300999279519543
1773258445256543700,0.305543701171875,-0.2699941679775715,-0.06894757175892591,0.005227598455175757
1773258445266559500,0.3155595703125,-0.3145212919682264,0.0077492258872836825,0.05197762265969068
1773258445276574700,0.32557470703125,-0.3534352522522211,0.08557312786728143,0.09282832315992563
1773258445286589700,0.335589599609375,-0.3175391784846783,0.12277180866599083,0.012281243293732404
1773258445296605700,0.345605712890625,-0.11730769804120063,0.13634784101061523,0.02451430006418377
1773258445306620700,0.35562060546875,0.0548901125729084,0.15784706756994127,0.03103431295007467
1773258445316637000,0.365636962890625,0.09421206913590431,0.16398410902023314,0.030296354064345356
1773258445326651600,0.375651611328125,0.11155308003723621,0.14541779410764574,0.06111048492509871
1773258445336668000,0.38566796875,0.08675006269216537,0.08267872160002589,0.052588155773468315
1773258445346683000,0.395682861328125,0.02994038023352623,0.030123189454525707,0.0468214820055291
1773258445356697900,0.40569775390625,0.042593525579571724,-0.0039598435416817665,0.02441789048500359
1773258445366713900,0.4157138671875,-0.07067804881334304,-0.07799465543702244,-0.01746752335783094
1773258445376728800,0.425728759765625,-0.12445055553317069,-0.13874723030254243,-0.052739583475515245
1773258445386744800,0.435744873046875,-0.07295768418312072,-0.06790770731717348,-0.10774378741476684
1773258445396759800,0.445759765625,-0.10971417417228221,0.015069704968482254,-0.055775444040074944
1773258445406775800,0.45577587890625,-0.15411445691287518,0.1022172425456345,0.0877095188414678
1773258445416790800,0.465790771484375,-0.12811258517205715,0.212817698033154,0.17798523490913212
1773258445426806800,0.475806884765625,-0.09775251822173595,0.3158556093119085,0.23445607733484355
1773258445436821800,0.48582177734375,0.001841243952512741,0.37854835845977064,0.24706688137650487
1773258445446836700,0.495836669921875,0.15897358738183975,0.3570397064849734,0.19372049111425876
1773258445456852700,0.505852783203125,0.24431845945119857,0.3079975892879069,0.12767244018912316
1773258445466867700,0.51586767578125,0.0008919804036617279,0.13666384815722704,0.04172609509527683
1773258445476883700,0.5258837890625,-0.2559615509718656,0.00128010293841362,0.04301832686290145
1773258445486898700,0.535898681640625,-0.15467384436130524,-0.018925795874744654,0.16974391465596853
1773258445496914700,0.545914794921875,0.04672141916453838,0.029757424882054326,0.27175166090307756
1773258445506929700,0.5559296875,-0.294113294711709,0.21954262237399816,0.35180458231046796
1773258445516945700,0.565945556640625,-0.7479986337065696,0.42689241039007897,0.5324412815764547
1773258445526960600,0.575960693359375,-0.4403612560331821,0.5130806014157832,0.7158901156537234
1773258445536975600,0.5859755859375,-0.10099778375327587,0.4181204903915524,0.6472854390483349
1773258445546991600,0.59599169921875,0.11334931580424308,0.1454283155016601,0.45853532022517174
1773258445557006600,0.606006591796875,0.4645663074851036,-0.14805194200351834,0.35738304002992805
1773258445567022800,0.61602294921875,0.6271066474378109,-0.3881431391485035,0.22271303257104008
1773258445577037600,0.62603759765625,0.7721732900202274,-0.46385392143204807,0.10603177759880199
1773258445587053800,0.6360537109375,0.7803811463952064,-0.41362054862380027,0.008486801180522889
1773258445597068800,0.64606884765625,0.6105161626428365,-0.24958061776310203,0.06260119840689003
1773258445607083800,0.656083740234375,0.14118424819111824,0.04541705856770277,0.22093895383691414
1773258445617099800,0.666099853515625,-0.3548953879326582,0.15257584916874767,0.3851738410141319
1773258445627114800,0.67611474609375,-0.6378840620398522,0.12869725319221614,0.5151627779847011
1773258445637130800,0.686130859375,-0.673271017241478,0.03159691526889801,0.518409102962166
1773258445647145700,0.696145751953125,-0.2452180386394262,0.011127981605380774,0.5236917926054447
1773258445657161700,0.70616162109375,0.3315928382784128,0.08320099190846085,0.5318700575597584
1773258445667176700,0.7161767578125,0.8509177409112453,0.06632759851887822,0.44153077473659064
1773258445677192700,0.726192626953125,1.0737690494418144,0.04227481501922011,0.23732461850848047
1773258445687207700,0.736207763671875,1.0359966604083777,-0.025774784986674786,-0.05325140545517206
1773258445697222700,0.74622265625,0.8098235139787197,-0.13323606566563248,-0.3286006707251072
1773258445707238700,0.75623876953125,0.25364801333248616,-0.0621108576066792,-0.4333753426685929
1773258445717253600,0.766253662109375,-0.8147212228924036,0.22333207778483627,-0.3961150678757578
1773258445727269600,0.77626953125,-1.664917079269886,0.464693294865638,-0.2905257916137576
1773258445737284600,0.78628466796875,-1.8377181164741514,0.5088889949448406,-0.26277926816269753
1773258445747300600,0.796300537109375,-1.595567064189911,0.34112259090691804,-0.32107860465720295
1773258445757315600,0.806315673828125,-0.8865069406867027,0.09990341264531016,-0.27174334973245856
1773258445767331600,0.81633154296875,-0.009416647642850875,-0.11733619348332285,-0.14546338681504128
1773258445777346600,0.8263466796875,0.3914806130081415,-0.3872127264305949,-0.004309679892659187
1773258445787361500,0.836361572265625,0.759219700422883,-0.5644621213458478,0.024120295777916908
1773258445797377500,0.84637744140625,0.9685638771265744,-0.5676331525973976,0.20772680463492868
1773258445807392500,0.856392578125,0.6357166548728943,-0.7607957175679504,0.7601859151065349
1773258445817408800,0.86640869140625,0.187183198300004,-0.7665449287444352,1.1637325212225318
1773258445827423500,0.876423583984375,-0.2812427072227001,-0.6022120062865316,1.2027914429351687
1773258445837439700,0.886439697265625,-0.42452714256346225,-0.9409455100998282,-1.0623831475526093
1773258445847454700,0.896454833984375,-0.1956190182119608,-1.352450089482963,-3.816380534903705
1773258445857469700,0.9064697265625,-0.5893687451958656,0.36873306688815355,-2.8533801371231675
1773258445867485700,0.916485595703125,-1.442169815635681,2.365101822400093,-1.2137225867941974
1773258445877500700,0.926500732421875,-1.8812533068180084,2.426441257242858,-0.9502756485030055
1773258445887516700,0.9365166015625,-2.026802764481306,1.3620835947468877,-1.179993043410778
1773258445897531600,0.94653173828125,-1.3792121319413184,0.5602028564661741,-1.1105416137829422
1773258445907547600,0.956547607421875,-0.02068038445711136,0.5408364772170782,-0.8156795465305448
1773258445917562600,0.966562744140625,2.0324632744610307,0.6857602041974663,-0.42975569086670873
1773258445927578600,0.97657861328125,3.864102363282442,-0.17068009952753782,-0.4012202089950442
1773258445937593600,0.986593505859375,4.402485017606616,-1.0293775345295666,-0.35344840399473904
1773258445947608800,0.99660888671875,4.367761494749784,-0.6122305653452873,0.8095353446871042
1773258445957624600,1.00662451171875,4.6532525070667266,0.18966712407022712,1.5780127027988433
1773258445967639800,1.016639892578125,5.619560129699111,0.601513064236939,1.4798942738741636
1773258445977655600,1.026655517578125,4.082288602611422,0.4156809882849455,0.18741759157776833
1773258445987670800,1.0366708984375,2.48002934730649,0.2618836344972253,-0.6792100519016385
1773258445997686500,1.0466865234375,1.4639245513260364,-0.027007249391078948,-1.1624261147990822
1773258446007701800,1.05670166015625,-0.23027707461714744,-0.07375994047671557,-1.708962557223439
1773258446017717500,1.066717529296875,-1.0138754294931889,0.04303834673762321,-1.9143778700456022
1773258446027732700,1.076732666015625,-1.6350906808048487,-0.033116964443027974,-1.0965952137559651
1773258446037748500,1.08674853515625,-2.4325989030897617,-0.17796368066444992,-0.4395505241721868
1773258446047763700,1.096763671875,-2.3155197531074285,-0.19104250407665968,0.2891547955214977
1773258446057778700,1.10677880859375,-2.1167788034826516,0.2568006321445107,1.2315610258236527
1773258446067794700,1.116794677734375,-1.8265841435194015,0.6462251894056796,1.540336175355315
1773258446077809700,1.1268095703125,-1.2357114235013722,0.8118557504586875,1.424610778069496
1773258446087825700,1.13682568359375,-0.5924626195579766,0.60901321073398,1.6501280909389255
1773258446097841000,1.1468408203125,-0.20874971794188021,0.4697806811325252,2.3713275650471446
1773258446107856600,1.156856689453125,-0.5761831004083157,0.3758610190719366,2.7164994313448667
1773258446117871900,1.166871826171875,-1.475346693572402,0.1755630492635071,2.4582851330101487
1773258446127887600,1.1768876953125,-1.9405904619276522,-0.10786138591244816,1.8038500414028762
1773258446137902800,1.18690283203125,-2.3912089080810546,-0.04410641436055302,1.460434078861773
1773258446147918600,1.196918701171875,-1.54670571038723,0.2937485530525446,1.239902445450425
1773258446157933800,1.206933837890625,-0.3106663701057434,0.16632935697212814,0.640577246646583
1773258446167948300,1.2169482421875,0.19437340206503867,0.002413929273933172,0.3627352877780795
1773258446177964300,1.22696435546875,-0.004676759639382362,-0.24250088863521813,-0.4156286735758185
1773258446187979300,1.236979248046875,0.4428752846807241,-0.4309307259954512,-1.224616905774176
1773258446197995300,1.246995361328125,0.48782092634439467,-0.07425188871212303,-0.3956231196403503
1773258446208010200,1.25701025390625,0.307358560732007,-0.21067747113406657,-0.022663374967873094
1773258446218026200,1.267026123046875,0.02109071882367134,-0.2724870807718485,0.06868439077809453
1773258446228041200,1.277041259765625,-0.36235096463561056,-0.32034108416289087,0.17571093330159782
1773258446238057200,1.28705712890625,-0.7551122651040554,-0.564660420396924,0.1268633157633245
1773258446248072200,1.297072265625,-1.0827841305464505,-0.48225678941123185,-0.0224899180971086
1773258446258088200,1.307088134765625,-1.2287959450244903,-0.31580621721222996,-0.0675298139154911
1773258446268103200,1.317103271484375,-1.0837146893948315,-0.211121926965937,-0.239151578207314
1773258446278119200,1.327119140625,-0.4280442107737064,-0.08876111025363206,-0.4407714442692697
1773258446288134100,1.337134033203125,-0.05506605366170406,0.11523512955084442,-0.5978766074307262
1773258446298149000,1.347149169921875,-0.06683598643243313,0.3968393635623157,-0.5962305937893688
1773258446308165000,1.3571650390625,0.10970014564692973,0.49987873614579437,-0.4060356464527547
1773258446318180000,1.36718017578125,0.04185468991100788,0.3300369871385395,-0.26614187646359205
1773258446328196400,1.3771962890625,0.04398118054568767,0.22608999819085002,-0.022808190266042947
1773258446338211300,1.38721142578125,0.05899462528228759,0.20538944772854445,0.014887188008427619
1773258446348227300,1.397227294921875,0.3458025654166937,0.11599734609499573,-0.1982540428906679
1773258446358242300,1.4072421875,0.7155880639672278,-0.03263122675269842,-0.3492323937349021
1773258446368258300,1.41725830078125,0.9152531426995992,-0.20629355696141718,0.16427227831184862
1773258446378273300,1.427273193359375,0.8096493264555931,-0.2824639195807278,0.3654971537068486
1773258446388289300,1.437289306640625,0.4701759640604257,-0.11925693241283297,0.05002557527646422
1773258446398304300,1.44730419921875,0.17320669539570807,0.04696545705348253,0.0039221418797969814
1773258446408320300,1.4573203125,-0.016565350353717805,0.11700491570234298,0.1304839904785156
1773258446418335200,1.467335205078125,-0.21801906606853008,0.1323648357890546,0.055122167763113974
1773258446428351200,1.477351318359375,-0.29665713397562504,0.13550649481564758,0.02748670347109437
1773258446438366200,1.4873662109375,-0.35563773073256016,0.16168503829762337,0.09565525368154049
1773258446448381200,1.497381103515625,-0.33328619819283484,0.16364055627956986,-0.009677344405651092
1773258446458397200,1.507397216796875,-0.015060791009664535,0.05766366893947124,-0.004396627523750067
1773258446468412200,1.517412109375,0.4187222556769848,-0.14591799871474503,0.042756607186794277
1773258446478428200,1.52742822265625,0.6962304525464773,-0.26174977898448704,0.13031754787042737
1773258446488443100,1.537443115234375,0.5985369710355997,-0.34191461806744333,0.2594075997725129
1773258446498459100,1.547459228515625,0.32595804726183414,-0.4108909775294363,0.4137266393467784
1773258446508474000,1.55747412109375,0.024201544320583343,-0.3849538415879011,0.38318558980636297
1773258446518490000,1.567489990234375,-0.09825111539363861,-0.2588838681593537,0.1468149475544691
1773258446528505000,1.577505126953125,-0.04485387172698974,-0.16929624395370482,0.17985190556384623
1773258446538521300,1.587521240234375,-0.681157971099019,-0.12433818119987845,0.3146296477135271
1773258446548536300,1.597536376953125,-1.6640654308766125,0.046140550536662335,0.27192542830109595
1773258446558552300,1.60755224609375,-1.5817343536704778,0.2666540637694299,-0.5211959572017193
1773258446568567300,1.6175673828125,-1.0728712238192557,0.5793826271019875,-0.9948625398568809
1773258446578583300,1.627583251953125,-0.47230946895778175,0.7510831557184457,-0.9712827076312154
1773258446588598300,1.637598388671875,-0.03447860818505287,0.6287326412044465,-1.1405883039351552
1773258446598614300,1.6476142578125,0.08721826472580432,0.5301989094771444,-0.7845406041622162
1773258446608629200,1.657629150390625,0.0030745851397514343,0.0680307491749525,0.17906404312178492
1773258446618645200,1.667645263671875,0.004953238493204117,-0.48342561399489636,0.6025360506091266
1773258446628660200,1.67766015625,0.20953999153673647,-0.605676467526704,0.11214885397329925
1773258446638675200,1.68767529296875,0.5876666174530982,-0.40027620614320036,-0.3437663834139705
1773258446648691200,1.697691162109375,0.8420569735854864,-0.32891032119616864,-0.4802168080162257
1773258446658706200,1.7077060546875,0.9306178850919008,-0.39993031531497836,-0.44455987676680087
1773258446668722200,1.71772216796875,0.9140987119674682,-0.4960600546404719,-0.3833864461407065
1773258446678737200,1.727737060546875,0.7861918785005807,-0.2997926555223763,-0.38732400478534396
1773258446688753200,1.737753173828125,0.5436895285606383,-0.09269625774547458,-0.2018650729946792
1773258446698768100,1.74776806640625,0.0856464853644371,0.004019026383012533,-0.14699220381751657
1773258446708784000,1.7577841796875,-0.19451076470911502,0.18500863073989748,-0.11268420295901596
1773258446718799000,1.767799072265625,-0.04096563211679458,0.07869199005141854,-0.1543402284927666
1773258446728815000,1.777815185546875,0.26785072620809075,-0.1373662973381579,-0.2301539231615141
1773258446738830000,1.787830078125,0.6478127508580684,-0.2484549747340381,-0.32989732293952256
1773258446748846300,1.797846435546875,0.8123410497575998,-0.20729659652411936,-0.41618301952295
1773258446758861000,1.807861083984375,0.7079197212964295,-0.1979987529553473,-0.5209372332002967
1773258446768877300,1.817877197265625,0.4957990656167268,-0.21685250650718807,-0.5486114951327443
1773258446778892300,1.827892333984375,0.24414777905941007,-0.04884790979921817,-0.48992509554941205
1773258446788908300,1.837908203125,0.14721066887378692,0.04573430782333016,-0.38804344163369386
1773258446798923300,1.84792333984375,0.0459755692332983,0.10452245074808597,-0.2519185409250669
1773258446808939300,1.857939208984375,-0.185452428984642,0.1429230546824634,-0.05241437010914087
1773258446818954200,1.867954345703125,-0.55228433842659,0.2054801947519183,0.2198303898068145
1773258446828969200,1.87796923828125,-0.7807423809230327,0.11733970061466097,0.16890687930993734
1773258446838985200,1.887985107421875,-0.7717080105960369,0.12097148124575614,0.23834946804419158
1773258446849000200,1.898000244140625,-0.5431254649370908,0.11422127633318305,0.21879669937752186
1773258446859016200,1.90801611328125,-0.19926643480360506,-0.050075698028504846,0.1256320204026997
1773258446869031200,1.91803125,0.1259673898369074,-0.1351521284200251,0.20778788717240093
1773258446879047200,1.928047119140625,0.37395313962399956,-0.12795666395798325,0.2056273481376469
1773258446889062100,1.938062255859375,0.5952630639314651,-0.14498919343203306,0.12822868583239613
1773258446899078100,1.948078125,0.711855891701579,-0.13823343556150794,-0.002687339387834072
1773258446909093000,1.958093017578125,0.6969125895917415,-0.025504297482222316,-0.1456200386814773
1773258446919109000,1.968109130859375,0.4881599490404129,0.03794014681577682,-0.20616218566671013
1773258446929124000,1.9781240234375,0.19251988315284252,0.04056669592708349,-0.20506752229779956
1773258446939140000,1.98814013671875,-0.0684141955345869,-0.011081073723733424,-0.01297156364545226
1773258446949155000,1.998155029296875,-0.22727497019171713,-0.032987492844462396,0.05592354727387428
1773258446959171300,2.00817138671875,-0.36828035468459125,-0.034000761540234084,-0.09109685972481965
1773258446969186000,2.01818603515625,-0.16218436612188816,-0.1781459053635597,0.48818011504560704
1773258446979202300,2.028202392578125,-0.06350654974877834,-0.18488617340400815,0.14602525848150252
1773258446989217300,2.03821728515625,-0.05552841047644615,-0.10786284721717238,0.31101839841380713
1773258446999233300,2.0482333984375,-0.08514671914875507,0.06694704559147358,0.19707506223917007
1773258447009248300,2.058248291015625,0.04849485857784748,0.0007914426386356353,-0.015556465572118759
1773258447019263200,2.06826318359375,0.016689853516221046,-0.10753566108942031,-0.2261535649463534
1773258447029279200,2.078279296875,0.12764321409463883,-0.11086290581598877,-0.22428090294227002
1773258447039294200,2.088294189453125,0.24853110871016978,-0.23987828504666683,-0.2359577506020665
1773258447049310200,2.098310302734375,0.33158465497195716,-0.2832429411292076,-0.34549130751043555
1773258447059325200,2.1083251953125,0.4237959056794643,-0.31059111291244623,-0.33238910322263837
1773258447069341200,2.118341064453125,0.4295318189829588,-0.3760642865590751,-0.28218554103076454
1773258447079356200,2.128356201171875,0.2807996396303177,-0.5109916663125157,-0.2834456240944564
1773258447089372200,2.1383720703125,0.23158055843114853,-0.5337643468737602,-0.3482121107764542
1773258447099387100,2.14838720703125,0.3389683354824781,-0.25397826820015906,-0.07675751485750079
1773258447109403100,2.158403076171875,0.3173614838302135,-0.01946896284073591,0.2663473359078169
1773258447119418000,2.168418212890625,0.4803086510181427,0.2163140157163143,0.20279037114605306
1773258447129434000,2.17843408203125,0.861261440271139,0.45428515196740626,0.32162001805752516
1773258447139449000,2.188448974609375,1.0764765548348427,0.44628027081862087,0.6064904142580926
1773258447149465000,2.198465087890625,0.9340519511938095,0.16093275862559675,0.3812233498226851
1773258447159481900,2.20848193359375,0.5843968020021915,-0.24047654320076106,0.15477883910574017
1773258447169497900,2.218497802734375,0.3538882567167282,-0.557015750862658,0.39211825332455336
1773258447179512800,2.228512939453125,1.0454279210984707,0.20729937300309537,1.14437724788934
1773258447189528600,2.238528564453125,1.5263473974913357,1.1120035030290483,1.6359765237286685
1773258447199543800,2.248543701171875,0.1960398739725351,0.18741145409792662,0.03268544115796685
1773258447209559600,2.2585595703125,2.6299077740848062,-0.5866473574079573,-0.04977855997914448
1773258447219574800,2.26857470703125,2.1213538563132284,-1.0711575517691672,0.333708040334098
1773258447229589800,2.27858984375,-0.1927028385043144,-1.2444849509350955,1.126512943766266
1773258447239605800,2.288605712890625,-0.37988077610731125,-1.076728264573589,1.7527176739282906
1773258447249620700,2.298620849609375,-0.26711422862708567,-0.6093503337338566,1.6715860356397927
1773258447259636700,2.30863671875,-0.6437707819908857,-0.17473638918101786,1.5586029227994382
1773258447269651700,2.318651611328125,-0.7075760224252938,0.06181666043307632,1.6033900129005312
1773258447279667700,2.328667724609375,-0.6730442227482796,0.08956208790559321,1.4560012109808622
1773258447289682700,2.3386826171875,-0.5842980178028345,-0.07002933911364526,1.2205942991945893
1773258447299698700,2.34869873046875,-0.6128121646255255,-0.29160828962083907,1.1884457413922995
1773258447309713700,2.358713623046875,-0.6367044968664646,-0.31576153782028704,1.2043179218500852
1773258447319729700,2.368729736328125,-0.4860620999783277,-0.07130988044347614,1.1140331091605127
1773258447329744600,2.37874462890625,-0.4875456165343523,0.14897311196904628,0.8745574866306036
1773258447339761000,2.388760986328125,-0.6534019491672516,0.08218085508048534,0.7238570028796791
1773258447349776000,2.39877587890625,-0.7377911279469728,0.05134568143170327,0.8781003468692302
1773258447359791900,2.4087919921875,-1.0109855532705783,0.1823192089928314,1.07874289233163
1773258447369806800,2.418806884765625,-1.3827069883197545,0.2276818339595571,1.1752953871138394
1773258447379822800,2.42882275390625,-1.5892951443135737,0.2598267750326544,1.2265487506195902
1773258447389837800,2.438837890625,-1.6354823104709386,0.2631462383115664,1.2327936363585292
1773258447399853800,2.448853759765625,-1.4950667085647582,0.3061115563455969,1.0108268555775284
1773258447409868800,2.458868896484375,-1.099780858054757,0.31157946636267003,0.41848135959319765
1773258447419884800,2.468884765625,-1.0560609587937593,0.17437705434933304,-0.3444847608163953
1773258447429899800,2.478899658203125,-0.8348165009379387,-0.2008773771315813,-0.8093244784153998
1773258447439914800,2.488914794921875,-0.4043272350996732,-0.4037700396083295,-0.6725130384810268
1773258447449930800,2.4989306640625,-0.29593992561697957,-0.17890965627767144,-0.5072257013751194
1773258447459945700,2.50894580078125,-0.11018705238103865,-0.11094846520759165,-0.34928861743416634
1773258447469961700,2.518961669921875,-0.05420739100575447,-0.26749087991975246,-0.17940405219849198
1773258447479976700,2.528976806640625,-0.07777648264169693,-0.3070572396978736,-0.001042458257637918
1773258447489992700,2.53899267578125,-0.026857611787319182,-0.3856668852280825,0.0017302943913266062
1773258447500007700,2.549007568359375,0.3315834859281778,-0.5242570983380079,-0.15371267117895185
1773258447510023700,2.559023681640625,0.8119874140143394,-0.5092272869884967,-0.4622136434117332
1773258447520038700,2.56903857421875,1.1216524981230496,-0.5581062495131045,-0.7121860735040157
1773258447530054700,2.5790546875,1.3630091851592063,-0.5788898751489818,-1.155560466813296
1773258447540069600,2.589069580078125,2.011552588379383,-0.4617924588575959,-3.010224311260879
1773258447550086000,2.5990859375,2.505831312561035,-0.3071620883118361,-3.106803401789069
1773258447560100900,2.609100830078125,2.080679316097498,-0.2590368667639792,-2.2324331813588736
1773258447570116900,2.619116943359375,1.8409768260091541,-0.16744349222648888,-1.7368045038729905
1773258447580131800,2.6291318359375,1.8959288979023694,0.007248838617093861,-1.256380555912107
1773258447590147800,2.63914794921875,1.3406944774985312,0.004374415691941976,-1.1364072919234633
1773258447600162800,2.649162841796875,0.9118436265170574,0.022530419070855713,-0.8520333740029483
1773258447610178800,2.6591787109375,-0.48684945096373555,0.07110257610203698,-0.2917896740697324
1773258447620193800,2.66919384765625,-1.590842958277464,0.04625590227833017,-0.25488285235706715
1773258447630209800,2.679209716796875,-2.493770287889242,-0.11825084237651899,-0.295332534308359
1773258447640224800,2.689224853515625,-2.2261989631444212,-0.049980457493104036,-0.6398473249368369
1773258447650240800,2.69924072265625,-1.7111773106634616,0.4447700854513794,-1.1163551223672925
1773258447660255700,2.709255859375,-0.9417875138819217,1.144453235734999,-1.3416080852121115
1773258447670271700,2.719271728515625,-0.34638416469693184,1.5860631766550242,-1.3286261463031173
1773258447680286700,2.72928662109375,-0.11286124002635478,1.6419553058773277,-0.7534098451003431
1773258447690301700,2.7393017578125,0.5808201125591993,1.7436707363806665,-2.2013091442987323
1773258447700317700,2.749317626953125,1.1632552590996026,0.8216930346664041,-2.262993008664995
1773258447710332700,2.759332763671875,0.31713410481512544,0.4528334918543696,-2.2732624737448988
1773258447720348700,2.7693486328125,0.17599895646274089,0.630988311176747,-1.6491605610810218
1773258447730363600,2.77936376953125,-0.273794144782424,0.6849292332660406,-0.8460260233469307
1773258447740379600,2.789379638671875,-0.5227876103073358,0.8406629619438201,-0.3466379933275282
1773258447750394600,2.79939453125,-1.3845377108782528,1.1630468770459295,0.1718120992321521
1773258447760411000,2.809410888671875,-2.0637217515558004,0.7765847497869283,0.32696474008634685
1773258447770425900,2.81942578125,-1.886242785668373,-0.07397168353125452,0.3264673850234598
1773258447780441900,2.82944189453125,-1.3043670265763998,-0.47050691304784265,0.4720556768598035
1773258447790456800,2.839456787109375,-0.415275330093503,-0.49498489968962966,0.35905773177649825
1773258447800472800,2.849472900390625,0.2639133867591619,-0.3631158845935017,0.28247637720350177
1773258447810487800,2.85948779296875,0.5955109012126922,-0.002960164979845285,0.05774941099416464
1773258447820503800,2.86950390625,0.7375625798881054,0.03265161195360124,-0.04203380933757871
1773258447830518800,2.879518798828125,0.908828662610054,-0.13905501761008054,0.18979407491814343
1773258447840534800,2.88953466796875,1.1112205359578131,-0.18788181155603378,0.5395354410884902
1773258447850549800,2.8995498046875,1.2995038044542073,-0.14516937230452895,0.7018474156454205
1773258447860565800,2.909565673828125,1.292880002400279,-0.18128891609702258,0.6161521957684308
1773258447870580700,2.919580810546875,1.1007143395125865,-0.15567659166306255,0.5611726148137822
1773258447880596700,2.9295966796875,0.73981065107584,-0.153347089269571,0.3381119378488511
1773258447890611700,2.93961181640625,0.026346155133843422,-0.04190320522785187,0.260430366948992
1773258447900627700,2.949627685546875,-0.42933717319369313,0.3001587488884106,0.17465930535681545
1773258447910642700,2.959642578125,-0.5033890823543071,0.5103448928415775,-0.2599941674888134
1773258447920658700,2.96965869140625,-0.35005963833928105,0.8265992922127247,-0.6427000109542161
1773258447930673700,2.979673583984375,-0.2936304796308279,1.2659921416051685,-0.8332854919783771
1773258447940689700,2.989689697265625,-0.4129822507202625,1.7342331920802592,0.08888568648137152
1773258447950704600,2.99970458984375,-0.39188627119958397,1.7119292980745433,1.2252851604245603
1773258447960719600,3.0097197265625,-0.7535743880122899,1.3649514052681624,2.092172331622988
1773258447970735900,3.01973583984375,-1.0171282938092947,1.1301392445046454,2.4048498954206705
1773258447980750800,3.029750732421875,-0.9740525376707315,0.814925513292849,2.2970758955307304
1773258447990766800,3.039766845703125,-0.8255284481108188,0.5767839523782953,2.3841747716605663
1773258448000781800,3.04978173828125,-0.8876502655029296,0.6048331120377406,2.752453957301378
1773258448010797800,3.0597978515625,-0.9834364520877599,0.3714521165885031,2.7829358970656988
1773258448020812800,3.069812744140625,-0.7095867777258157,0.17522504948079584,2.468947104538977
1773258448030828800,3.079828857421875,-0.17121815192699433,0.06665551529899238,2.215246776497364
1773258448040843800,3.08984375,0.32039690600335596,0.38313101007491346,2.252397234240174
1773258448050859800,3.09985986328125,0.6767150202155113,0.9518205398574471,1.9871999451503157
1773258448060874800,3.109874755859375,0.5255132358789444,1.171472906216234,1.5315626479215918
1773258448070890800,3.119890869140625,0.013819851037859916,1.147194570332393,1.1199996163494885
1773258448080905700,3.12990576171875,-0.4495850114524364,1.4355673486307263,0.9658389091420918
1773258448090921700,3.139921630859375,-0.6045458560615777,1.6197542877241968,0.060135191885847594
1773258448100936700,3.149936767578125,-0.032439795833826064,2.189789679157734,-0.18004540057564153
1773258448110952700,3.15995263671875,0.5235761303365231,2.5112580137848854,-0.43886268803849815
1773258448120967700,3.1699677734375,0.7689742017179727,2.3568412129245697,-1.094123416814953
1773258448130983700,3.179983642578125,1.8105168058156966,2.5540058531433343,-1.4758942444525658
1773258448140998700,3.18999853515625,2.3757588254928588,2.912776036682725,-1.3601321684181689
1773258448151014700,3.2000146484375,2.118701295977831,2.8631635722517967,-1.638357281385362
1773258448161028600,3.210028564453125,1.945769910392165,3.0641946786403653,-1.5102588708691298
1773258448171044600,3.220044677734375,1.8798165520131587,3.0700211928367613,-0.9375332174383103
1773258448181059600,3.2300595703125,1.1025637667715549,2.578385092118382,-0.260104934386909
1773258448191075600,3.24007568359375,0.43679625702798364,1.9397119255274533,-0.4866778937891125
1773258448201090600,3.250090576171875,0.024811785173416135,1.6731218669049441,-0.8589595930695533
1773258448211106800,3.26010693359375,-0.2913239562541246,1.6558689726784825,-0.7184951835855842
1773258448221121800,3.270121826171875,-0.04703764550685882,2.498691669939458,-1.252937283590436
1773258448231137800,3.2801376953125,-0.10883154611885547,2.9184041056975722,-1.2999910034492612
1773258448241152800,3.29015283203125,-0.24704233145713805,2.0662834187373518,-1.6319094204202294
1773258448251168800,3.300168701171875,-0.4938444244176149,1.5985940107956527,-1.9518308178663253
1773258448261183700,3.310183837890625,-0.21107494601905344,1.5343812124736607,-1.5178963800102472
1773258448271199700,3.32019970703125,0.26312311316430564,0.639513270676881,-1.5076105483174322
1773258448281214700,3.330214599609375,0.3412000400573015,0.5889156311335042,-1.0818258069083093
1773258448291230700,3.340230712890625,0.5334171408712863,0.8575082252174615,-1.0764099193394183
1773258448301245700,3.35024560546875,1.2734493257433175,1.2925053238689899,-1.23388771520555
1773258448311261700,3.36026171875,1.228630525329709,1.7271040708526968,-0.606031710705161
1773258448321276700,3.370276611328125,0.7230296121448277,0.4368571203697473,-0.9179495421767234
1773258448331292700,3.380292724609375,-0.3315922537565231,-0.33729967161789537,-0.8833914390146732
1773258448341307600,3.3903076171875,-1.601743706998229,-0.35509171422235664,-0.6885691241383552
1773258448351323600,3.40032373046875,-2.140599824053049,-0.27904066713377834,-1.248867842194438
1773258448361338600,3.410338623046875,-2.6418179921090603,0.2591566937513649,-0.9275713570028543
1773258448371353600,3.420353515625,-2.8354864607751367,0.7017099068708718,-0.9843699335455894
1773258448381369600,3.43036962890625,-2.883308534657955,1.1875307454392314,-1.5362106198579073
1773258448391385900,3.4403857421875,-2.9770056400090454,1.7775392498433589,-1.5644833591401577
1773258448401400600,3.450400634765625,-3.285256765666604,2.333044888404012,-1.9652011715710163
1773258448411415600,3.46041552734375,-3.8137066395193338,2.920638440620899,-1.7957868541955946
1773258448421431800,3.470431884765625,-4.154605066281557,2.426997283690423,-1.652223601913452
1773258448431446800,3.48044677734375,-4.352126118722558,1.3470460384823382,-1.2230103473603724
1773258448441462800,3.490462890625,-3.664339084872603,-0.09450652203783393,-0.8603829038709402
1773258448451477800,3.500477783203125,-3.1871061880379914,-1.5101976422011851,-0.8649293151289225
1773258448461493800,3.51049365234375,-2.4914240170240403,-2.555448453167081,-0.3568640576571226
1773258448471508700,3.5205087890625,-1.9031413134992121,-2.9277883123755455,0.003167524120211601
1773258448481524700,3.530524658203125,-1.9335738611638544,-2.4509745177358386,1.4424007017821072
1773258448491539700,3.540539794921875,-2.112963629108667,-2.373577682061493,2.1655548170894385
1773258448501555700,3.5505556640625,-3.0038989076316356,-2.6172438150838016,2.788312621667981
1773258448511570700,3.56057080078125,-3.673227909249067,-3.205025583349168,3.5288621084123846
1773258448521586700,3.570586669921875,-4.007371016532183,-3.91468454952836,3.808344235703349
1773258448531601700,3.5806015625,-3.8747295557588335,-4.77336211078614,4.045137560346722
1773258448541617700,3.59061767578125,-3.6302252183467147,-5.372347702372074,4.3982887349605555
1773258448551632600,3.600632568359375,-2.619677471971512,-5.8586640693724155,4.814071722315251
1773258448561648600,3.610648681640625,-1.2691232792377471,-5.542221453952789,5.791535821995139
1773258448571663600,3.62066357421875,-0.6765560302615166,-4.674531441938877,5.90755581831336
1773258448581679600,3.6306796875,-0.128959557390213,-4.310837830522656,5.7291936398506165
1773258448591694600,3.640694580078125,0.5451256988435983,-3.8085327440127728,5.711937969145178
1773258448601710800,3.6507109375,1.3039818266510963,-3.155409319525957,5.223143813854455
1773258448611725600,3.6607255859375,2.2316484607219693,-2.5044173541098833,4.8313054734498255
1773258448621741800,3.670741943359375,3.0208214008599517,-1.6514000105708837,4.063843429860473
1773258448631756800,3.6807568359375,3.5906373043239115,-0.9766586285158991,3.455427162106335
1773258448641772800,3.690772705078125,3.9186429317653175,-0.31836160078346726,3.3890026790842414
1773258448651787800,3.700787841796875,6.522824143919348,1.2773372730925678,4.3896816501349205
1773258448661803800,3.7108037109375,6.91460227856934,2.9603260156258937,1.602467052836716
1773258448671818800,3.72081884765625,5.880305992338061,3.6396404046848416,0.7564625106692314
1773258448681834800,3.730834716796875,5.7661178876221175,3.7310607972756027,1.1423279141440987
1773258448691849700,3.740849609375,5.220221788927913,3.6098560917958613,-0.17132307360619306
1773258448701865700,3.75086572265625,5.728634836924075,3.4930116273522374,0.11202274337559938
1773258448711880700,3.760880615234375,5.528243782004714,3.6755505069777366,0.44584377909749745
1773258448721896700,3.770896728515625,4.11429585224688,3.845923147991299,1.1121920113384722
1773258448731911700,3.78091162109375,2.320038107314706,3.3307474739924072,2.0296666294798253
1773258448741927700,3.790927734375,0.46473055813610553,2.408570523378998,1.7622291602477431
1773258448751942700,3.800942626953125,-1.1345002892583609,1.6992589093327521,2.5755028146803376
1773258448761958700,3.810958740234375,-1.893911712861061,0.42878976844400163,2.3321721972227096
1773258448771973600,3.8209736328125,-1.7641472688287496,-0.4803967676930129,2.2582190722614524
1773258448781989600,3.83098974609375,-1.9944488933652638,-1.040711852362007,1.6877452894106506
1773258448792004600,3.841004638671875,-2.365437337964773,-1.3785929771296679,1.9273840666130184
1773258448802020900,3.851020751953125,-3.4211417384058236,-1.1359032879240811,1.9728677606761453
1773258448812035800,3.861035888671875,-4.40314844995141,-0.924798677419126,1.837278848274052
1773258448822051800,3.8710517578125,-4.215698709669709,-0.8593738729588687,1.80283589592427
1773258448832066800,3.88106689453125,-3.5606443171203135,-0.31044191370010377,1.5714023447483778
1773258448842082800,3.891082763671875,-3.427985320690274,-0.4065482721500098,0.7394839033395052
1773258448852097800,3.901097900390625,-2.132386122459173,-0.5889619179606438,1.2494111552909015
1773258448862113800,3.91111376953125,-1.242782384800911,0.06073050916418433,1.3429136148527263
1773258448872128800,3.921128662109375,-0.665837067848444,0.9750045776985585,0.5054518601030111
1773258448882144800,3.931144775390625,0.8147492799431085,1.2845118408970535,0.42380438124686476
1773258448892159700,3.94115966796875,2.233855615377426,2.1026349811874328,-0.38740211152285337
1773258448902175700,3.95117578125,3.3338895714104173,2.1492573238916695,-0.43793782827854155
1773258448912190700,3.961190673828125,3.5263878272533415,1.7807378997541963,-0.6752969701111317
1773258448922206700,3.971206787109375,3.7310067290008067,1.9575275682032107,-0.36520576954483985
1773258448932221700,3.9812216796875,3.5284424216955896,2.263966822133213,-0.07433043384104966
1773258448942236700,3.991236572265625,3.5541315742254254,1.2773271900899708,-0.10803484278321265
1773258448952252700,4.001252685546875,1.754216826444864,1.9447781228758394,0.3185655989229679
1773258448962267600,4.011267578125,1.2733043643146753,1.1702104850649833,0.3474246136605739
1773258448972283600,4.02128369140625,1.6717863805174826,0.10789134265929459,1.0468041778877377
1773258448982298600,4.031298583984375,2.2074796496272087,-0.3051739101693034,1.3134572187438607
1773258448992314600,4.041314697265625,2.7180700416624544,-1.3242917703606187,0.8048965789705514
1773258449002329600,4.05132958984375,2.3258166907161475,-1.2063364220656454,0.9689458621814846
1773258449012345900,4.061345947265625,2.0162246718436476,-0.9015577948242426,0.21292554232180116
1773258449022360600,4.071360595703125,1.714621313637495,-0.5380534223698079,-0.5905792900294066
1773258449032376800,4.081376953125,1.3392746738284826,-0.18906988882943987,-1.1664198606103657
1773258449042391800,4.091391845703125,0.6130512340784072,0.39889819578826424,-1.2699392717957496
1773258449052407800,4.10140771484375,-1.6219979749977587,0.2971737051956355,-2.3743197326004504
1773258449062422800,4.1114228515625,-2.7361995725929735,0.40995720381066203,-3.335210590881109
1773258449072438800,4.121438720703125,-1.8892168330430983,0.5751550725348293,-3.8474204008117314
1773258449082453800,4.131453857421875,-0.6524877569317817,0.3768921156853437,-3.213682937057316
1773258449092469800,4.1414697265625,0.3889502177476883,-0.11694675577431916,-2.7460727318316698
1773258449102484700,4.151484619140625,1.2092758365184069,-0.7786046382419765,-2.9600527516424653
1773258449112500700,4.161500732421875,0.9592623802959919,-0.9704774556629359,-1.4719570511341094
1773258449122515700,4.171515625,0.8305085746109485,-1.0545682360179722,-0.4671718138083815
1773258449132531700,4.18153173828125,1.046150974676013,-0.848388368564099,-0.3064177727505564
1773258449142546700,4.191546630859375,0.8335562717437743,-0.3275181361854076,0.15206278508007526
1773258449152562700,4.201562744140625,0.21938626276850698,0.24863486134558915,1.214299802160263
1773258449162577200,4.2115771484375,-0.1974614312082529,0.7099389521643519,1.1472849520295858
1773258449172593200,4.22159326171875,-0.3730845400959253,0.48462242256402965,0.8796782637104391
1773258449182608100,4.231608154296875,-0.2412970658034086,0.4884510409414768,1.1553291422754526
1773258449192624000,4.2416240234375,0.49661272008717056,0.6931672655835748,0.9561226209655403
1773258449202639000,4.25163916015625,0.5484036976009607,-0.04583820658922195,1.0302671768456697
1773258449212655000,4.261655029296875,0.3421767761349678,-0.2912009143963456,1.3081924300834535
1773258449222670000,4.271670166015625,0.3875508723437786,0.7231152446016669,0.6670227705016731
1773258449232686300,4.281686279296875,-0.7905109107434749,2.186734383240342,-0.5030234639123082
1773258449242701300,4.291701416015625,-2.32349906142354,4.149297023001313,-0.949017465135455
1773258449252717300,4.30171728515625,-2.249797865396738,4.365650786206126,-1.552007616187632
1773258449262732300,4.311732177734375,-1.2836731981158256,4.666485498127341,-1.7980071605935692
1773258449272748300,4.321748291015625,0.1012093806773424,4.471923587752879,-2.139592108315229
1773258449282763300,4.33176318359375,1.808548136091232,3.805578862643242,-2.1782640765368937
1773258449292779300,4.341779296875,2.523497902154922,3.081340459230542,-1.9098413956597446
1773258449302794200,4.351794189453125,2.485140406709909,2.474520520757139,-0.8969979395627975
1773258449312810200,4.361810302734375,1.3629670995831489,1.7061717574611306,-0.25813012718260286
1773258449322825200,4.3718251953125,0.035628947263956066,0.40408144364506005,0.37811025930345055
1773258449332840200,4.381840087890625,-1.0135644638478756,-0.3765665369927883,0.6745248166948556
1773258449342856200,4.391856201171875,-1.3959703745186327,-0.7150204932123422,1.2633230685263872
1773258449352871200,4.40187109375,-1.3369757492363452,-1.1868719892695545,1.7972177637815474
1773258449362887200,4.41188720703125,-1.4722773691296576,-2.093995017005503,1.9094483046889303
1773258449372902100,4.421902099609375,-1.7342296849489212,-2.7767992940068242,2.0384902796655893
1773258449382918100,4.431918212890625,-2.2311948717355725,-3.1179385437875986,2.0715210271298883
1773258449392933000,4.44193310546875,-2.7975533282220364,-3.1934839063763616,2.5109756897121667
1773258449402949000,4.45194921875,-3.021803982156515,-2.948298016440868,2.6017957783222196
1773258449412964000,4.461964111328125,-2.702484934517741,-2.871255108770728,2.1393460245996714
1773258449422980000,4.47197998046875,-2.1175620628148315,-2.8633219776839014,2.0427882691204546
1773258449432995000,4.4819951171875,-1.5595131695121527,-2.877652116331458,1.7108973246783017
1773258449443011300,4.49201123046875,-0.8459995737314224,-2.4133242937773463,1.2338345237135886
1773258449453026300,4.5020263671875,-0.4302618868231773,-1.7885604100733994,0.9961395740553736
1773258449463042300,4.512042236328125,0.21449965977072716,-1.3652175088584422,0.9615250645309686
1773258449473057300,4.522057373046875,1.2811258517205715,-1.2829209184437989,1.2005582770556211
1773258449483073300,4.5320732421875,2.1945757443904874,-1.3352683607965707,1.3623708872556686
1773258449493088300,4.542088134765625,2.887202619487047,-1.3320780403226613,1.4818088753238319
1773258449503104300,4.552104248046875,3.7962288504958153,-1.268834525424242,1.596868502177298
1773258449513119200,4.562119140625,3.614128070026636,-1.043560373660922,1.3304209207653999
1773258449523135200,4.57213525390625,1.4967933862268923,-0.36153204946815964,0.3360813818693161
1773258449533150200,4.582150146484375,0.1735363657414913,-0.24836627353727816,-0.22665450020581482
1773258449543166200,4.592166259765625,-0.4157476237803697,-0.5876601877123117,-0.49732232966125006
1773258449553181200,4.60218115234375,-0.6324649596005678,-0.7238812605381012,-0.5751821066722274
1773258449563197200,4.612197265625,-0.6577730038583278,-0.49274552326500415,-1.0649477373436094
1773258449573212200,4.622212158203125,-1.0905775609016417,-0.48764410847276446,-0.5959641979381441
1773258449583227100,4.63222705078125,-1.2343301982760428,-1.0820067164331675,-0.29816753853857514
1773258449593243100,4.6422431640625,-1.3095751166135072,-0.8859519371524452,-0.2877943208232522
1773258449603258000,4.652258056640625,-0.862072756654024,-0.1881289547175169,-0.22092969281822442
1773258449613274000,4.662274169921875,-0.14935703325271604,0.6057999477759003,-0.8649395442619919
1773258449623289000,4.6722890625,0.5165677128791809,1.0181602672055363,-1.398454008027911
1773258449633305000,4.68230517578125,0.6594470745503902,1.4498311440438032,-1.2419868505090474
1773258449643320000,4.692320068359375,0.45823301281034945,2.1389757299825547,-1.4707248789906502
1773258449653336300,4.70233642578125,0.8847504524081945,3.000761486388743,-1.5009955140918492
1773258449663351300,4.712351318359375,1.4449942254066466,4.118624821361899,-1.4596134101286529
1773258449673367300,4.7223671875,0.9903004926383495,4.2613133366361255,-1.9976257698357105
1773258449683382300,4.73238232421875,0.47813130697906014,4.107602199827134,-1.753549594707787
1773258449693398300,4.742398193359375,0.18366145391464234,3.906034502343833,-1.5869383520543574
1773258449703413200,4.752413330078125,0.4481178615093231,3.759738025705516,-1.1860124498307705
1773258449713429200,4.76242919921875,0.2808066538929939,3.231992500729859,-0.7972171303838491
1773258449723444200,4.7724443359375,-0.4059416845589876,1.4718363473638891,-0.3056093789771199
1773258449733460200,4.782460205078125,-1.0039975940793753,-0.04422580295652151,0.25784517276138064
1773258449743475200,4.79247509765625,-1.647404218932986,-1.255206982088089,0.8968941869273781
1773258449753491200,4.8024912109375,-1.920775169867277,-2.141595264831185,1.226142507906258
1773258449763506200,4.812506103515625,-1.770931229880452,-2.402764029057324,1.9415762580946088
1773258449773522200,4.822522216796875,-1.2831108880579472,-2.3137150417730212,2.128611572356522
1773258449783537200,4.832537109375,-1.50739076808691,-2.3100477514371276,1.908335375010967
1773258449793553200,4.84255322265625,-1.5741355691045522,-2.229435753108561,1.8434025918513535
1773258449803568000,4.852568115234375,-1.66360424310565,-1.7293386980369687,1.360629888807237
1773258449813583000,4.8625830078125,-1.640015277725458,-0.7935553930059075,1.0447019449114798
1773258449823599000,4.87259912109375,-1.6279495768785475,0.13141016541272402,0.6116583184152842
1773258449833614000,4.882614013671875,-1.9158692776471375,1.0090408489435911,-0.022058102551102635
1773258449843630000,4.892630126953125,-2.276435696953535,1.2656120562463997,-0.3988283454224467
1773258449853645000,4.90264501953125,-2.3707670085549353,1.4313175822317599,-0.5837734094068407
1773258449863661300,4.912661376953125,-2.1881284679472444,1.5730737850919365,-0.4181844955384731
1773258449873676300,4.92267626953125,-1.8394471322238444,1.396676769222319,-0.18682430185973642
1773258449883692300,4.9326923828125,-1.8374913219809532,1.0807979251652955,0.11199351728111505
1773258449893707300,4.942707275390625,-1.1136381184935569,0.7937585143625736,0.6701043699041008
1773258449903723300,4.95272314453125,-0.5044856454193591,0.29846184531003234,0.7608367802307009
1773258449913738200,4.96273828125,0.22928747905790806,-0.5035536252662539,0.9864578457355498
1773258449923754200,4.972754150390625,1.458520646455884,-0.962093219807744,1.5164070182353258
1773258449933769200,4.982769287109375,2.8345874661087986,-0.6592164806649089,1.4484882050022483
1773258449943785200,4.99278515625,3.750476568624377,-0.3376534534916282,0.8870344716921448
1773258449953800200,5.00280029296875,3.6410610851377245,-0.13402853121757508,0.4466662013962865
1773258449963816200,5.012816162109375,3.0365532229989767,0.13699264172017572,0.23609511324614285
1773258449973831200,5.0228310546875,3.7309295721113678,1.0567863504588604,0.032676234938204284
1773258449983847200,5.03284716796875,17.215100210118294,4.121922109341621,-1.4253037287697194
1773258449993862100,5.042862060546875,9.18358765951693,1.2166443194597958,-0.11515811879187822
1773258450003877000,5.052877197265625,4.7555660495936865,-2.22842073084712,1.1888839136138558
1773258450013893000,5.06289306640625,3.2156343633860347,-1.3965870451122522,-0.028116671937704084
1773258450023908000,5.072908203125,1.651076769965887,0.5308844075232744,0.7468830736801028
1773258450033924000,5.082924072265625,0.6202426068872213,1.5639607965707778,0.21561697336286306
1773258450043939000,5.09293896484375,0.18116320735812186,1.6340671829760074,-0.18722674518078564
1773258450053955000,5.102955078125,0.7503004809081554,1.4034703748852013,-0.5198845823422074
1773258450063970000,5.112969970703125,0.6239841315031052,2.026481861963868,-0.6219087865337729
1773258450073986300,5.122986328125,-1.8040999245107172,2.4505635988473893,-0.43633682282269
1773258450084001000,5.1330009765625,-3.3797622647911307,1.4636144624635576,0.77180474896878
1773258450094017300,5.143017333984375,-3.530007186794281,0.3439604446813464,1.400487267421186
1773258450104032300,5.1530322265625,-4.007416024717688,-0.775961868648231,0.9442746545225381
1773258450114048300,5.16304833984375,-4.2213042745918035,-2.064028625547886,0.8992121084809303
1773258450124063200,5.173063232421875,-3.590004267117381,-3.3369813999459144,1.2462757798746227
1773258450134079200,5.183079345703125,-3.1243671155303714,-4.09869642431587,1.5361378468826412
1773258450144094200,5.19309423828125,-3.2644144686460494,-4.801079846534133,0.8182458898872137
1773258450154110200,5.203110107421875,-3.5977205405831336,-4.874037238456308,0.4367804749369621
1773258450164125400,5.21312548828125,-4.148454726958275,-4.179399315798283,-0.10952829621136188
1773258450174140400,5.223140380859375,-3.7511581211477516,-2.989782119473815,-0.6937798445239662
1773258450184156400,5.233156494140625,-2.584168351694941,-1.4829180056095121,-1.5753586811587215
1773258450194171400,5.24317138671875,-0.7374971134364604,-0.050068391504883764,-2.5824092330679296
1773258450204187400,5.2531875,0.4101151708513498,1.1059943257421254,-3.7998067089825867
1773258450214202400,5.263202392578125,1.3104653434515,0.7625415383219718,-2.5122818038746715
1773258450224218400,5.27321826171875,2.626789934325218,-0.8480652740895748,-1.142275014913082
1773258450234233300,5.2832333984375,3.4224493138730523,-1.0819657999008894,0.07418371884673833
1773258450244249300,5.293249267578125,3.80060282779634,-1.1909165884852408,0.7337029818505049
1773258450254264300,5.303264404296875,3.33289588419795,-1.7632517812937496,1.0022622947193682
1773258450264280300,5.3132802734375,2.6796932569950815,-1.0969599554151297,1.8704776457816361
1773258450274295300,5.32329541015625,2.180311072194576,0.9636655836910009,2.2093545035883784
1773258450284311600,5.3333115234375,1.7633026346981524,3.05047828797698,1.4154057273507117
1773258450294326500,5.343326416015625,0.9556845218092203,2.8584733686089514,0.5913526124894619
1773258450304342500,5.353342529296875,0.1401005446076393,1.90564423623085,0.7638643113583325
1773258450314357500,5.363357421875,0.07292495095729827,1.6994155611991881,1.413987969507277
1773258450324373500,5.37337353515625,-0.48057870013117787,1.610057946357131,1.1765946331441401
1773258450334388500,5.383388427734375,-1.1567910315215586,1.530005919998884,1.2360109909698367
1773258450344403500,5.393403564453125,-1.3056307629019022,1.504160700124502,0.6492988977625965
1773258450354419500,5.40341943359375,-1.2872294292926787,1.2603069355756045,0.4606327674284577
1773258450364434400,5.413434326171875,-1.6693600301533937,0.7614531585633755,0.12752514067292212
1773258450374450400,5.423450439453125,-1.9330910460829733,0.3962532342374325,-0.45860652229785914
1773258450384465400,5.43346533203125,-1.628060636037588,0.061034606677293775,-0.6604343320220708
1773258450394481400,5.4434814453125,-1.40986972053349,-0.20779285560846328,-0.6468515046104788
1773258450404496400,5.453496337890625,-0.8012748813420534,-0.009139584267139435,-0.8014367939054966
1773258450414512400,5.463512451171875,0.2264443645864725,0.6716402011692524,-1.0464499576225876
1773258450424527400,5.47352734375,0.21607143913209437,1.171611584034562,-1.4756743180915712
1773258450434543400,5.48354345703125,0.5992752221822738,1.407975285089016,-1.3220555357411503
1773258450444558300,5.493558349609375,0.897237593537569,1.3206734337329864,-1.1564990628376604
1773258450454574300,5.50357421875,1.4009803116351365,1.0145330166190862,-0.46446781554669136
1773258450464589300,5.51358935546875,2.5341075589746236,0.15198971984386442,0.037241058635711664
1773258450474605300,5.523605224609375,2.205579953485727,-0.7499369082927704,0.16186375586539506
1773258450484620300,5.533620361328125,2.318462236300111,-0.9462994383484125,0.5928738307073712
1773258450494636500,5.543636474609375,1.447022516363859,-0.9258160377681255,0.8232423830002545
1773258450504651500,5.553651611328125,0.10218903936445713,-1.0888497141957283,1.0340244835525751
1773258450514666200,5.563666259765625,-0.9771201085478067,-1.274990709966421,1.227446283981204
1773258450524682500,5.5736826171875,-2.0853841327875853,-1.2899790202617645,1.4202631042540073
1773258450534697500,5.583697509765625,-2.3556208773493768,-0.8681050225555896,1.6565417573735117
1773258450544713500,5.59371337890625,-2.1803718624711035,-0.8527765205204486,1.008835681760311
1773258450554728400,5.603728515625,-1.8423942915916443,-0.5216144748747349,1.1619251795396208
1773258450564744400,5.613744384765625,-1.600357805597782,-0.3860498201310634,0.829454097121954
1773258450574759400,5.623759521484375,-1.309350075685978,-0.3255319308042526,0.07385872467607259
1773258450584775400,5.633775390625,-1.2109469846010208,-0.14117431131899355,-0.23820786761641502
1773258450594790400,5.643790283203125,-1.4527759653240442,0.09760872583687305,-0.9143474260315299
1773258450604806400,5.653806396484375,-1.931969348576665,0.2539776836782694,-1.1486942343056201
1773258450614821400,5.6638212890625,-2.810276616194844,0.12064531803131102,-1.1700056101426481
1773258450624837400,5.67383740234375,-3.252777222344279,-0.16374270147979259,-1.2899375192075968
1773258450634852400,5.683852294921875,-3.4920693780660628,-0.3666588909626007,-0.600733312036097
1773258450644868400,5.693868408203125,-3.1314900992780923,-0.7116565697371959,-0.14697393750846385
1773258450654883300,5.70388330078125,-1.5239619636595247,-1.365137429359555,-0.0976907050319016
1773258450664898300,5.713898193359375,0.7348264329224824,-1.7080682387322186,0.09944777783229947
1773258450674914300,5.723914306640625,16.334473559641836,0.6407102253764867,-4.087715303835273
1773258450684929300,5.73392919921875,14.419191726493835,-0.7157745264500379,-0.8284165707677602
1773258450694945300,5.7439453125,1.6068226176977156,-2.462604165253043,1.7247905332133173
1773258450704960300,5.753960205078125,3.3389977082043885,0.288253462767601,0.5917725914672016
1773258450714976500,5.7639765625,0.9952654215693473,0.8624673089295625,0.56046691422984
1773258450724991200,5.7739912109375,-0.5821171666324139,2.0364842005401846,1.1597151022747159
1773258450735007500,5.784007568359375,0.6705506523668766,3.1191327220082283,1.28113301211372
1773258450745022500,5.7940224609375,3.1616192800819873,2.5152520518571135,0.5021225695498287
1773258450755038500,5.80403857421875,2.274546522206068,1.9317057292044162,0.3517584050811827
1773258450765053400,5.814053466796875,-0.1382177996009588,2.506272042065859,-0.647781040545553
1773258450775069400,5.8240693359375,-1.280035718396306,2.561239311528206,-0.3835172329135239
1773258450785084400,5.83408447265625,-2.1086007577240466,1.7821429442465304,0.18605331748723983
1773258450795100400,5.844100341796875,-3.8157074579477306,0.5098176540970802,0.6941872562810778
1773258450805115400,5.854115478515625,-3.8563966112107035,-0.6005687691241502,1.2449948001533746
1773258450815130400,5.86413037109375,-3.5691894426256416,-1.1702397111594676,1.2126795074820518
1773258450825146400,5.874146484375,-5.038292857894301,-0.9993646735817193,1.3297031278848648
1773258450835161300,5.884161376953125,-6.367386913970113,-0.9339309551626443,0.5275891653701663
1773258450845177300,5.89417724609375,-5.032355284538864,-2.0546330206930636,-1.0094967760175466
1773258450855192300,5.9041923828125,-3.344301075309515,-3.3875720617592333,0.29593904883414507
1773258450865208300,5.914208251953125,-0.7814069823116063,-3.3525223756879567,1.2635387571036816
1773258450875223300,5.924223388671875,2.2408342222183943,-3.0785172185033556,0.27051863024309275
1773258450885239300,5.9342392578125,4.670220008480548,-2.9890929681658744,-1.058579079094529
1773258450895254300,5.944254150390625,4.422191588595509,-2.106322875919938,-2.187300931081921
1773258450905270300,5.954270263671875,4.312935679584742,-1.211378946277499,-2.59254455037415
1773258450915285200,5.96428515625,3.885611015257239,-1.2749141375988722,-1.8697770962968467
1773258450925301200,5.97430126953125,3.480751865237951,-1.7511843268811702,-0.6534365820892155
1773258450935316200,5.984316162109375,3.9346091471821065,-1.4071557853996752,0.4095185201324522
1773258450945332500,5.99433251953125,2.904140894806385,2.11894504160583,1.2967524599194526
1773258450955347500,6.004347412109375,1.934768623906374,3.8993087012201544,0.5388324439182878
1773258450965362400,6.014362548828125,1.276971654650569,2.8570781148582696,0.6789148683473467
1773258450975378400,6.02437841796875,1.2973907578229904,2.169589771693945,1.3310966280698775
1773258450985393400,6.034393310546875,1.173846211218834,2.021166219899058,1.2862006707668303
1773258450995409400,6.044409423828125,-0.2026116535782814,1.5542384439796209,1.101321365495026
1773258451005424400,6.05442431640625,-1.991138161382079,0.8385527648568153,0.704023006118834
1773258451015440400,6.0644404296875,-2.4575492199510336,0.5627180541574954,-0.038231677108258005
1773258451025455400,6.074455322265625,-2.4870348421543835,0.3821440448641777,-0.7245552142769098
1773258451035471400,6.084471435546875,-2.464691492921114,0.26143735203444957,-0.7309281103096902
1773258451045486300,6.094486328125,-1.6045014812737703,-0.2213824050217867,-0.4021661115430295
1773258451055502300,6.10450244140625,-0.6363450159043074,-0.8371803074598312,0.006697744072973728
1773258451065517300,6.114517333984375,0.1531716231048107,-1.2226093653440475,0.8370463058166205
1773258451075533300,6.124533203125,0.9427589892625808,-1.1140654039949178,1.5344251977458596
1773258451085548300,6.13454833984375,1.7982418461322784,-0.7283306411623954,1.9646182571165263
1773258451095563500,6.1445634765625,2.2854238900512454,-0.30021628776192666,1.3388415431082248
1773258451105579300,6.154579345703125,1.6215654287993908,0.9078162706971168,-0.2398043430276215
1773258451115594500,6.164594482421875,0.1793313157558441,1.9670511833518742,-1.2335635978177188
1773258451125610200,6.1746103515625,-0.5463678078591824,1.3115753505200147,-1.6889051269702613
1773258451135625500,6.18462548828125,-0.46278994546234603,0.19178981531262396,-1.6919992935933172
1773258451145641200,6.19464111328125,-0.7986223210066556,-0.5230383701980114,-1.1163763112857936
1773258451155656400,6.204656494140625,-1.3160551262825726,-0.6619236937969922,-0.9842012989804149
1773258451165672000,6.214671875,-1.0850286946028471,-0.14870996752083301,-1.2903233036547899
1773258451175687200,6.224687255859375,-1.7933721942692995,-0.12251286546885967,-1.9053420384138822
1773258451185703200,6.234703125,-1.3609464074105024,0.2540682845711708,-0.6474852724693715
1773258451195718400,6.244718505859375,-0.7526841611742973,-0.8945721737205982,1.508187471422553
1773258451205734100,6.254734130859375,1.1461854663550852,-1.851232847085595,1.68441731403172
1773258451215749400,6.264749267578125,2.5889281134426594,-1.4746581267863512,1.1253056138031183
1773258451225764400,6.274764404296875,0.21886019306778906,-1.1141086586147546,0.599058656822145
1773258451235780400,6.2847802734375,-1.2247837867736815,-1.195159048360586,1.5175444978326558
1773258451245795300,6.29479541015625,-1.3039233744621277,-1.6041221265673637,1.4715024392344056
1773258451255811300,6.304811279296875,-2.4785738878011703,-0.7929863609462976,0.29235446834564205
1773258451265826300,6.314826416015625,-2.6011054579704997,-0.27722704184055325,0.10055135516002774
1773258451275842300,6.32484228515625,-1.4233423655688762,-0.28261399557590483,-0.6726053929395973
1773258451285857300,6.334857177734375,-0.3569242634117603,0.08830313735306262,-1.2348045377895236
1773258451295873300,6.344873291015625,-0.2530500474393368,-0.12196516845822333,-1.513421426553279
1773258451305888300,6.35488818359375,-0.133195003002882,-0.512688241097331,-1.7253794390171766
1773258451315904300,6.364904296875,1.135339078170061,-0.3311865955650806,-1.9925074039086699
1773258451325919200,6.374919189453125,0.6238654735594987,0.7915934452831744,-0.581464986333996
1773258451335935200,6.384935302734375,0.14166355614066123,1.7107547013372182,-0.20909107872545718
1773258451345950200,6.3949501953125,0.5689747764647006,2.327758472433686,-1.9047262446030973
1773258451355966200,6.40496630859375,3.346115431255102,3.6125568751871584,-1.547752735222131
1773258451365981200,6.414981201171875,3.7349925837665796,2.2560446508318184,-0.9251242561116814
1773258451375996200,6.42499609375,0.3971516443818807,-0.519887212690711,0.9946072499215602
1773258451386012200,6.43501220703125,0.5721200887531042,-0.431993240660429,1.1704784883514046
1773258451396027100,6.445027099609375,-0.7675076362967491,-0.18604221157133577,-0.6045736208513379
1773258451406043400,6.45504345703125,-2.630508662587404,0.8437363049745559,-0.7856956194162368
1773258451416058000,6.46505810546875,-0.6190542738854885,0.8738169704616069,0.39384339661672707
1773258451426074400,6.475074462890625,-0.4369985016018152,0.3898375219762325,-0.8534609956532716
1773258451436089300,6.48508935546875,0.07775076367855072,0.03634089492559433,-0.5633803174585104
1773258451446105300,6.495105224609375,-1.1041799697965382,1.0648732108026742,-0.2805371893018484
1773258451456120300,6.505120361328125,-0.16045535037219524,-0.9732587569445371,-0.5561641024693846
1773258451466136300,6.51513623046875,-0.23014497267007827,-0.6325918008506297,1.0674299095481634
1773258451476151300,6.5251513671875,0.08495499596893787,-1.1732868237704037,0.8288277819171548
1773258451486167300,6.535167236328125,-0.28271336429715155,-1.1072814429432154,1.3461530351653694
1773258451496182300,6.545182373046875,0.17794775244295596,-1.358080496585369,1.3254583299219607
1773258451506198300,6.5551982421875,0.6999754842936993,-0.4623047922939062,1.3804516106083988
1773258451516213200,6.565213134765625,1.3140987315177917,-0.0443850851714611,0.4330068016171455
1773258451526228200,6.575228271484375,1.2808733382642268,-0.09950374580323695,-0.00699000501781702
1773258451536244200,6.585244140625,1.6480150443077086,0.08901333144903183,0.08118103038817644
1773258451546259200,6.59525927734375,1.7762351815074682,0.5083060804903506,0.030538638387620446
1773258451556275200,6.605275146484375,1.3746411707639694,0.787588301295042,0.01886193685829639
1773258451566290200,6.615290283203125,1.1892255666583775,0.815664056700468,-0.055306292158365244
1773258451576306200,6.62530615234375,1.7531565037369727,0.6793009450554848,-0.32244565522670743
1773258451586321200,6.635321044921875,1.963884828275442,0.6558896743297576,-0.5737222632527351
1773258451596337200,6.645337158203125,1.3776573037147521,0.8629828572362661,-0.7418123462870717
1773258451606352100,6.65535205078125,0.5344114126056433,1.1271095944851637,-0.831044873444736
1773258451616368400,6.665368408203125,0.2328057163119316,1.1361387041151523,-0.7560624054357409
1773258451626383000,6.675383056640625,-0.15748481012880802,1.0441454800724983,-0.7076631161868572
1773258451636399400,6.6853994140625,-0.510146155399084,0.5896119063019752,-0.5192448231339455
1773258451646414300,6.695414306640625,-0.7368798583209514,0.265519068390131,-0.2859182978183031
1773258451656429300,6.70542919921875,-1.2519698998630047,-0.11936813770234585,0.09610387423187494
1773258451666445300,6.7154453125,-0.48459670360088347,-0.4294067312985658,0.2615665313720703
1773258451676460300,6.725460205078125,-0.4328372902691364,-0.62949558840096,0.9198924929380417
1773258451686476300,6.735476318359375,-2.963181112796068,0.04257949705421924,0.34380496185868975
1773258451696491300,6.7454912109375,-2.875426841497421,-0.6218330909490585,0.06361117916703224
1773258451706507300,6.75550732421875,-2.5811224081277846,-0.7115688914537429,0.7250687167569995
1773258451716522200,6.765522216796875,-2.161642612081766,-0.35765374673008915,0.5165528075709939
1773258451726538200,6.775538330078125,-1.6607722345501184,-0.4142378037393093,0.2572650347858667
1773258451736553200,6.78555322265625,-1.262239949464798,-0.33535540568232536,0.3638715983316302
1773258451746569200,6.7955693359375,-0.6796867295026778,-0.039732290929555894,0.20010814632475374
1773258451756584200,6.805584228515625,-0.5335393059462309,0.16639000111818314,-0.01373772571235895
1773258451766600200,6.81560009765625,-0.8640285668969154,0.4228033875107765,-0.1828679654493928
1773258451776615200,6.825615234375,-0.9361895477443933,0.5531611212611198,-0.3615647826939821
1773258451786630100,6.835630126953125,-0.8877274223923682,0.6763374190747737,-0.2680781052231789
1773258451796646100,6.845646240234375,-0.7278899116575718,0.6664233433037996,-0.07959142310917378
1773258451806661000,6.8556611328125,-0.3094154932618141,0.5080833776503801,0.19694675968438385
1773258451816677000,6.865677001953125,0.14797171637415885,0.16690204229354857,0.2799389311477542
1773258451826692000,6.875692138671875,0.37098376842439174,-0.047344519498944276,0.31847265994250773
1773258451836708000,6.8857080078125,0.3726443951129913,-0.2573217334091663,0.16798808396458625
1773258451846723000,6.89572314453125,1.3501783451586962,-0.5792617772012949,-0.10035422515273093
1773258451856739300,6.9057392578125,2.5472926192402836,-0.7276105101943016,-0.19117665185034274
1773258451866754300,6.91575439453125,1.5901204892218113,-0.14780045146048068,0.15624474693983792
1773258451876770300,6.925770263671875,0.26330548399388787,0.05715221228599548,-0.3196720988601446
1773258451886785300,6.935785400390625,0.2632189747542143,0.48292438647449015,-0.39527094520181416
1773258451896801300,6.94580126953125,0.29144962846040723,1.2787626297205685,-0.6557113951534033
1773258451906816300,6.955816162109375,1.548706528815627,0.3813952723234892,0.8933169129624963
1773258451916831200,6.965831298828125,2.4856699835419653,-0.8281406764358281,2.0604823312431573
1773258451926847200,6.97584716796875,-0.006593406915664672,2.217895245179534,-1.3125526711195707
1773258451936862200,6.9858623046875,1.339057816207409,2.281735556927323,-0.5657838714689016
1773258451946878200,6.995878173828125,0.8611714239001274,1.5930314082324504,-0.9082704442054033
1773258451956893200,7.00589306640625,-0.08545417766273021,1.5820687001913785,-0.4913029232412576
1773258451966909200,7.0159091796875,-0.8426602001756429,1.17555067704916,-0.8526476334437727
1773258451976924200,7.025924072265625,-0.9727402860283851,0.6289291866898536,-0.24340777434706687
1773258451986940200,7.035940185546875,-0.271593419867754,-0.14505319857895374,0.20947686317265032
1773258451996955100,7.045955078125,0.24420506220459937,-1.055643610164523,0.7837336716935038
1773258452006971100,7.05597119140625,-0.20212474684417248,-1.5851631590753792,0.9313269101440906
1773258452016986000,7.065986083984375,-1.1584189249843357,-1.4771248091608284,0.9482651854634284
1773258452027002000,7.076002197265625,-1.41447633754611,-1.3041723807871342,0.9090613023221492
1773258452037017000,7.08601708984375,-0.31023791556060315,-1.5371517001003026,0.7763195960447192
1773258452047032000,7.096031982421875,0.5163596230864524,-1.5699614982903003,0.2578045484900474
1773258452057048000,7.106048095703125,1.219506723153591,-1.057564933615923,-0.42334640834629533
1773258452067063000,7.11606298828125,1.208186287716031,-0.36682957135438915,-1.040469714169204
1773258452077079300,7.126079345703125,0.7582470559984446,-0.02463525956273079,-1.290114337079227
1773258452087094000,7.136093994140625,0.05227437711656093,0.5411410131216049,-1.460680454838276
1773258452097110300,7.1461103515625,-1.9407623113632202,2.2099194439947603,-1.8589321694165468
1773258452107125200,7.156125244140625,-7.4112722818017005,4.88661351917386,-4.099683974048495
1773258452117141200,7.166141357421875,-0.8999234716206789,2.1823855403810737,0.1364887838512659
1773258452127156200,7.17615625,0.46856735982000824,-0.4543254839777946,-1.9008447269946336
1773258452137172200,7.186172119140625,0.48028527014255523,-0.8042582810670137,0.1467772458925843
1773258452147187200,7.196187255859375,0.5867582704365253,-1.9032155477792023,1.918100689961016
1773258452157203200,7.206203125,0.4761848490864038,-2.9128397495687004,1.7005401813149452
1773258452167218200,7.21621826171875,0.5158633640021085,-2.1451532495737076,2.559188808739185
1773258452177233200,7.226233154296875,0.5446960752546787,-1.2798334738224744,2.134698783315718
1773258452187249200,7.236249267578125,0.35157588812112806,-1.0227993251830338,1.2224997674897313
1773258452197264100,7.24626416015625,0.06482815374135971,-0.6151777247130871,0.610022826167941
1773258452207280000,7.256280029296875,-0.3931827407509088,0.21692893274426459,-0.046181028677523134
1773258452217295000,7.266295166015625,-0.8132359527707099,1.028852633872628,-0.47615065455585714
1773258452227311000,7.27631103515625,-1.5027052406191825,1.4655354936540126,-0.42327977285087104
1773258452237326000,7.286326171875,-2.401676526081562,1.1650047331154345,-0.19035978250950575
1773258452247342000,7.296342041015625,-3.023046091172099,0.5482423695594072,0.679227587558329
1773258452257357000,7.306357177734375,-2.750820218619704,0.04646422953307628,0.8036644068270922
1773258452267373000,7.316373046875,-2.5408009191334244,-0.6129284844815731,0.4871145316407084
1773258452277388000,7.326387939453125,-2.7438158928155896,-1.1109294440567492,1.2218038941800593
1773258452287404300,7.336404296875,-2.6733324897915125,-1.2775678669780492,1.604007560276985
1773258452297419000,7.3464189453125,-2.9130975237220524,-1.4151064521431922,0.5813964511424303
1773258452307434000,7.35643408203125,0.4631342288553714,-1.4812053564727305,-0.1702311867162585
1773258452317450200,7.3664501953125,1.748258210301399,-0.900064925917983,-1.5906810457140206
1773258452327465200,7.37646533203125,0.5575321759521961,-0.14225509229302405,-0.5832715973645448
1773258452337481200,7.386481201171875,3.9257133085429667,0.9695645786017179,-0.7520712899729609
1773258452347496200,7.39649609375,1.1769254725337028,-0.7221136663436889,0.30027707803845405
1773258452357512200,7.40651220703125,2.3713334102660415,-0.5226742130607366,1.586639076846838
1773258452367527200,7.416527099609375,3.8429362411350008,-1.4153168800234794,2.061161253418028
1773258452377543200,7.426543212890625,5.2868286427795885,-0.9512895017206668,1.654568849865347
1773258452387558100,7.43655810546875,5.529736066389083,0.21205051305294034,0.6522095245122909
1773258452397574100,7.44657421875,4.584745957073569,0.7566840444654226,-0.3279804930001497
1773258452407589000,7.456589111328125,3.4866982064217327,1.1999638182938097,-1.1484985656030475
1773258452417605000,7.466605224609375,2.462622869953513,1.1364999386429786,-1.6518220353752373
1773258452427620000,7.4766201171875,2.4204759190976617,0.7094757185667753,-2.0450201198257503
1773258452437635000,7.486635009765625,2.1745131995707747,0.08631634745001793,-1.791226122151315
1773258452447651000,7.496651123046875,0.9807131646037102,-0.5687263546615838,-1.564850146625936
1773258452457666000,7.506666015625,0.00594341857433319,-1.148942656108737,-1.1795458841651678
1773258452467682000,7.51668212890625,-0.3538110998272896,-1.4682634573131799,-0.4039706767469644
1773258452477697000,7.526697021484375,-0.3459323292762041,-1.6409604496210812,0.2201417573109269
1773258452487713000,7.536713134765625,-0.3986649715542793,-1.6350199536561965,0.3485983336150646
1773258452497728000,7.54672802734375,-0.7181985387265681,-1.5854630188047885,0.4444400497794151
1773258452507744000,7.556743896484375,-1.1122978098005056,-1.4990326895862818,0.18723843561857936
1773258452517759000,7.566759033203125,-1.4139175346195696,-1.2724807729721068,0.7182122749909758
1773258452527775200,7.576775146484375,-1.0402993260383606,-0.458062332418561,2.0078329833343624
1773258452537790200,7.586790283203125,-1.1706348479568958,-0.35819852113127704,1.5970739616215228
1773258452547805200,7.59680517578125,-2.117774244260788,0.4630576564878225,1.717664919117093
1773258452557821200,7.6068212890625,-2.338314937761426,1.4134399802356958,1.9724878214478492
1773258452567836200,7.616836181640625,-1.8116648068070411,1.2841215264052153,1.89470637037009
1773258452577852200,7.62685205078125,-0.1895803225696087,1.2677028910458088,1.9909937844753265
1773258452587867100,7.6368671875,0.636492899942398,1.6312836897373197,1.1881722582131624
1773258452597883100,7.646883056640625,0.175718970477581,1.0017325717568397,0.9470879583775996
1773258452607898000,7.656898193359375,0.4337397920668125,0.9025111500263213,-0.03564122222363949
1773258452617914000,7.6669140625,2.180091876485944,1.9765262831836938,-1.0127163225859404
1773258452627929000,7.67692919921875,3.53327291059196,3.4622277820318934,-1.2097948919564485
1773258452637945000,7.686945068359375,2.6938532997727394,3.5098990492671724,-3.148522190360725
1773258452647960000,7.6969599609375,1.360115217283368,2.866989268019795,-2.79109377681911
1773258452657976000,7.70697607421875,1.4918641131311654,3.1450650356441736,-2.4057509359136224
1773258452667991000,7.716990966796875,1.054850998482108,2.2379969529658554,-3.125055682316422
1773258452678006300,7.72700634765625,0.7653963432312011,1.0419143600195646,-1.6507397930964827
1773258452688022000,7.73702197265625,0.43914545050263404,0.18074878133833408,-1.4486813894867896
1773258452698037200,7.747037353515625,-0.41791736903488635,-0.531617982494831,-0.7692652936190366
1773258452708053000,7.757052978515625,-0.955011737114191,-1.5266168620824814,0.1534828810110688
1773258452718068200,7.767068115234375,-1.8160200794070958,-2.9448510908573864,1.181190728762746
1773258452728084000,7.777083984375,-0.8164671897768974,-3.589843523597717,1.8695877112045882
1773258452738099200,7.78709912109375,0.36665304574370383,-2.8054934735715387,1.4688289822414518
1773258452748115200,7.797115234375,-0.0917336963236332,-2.1546014613986015,0.9261442468091845
1773258452758130200,7.807130126953125,-1.5337047745168209,-1.6198966188043356,0.3973062504217028
1773258452768146200,7.817146240234375,-0.7733686372846365,-0.557901593786478,0.5034875742927193
1773258452778161400,7.827161376953125,-0.7384288413286209,-0.10057283633947371,-0.33350217903107404
1773258452788177200,7.83717724609375,-1.3938883075475692,0.2035918967872858,-0.23602818548977372
1773258452798192400,7.8471923828125,-1.6859920160025357,0.7387427295833826,-0.24541823738664387
1773258452808207400,7.857207275390625,-2.0025807618945834,0.7240934419840573,-0.4081912170514464
1773258452818223400,7.867223388671875,-0.47836686930060385,-0.2074082402050495,0.962359761789441
1773258452828238300,7.87723828125,0.5273930582761764,-2.167836206024885,0.7174702244520187
1773258452838254300,7.88725439453125,1.4175170204162597,-0.4483581000059843,0.42510377340763805
1773258452848269300,7.897269287109375,1.8749100752711294,0.5170277316063642,-0.2551873517289758
1773258452858285300,7.907285400390625,1.3552666082084177,-0.00815466488301754,-0.5192611897468566
1773258452868300300,7.91730029296875,0.8359995732426643,1.1205150185257196,-1.698977754303813
1773258452878316300,7.92731640625,0.16123802518248556,1.2181114694029092,-1.5278201003924012
1773258452888331300,7.937331298828125,0.5424322219759226,0.7466302679628133,-1.1668269801065325
1773258452898347300,7.94734716796875,0.6315536899745464,1.121210015052557,-1.2962448026582598
1773258452908362200,7.9573623046875,0.17266016742885112,1.0483300722807645,-0.8288610996648669
1773258452918377200,7.967377197265625,0.3174935857772827,0.6358949340492487,-0.6416562740549445
1773258452928393200,7.977393310546875,0.444143697181344,0.5207558122187853,-0.48817806921899315
1773258452938408200,7.987408203125,-0.13333528825640678,0.5954027646631002,-0.3885401756420731
1773258452948424200,7.997424072265625,-0.43943654240369795,0.4693190549701452,-0.15011515814363954
1773258452958439200,8.007439208984374,-0.6343716700047254,0.3125894471228122,-0.10923983465880155
1773258452968455200,8.017455078125,-0.8736147258877753,0.4487555748909712,-0.16084376516789198
1773258452978470100,8.02747021484375,-0.930458895137906,0.7500561507582664,-0.28887422501444815
1773258452988486400,8.037486328125,-0.7441103940963745,0.7032540675729513,-0.31529870608150956
1773258452998501400,8.04750146484375,-0.8162427333712577,0.6561287437826394,-0.1788938011214137
1773258453008517400,8.057517333984375,-1.0750362928986548,0.5508972679823637,0.362393050211668
1773258453018532400,8.067532470703124,-0.9724415953427552,0.31772739453315735,0.8116226723551749
1773258453028548400,8.07754833984375,-1.2587965310126543,-0.2935778726607561,1.2275067819967864
1773258453038563300,8.087563232421875,-1.8536492605775594,-0.9110288030028343,1.8944620402202008
1773258453048578300,8.097578369140624,-2.3136375926226376,-1.233307869490981,2.233080247090757
1773258453058594300,8.10759423828125,-2.6078572703182696,-1.3307996909499167,2.2177669426247477
1773258453068609300,8.117609375,-2.7158751619666814,-1.2984744614064692,2.359380522143841
1773258453078625300,8.127625244140624,-2.104411489340663,-1.294122111415863,1.7672750454604624
1773258453088640300,8.13764013671875,-1.8972259519755839,-1.2867355082958936,0.6282023337200283
1773258453098656300,8.14765625,-1.6950900992155074,-0.7711065375715493,-0.04148381077200174
1773258453108671200,8.157671142578126,-1.7691805868208408,-0.22437048092186448,-0.7856018036529422
1773258453118687200,8.167687255859375,2.708499664762616,2.804569928985834,-3.9599323890089986
1773258453128702200,8.1777021484375,2.830651295703649,1.38743401684165,-1.7089280704319476
1773258453138718200,8.18771826171875,2.8225696960568425,-0.6380097342461347,-2.042664058218896
1773258453148733200,8.197733154296875,5.055370833945274,-1.5839181274503469,0.6266930982008576
1773258453158749200,8.207749267578125,2.7873861544728276,-0.8175579076230526,-0.11286153228729963
1773258453168764700,8.2177646484375,0.5509773474812507,-0.0954886649429798,-0.4030649600788951
1773258453178779600,8.227779541015625,0.5535615187555551,0.9719453362584114,-0.7021575045078993
1773258453188795600,8.237795654296875,1.0748322947591542,1.0350836372166872,-1.4614526082545518
1773258453198810600,8.247810546875,0.7613473601013422,0.06852174756228924,-0.742147569590807
1773258453208826600,8.25782666015625,1.255902563136816,-0.0384422511190176,0.1252571957409382
1773258453218841600,8.267841552734374,2.0605904677927493,-0.045330841588974,-0.35718729826211926
1773258453228857600,8.277857666015626,1.8810820419043301,-0.14019348358809947,-0.4741878300502896
1773258453238872600,8.28787255859375,1.3207424073159695,-0.5741828665018082,0.1135141509771347
1773258453248888600,8.297888671875,-0.19323592246770857,-0.6805839706033467,0.3165215258747339
1773258453258903600,8.307903564453126,-1.8189555483371018,-0.7116694292187691,0.5832429557919502
1773258453268919600,8.31791943359375,-1.084676227903366,-0.2032306622594595,0.417707233415544
1773258453278934500,8.3279345703125,-0.6708662941873074,-0.4159364243507385,0.9954755571886896
1773258453288949500,8.337949462890625,-0.004994739547371864,-0.35058395447432994,0.758281542789936
1773258453298965500,8.347965576171875,0.4013461734622717,0.1630441978216171,0.6300301336690783
1773258453308980500,8.35798046875,0.435633642989397,-0.21809446939229965,0.7194722119241952
1773258453318996700,8.367996826171876,0.42357670997083186,-0.41966742757260794,0.5782493852883577
1773258453329011500,8.378011474609375,-0.11055004047453403,-0.6911532954126596,0.5646259336054325
1773258453339027700,8.38802783203125,-0.21480536471903322,-0.749163585832715,0.7927335552290081
1773258453349042700,8.398042724609375,-1.0008452675282955,-0.5505184977978468,0.8030129571810364
1773258453359058700,8.40805859375,-2.3439988286167384,-0.9824614695757626,1.3125494562491773
1773258453369073700,8.41807373046875,-2.565155023667216,-1.2762883485615253,1.6847595515981315
1773258453379089700,8.428089599609375,-1.455411574524641,-1.4599913035303353,2.0004621623054146
1773258453389104600,8.438104736328125,-0.2739303383827209,-0.3133025638282299,1.4827520013928412
1773258453399119600,8.44811962890625,0.06551379791796207,-0.6709189011573791,1.2003300212576984
1773258453409135600,8.458135498046875,-0.16583236723542213,0.44919688891768456,1.2447528080910444
1773258453419150600,8.468150634765625,-1.63208565376997,2.0213392383784052,0.92729955432415
1773258453429166600,8.47816650390625,-4.112890077102184,3.1618560114473104,1.3441165609017014
1773258453439181600,8.488181640625,-1.5420909100681544,5.001334123331308,-1.9892074855804442
1773258453449197600,8.498197509765625,1.5219360107898712,2.312667286285758,-2.117726897987723
1773258453459212500,8.508212646484376,-0.5868494558513164,1.4186889868050814,-1.3910647745594382
1773258453469228500,8.518228515625,0.4842798927366733,0.5342138442069292,-0.21607640756815671
1773258453479243500,8.528243408203124,1.4728314958810806,-0.5649561884731054,-1.441038181257248
1773258453489259500,8.538259521484376,1.6092992369443178,-1.5595874037921427,-1.0653694698870182
1773258453499274500,8.5482744140625,2.1177473562538625,-2.0669442207336424,-0.6010908933021127
1773258453509289500,8.55828955078125,1.9664999792098998,-2.0910101559758183,-0.31844036510810253
1773258453519305500,8.568305419921876,1.4534393976688385,-1.7109020008534193,0.24746859404519198
1773258453529320400,8.578320556640625,1.052506481182575,-1.1990858664155006,0.609719897698611
1773258453539336400,8.58833642578125,0.37381460793614385,-0.7837596829175949,1.3418746271938085
1773258453549351400,8.598351318359375,-0.3460451420009136,-0.20622458337843416,2.2186209291055796
1773258453559367700,8.60836767578125,-1.0416203455090522,0.06441314319968224,2.695658887889981
1773258453569382700,8.618382568359374,-0.03833528361320496,0.016512158861756325,3.742978906345367
1773258453579398700,8.628398681640626,0.6515332326859236,-0.3605646657407284,3.8374227384105324
1773258453589413600,8.63841357421875,-0.29505145234465596,0.8309779456883668,3.0049662446022034
1773258453599429600,8.6484296875,-1.396632053297758,3.262861393985152,1.3425007962681352
1773258453609444600,8.658444580078125,-1.436573018541932,4.715319963923096,-0.31188188337534667
1773258453619460600,8.668460693359375,-0.07811316725015639,4.5422570609122515,-1.077397176811099
1773258453629475600,8.6784755859375,0.714131435418129,4.147259964215755,-1.6616732750430703
1773258453639490600,8.688490478515625,1.7497481565982103,2.885018845707178,-1.1270550878189503
1773258453649506600,8.698506591796875,1.3907558547407388,1.048539915639162,-0.2246742861740291
1773258453659521500,8.708521484375,1.4105916050672531,-0.3353384545475244,-0.023037030585855243
1773258453669537500,8.71853759765625,1.0686381162941456,-0.867326439398527,0.2311909015264362
1773258453679552500,8.728552490234375,0.9182172532021999,-1.0094657963573932,0.6097214320685714
1773258453689568500,8.738568603515626,1.790411590898037,-0.9102548960208893,0.7530928881056607
1773258453699583500,8.74858349609375,1.8427800760388373,-0.8954530482083558,0.6886364902861416
1773258453709599500,8.758599609375,1.8044243341594934,-0.03593640577793121,0.38738939817175266
1773258453719614500,8.768614501953126,1.2909370516389607,-0.16702128475904462,0.1290967008385807
1773258453729630500,8.77863037109375,0.4453343682706356,0.2589133865147829,0.0056222968611866235
1773258453739645400,8.7886455078125,0.2516764209985733,0.40817923435270786,0.12894348303824663
1773258453749660400,8.798660400390625,0.044396775609254834,0.33598727384507654,-0.2860648301495239
1773258453759676400,8.808676513671875,0.37242169227302074,-0.3589975625544786,-0.4638058079740032
1773258453769691400,8.81869140625,0.9370791900604962,-1.1883774253964423,-0.6846984201848506
1773258453779707600,8.828707763671876,1.0492366657316685,-1.6930647308677433,-1.3752230623051522
1773258453789722400,8.838722412109375,0.6055564944088458,-2.007010853296518,-1.4941507627636192
1773258453799738600,8.848738525390624,0.6182090552330016,-2.1979098572492597,-1.4237877712488174
1773258453809753600,8.858753662109375,0.9441635953634977,-1.8343384109079837,-1.0960460554406046
1773258453819769600,8.86876953125,0.5843097082406282,-1.462438696682453,-1.1170062797524034
1773258453829784600,8.87878466796875,-0.13373685479462147,-1.2939759809434412,-0.6140114574126899
1773258453839800600,8.888800537109375,-0.1715028140872717,-1.7087597281277178,0.6702221510648727
1773258453849815600,8.898815673828125,-0.17672785525918006,-2.3649176980048416,1.9445903452187776
1773258453859830500,8.90883056640625,-0.6062614278078079,-2.4917963574677704,2.94930164052546
1773258453869846500,8.918846435546875,-1.6676444584071635,-1.4154980818092822,2.6908699000477787
1773258453879861500,8.928861572265625,-1.4576198982238768,-1.0191893179923295,2.587319216941297
1773258453889877500,8.93887744140625,-1.3380085994154214,-0.6418430287986994,1.7023045606389642
1773258453899892500,8.948892578125,-1.3290999012947082,-0.0966699836820364,1.0427654238909483
1773258453909908500,8.958908447265625,-1.163825167942047,0.24928689551353453,0.4171428409984335
1773258453919923500,8.96892333984375,-0.5868810200333595,0.6285153451919555,-0.35917547640465197
1773258453929939500,8.978939453125,-0.6084621527224778,1.056296521115303,-1.0689360763274132
1773258453939954400,8.988954345703124,-0.25134207447767254,1.6433897225946188,-1.6943182380601762
1773258453949970400,8.998970458984376,0.7483440861433744,2.3554338303446767,-2.4366432100445032
1773258453959985400,9.0089853515625,1.3734563448935746,2.6335586978077887,-2.653556945219636
1773258453970001400,9.01900146484375,1.5041595310807228,2.1583874096781015,-2.3867967907272276
1773258453980016400,9.029016357421876,1.6808879708617925,1.5136130036026239,-1.9051351176649332
1773258453990031400,9.03903125,1.5850725581824778,1.063812303572893,-1.25402069491297
1773258454000047400,9.04904736328125,1.6369927150338888,0.4473310950458049,-0.9554629880130291
1773258454010062300,9.059062255859375,1.5786252817392348,0.08271218547821045,-0.7477937587842345
1773258454020078600,9.06907861328125,1.396345053049922,-0.10652326917648315,-0.34834739106129853
1773258454030093600,9.079093505859374,1.5063503191232681,-0.2740951735556125,-0.17241390105020254
1773258454040109600,9.089109619140626,1.3697639201164244,-0.41863223930597304,0.22065615484016016
1773258454050124500,9.09912451171875,1.3063573236107826,-0.7138572946518659,0.7123977434933185
1773258454060140500,9.109140625,1.424256557804346,-0.9883353300452232,1.1755576913118362
1773258454070155500,9.119155517578125,1.2569313216626643,-0.980690952771902,1.3476723536871373
1773258454080171500,9.129171630859375,1.1068383753508328,-0.8660533507227897,1.1275340304423123
1773258454090186500,9.1391865234375,1.018238885399699,-0.5997749883979558,1.1923450869183987
1773258454100201700,9.14920166015625,0.8995862024903297,-0.3664543083012104,1.2552063975661993
1773258454110217500,9.159217529296875,0.6534639084875583,-0.1771481264978647,1.1397224808860569
1773258454120232700,9.169232666015626,0.40290743142962454,-0.0017114800930023192,1.181286809548363
1773258454130248400,9.17924853515625,0.24074293905198574,0.278549814876914,1.3005685110762715
1773258454140263700,9.189263671875,-0.10139175150692463,0.46652796294689175,1.2520664921052753
1773258454150279400,9.199279541015626,-0.4245265580415725,0.4803197569340467,1.1477231973163784
1773258454160294700,9.209294677734375,-0.5172217928737401,0.520983775755763,1.1073462518077344
1773258454170310400,9.219310302734375,-0.5503519090592861,0.6115098498553038,1.1188285998087375
1773258454180325600,9.22932568359375,-0.551200634843111,0.4838941082894802,0.9896204014196991
1773258454190341400,9.23934130859375,-0.44983986299633977,0.25331600489914413,0.9915445744153112
1773258454200356600,9.249356689453125,-0.37901217657923697,0.0654559302508831,1.0922946670178324
1773258454210371600,9.25937158203125,-0.4449807325273752,0.005463526102900505,1.0693895191833376
1773258454220387600,9.2693876953125,-0.5776712931394576,-0.09255144244730472,1.0119760986778885
1773258454230402600,9.279402587890624,-0.7206722353637218,-0.12539689647257327,0.8528916713327169
1773258454240418600,9.28941845703125,-0.8643459622830152,-0.18094693425893782,0.6775628692165017
1773258454250433500,9.29943359375,-1.1496201169788838,-0.18296762643158435,0.65514397052899
1773258454260449500,9.309449462890624,-1.2852525762617588,-0.285094121953845,0.577302313696593
1773258454270464500,9.319464599609375,-1.325308692318201,-0.41757250111997124,0.4972318748988211
1773258454280480500,9.32948046875,-1.1659838072806596,-0.48748716434538364,0.5430491848304867
1773258454290495500,9.33949560546875,-0.8980945026278495,-0.5557032069593668,0.6202915605954825
1773258454300511500,9.349511474609375,-0.668315440660715,-0.5966524724632501,0.5888717554591596
1773258454310526500,9.3595263671875,-0.5421387919872999,-0.7520499549239873,0.3614877719350159
1773258454320541400,9.36954150390625,-0.5518500386625528,-0.7912579297184944,0.11444836308732628
1773258454330557700,9.3795576171875,-0.5580582456529141,-0.6717220342338085,-0.0020623393572866914
1773258454340572400,9.389572509765625,-0.5141787719160318,-0.5916571483939885,-0.05954772912040353
1773258454350588700,9.399588623046874,-0.4985153388381004,-0.5165267963469028,-0.12492138791531324
1773258454360603600,9.409603759765625,-0.463424151712656,-0.5369897386610508,-0.22768910395056008
1773258454370619600,9.41961962890625,-0.4098842847049236,-0.5772369933754206,-0.2997780424751341
1773258454380634600,9.429634521484376,-0.27795009541809557,-0.4406014945298433,-0.3827985632501542
1773258454390650600,9.439650634765625,-0.17069792744517326,-0.2678209155917167,-0.6403934145122766
1773258454400665600,9.44966552734375,-0.03507335920780897,-0.20767127505540847,-1.0075729683481156
1773258454410681600,9.459681640625,-0.1356920805156231,0.11380582740008831,-1.1380308014720677
1773258454420696600,9.469696533203125,-0.29900165127515793,0.5406020839393139,-1.058972754587233
1773258454430711600,9.479711669921874,-0.4915612819164991,0.7291197457134724,-0.9725523622408508
1773258454440727600,9.4897275390625,-0.6105775374412536,0.6286924553245306,-0.7775669657573103
1773258454450742500,9.499742431640625,-0.7176701309382915,0.44714404804110525,-0.43763153880834577
1773258454460758500,9.509758544921874,-1.046167341288924,0.21393793423473834,-0.012753098589181899
1773258454470773500,9.5197734375,-1.0927116503208876,-0.11527765351831912,-0.18550591273754835
1773258454480789500,9.52978955078125,-0.980073697656393,-0.14282324756979942,-0.7121595508232712
1773258454490804500,9.539804443359374,-1.06223292542696,0.13932546858191489,-0.5703428499475122
1773258454500820500,9.549820556640626,-1.1271306372731924,0.22784663259983062,-0.6224386556267738
1773258454510835500,9.55983544921875,-1.1073699980095029,0.24805355432629583,-0.6572220919772982
1773258454520851500,9.5698515625,-0.9422449022606014,0.37697336422801014,-0.49548313153535123
1773258454530866400,9.579866455078125,-0.6996428913384676,0.47106794446408745,-0.35306028145998714
1773258454540881400,9.58988134765625,-0.4968652335435152,0.3753852182537317,-0.11841565928310155
1773258454550897400,9.5998974609375,-0.3532511278569698,0.18810031314492223,0.20627222191244363
1773258454560912400,9.609912353515625,-0.19916092860251663,-0.029748072531819342,0.30854572468996044
1773258454570928600,9.6199287109375,-0.028764906713366508,-0.21378829663097856,0.045666357153654094
1773258454580943600,9.629943603515626,-0.06120645611286163,-0.2633452314823866,-0.04191957184076309
1773258454590959600,9.639959716796875,-0.3627233050793409,-0.3479769868463278,-0.13612462671399117
1773258454600974600,9.649974609375,-0.5990028349816798,-0.39705928992331024,-0.28909780463725326
1773258454610990600,9.659990478515626,-0.5433633653461932,-0.23096154974997044,-0.3382563878208399
1773258454621005600,9.670005615234375,-0.3891340498819947,-0.13373276314139365,-0.3401312417820096
1773258454631021600,9.680021484375,-0.2677107332155108,-0.12337445073425769,-0.29490678317695856
1773258454641036500,9.69003662109375,-0.21142185976058245,-0.0942296047925949,-0.175625739236176
1773258454651051500,9.700051513671875,-0.12632979340851305,-0.04624737191200256,-0.04855623337626457
1773258454661067500,9.710067626953125,-0.11101707346439361,0.002129997766017914,-0.02157090355604887
1773258454671082500,9.72008251953125,-0.22347850051820276,0.04506137699782848,0.016738661094009875
1773258454681098500,9.730098388671875,-0.3486997481629252,0.08001520147919654,-0.22915245450139043
1773258454691113500,9.740113525390624,-0.4433677443727851,0.20832652409374713,-0.4549722574487328
1773258454701129500,9.75012939453125,-0.5619760036185384,0.32363632631599903,-0.30191490837335583
1773258454711144400,9.76014453125,-0.5347933976605534,0.30785774242579933,-0.19770488457530735
1773258454721160400,9.770160400390624,-0.3147527626365423,0.20618717397749423,-0.10546265420764685
1773258454731175400,9.780175537109375,0.015508827038109302,0.10464578486680984,-0.014173779042065142
1773258454741191400,9.79019140625,0.28310703978985546,-0.030559973436594008,0.10366495713591575
1773258454751206400,9.800206298828124,0.39503187574893234,-0.08969663753807544,0.3106076256558299
1773258454761221400,9.810221435546875,0.4687877245724201,-0.17928981470167635,0.31589287258237597
1773258454771237400,9.8202373046875,0.4321183283448219,-0.17511165223419664,0.11157675317376851
1773258454781252400,9.83025244140625,0.27532062369734045,-0.0028378537744283673,0.2022168090417981
1773258454791268600,9.8402685546875,0.07707593315690756,0.10455927562713623,0.28946956055909395
1773258454801283300,9.850283447265625,-0.20470891811847686,0.19905892953276633,0.4067383878946304
1773258454811299600,9.860299560546874,-0.48916883382201193,0.2719400413483381,0.5147936889439821
1773258454821314600,9.870314453125,-0.7063251455813646,0.3448772672653198,0.5891182775661349
1773258454831330600,9.88033056640625,-0.810805803014338,0.3969488152861595,0.5835115436002611
1773258454841345500,9.890345458984376,-0.8006704857081174,0.4030255048513412,0.5684174348428845
1773258454851361500,9.900361572265625,-0.713715255832672,0.42699674754738803,0.477667196598649
1773258454861376500,9.91037646484375,-0.5886439380526542,0.3857803555399179,0.2867188005462289
1773258454871391500,9.9203916015625,-0.5309177252709866,0.2762275094091892,0.09516776242554187
1773258454881407500,9.930407470703125,-0.4527539968773722,0.17562135532200335,-0.13804770373106
1773258454891422500,9.94042236328125,-0.35945758128166194,0.09295476255118847,-0.3216454447597265
1773258454901438500,9.9504384765625,-0.20120295582413672,-0.03189034525752067,-0.4870037647426128
1773258454911453400,9.960453369140625,-0.2182905764862895,-0.07102876194715499,-0.6812631850391626
1773258454921469400,9.970469482421874,-0.3385556630283594,-0.34193478407263755,-0.6967986078232526
1773258454931484400,9.980484375,-0.006598375351727009,-0.6936304991811514,-0.5561006818443537
1773258454941500400,9.99050048828125,-0.12325550052970648,-0.6834037041991948,-0.7402011116981506
1773258454951515400,10.000515380859374,-0.34190585023909803,-0.6432663396000862,-0.9779822783350944
1773258454961531400,10.010531494140626,-0.4360708653628826,-0.3891004398733377,-0.918340002799034
1773258454971546400,10.02054638671875,-0.628538726067543,-0.07435644506514072,-0.8837748853743076
1773258454981561300,10.030561279296874,-0.614472791314125,0.14885551347136497,-0.9024766632348299
1773258454991577300,10.040577392578125,-0.5860170966804027,0.45022798553109167,-0.7598375400602817
1773258455001592300,10.05059228515625,-0.5182373996570706,0.7619447414726018,-0.45770635858774184
1773258455011608300,10.0606083984375,-0.5406190350741148,0.9325754489004612,-0.3157102094918489
1773258455021623300,10.070623291015625,-0.4884501641586423,0.9986842901021241,-0.11729483855962752
1773258455031639600,10.0806396484375,-0.27263094622194767,1.142086798864603,-0.05279050994515419
1773258455041654500,10.090654541015626,-0.09349193816781043,1.177718084216118,-0.09436813648045063
1773258455051670500,10.10067041015625,0.05645078601837158,1.085019342252612,0.01246200668811798
1773258455061685500,10.110685546875,0.008613514566421508,0.9762047472685574,0.026176059263944625
1773258455071701500,10.120701416015624,0.06158464177548885,0.9164736244052648,0.0025800796210765837
1773258455081716500,10.130716552734375,0.10044014987051486,0.9010761487871408,0.24082594116032122
1773258455091732500,10.140732421875,-0.0037491234004497524,0.7374298934191464,0.16320669490695
1773258455101747500,10.15074755859375,-0.011714403191208839,0.5891179853051901,0.031390579041838645
1773258455111762400,10.160762451171875,0.3414700891703367,0.7095330017119645,0.046747722649574275
1773258455121778400,10.1707783203125,0.5861334165364503,0.58861471195817,0.14424538932740688
1773258455131793400,10.18079345703125,0.5029962836444377,0.3401660208344459,0.09481120407283306
1773258455141809400,10.190809326171875,0.29288112256824966,0.13583821098804474,0.2005243259102106
1773258455151824400,10.200824462890624,0.15570552549660205,-0.017934300619363783,0.20607494577467442
1773258455161840400,10.21084033203125,0.03774140937328339,-0.11093699396550655,0.22859423609673976
1773258455171855400,10.22085546875,0.11571370684802532,-0.18639760088026522,0.25722119564414025
1773258455181871400,10.230871337890624,0.27193010447621346,-0.2527700614541769,0.11298808127641677
1773258455191886300,10.24088623046875,0.2284872685909271,-0.26968320233225823,0.16170096651911733
1773258455201902300,10.25090234375,0.13899930536746977,-0.29836393789350985,0.18328852894902228
1773258455211917300,10.260917236328124,0.0892716901242733,-0.19968086082339287,0.20559096165001392
1773258455221932300,10.270932373046875,0.11483575496971607,-0.05824234561026096,0.2690396437317133
1773258455231948300,10.2809482421875,0.19159458500146864,-0.023708207845687865,0.28513562300801276
1773258455241963300,10.29096337890625,0.25169512569904323,-0.03447860818505287,0.2649690332919359
1773258455251979500,10.3009794921875,0.21832886267006396,-0.04123685027360916,0.15916764864921568
1773258455261994200,10.310994140625,0.15499182426929473,-0.14445406364202498,-0.06700900491178036
1773258455272010500,10.321010498046874,-0.033224808731675146,-0.2332762564331293,-0.25387246973812577
1773258455282025500,10.331025390625,-0.23248364475071429,-0.3041840223491192,-0.4516775998175144
1773258455292041500,10.34104150390625,-0.2864180640339851,-0.3345639630436897,-0.6418751775026321
1773258455302056400,10.351056396484376,-0.2509574590742588,-0.3843517840415239,-0.8994207827955484
1773258455312072400,10.361072509765625,-0.2577227154254913,-0.3703074765980243,-1.0615122099369765
1773258455322087400,10.37108740234375,-0.1894008743494749,-0.30102585057914255,-1.15490477938354
1773258455332103400,10.381103515625,-0.19224340429902076,-0.31455753232538697,-1.1378835019558668
1773258455342118400,10.391118408203125,-0.2786637966454029,-0.32596155439317226,-1.0602566569179297
1773258455352134400,10.401134521484375,-0.14602408943772316,-0.27617431791722774,-0.9864864873081445
1773258455362149400,10.4111494140625,-0.032144027757644654,-0.2796726814270019,-0.8463754213064908
1773258455372164600,10.42116455078125,-0.11266542519330977,-0.36010347796976566,-0.7359615744322537
1773258455382180400,10.431180419921875,-0.2197691246062517,-0.2660778713166714,-0.49846682352125643
1773258455392195600,10.441195556640626,-0.25578970153629776,-0.21225217310488223,-0.34558512327373025
1773258455402211300,10.45121142578125,-0.3059820116817951,-0.20618658945560453,-0.2310503970772028
1773258455412226600,10.4612265625,-0.23773557392954825,-0.20463585288226604,-0.012975801429152488
1773258455422242300,10.4712421875,-0.1791612198859453,-0.29636779564023014,0.05054302327930927
1773258455432257500,10.481257568359375,-0.2293669740349054,-0.38841947187185283,0.181685185405612
1773258455442273300,10.491273193359374,-0.2691998027294874,-0.4338777392327785,0.29540450356602665
1773258455452288500,10.50128857421875,-0.26264906591176984,-0.46892274912893767,0.4438175339668989
1773258455462304500,10.511304443359375,-0.24546061522364615,-0.5570370859116316,0.5650000276148319
1773258455472319500,10.521319580078124,-0.16135960573554037,-0.6316863764435052,0.507376690685749
1773258455482335500,10.53133544921875,-0.08914660243988036,-0.6695756698548794,0.4384317492753267
1773258455492350500,10.5413505859375,-0.020108722048997878,-0.6042933426052332,0.5097492650359868
1773258455502365700,10.55136572265625,0.0035766894429922103,-0.5524556033402681,0.6106424193710088
1773258455512381400,10.56138134765625,0.04918400988578796,-0.47918519994616504,0.6738853497475386
1773258455522396700,10.571396728515625,0.11504910545945167,-0.4164648321390152,0.6606430063366889
1773258455532412400,10.581412353515624,0.12401333315968513,-0.4111912756502628,0.6562766278207302
1773258455542427600,10.591427734375,0.04355038791298866,-0.4721799973592162,0.621791005373001
1773258455552443400,10.601443359375,-0.08555763803720473,-0.5197574488312006,0.555092966106534
1773258455562458600,10.611458740234376,-0.19498013578653334,-0.5603720755532383,0.5913368303984403
1773258455572474400,10.621474365234375,-0.2665326293468475,-0.6118935884758829,0.5312146623909473
1773258455582489600,10.631489501953125,-0.2646259189426899,-0.6343050345093012,0.4275175565510988
1773258455592505300,10.64150537109375,-0.2937929767161608,-0.5014426244616508,0.3866132992327213
1773258455602520600,10.6515205078125,-0.391671751666069,-0.3665282503202557,0.2750847691148519
1773258455612536300,10.661536376953125,-0.4953314481049776,-0.16126637449413536,0.2201660149693489
1773258455622551600,10.671551513671876,-0.6573240910470485,0.019886603730916975,0.2508697807908058
1773258455632566500,10.68156640625,-0.7794564327657222,0.1633329516351223,0.1872398969233036
1773258455642582500,10.69158251953125,-0.7704846062809229,0.3334837665915489,0.0952145241767168
1773258455652597500,10.701597412109376,-0.6253063200175761,0.41307723552733655,-0.032950667965412135
1773258455662613500,10.711613525390625,-0.545184151032567,0.44953328126519915,-0.0895849938571453
1773258455672628500,10.72162841796875,-0.49499184088706966,0.48582332278639073,-0.16545301252901554
1773258455682644500,10.73164453125,-0.5786486137390137,0.4780938975781202,-0.3069230919241905
1773258455692659500,10.741659423828125,-0.6947030968487262,0.4907347679644823,-0.33607027595341205
1773258455702675500,10.751675537109374,-0.7530641004025935,0.48523178663402794,-0.3712035486549139
1773258455712690700,10.761690673828125,-0.7027186455219984,0.46552521564513444,-0.40686289105713364
1773258455722706400,10.77170654296875,-0.5030646727055311,0.49375820743888615,-0.47403848470747467
1773258455732721700,10.7817216796875,-0.26989129212498664,0.5324848284572362,-0.46547056284844873
1773258455742737400,10.7917373046875,-0.13090952241420745,0.6424786963537334,-0.4130564850002527
1773258455752752600,10.801752685546875,0.03704758189022541,0.7366720607891678,-0.3991255748033523
1773258455762767600,10.811767578125,0.22227964612245557,0.7288248544201255,-0.3714958095997572
1773258455772783600,10.82178369140625,0.3681383158653974,0.7929793466836214,-0.3398310897916555
1773258455782798600,10.831798583984375,0.4962164142459631,0.8835679646253586,-0.27846447468101976
1773258455792814600,10.841814697265624,0.5697007526516914,0.8425862581565976,-0.2889198177218437
1773258455802829600,10.85182958984375,0.561530890199542,0.7655775450170039,-0.2896206594675779
1773258455812845600,10.861845458984375,0.511337995532155,0.6810466196790337,-0.31658816137015816
1773258455822860500,10.871860595703126,0.502033576092124,0.6385010248944163,-0.30348785677850243
1773258455832876500,10.88187646484375,0.5880331126779318,0.5625967658653855,-0.21472937687337398
1773258455842891500,10.8918916015625,0.6406342375308275,0.543638090634346,-0.10075462264716624
1773258455852907500,10.901907470703126,0.6471370435535907,0.5595514068201184,0.002972293809056282
1773258455862922500,10.911922607421875,0.7444120073914527,0.58553720420897,0.07160042435526848
1773258455872938500,10.9219384765625,0.8328864096581935,0.6467325544059276,0.13902210172116755
1773258455882953500,10.931953369140626,0.79307520827353,0.7355673144176602,0.17626374487876892
1773258455892968400,10.941968505859375,0.7536907078683376,0.8759367390945553,0.13448095116019249
1773258455902984400,10.951984375,0.7936480397254229,1.0148866523623465,0.1890881551384926
1773258455912999400,10.96199951171875,0.7182704349189997,0.9918965296581387,0.15830664790570734
1773258455923015400,10.972015380859375,0.6421838050603866,1.0221563511043787,0.3186608759909868
1773258455933030400,10.982030517578124,0.6467863304197787,1.1246864589914678,0.32623569515943524
1773258455943046700,10.992046630859376,0.5531079297691583,1.0864585812754928,0.3956540993005037
1773258455953061600,11.0020615234375,0.37961832577884197,0.9551634205445647,0.49026802723556756
1773258455963077600,11.01207763671875,0.3039379386335611,0.8388990940764546,0.4448085908308625
1773258455973092600,11.022092529296875,0.27366321187913417,0.7784140841059386,0.4697179911598563
1773258455983108600,11.032108642578125,0.2475970427304506,0.701178722603619,0.5023576934799552
1773258455993123600,11.04212353515625,0.25918168206214903,0.6298375337064266,0.4725824406802654
1773258456003139600,11.0521396484375,0.27034254302382466,0.624922581396997,0.4990045836597681
1773258456013154600,11.062154541015625,0.2709212196946144,0.5690769216649234,0.4215706308454275
1773258456023169500,11.07216943359375,0.36791853563487525,0.5101486396171152,0.36954613683670756
1773258456033185500,11.082185546875,0.5064104760020971,0.4986117849498987,0.30397739386111494
1773258456043200500,11.092200439453125,0.6175953072488307,0.4354281835451722,0.13934271197766065
1773258456053216500,11.102216552734374,0.7483651289314032,0.3405079661399126,0.05062193373441696
1773258456063231500,11.1122314453125,0.8111193990081548,0.315799641340971,-0.024377485409379004
1773258456073247500,11.12224755859375,0.7824415860563516,0.2701772694595158,-0.14280980356633663
1773258456083262500,11.132262451171876,0.7506149536848068,0.2332682192571461,-0.19777181233167648
1773258456093278500,11.142278564453125,0.7657178302705288,0.2417838264070451,-0.2761827934846282
1773258456103293400,11.15229345703125,0.746875182634592,0.22563334046453237,-0.2775768781915307
1773258456113309400,11.162309326171876,0.7819155163556337,0.10006313325166702,-0.30369536204934117
1773258456123324400,11.172324462890625,0.8019120102018118,0.047131169009208676,-0.28074411005079747
1773258456133340400,11.18234033203125,0.7487982596516609,0.006899696385860443,-0.24240561156719923
1773258456143355400,11.19235546875,0.6366068817108869,-0.042865328258275985,-0.2842749145254493
1773258456153370400,11.202370361328125,0.496733131596446,-0.0341223420932889,-0.2761769482657313
1773258456163386600,11.21238671875,0.39715456699132917,-0.030401568004488944,-0.24494302109032867
1773258456173400800,11.22240087890625,0.2636024211138487,-0.03815057469606399,-0.28614889170378444
1773258456183416800,11.232416748046875,0.1641729095906019,-0.041891514790058135,-0.24589579177051782
1773258456193431800,11.242431884765624,0.08538695764541626,-0.016124474718421697,-0.23515666335225105
1773258456203447800,11.25244775390625,0.018759645527601242,-0.06518617339879273,-0.24155454769581555
1773258456213462800,11.262462890625,-0.08364332884848118,-0.13768588468134402,-0.2034939893707633
1773258456223478800,11.272478759765624,-0.12117197225391864,-0.1482176539592445,-0.1520104703709483
1773258456233493800,11.28249365234375,-0.19189561377465725,-0.18945099710151553,-0.12000818917155265
1773258456243509800,11.292509765625,-0.17868775715529917,-0.2692038943827152,0.006842997762560844
1773258456253524700,11.302524658203126,-0.10732757129669189,-0.3008500556208193,0.018542787906527518
1773258456263540700,11.312540771484375,-0.16533903076052664,-0.3088416388966143,0.09647329206615686
1773258456273555700,11.3225556640625,-0.19002572824954986,-0.3256974966295063,0.14478811790198087
1773258456283570700,11.33257080078125,-0.2342600067734718,-0.3119955728828907,0.14008447025567292
1773258456293586700,11.342586669921875,-0.39235914940834044,-0.2759336410291493,0.20283932485431433
1773258456303601700,11.3526015625,-0.48833121395409107,-0.26340324527993797,0.2119488062441349
1773258456313617700,11.36261767578125,-0.5544798026442528,-0.22382804460823535,0.30085458566546436
1773258456323632600,11.372632568359375,-0.5491875414550305,-0.29448972680866714,0.39450259117782116
1773258456333649000,11.38264892578125,-0.43456396793127056,-0.36892552072033286,0.3975374288290739
1773258456343663600,11.39266357421875,-0.3519435523897409,-0.36318113184943795,0.5150982248485088
1773258456353680000,11.402679931640625,-0.34383798734545706,-0.33616336106434463,0.5550754304498434
1773258456363694800,11.41269482421875,-0.38720015920996664,-0.2728397666670382,0.6129243928283452
1773258456373710800,11.4227109375,-0.44823827301859853,-0.24255261882245538,0.6310533392369747
1773258456383725800,11.432725830078125,-0.4289379447430372,-0.22344109111726282,0.6227285784840584
1773258456393741800,11.442741943359374,-0.33219606486856934,-0.2416238135397434,0.6035211891889571
1773258456403756800,11.4527568359375,-0.17728548914194106,-0.32432986153811216,0.5468301646739244
1773258456413771800,11.462771728515625,-0.08547872758209704,-0.41451705907210706,0.39123394477069373
1773258456423787800,11.472787841796874,0.02570435009896755,-0.47710254845321176,0.2960591680824756
1773258456433802800,11.482802734375,0.036142742004990576,-0.4958223003618419,0.2758703665345907
1773258456443818800,11.49281884765625,0.060329673278331754,-0.5758154361397028,0.2319996606260538
1773258456453833700,11.502833740234376,0.0772328772842884,-0.6302383695922792,0.20161913540959356
1773258456463849700,11.512849609375,-0.024764438900351522,-0.595215571527928,0.20130290906727313
1773258456473864700,11.52286474609375,-0.10621288805305958,-0.5473481971986591,0.09556231470108031
1773258456483880700,11.532880615234374,-0.1245721360862255,-0.4901030459322035,0.034031448939442634
1773258456493895700,11.542895751953125,-0.16970073310136793,-0.4476055280730128,0.013421791630983351
1773258456503911700,11.55291162109375,-0.3017500732004642,-0.43755642774552106,0.004460486540198326
1773258456513926700,11.5629267578125,-0.4068091150432825,-0.4752124969229102,0.039109190595149994
1773258456523941600,11.572941650390625,-0.4925082073777914,-0.5330347174249589,0.0485159013658762
1773258456533957600,11.58295751953125,-0.5654617999076843,-0.6119185767866671,0.06780483146458864
1773258456543972600,11.59297265625,-0.5797405006289482,-0.6631007747523486,0.06185235280096531
1773258456553988600,11.602988525390625,-0.5028478150844574,-0.5683649740032851,0.14030132787674665
1773258456564003600,11.613003662109374,-0.4555997416973114,-0.4392243609577417,0.11328092674314975
1773258456574019800,11.623019775390626,-0.45437107668519017,-0.35155236111506816,0.11490677437931299
1773258456584034800,11.633034912109375,-0.37276714470982547,-0.29162454663589593,0.12679068891853093
1773258456594050800,11.64305078125,-0.22773265083134173,-0.26988340107947584,0.09581950433254241
1773258456604065800,11.653065673828126,-0.27637363988161084,-0.112576431735605,0.13095482286065815
1773258456614081800,11.663081787109375,-0.35015023923218247,0.005757979004830121,0.19143354922086
1773258456624096800,11.6730966796875,-0.26225568268001076,0.023588673119246957,0.2070741859450936
1773258456634112000,11.683112060546875,-0.08883388322889804,0.18768384129852056,0.24764848065674303
1773258456644127700,11.693127685546875,0.09115618869662284,0.3338658977769315,0.3177972448989749
1773258456654143000,11.70314306640625,0.08020283300578594,0.3860547885671258,0.3584574643284082
1773258456664158700,11.71315869140625,0.03343056043684482,0.3758886377312243,0.37310821323245763
1773258456674174000,11.723174072265625,0.03834931213855743,0.3771915370233357,0.383792104332149
1773258456684189700,11.733189697265624,0.042972295764088626,0.34260523068010806,0.4491331760317087
1773258456694205000,11.743204833984375,-0.02394669277667999,0.274951351993531,0.45487435003221033
1773258456704220700,11.753220703125,-0.08645721722543238,0.18790464444234967,0.5099453721299767
1773258456714236000,11.76323583984375,-0.24268472076952455,0.09743431911803782,0.573429710046947
1773258456724251600,11.773251708984375,-0.3730594056546688,0.0001816401772201061,0.7076365204408764
1773258456734267000,11.783266845703125,-0.33976679238379,-0.04088102257326245,0.8358595802500843
1773258456744282600,11.79328271484375,-0.15295067383050917,0.044011721814423796,0.8580988845869898
1773258456754297900,11.8032978515625,0.1543909357666969,0.16136216301880776,0.8354492458835243
1773258456764312800,11.813312744140624,0.38234102874100206,0.27300493063349274,0.792045572964847
1773258456774328800,11.823328857421876,0.6470709925800562,0.3068275225952267,0.7714801931895315
1773258456784343800,11.83334375,0.9276999518185853,0.28751115650031717,0.7127694994151592
1773258456794359800,11.84335986328125,0.8988058657675981,0.19931166218481958,0.626787498486042
1773258456804374800,11.853374755859376,0.689843381857872,0.012163316002488135,0.46063978169113395
1773258456814390800,11.863390869140625,0.3935129956185818,-0.0961015726769343,0.2870525625452399
1773258456824406000,11.873406005859374,0.21667466572225091,-0.18312402256969362,0.20468802146092055
1773258456834421800,11.883421875,0.19061843344569204,-0.19988405524529515,0.033016280547529454
1773258456844437000,11.89343701171875,0.08421089960336685,-0.3766249161165207,-0.09313625659793615
1773258456854452700,11.90345263671875,0.114433019387722,0.03770361637985334,-0.04635302424356341
1773258456864468000,11.913468017578126,0.10041501542925835,0.19009134083166718,0.07918079648166894
1773258456874483000,11.92348291015625,0.09783961198329925,0.22945443312264976,0.000689589699357748
1773258456884499000,11.9334990234375,0.13896949475109577,0.3828361918468028,0.003182867819815874
1773258456894514000,11.943513916015625,0.07335983524322509,0.4860900839637965,-0.016910072138160467
1773258456904530000,11.953530029296875,0.05759235726892948,0.48433797959946095,-0.11774389750137924
1773258456914545000,11.963544921875,0.04054360731244087,0.1568116966402158,-0.07713533519394696
1773258456924561000,11.973560791015625,-0.015314473509788512,0.17220396636025978,-0.09351159271635115
1773258456934575900,11.983575927734375,0.2508908235788345,0.7041174794692546,-0.33487061784006655
1773258456944592000,11.993591796875,0.1109083523929119,0.9768502055652439,-0.273247616815567
1773258456954606800,12.00360693359375,-0.06886953808665275,0.9335256622973829,-0.40132922232747076
1773258456964622800,12.013622802734375,-0.1421487093091011,0.8696218568593264,-0.3349532180896029
1773258456974637800,12.023637939453126,-0.232495335188508,0.8065604205295444,-0.12129300481770187
1773258456984652800,12.03365283203125,-0.31849370273053645,0.6980091526567935,-0.23517317609563468
1773258456994668800,12.043668701171875,-0.15627309625148772,0.5735979062207043,-0.2294187042221427
1773258457004683800,12.053683837890626,0.01824994243979454,0.4874858491711318,-0.02950556901283562
1773258457014699800,12.06369970703125,0.22257190706729887,0.41008696767017244,0.043377606895659115
1773258457024714800,12.07371484375,0.45386078907549376,0.2948862518455833,0.05117532983347773
1773258457034731000,12.08373095703125,0.6259878725409508,0.218134801402688,0.1491363488398958
1773258457044746000,12.09374609375,0.8028419845283031,0.236297211689502,0.19850410866159945
1773258457054762000,12.103761962890625,0.9688011930137872,0.2972941897701472,0.2507730972169898
1773258457064777000,12.11377685546875,0.9093605775296687,0.28455219709686935,0.3559580487281084
1773258457074793000,12.12379296875,0.7945271606475114,0.21725516902394593,0.29209488582769405
1773258457084808000,12.133807861328124,0.6311486163049936,0.22874716163612901,0.2761546085697599
1773258457094823000,12.143822998046875,0.41129941219985483,0.3187215201370418,0.2067210251258686
1773258457104839000,12.1538388671875,0.19051438854932784,0.532886760321632,0.08373557370919733
1773258457114854000,12.16385400390625,0.08331482754647732,0.7078953175075352,-0.009098338941298424
1773258457124870000,12.173869873046876,0.04695522792041301,0.7132831480257212,0.037886005475744604
1773258457134884900,12.183884765625,0.06827858645617961,0.6690051764905453,0.13655406763982028
1773258457144900900,12.19390087890625,0.1424316179037094,0.5381443885888904,0.22978286135941742
1773258457154915800,12.203915771484375,0.2049906576693058,0.3523652118679136,0.3557570462632924
1773258457164931800,12.213931884765625,0.23363632191717623,0.09739391404241322,0.335702209826
1773258457174947800,12.22394775390625,0.320887319868803,-0.036200974998250604,0.33011388829965144
1773258457184963600,12.233963623046876,0.2861924385845661,-0.058717561906576156,0.32070005366839466
1773258457194978800,12.243978759765625,0.28314824858307835,-0.0865254601560533,0.19012107838280498
1773258457204993800,12.253993896484374,0.1849514937251806,-0.018513123420625922,0.11874573148768394
1773258457215009800,12.264009765625,-0.050473465174436564,0.16834318101257084,0.0023282968170940874
1773258457225024800,12.274024658203125,-0.14025018221139907,0.3344282809000462,-0.043760012075677514
1773258457235040800,12.284040771484374,-0.11163549762368201,0.32291290741227563,0.020094547393172978
1773258457245055700,12.2940556640625,0.13339198687970638,0.22897351773791014,0.07710494005568325
1773258457255071700,12.30407177734375,0.30938743621110915,0.0939500571988523,0.08791253060027956
1773258457265086700,12.314086669921876,0.318901114487648,0.08503807114250958,-0.028268282302841542
1773258457275102700,12.324102783203125,0.5005120656132698,0.16864625561237334,-0.13542115461975335
1773258457285117700,12.33411767578125,0.8325432953089476,0.24354542925208805,-0.37236448219306767
1773258457295134000,12.344134033203124,0.9574147066026926,0.2417877719298005,-0.507487238388136
1773258457305149000,12.35414892578125,0.602559066158533,0.28049773407429457,-0.5861217991638928
1773258457315163600,12.36416357421875,-0.06404606345295906,0.3087621439196169,-0.6697413818106055
1773258457325180000,12.374179931640626,-0.26136428679823875,0.16482231341004372,-0.5578688605606555
1773258457335195000,12.38419482421875,-0.17313421468138693,0.054305006161332124,-0.375634151513502
1773258457345211000,12.3942109375,-0.09149170426130294,0.2009657860673964,-0.46446752328574653
1773258457355225900,12.404225830078126,-0.21047639560401438,0.3386334044396877,-0.45963601147606964
1773258457365241900,12.414241943359375,-0.28449031084179877,0.45619975341707464,-0.45450376315414903
1773258457375256800,12.4242568359375,-0.27134441354274746,0.8163527696169912,-0.6500732431359588
1773258457385272800,12.43427294921875,-0.4764870469033718,1.0039318353667854,-0.5197478042200208
1773258457395287800,12.444287841796875,-0.7693851206064224,1.147521683394909,-0.36035942549221217
1773258457405303800,12.4543037109375,-1.3076146301954983,1.3316143683336674,-0.34060492370836437
1773258457415318800,12.46431884765625,-1.6186603550076484,1.3181596973463892,-0.33393099890239536
1773258457425333800,12.474333740234375,-1.416501705893874,1.2008166357308625,-0.37890330937728284
1773258457435349800,12.484349853515624,-1.0905629478543997,1.446394155332446,-0.7469529971111566
1773258457445364700,12.49436474609375,-1.0220932227402926,0.9749594233825802,-0.45015017105452715
1773258457455380700,12.504380615234375,-1.2091601011842488,0.7586440924920141,-0.3626536008439958
1773258457465395700,12.514395751953124,-1.2275737097531556,0.4945759535625577,-0.5019671597924084
1773258457475411700,12.52441162109375,-0.5649000743716955,0.41344694562256334,-0.44728455249033866
1773258457485426700,12.5344267578125,-0.19148703297376632,0.6729395933300256,-0.4888897976849228
1773258457495442700,12.544442626953124,-0.002915595185756683,0.9688336339786648,-0.41359621790014206
