time,seconds_elapsed,z,y,x
1773258445007410400,0.056410400390625,-0.992218017578125,-0.10955810546875,0.0928192138671875
1773258445017425700,0.06642578125,-0.9897613525390625,-0.1157379150390625,0.0906982421875
1773258445027441400,0.07644140625,-0.983062744140625,-0.1192626953125,0.0805816650390625
1773258445037456600,0.08645654296875,-0.9816741943359375,-0.11578369140625,0.06146240234375
1773258445047472600,0.09647265625,-0.976593017578125,-0.118011474609375,0.0404510498046875
1773258445057487400,0.1064873046875,-0.9704437255859375,-0.119476318359375,0.0284881591796875
1773258445067503600,0.116503662109375,-0.978851318359375,-0.123291015625,0.0229034423828125
1773258445077518600,0.1265185546875,-0.995025634765625,-0.1285858154296875,0.0275421142578125
1773258445087533800,0.136533935546875,-1.003997802734375,-0.1239776611328125,0.0467529296875
1773258445097549600,0.146549560546875,-1.0172576904296875,-0.130218505859375,0.048095703125
1773258445107564800,0.156564697265625,-1.0188140869140625,-0.125701904296875,0.040802001953125
1773258445117580500,0.16658056640625,-0.9987335205078125,-0.1168670654296875,0.044921875
1773258445127595800,0.176595703125,-0.986297607421875,-0.11181640625,0.0494537353515625
1773258445137611500,0.186611572265625,-0.9892578125,-0.1182403564453125,0.0427703857421875
1773258445147626800,0.196626708984375,-0.989898681640625,-0.1214599609375,0.04058837890625
1773258445157641700,0.206641845703125,-0.9862213134765625,-0.120208740234375,0.043548583984375
1773258445167657700,0.21665771484375,-0.9862213134765625,-0.1192626953125,0.042236328125
1773258445177672700,0.226672607421875,-0.9847412109375,-0.11871337890625,0.0356597900390625
1773258445187688700,0.236688720703125,-0.9909515380859375,-0.1164093017578125,0.0192108154296875
1773258445197703700,0.24670361328125,-0.9911346435546875,-0.1161041259765625,0.0200653076171875
1773258445207719700,0.2567197265625,-0.9873809814453125,-0.1107940673828125,0.0319061279296875
1773258445217734700,0.266734619140625,-0.97991943359375,-0.116668701171875,0.061981201171875
1773258445227750700,0.276750732421875,-0.974639892578125,-0.12200927734375,0.096282958984375
1773258445237766000,0.286765869140625,-0.9866790771484375,-0.1292266845703125,0.0941314697265625
1773258445247780900,0.29678076171875,-1.0113983154296875,-0.129974365234375,0.066253662109375
1773258445257796900,0.306796875,-1.0227508544921875,-0.124725341796875,0.057525634765625
1773258445267811800,0.316811767578125,-1.02386474609375,-0.1163177490234375,0.06610107421875
1773258445277827800,0.326827880859375,-1.027557373046875,-0.111419677734375,0.0618896484375
1773258445287842800,0.3368427734375,-1.013671875,-0.1095123291015625,0.0569915771484375
1773258445297858800,0.34685888671875,-0.9912872314453125,-0.11016845703125,0.0611419677734375
1773258445307873800,0.356873779296875,-0.9807891845703125,-0.1093597412109375,0.0591278076171875
1773258445317888800,0.366888671875,-0.980316162109375,-0.1103515625,0.0599365234375
1773258445327904800,0.37690478515625,-0.97845458984375,-0.115814208984375,0.061004638671875
1773258445337919700,0.386919677734375,-0.985870361328125,-0.123443603515625,0.058319091796875
1773258445347935700,0.396935791015625,-0.98614501953125,-0.1284027099609375,0.057525634765625
1773258445357950700,0.40695068359375,-0.990081787109375,-0.1335601806640625,0.051239013671875
1773258445367966700,0.416966796875,-1.0020751953125,-0.14495849609375,0.0473175048828125
1773258445377981700,0.426981689453125,-1.000732421875,-0.1444549560546875,0.0408935546875
1773258445387997700,0.436997802734375,-0.9969482421875,-0.1370086669921875,0.0392608642578125
1773258445398012700,0.4470126953125,-1.0043487548828125,-0.130157470703125,0.0491943359375
1773258445408027600,0.457027587890625,-1.0032196044921875,-0.1215972900390625,0.0613250732421875
1773258445418043600,0.467043701171875,-1.00115966796875,-0.1100006103515625,0.067840576171875
1773258445428058600,0.47705859375,-0.99603271484375,-0.104522705078125,0.069976806640625
1773258445438074600,0.48707470703125,-0.980804443359375,-0.104156494140625,0.0670013427734375
1773258445448089600,0.497089599609375,-0.965301513671875,-0.1102752685546875,0.0575103759765625
1773258445458105600,0.507105712890625,-0.9712371826171875,-0.1226806640625,0.0483551025390625
1773258445468120600,0.51712060546875,-1.00628662109375,-0.144775390625,0.0382537841796875
1773258445478135600,0.527135498046875,-1.0120086669921875,-0.1536102294921875,0.04534912109375
1773258445488151800,0.53715185546875,-0.991607666015625,-0.1558380126953125,0.0555572509765625
1773258445498166800,0.547166748046875,-0.9898529052734375,-0.1455078125,0.0606536865234375
1773258445508182800,0.557182861328125,-1.048797607421875,-0.1261138916015625,0.0706939697265625
1773258445518197800,0.56719775390625,-1.0522918701171875,-0.1119232177734375,0.0897369384765625
1773258445528213800,0.5772138671875,-1.0093994140625,-0.116180419921875,0.0960845947265625
1773258445538228700,0.587228759765625,-0.9857025146484375,-0.139923095703125,0.0756378173828125
1773258445548244700,0.59724462890625,-0.9549560546875,-0.1735687255859375,0.0574951171875
1773258445558259700,0.607259765625,-0.9268798828125,-0.205078125,0.04534912109375
1773258445568274700,0.617274658203125,-0.913787841796875,-0.2245635986328125,0.0277557373046875
1773258445578290700,0.627290771484375,-0.900726318359375,-0.224273681640625,0.0140838623046875
1773258445588305700,0.6373056640625,-0.910308837890625,-0.216339111328125,0.0054473876953125
1773258445598321700,0.64732177734375,-0.94134521484375,-0.1884918212890625,0.0170745849609375
1773258445608336600,0.657336669921875,-0.9968719482421875,-0.166412353515625,0.02734375
1773258445618352600,0.6673525390625,-1.0361328125,-0.163238525390625,0.0407257080078125
1773258445628367600,0.67736767578125,-1.0557708740234375,-0.1717529296875,0.0424652099609375
1773258445638383600,0.687383544921875,-1.03564453125,-0.18084716796875,0.0369873046875
1773258445648398600,0.697398681640625,-0.9785003662109375,-0.177520751953125,0.03253173828125
1773258445658413600,0.70741357421875,-0.9194793701171875,-0.1750640869140625,0.0220947265625
1773258445668429600,0.7174296875,-0.880126953125,-0.1791839599609375,-0.002899169921875
1773258445678444500,0.727444580078125,-0.87078857421875,-0.1812286376953125,-0.041839599609375
1773258445688460500,0.73746044921875,-0.8854827880859375,-0.18975830078125,-0.0868682861328125
1773258445698475500,0.7474755859375,-0.916534423828125,-0.193389892578125,-0.123870849609375
1773258445708491500,0.757491455078125,-1.0051116943359375,-0.1720733642578125,-0.145111083984375
1773258445718506500,0.767506591796875,-1.110076904296875,-0.1413726806640625,-0.15716552734375
1773258445728521500,0.777521484375,-1.1593475341796875,-0.1286773681640625,-0.1678924560546875
1773258445738537700,0.787537841796875,-1.1488494873046875,-0.137115478515625,-0.1954498291015625
1773258445748552700,0.797552734375,-1.0977020263671875,-0.1661224365234375,-0.2163238525390625
1773258445758568700,0.807568603515625,-1.000518798828125,-0.19329833984375,-0.2277679443359375
1773258445768583700,0.817583740234375,-0.928924560546875,-0.2233734130859375,-0.233734130859375
1773258445778599700,0.827599609375,-0.891845703125,-0.256622314453125,-0.2414093017578125
1773258445788614700,0.83761474609375,-0.8448028564453125,-0.26556396484375,-0.2578887939453125
1773258445798630700,0.847630615234375,-0.852264404296875,-0.2779083251953125,-0.23455810546875
1773258445808645600,0.857645751953125,-0.8848114013671875,-0.3014984130859375,-0.195037841796875
1773258445818660900,0.867660888671875,-0.92974853515625,-0.2867431640625,-0.18670654296875
1773258445828676600,0.877676513671875,-0.9614410400390625,-0.291351318359375,-0.28179931640625
1773258445838691600,0.887691650390625,-0.930694580078125,-0.3644866943359375,-0.6497344970703125
1773258445848707600,0.89770751953125,-0.9268951416015625,-0.3142242431640625,-0.7511749267578125
1773258445858722600,0.90772265625,-0.988800048828125,-0.091064453125,-0.5857086181640625
1773258445868738600,0.917738525390625,-1.0509185791015625,0.003753662109375,-0.4989776611328125
1773258445878753500,0.92775341796875,-1.0748291015625,-0.084442138671875,-0.5125732421875
1773258445888769500,0.93776953125,-1.05230712890625,-0.214569091796875,-0.5201263427734375
1773258445898784500,0.947784423828125,-0.939849853515625,-0.276763916015625,-0.4842681884765625
1773258445908799700,0.9577998046875,-0.768463134765625,-0.27764892578125,-0.447967529296875
1773258445918815500,0.9678154296875,-0.5395660400390625,-0.31427001953125,-0.399566650390625
1773258445928830700,0.977830810546875,-0.424407958984375,-0.441864013671875,-0.412139892578125
1773258445938846500,0.987846435546875,-0.4185333251953125,-0.459503173828125,-0.3298187255859375
1773258445948861700,0.99786181640625,-0.418914794921875,-0.37945556640625,-0.20062255859375
1773258445958877400,1.00787744140625,-0.3445281982421875,-0.300079345703125,-0.1599273681640625
1773258445968892700,1.017892578125,-0.3612213134765625,-0.2774200439453125,-0.2335662841796875
1773258445978908700,1.02790869140625,-0.579193115234375,-0.27789306640625,-0.351165771484375
1773258445988924000,1.037923828125,-0.6989593505859375,-0.275146484375,-0.4042205810546875
1773258445998939000,1.04793896484375,-0.852691650390625,-0.273529052734375,-0.43505859375
1773258446008955000,1.057954833984375,-1.011138916015625,-0.235992431640625,-0.4844207763671875
1773258446018969900,1.067969970703125,-1.060272216796875,-0.2103118896484375,-0.43853759765625
1773258446028985900,1.07798583984375,-1.1571044921875,-0.206939697265625,-0.35791015625
1773258446039000800,1.088000732421875,-1.1876678466796875,-0.207427978515625,-0.30255126953125
1773258446049016800,1.098016845703125,-1.1663360595703125,-0.173583984375,-0.210205078125
1773258446059031800,1.10803173828125,-1.1470489501953125,-0.118896484375,-0.1343841552734375
1773258446069047800,1.1180478515625,-1.10595703125,-0.0880889892578125,-0.1279449462890625
1773258446079062800,1.128062744140625,-1.0408477783203125,-0.0807037353515625,-0.12261962890625
1773258446089078800,1.138078857421875,-0.9864654541015625,-0.1029052734375,-0.0635223388671875
1773258446099093800,1.14809375,-0.9809112548828125,-0.0982818603515625,0.003692626953125
1773258446109108700,1.158108642578125,-1.0623779296875,-0.108795166015625,0.0108184814453125
1773258446119124700,1.168124755859375,-1.13299560546875,-0.1297454833984375,-0.0462188720703125
1773258446129139700,1.1781396484375,-1.178436279296875,-0.14288330078125,-0.0999298095703125
1773258446139155700,1.18815576171875,-1.18585205078125,-0.1137847900390625,-0.12713623046875
1773258446149170700,1.198170654296875,-1.0406951904296875,-0.0994873046875,-0.1682891845703125
1773258446159186200,1.208186279296875,-0.9532470703125,-0.1234130859375,-0.2092437744140625
1773258446169201200,1.218201171875,-0.947235107421875,-0.13885498046875,-0.2490234375
1773258446179217200,1.228217041015625,-0.9411773681640625,-0.1696624755859375,-0.366851806640625
1773258446189232000,1.238232177734375,-0.90087890625,-0.1522216796875,-0.342926025390625
1773258446199248100,1.248248046875,-0.921722412109375,-0.1306610107421875,-0.2605438232421875
1773258446209263000,1.25826318359375,-0.9430999755859375,-0.149566650390625,-0.240570068359375
1773258446219278000,1.268278076171875,-0.98388671875,-0.1436767578125,-0.2202911376953125
1773258446229294300,1.27829443359375,-1.0247650146484375,-0.16033935546875,-0.20611572265625
1773258446239309000,1.28830908203125,-1.0654754638671875,-0.1723480224609375,-0.21240234375
1773258446249325300,1.2983251953125,-1.0908966064453125,-0.154266357421875,-0.2150726318359375
1773258446259340300,1.30834033203125,-1.093963623046875,-0.145477294921875,-0.216644287109375
1773258446269356300,1.318356201171875,-1.055938720703125,-0.139404296875,-0.2320556640625
1773258446279371300,1.328371337890625,-0.986846923828125,-0.1301727294921875,-0.2464752197265625
1773258446289387300,1.33838720703125,-0.9825286865234375,-0.10650634765625,-0.24835205078125
1773258446299402200,1.34840234375,-0.9704437255859375,-0.0885772705078125,-0.22637939453125
1773258446309418200,1.358418212890625,-0.9669036865234375,-0.097686767578125,-0.20361328125
1773258446319433200,1.36843310546875,-0.9718170166015625,-0.11962890625,-0.1749114990234375
1773258446329449200,1.37844921875,-0.97271728515625,-0.1275787353515625,-0.153045654296875
1773258446339464200,1.388464111328125,-0.960296630859375,-0.1360321044921875,-0.157623291015625
1773258446349480200,1.398480224609375,-0.92041015625,-0.151611328125,-0.1833648681640625
1773258446359495200,1.4084951171875,-0.891845703125,-0.16839599609375,-0.1561279296875
1773258446369510100,1.41851025390625,-0.883941650390625,-0.185882568359375,-0.104705810546875
1773258446379526100,1.428526123046875,-0.91265869140625,-0.1775360107421875,-0.114898681640625
1773258446389541000,1.438541015625,-0.9473724365234375,-0.15777587890625,-0.1408843994140625
1773258446399557000,1.44855712890625,-0.9705047607421875,-0.1457061767578125,-0.1294097900390625
1773258446409572000,1.458572021484375,-0.9920654296875,-0.1398468017578125,-0.1264190673828125
1773258446419588000,1.468588134765625,-1.005401611328125,-0.140869140625,-0.138702392578125
1773258446429603000,1.47860302734375,-1.0116119384765625,-0.13800048828125,-0.1304931640625
1773258446439619000,1.488619140625,-1.0163116455078125,-0.1383819580078125,-0.1338653564453125
1773258446449634000,1.498634033203125,-0.999298095703125,-0.1422576904296875,-0.1405181884765625
1773258446459650300,1.508650390625,-0.95703125,-0.1595916748046875,-0.134124755859375
1773258446469665300,1.518665283203125,-0.91729736328125,-0.1788177490234375,-0.1244659423828125
1773258446479681300,1.528681396484375,-0.9100189208984375,-0.186309814453125,-0.1102752685546875
1773258446489696300,1.5386962890625,-0.9308929443359375,-0.1952056884765625,-0.092437744140625
1773258446499712300,1.548712158203125,-0.962615966796875,-0.1978607177734375,-0.0771942138671875
1773258446509727200,1.558727294921875,-0.9886322021484375,-0.1878204345703125,-0.0980987548828125
1773258446519743200,1.5687431640625,-0.985565185546875,-0.1768646240234375,-0.1038818359375
1773258446529758200,1.57875830078125,-1.00323486328125,-0.1719207763671875,-0.094879150390625
1773258446539774200,1.588774169921875,-1.108642578125,-0.16607666015625,-0.07958984375
1773258446549789200,1.5987890625,-1.1553192138671875,-0.1474761962890625,-0.131134033203125
1773258446559804200,1.60880419921875,-1.114898681640625,-0.1273040771484375,-0.2115936279296875
1773258446569820200,1.618820068359375,-1.05609130859375,-0.102203369140625,-0.225677490234375
1773258446579835100,1.628835205078125,-0.9978179931640625,-0.1091766357421875,-0.2303619384765625
1773258446589851100,1.63885107421875,-0.9683837890625,-0.1273651123046875,-0.2323150634765625
1773258446599866000,1.6488662109375,-0.968231201171875,-0.1578369140625,-0.1527862548828125
1773258446609882000,1.658882080078125,-0.97528076171875,-0.22113037109375,-0.063140869140625
1773258446619897000,1.66889697265625,-0.962646484375,-0.26763916015625,-0.0745391845703125
1773258446629913000,1.6789130859375,-0.9319305419921875,-0.26019287109375,-0.130523681640625
1773258446639928000,1.688927978515625,-0.894195556640625,-0.247650146484375,-0.1570587158203125
1773258446649944000,1.698944091796875,-0.8789520263671875,-0.2510833740234375,-0.1570587158203125
1773258446659959000,1.708958984375,-0.87469482421875,-0.2660675048828125,-0.147308349609375
1773258446669975300,1.718975341796875,-0.882781982421875,-0.2629241943359375,-0.14044189453125
1773258446679990300,1.728990234375,-0.9019927978515625,-0.2350311279296875,-0.12530517578125
1773258446690006300,1.73900634765625,-0.93609619140625,-0.22406005859375,-0.100799560546875
1773258446700021200,1.749021240234375,-0.984954833984375,-0.2073516845703125,-0.0897216796875
1773258446710037200,1.759037353515625,-0.9883880615234375,-0.2008056640625,-0.0795135498046875
1773258446720052200,1.76905224609375,-0.9638824462890625,-0.2236785888671875,-0.0779266357421875
1773258446730067200,1.779067138671875,-0.927001953125,-0.240570068359375,-0.078125
1773258446740083200,1.789083251953125,-0.8962249755859375,-0.245147705078125,-0.0767364501953125
1773258446750098200,1.79909814453125,-0.8958892822265625,-0.2373199462890625,-0.07745361328125
1773258446760114200,1.8091142578125,-0.913848876953125,-0.23870849609375,-0.073455810546875
1773258446770129200,1.819129150390625,-0.94073486328125,-0.2298736572265625,-0.057586669921875
1773258446780145200,1.829145263671875,-0.9588470458984375,-0.2093505859375,-0.037628173828125
1773258446790160100,1.83916015625,-0.9669036865234375,-0.2022247314453125,-0.00921630859375
1773258446800176000,1.849176025390625,-0.981781005859375,-0.1927947998046875,0.0181884765625
1773258446810191000,1.859191162109375,-1.0167388916015625,-0.1877899169921875,0.061370849609375
1773258446820207000,1.86920703125,-1.04656982421875,-0.187835693359375,0.0858306884765625
1773258446830222000,1.87922216796875,-1.0593414306640625,-0.197174072265625,0.0913848876953125
1773258446840238000,1.889238037109375,-1.0432891845703125,-0.194915771484375,0.111663818359375
1773258446850253000,1.899253173828125,-1.011260986328125,-0.209259033203125,0.1072845458984375
1773258446860269000,1.90926904296875,-0.9736175537109375,-0.22711181640625,0.1160430908203125
1773258446870284000,1.919283935546875,-0.944793701171875,-0.231781005859375,0.12744140625
1773258446880300300,1.92930029296875,-0.9197845458984375,-0.2332611083984375,0.1263427734375
1773258446890315300,1.939315185546875,-0.89971923828125,-0.23516845703125,0.122100830078125
1773258446900331300,1.949331298828125,-0.894805908203125,-0.228729248046875,0.1087646484375
1773258446910346200,1.95934619140625,-0.9050140380859375,-0.2153778076171875,0.106170654296875
1773258446920361200,1.969361328125,-0.933349609375,-0.210784912109375,0.105224609375
1773258446930377200,1.979377197265625,-0.9621124267578125,-0.212005615234375,0.124725341796875
1773258446940392200,1.98939208984375,-0.9825439453125,-0.2151031494140625,0.1437225341796875
1773258446950408200,1.999408203125,-0.99755859375,-0.218536376953125,0.147308349609375
1773258446960423200,2.009423095703125,-0.9958648681640625,-0.2226715087890625,0.174407958984375
1773258446970439200,2.019439208984375,-0.971588134765625,-0.236083984375,0.1928558349609375
1773258446980454100,2.0294541015625,-0.967681884765625,-0.2326812744140625,0.182098388671875
1773258446990470100,2.03947021484375,-0.9689788818359375,-0.220947265625,0.199462890625
1773258447000485000,2.049485107421875,-0.9636993408203125,-0.21148681640625,0.1798858642578125
1773258447010501000,2.059501220703125,-0.9546356201171875,-0.22698974609375,0.161712646484375
1773258447020516000,2.06951611328125,-0.9555816650390625,-0.228179931640625,0.1519012451171875
1773258447030532000,2.079531982421875,-0.937347412109375,-0.235321044921875,0.161468505859375
1773258447040547000,2.089547119140625,-0.930877685546875,-0.2445831298828125,0.1536102294921875
1773258447050563000,2.09956298828125,-0.918060302734375,-0.2444610595703125,0.1522064208984375
1773258447060578000,2.109578125,-0.9138336181640625,-0.2488861083984375,0.1576995849609375
1773258447070594000,2.119593994140625,-0.9208526611328125,-0.256591796875,0.1627960205078125
1773258447080609000,2.129609130859375,-0.93707275390625,-0.2674713134765625,0.155487060546875
1773258447090625300,2.139625244140625,-0.93011474609375,-0.25225830078125,0.155029296875
1773258447100640300,2.14964013671875,-0.92803955078125,-0.218780517578125,0.19354248046875
1773258447110656300,2.15965625,-0.9279022216796875,-0.19775390625,0.1939849853515625
1773258447120671200,2.169671142578125,-0.8986968994140625,-0.1649627685546875,0.1803741455078125
1773258447130686200,2.179686279296875,-0.8656005859375,-0.145233154296875,0.1853790283203125
1773258447140702200,2.1897021484375,-0.8656158447265625,-0.1602783203125,0.2017974853515625
1773258447150717200,2.19971728515625,-0.8983306884765625,-0.18365478515625,0.1284942626953125
1773258447160734700,2.209734619140625,-0.9351654052734375,-0.2192230224609375,0.1296844482421875
1773258447170749700,2.219749755859375,-0.943756103515625,-0.215240478515625,0.1341552734375
1773258447180765700,2.229765625,-0.7919464111328125,-0.0526885986328125,0.2447967529296875
1773258447190780700,2.23978076171875,-0.9532470703125,-0.08056640625,0.1165313720703125
1773258447200796700,2.249796630859375,-0.8472442626953125,-0.1566619873046875,0.0164337158203125
1773258447210811600,2.259811767578125,-0.69793701171875,-0.212493896484375,0.02716064453125
1773258447220827600,2.26982763671875,-0.9084930419921875,-0.227874755859375,0.076995849609375
1773258447230842600,2.279842529296875,-1.0504913330078125,-0.21435546875,0.145477294921875
1773258447240859000,2.28985888671875,-1.0169677734375,-0.1678314208984375,0.160919189453125
1773258447250873600,2.29987353515625,-1.0450897216796875,-0.10595703125,0.1280975341796875
1773258447260889900,2.309889892578125,-1.068634033203125,-0.06390380859375,0.118896484375
1773258447270904800,2.31990478515625,-1.068084716796875,-0.0439910888671875,0.1043548583984375
1773258447280920800,2.3299208984375,-1.0602264404296875,-0.045623779296875,0.0727081298828125
1773258447290935800,2.339935791015625,-1.0557861328125,-0.0659027099609375,0.050323486328125
1773258447300951800,2.349951904296875,-1.06170654296875,-0.0786895751953125,0.0493011474609375
1773258447310966800,2.359966796875,-1.0547637939453125,-0.0639495849609375,0.042877197265625
1773258447320981800,2.369981689453125,-1.041412353515625,-0.0323333740234375,0.0265045166015625
1773258447330997800,2.379997802734375,-1.0556793212890625,-0.0246429443359375,0.0032196044921875
1773258447341012700,2.3900126953125,-1.0673980712890625,-0.0339202880859375,0.00726318359375
1773258447351028700,2.40002880859375,-1.0825958251953125,-0.0257720947265625,0.0316009521484375
1773258447361043700,2.410043701171875,-1.120330810546875,-0.0183868408203125,0.0484466552734375
1773258447371059700,2.420059814453125,-1.1522064208984375,-0.0182952880859375,0.0552520751953125
1773258447381074700,2.43007470703125,-1.1619110107421875,-0.020233154296875,0.060943603515625
1773258447391090700,2.440090576171875,-1.16070556640625,-0.024017333984375,0.05303955078125
1773258447401105700,2.450105712890625,-1.127166748046875,-0.0245361328125,0.0087127685546875
1773258447411121700,2.46012158203125,-1.1016082763671875,-0.0361328125,-0.06317138671875
1773258447421136600,2.47013671875,-1.099822998046875,-0.0681915283203125,-0.1337890625
1773258447431152600,2.480152587890625,-1.05487060546875,-0.1123809814453125,-0.1446075439453125
1773258447441167600,2.490167724609375,-1.02923583984375,-0.1121368408203125,-0.1215972900390625
1773258447451183900,2.500183837890625,-1.016937255859375,-0.094024658203125,-0.104217529296875
1773258447461198600,2.510198486328125,-1.0001678466796875,-0.1088104248046875,-0.0853271484375
1773258447471214800,2.52021484375,-1.0008697509765625,-0.1206512451171875,-0.0644683837890625
1773258447481229800,2.530229736328125,-1.001953125,-0.12628173828125,-0.052001953125
1773258447491245800,2.540245849609375,-0.9835357666015625,-0.142181396484375,-0.0583343505859375
1773258447501260800,2.5502607421875,-0.934661865234375,-0.1470184326171875,-0.081573486328125
1773258447511276800,2.56027685546875,-0.894744873046875,-0.1461944580078125,-0.1092529296875
1773258447521291800,2.570291748046875,-0.8675079345703125,-0.1482696533203125,-0.1374664306640625
1773258447531307800,2.580307861328125,-0.83404541015625,-0.13983154296875,-0.2431488037109375
1773258447541322800,2.59032275390625,-0.753936767578125,-0.11651611328125,-0.3964996337890625
1773258447551337700,2.600337646484375,-0.755126953125,-0.09552001953125,-0.31182861328125
1773258447561353700,2.610353759765625,-0.8084716796875,-0.0802154541015625,-0.2462921142578125
1773258447571368700,2.62036865234375,-0.8017578125,-0.046051025390625,-0.184173583984375
1773258447581384700,2.630384765625,-0.8327178955078125,-0.024200439453125,-0.141845703125
1773258447591399700,2.640399658203125,-0.8756103515625,-0.005950927734375,-0.11181640625
1773258447601415700,2.650415771484375,-0.9864044189453125,0.0128326416015625,-0.045074462890625
1773258447611430700,2.6604306640625,-1.0965728759765625,0.0288543701171875,0.0024261474609375
1773258447621446700,2.67044677734375,-1.223541259765625,0.0234832763671875,0.009674072265625
1773258447631461600,2.680461669921875,-1.2462005615234375,0.0104827880859375,0.0069580078125
1773258447641477600,2.6904775390625,-1.201751708984375,0.036529541015625,-0.0324554443359375
1773258447651492600,2.70049267578125,-1.13372802734375,0.0931549072265625,-0.0579071044921875
1773258447661508900,2.7105087890625,-1.05902099609375,0.1495513916015625,-0.0704803466796875
1773258447671523600,2.720523681640625,-1.0171051025390625,0.16082763671875,-0.016845703125
1773258447681539800,2.730539794921875,-0.9826202392578125,0.1665496826171875,-0.0418853759765625
1773258447691554800,2.740554931640625,-0.880218505859375,0.120147705078125,-0.1792144775390625
1773258447701570800,2.75057080078125,-0.9253692626953125,0.03643798828125,-0.1308441162109375
1773258447711585800,2.760585693359375,-0.9733428955078125,0.036895751953125,-0.1354217529296875
1773258447721601800,2.770601806640625,-0.99871826171875,0.0571441650390625,-0.0315093994140625
1773258447731616800,2.78061669921875,-1.0391082763671875,0.06170654296875,0.0178985595703125
1773258447741632800,2.7906328125,-1.0823516845703125,0.093353271484375,0.0712890625
1773258447751647700,2.800647705078125,-1.1875457763671875,0.100128173828125,0.097442626953125
1773258447761663700,2.810663818359375,-1.2051239013671875,0.0166473388671875,0.09197998046875
1773258447771678700,2.8206787109375,-1.1674652099609375,-0.055633544921875,0.094512939453125
1773258447781694700,2.83069482421875,-1.0849151611328125,-0.0832366943359375,0.09234619140625
1773258447791709700,2.840709716796875,-1.00250244140625,-0.085052490234375,0.0772552490234375
1773258447801725700,2.8507255859375,-0.948577880859375,-0.061920166015625,0.063720703125
1773258447811740700,2.86074072265625,-0.9322357177734375,-0.0443878173828125,0.0414276123046875
1773258447821755600,2.870755615234375,-0.9122161865234375,-0.0605926513671875,0.04852294921875
1773258447831771600,2.880771728515625,-0.8940277099609375,-0.0755615234375,0.08807373046875
1773258447841786600,2.89078662109375,-0.8721771240234375,-0.0740509033203125,0.11749267578125
1773258447851802600,2.900802734375,-0.86236572265625,-0.0734405517578125,0.12298583984375
1773258447861817600,2.910817626953125,-0.873016357421875,-0.0728912353515625,0.1188507080078125
1773258447871833900,2.920833740234375,-0.897796630859375,-0.0679779052734375,0.1104583740234375
1773258447881848600,2.9308486328125,-0.955596923828125,-0.063140869140625,0.0941009521484375
1773258447891864800,2.94086474609375,-1.0238800048828125,-0.039215087890625,0.09783935546875
1773258447901879800,2.9508798828125,-1.0475006103515625,-0.0079498291015625,0.0737152099609375
1773258447911895800,2.960895751953125,-1.0400390625,0.01324462890625,0.029632568359375
1773258447921910800,2.970910888671875,-1.024566650390625,0.0482635498046875,-0.0083770751953125
1773258447931926800,2.9809267578125,-1.033538818359375,0.09844970703125,0.01947021484375
1773258447941941800,2.990941650390625,-1.034423828125,0.12506103515625,0.1372222900390625
1773258447951957800,3.000957763671875,-1.051727294921875,0.1004638671875,0.225799560546875
1773258447961972700,3.01097265625,-1.092620849609375,0.07196044921875,0.2815093994140625
1773258447971988700,3.02098876953125,-1.1014862060546875,0.048980712890625,0.2707366943359375
1773258447982003700,3.031003662109375,-1.0907135009765625,0.0160369873046875,0.249725341796875
1773258447992019700,3.041019775390625,-1.080169677734375,0.0070953369140625,0.265228271484375
1773258448002034700,3.05103466796875,-1.0981903076171875,-0.001007080078125,0.2827301025390625
1773258448012050700,3.06105078125,-1.0882110595703125,-0.03546142578125,0.250518798828125
1773258448022065700,3.071065673828125,-1.04425048828125,-0.0626220703125,0.2070159912109375
1773258448032081700,3.08108154296875,-0.9875030517578125,-0.05902099609375,0.194061279296875
1773258448042096600,3.0910966796875,-0.9397735595703125,-0.0196990966796875,0.1767578125
1773258448052112600,3.101112548828125,-0.926116943359375,0.0281829833984375,0.14569091796875
1773258448062127600,3.111127685546875,-0.9649505615234375,0.0189971923828125,0.088409423828125
1773258448072144000,3.121143798828125,-1.0192718505859375,0.03265380859375,0.0859527587890625
1773258448082158600,3.13115869140625,-1.05377197265625,0.050811767578125,0.0375518798828125
1773258448092174800,3.1411748046875,-1.0339202880859375,0.0711517333984375,-0.0248260498046875
1773258448102189800,3.15118994140625,-0.9595794677734375,0.1246185302734375,-0.0087127685546875
1773258448112204800,3.161204833984375,-0.931427001953125,0.1112213134765625,-0.0496826171875
1773258448122220800,3.171220703125,-0.863006591796875,0.09722900390625,-0.08441162109375
1773258448132235800,3.18123583984375,-0.7569580078125,0.1278839111328125,-0.0759735107421875
1773258448142251800,3.191251708984375,-0.7492828369140625,0.132476806640625,-0.03948974609375
1773258448152266800,3.201266845703125,-0.7745208740234375,0.1448211669921875,-0.02911376953125
1773258448162281700,3.21128173828125,-0.77105712890625,0.1573028564453125,0.0525054931640625
1773258448172296700,3.221296630859375,-0.807586669921875,0.144317626953125,0.1563873291015625
1773258448182312700,3.231312744140625,-0.8873443603515625,0.085113525390625,0.2220611572265625
1773258448192327700,3.24132763671875,-0.92877197265625,0.056243896484375,0.196319580078125
1773258448202343700,3.25134375,-0.9689178466796875,0.0522003173828125,0.232513427734375
1773258448212358700,3.261358642578125,-0.95684814453125,0.103790283203125,0.233551025390625
1773258448222374700,3.271374755859375,-0.933685302734375,0.213592529296875,0.220550537109375
1773258448232389600,3.2813896484375,-0.936981201171875,0.19183349609375,0.2450408935546875
1773258448242405600,3.291405517578125,-0.9564056396484375,0.11700439453125,0.2047882080078125
1773258448252420600,3.301420654296875,-0.9434356689453125,0.12506103515625,0.2610931396484375
1773258448262436600,3.3114365234375,-0.884033203125,0.081207275390625,0.2984771728515625
1773258448272451600,3.32145166015625,-0.8424224853515625,0.029693603515625,0.3416290283203125
1773258448282467600,3.331467529296875,-0.8267822265625,0.0706939697265625,0.4004058837890625
1773258448292482600,3.341482666015625,-0.7724761962890625,0.11358642578125,0.390045166015625
1773258448302498600,3.35149853515625,-0.6884613037109375,0.200469970703125,0.45465087890625
1773258448312513500,3.361513427734375,-0.7280120849609375,0.175018310546875,0.4937591552734375
1773258448322529800,3.37152978515625,-0.77215576171875,0.05596923828125,0.4815216064453125
1773258448332544500,3.38154443359375,-0.89715576171875,0.0567779541015625,0.5433349609375
1773258448342560800,3.391560791015625,-0.9656982421875,0.0726776123046875,0.522796630859375
1773258448352575700,3.40157568359375,-1.0001678466796875,0.12017822265625,0.5281982421875
1773258448362591700,3.411591796875,-1.01800537109375,0.1954193115234375,0.5726776123046875
1773258448372606700,3.421606689453125,-1.0169525146484375,0.2488555908203125,0.54595947265625
1773258448382622700,3.431622802734375,-1.0054779052734375,0.3189697265625,0.52239990234375
1773258448392637700,3.4416376953125,-1.0139312744140625,0.384246826171875,0.515777587890625
1773258448402653700,3.45165380859375,-1.0526275634765625,0.459197998046875,0.4947967529296875
1773258448412668700,3.461668701171875,-1.09088134765625,0.4768829345703125,0.5319366455078125
1773258448422684700,3.4716845703125,-1.120819091796875,0.3979034423828125,0.5510101318359375
1773258448432699600,3.48169970703125,-1.102447509765625,0.2633819580078125,0.6033782958984375
1773258448442715600,3.491715576171875,-1.023712158203125,0.129425048828125,0.6061859130859375
1773258448452730600,3.501730712890625,-1.004547119140625,-0.0001220703125,0.620086669921875
1773258448462746600,3.51174658203125,-0.9130401611328125,-0.060638427734375,0.639984130859375
1773258448472761600,3.52176171875,-0.9208526611328125,-0.034423828125,0.7234954833984375
1773258448482777600,3.531777587890625,-0.9241943359375,0.0225067138671875,0.8251495361328125
1773258448492792600,3.54179248046875,-0.9981689453125,0.0262603759765625,0.8610382080078125
1773258448502808600,3.55180859375,-1.09735107421875,-0.0020599365234375,0.9205322265625
1773258448512823600,3.561823486328125,-1.1549072265625,-0.0571136474609375,0.9479522705078125
1773258448522839800,3.57183984375,-1.18359375,-0.1319427490234375,0.951385498046875
1773258448532854800,3.581854736328125,-1.1712188720703125,-0.2024078369140625,0.9560089111328125
1773258448542870800,3.591870849609375,-1.1349029541015625,-0.255096435546875,0.969757080078125
1773258448552885800,3.6018857421875,-1.0070953369140625,-0.277008056640625,1.0182037353515625
1773258448562901800,3.61190185546875,-0.9190673828125,-0.197021484375,1.0789794921875
1773258448572916700,3.621916748046875,-0.8880462646484375,-0.1405181884765625,1.0208587646484375
1773258448582932700,3.6319326171875,-0.8284454345703125,-0.1067657470703125,1.014892578125
1773258448592947700,3.64194775390625,-0.77435302734375,-0.050018310546875,0.953521728515625
1773258448602963700,3.651963623046875,-0.6937713623046875,0.0109100341796875,0.8979644775390625
1773258448612978700,3.661978759765625,-0.6122589111328125,0.086639404296875,0.8157501220703125
1773258448622994700,3.67199462890625,-0.5550079345703125,0.1638641357421875,0.7185211181640625
1773258448633009700,3.682009765625,-0.5084075927734375,0.228668212890625,0.668914794921875
1773258448643025700,3.692025634765625,-0.43670654296875,0.316253662109375,0.7018280029296875
1773258448653040600,3.70204052734375,-0.1349639892578125,0.5256500244140625,0.6589508056640625
1773258448663056600,3.712056640625,-0.3134765625,0.6252593994140625,0.32061767578125
1773258448673071600,3.722071533203125,-0.2963104248046875,0.6604461669921875,0.4253387451171875
1773258448683087600,3.732087646484375,-0.3828887939453125,0.6371917724609375,0.30792236328125
1773258448693102600,3.7421025390625,-0.37237548828125,0.6156463623046875,0.2610321044921875
1773258448703118800,3.752118896484375,-0.3402252197265625,0.60101318359375,0.3057861328125
1773258448713133600,3.762133544921875,-0.430511474609375,0.6181793212890625,0.351104736328125
1773258448723148500,3.7721484375,-0.599609375,0.5976104736328125,0.47076416015625
1773258448733164800,3.782164794921875,-0.7848358154296875,0.498321533203125,0.481964111328125
1773258448743179800,3.7921796875,-0.97442626953125,0.4166259765625,0.54071044921875
1773258448753195800,3.80219580078125,-1.0927581787109375,0.306671142578125,0.5773468017578125
1773258448763210800,3.812210693359375,-1.1129913330078125,0.18096923828125,0.563629150390625
1773258448773226800,3.822226806640625,-1.1086578369140625,0.1112060546875,0.53912353515625
1773258448783241700,3.83224169921875,-1.139801025390625,0.0628814697265625,0.52044677734375
1773258448793257700,3.8422578125,-1.1986846923828125,0.056060791015625,0.5571441650390625
1773258448803272700,3.852272705078125,-1.327056884765625,0.0941009521484375,0.5509033203125
1773258448813288700,3.862288818359375,-1.364776611328125,0.0919647216796875,0.5426788330078125
1773258448823303700,3.8723037109375,-1.30615234375,0.128509521484375,0.5392303466796875
1773258448833319700,3.882319580078125,-1.2717437744140625,0.1560821533203125,0.4721527099609375
1773258448843334700,3.892334716796875,-1.22314453125,0.12408447265625,0.434356689453125
1773258448853350700,3.9023505859375,-1.0706787109375,0.1409759521484375,0.5039825439453125
1773258448863365600,3.91236572265625,-1.034393310546875,0.2375640869140625,0.4181976318359375
1773258448873381600,3.922381591796875,-0.933380126953125,0.28704833984375,0.3797760009765625
1773258448883396600,3.932396728515625,-0.7657623291015625,0.3436431884765625,0.3152313232421875
1773258448893412600,3.94241259765625,-0.64569091796875,0.4051055908203125,0.2624053955078125
1773258448903427600,3.952427490234375,-0.5750579833984375,0.368499755859375,0.2537994384765625
1773258448913443600,3.962443603515625,-0.5750885009765625,0.3563995361328125,0.24261474609375
1773258448923458600,3.97245849609375,-0.552581787109375,0.3961181640625,0.2837066650390625
1773258448933474800,3.982474853515625,-0.575836181640625,0.358489990234375,0.31256103515625
1773258448943489800,3.99248974609375,-0.64208984375,0.3085784912109375,0.301055908203125
1773258448953505800,4.002505859375,-0.8196868896484375,0.369232177734375,0.3668212890625
1773258448963520800,4.012520751953125,-0.7772064208984375,0.191680908203125,0.354217529296875
1773258448973536800,4.022536865234375,-0.74810791015625,0.1689453125,0.4759674072265625
1773258448983551700,4.0325517578125,-0.6657257080078125,0.05810546875,0.4184417724609375
1773258448993567700,4.042567626953125,-0.664947509765625,0.015380859375,0.43743896484375
1773258449003582700,4.052582763671875,-0.7104949951171875,0.0455780029296875,0.4199066162109375
1773258449013598700,4.0625986328125,-0.7188720703125,0.0801544189453125,0.340484619140625
1773258449023613700,4.07261376953125,-0.7664947509765625,0.1196136474609375,0.28033447265625
1773258449033629700,4.082629638671875,-0.7844390869140625,0.1748809814453125,0.2724761962890625
1773258449043644700,4.092644775390625,-0.947479248046875,0.210479736328125,0.2197723388671875
1773258449053660700,4.10266064453125,-1.1482391357421875,0.1994476318359375,0.10662841796875
1773258449063675600,4.112675537109375,-1.1492462158203125,0.228973388671875,0.03369140625
1773258449073691600,4.122691650390625,-1.0203399658203125,0.2304840087890625,0.04144287109375
1773258449083706600,4.13270654296875,-0.903045654296875,0.2001495361328125,0.1200408935546875
1773258449093722600,4.14272265625,-0.7975616455078125,0.143096923828125,0.1219940185546875
1773258449103737600,4.152737548828125,-0.7671661376953125,0.1036834716796875,0.1700286865234375
1773258449113753900,4.16275390625,-0.8003692626953125,0.112823486328125,0.347320556640625
1773258449123768600,4.1727685546875,-0.7776947021484375,0.116424560546875,0.3796539306640625
1773258449133784800,4.182784912109375,-0.7720794677734375,0.1824798583984375,0.41021728515625
1773258449143799800,4.1927998046875,-0.809783935546875,0.2357330322265625,0.509033203125
1773258449153815800,4.20281591796875,-0.8642578125,0.32342529296875,0.57470703125
1773258449163830300,4.212830322265625,-0.878082275390625,0.3366851806640625,0.548095703125
1773258449173845200,4.22284521484375,-0.8847808837890625,0.3282470703125,0.55810546875
1773258449183861200,4.232861328125,-0.822113037109375,0.363983154296875,0.5854644775390625
1773258449193876200,4.242876220703125,-0.7523956298828125,0.3522491455078125,0.5631103515625
1773258449203892200,4.252892333984375,-0.7833251953125,0.2954254150390625,0.6040191650390625
1773258449213907200,4.2629072265625,-0.7569427490234375,0.361602783203125,0.5931854248046875
1773258449223923200,4.272923095703125,-0.7996673583984375,0.501678466796875,0.5016937255859375
1773258449233938200,4.282938232421875,-0.9507293701171875,0.7237396240234375,0.3958282470703125
1773258449243954200,4.2929541015625,-1.035980224609375,0.833221435546875,0.3772125244140625
1773258449253969200,4.30296923828125,-0.9481048583984375,0.86328125,0.3171539306640625
1773258449263985200,4.312985107421875,-0.8423309326171875,0.8787078857421875,0.2948150634765625
1773258449274000100,4.323000244140625,-0.656341552734375,0.8355255126953125,0.2722930908203125
1773258449284016000,4.33301611328125,-0.53253173828125,0.7674560546875,0.277618408203125
1773258449294031000,4.343031005859375,-0.4860382080078125,0.706451416015625,0.3546295166015625
1773258449304047000,4.353047119140625,-0.54180908203125,0.6551361083984375,0.443206787109375
1773258449314062000,4.36306201171875,-0.67474365234375,0.5569000244140625,0.511138916015625
1773258449324078000,4.373078125,-0.782623291015625,0.4468841552734375,0.559295654296875
1773258449334093000,4.383093017578125,-0.8677825927734375,0.4077606201171875,0.5975799560546875
1773258449344109300,4.393109375,-0.850250244140625,0.388916015625,0.6669464111328125
1773258449354124000,4.4031240234375,-0.860687255859375,0.3199920654296875,0.6941375732421875
1773258449364140300,4.413140380859375,-0.86553955078125,0.2443389892578125,0.7049713134765625
1773258449374155300,4.4231552734375,-0.8946990966796875,0.2037506103515625,0.7140960693359375
1773258449384171300,4.433171142578125,-0.9501800537109375,0.1915130615234375,0.734222412109375
1773258449394186200,4.443186279296875,-0.982269287109375,0.21453857421875,0.7811431884765625
1773258449404202200,4.4532021484375,-0.974884033203125,0.2403564453125,0.74462890625
1773258449414217200,4.46321728515625,-0.91595458984375,0.2535247802734375,0.715240478515625
1773258449424233200,4.473233154296875,-0.8606109619140625,0.2523193359375,0.69671630859375
1773258449434248200,4.483248291015625,-0.7888031005859375,0.278656005859375,0.6438751220703125
1773258449444264200,4.49326416015625,-0.7298736572265625,0.3470001220703125,0.6005401611328125
1773258449454279200,4.503279052734375,-0.6894683837890625,0.405731201171875,0.578582763671875
1773258449464294100,4.513294189453125,-0.597747802734375,0.435943603515625,0.5827484130859375
1773258449474310100,4.52331005859375,-0.4982452392578125,0.4330596923828125,0.6066436767578125
1773258449484325000,4.5333251953125,-0.42547607421875,0.4326934814453125,0.5911865234375
1773258449494341000,4.543341064453125,-0.3436126708984375,0.43310546875,0.6204681396484375
1773258449504356000,4.553356201171875,-0.2886962890625,0.443084716796875,0.5977630615234375
1773258449514372000,4.5633720703125,-0.4245147705078125,0.4888916015625,0.544921875
1773258449524387000,4.573386962890625,-0.632354736328125,0.5373077392578125,0.4428253173828125
1773258449534403000,4.583403076171875,-0.71600341796875,0.503631591796875,0.419342041015625
1773258449544418000,4.59341796875,-0.7697906494140625,0.4656829833984375,0.40557861328125
1773258449554434300,4.603434326171875,-0.7787933349609375,0.4506988525390625,0.3825225830078125
1773258449564449000,4.613448974609375,-0.8165283203125,0.46728515625,0.3702545166015625
1773258449574465300,4.62346533203125,-0.8520355224609375,0.4088592529296875,0.4336090087890625
1773258449584480300,4.633480224609375,-0.8806304931640625,0.35821533203125,0.4385986328125
1773258449594496300,4.643496337890625,-0.8712921142578125,0.405517578125,0.446807861328125
1773258449604511200,4.65351123046875,-0.81585693359375,0.469482421875,0.41741943359375
1773258449614527200,4.66352734375,-0.7480316162109375,0.528045654296875,0.336761474609375
1773258449624542200,4.673542236328125,-0.7066650390625,0.5579681396484375,0.3251190185546875
1773258449634558200,4.68355810546875,-0.7159271240234375,0.616668701171875,0.3204345703125
1773258449644573200,4.6935732421875,-0.7242431640625,0.6946258544921875,0.296844482421875
1773258449654589200,4.703589111328125,-0.644134521484375,0.8070068359375,0.3034820556640625
1773258449664604200,4.713604248046875,-0.646697998046875,0.884765625,0.272003173828125
1773258449674620200,4.7236201171875,-0.7015838623046875,0.871673583984375,0.2472381591796875
1773258449684635100,4.73363525390625,-0.7438507080078125,0.8619384765625,0.2744140625
1773258449694651100,4.743651123046875,-0.7456512451171875,0.83917236328125,0.2956085205078125
1773258449704666000,4.753666015625,-0.7271881103515625,0.821624755859375,0.341278076171875
1773258449714681000,4.76368115234375,-0.77191162109375,0.7121734619140625,0.3780670166015625
1773258449724697000,4.773697021484375,-0.850982666015625,0.5138092041015625,0.43731689453125
1773258449734712000,4.783712158203125,-0.9075164794921875,0.3962249755859375,0.502716064453125
1773258449744728000,4.79372802734375,-0.957794189453125,0.275421142578125,0.54632568359375
1773258449754743000,4.803742919921875,-0.9704742431640625,0.2230682373046875,0.5943756103515625
1773258449764759000,4.813759033203125,-0.92333984375,0.2206268310546875,0.6552276611328125
1773258449774774000,4.82377392578125,-0.9134063720703125,0.23004150390625,0.6303863525390625
1773258449784790300,4.833790283203125,-0.935211181640625,0.230560302734375,0.619659423828125
1773258449794805200,4.84380517578125,-0.9427642822265625,0.2609405517578125,0.590301513671875
1773258449804821200,4.8538212890625,-0.9488067626953125,0.3363800048828125,0.530609130859375
1773258449814836200,4.863836181640625,-0.9454345703125,0.4317169189453125,0.5033111572265625
1773258449824852200,4.873852294921875,-0.96112060546875,0.53204345703125,0.434844970703125
1773258449834867200,4.8838671875,-1.001251220703125,0.587646484375,0.38311767578125
1773258449844883200,4.89388330078125,-1.027252197265625,0.6027984619140625,0.350433349609375
1773258449854898200,4.903898193359375,-1.0289154052734375,0.6204071044921875,0.3447265625
1773258449864914200,4.9139140625,-0.99530029296875,0.6202850341796875,0.3628082275390625
1773258449874929200,4.92392919921875,-0.9860076904296875,0.5884246826171875,0.3828887939453125
1773258449884945200,4.933945068359375,-0.9604034423828125,0.5578155517578125,0.4224395751953125
1773258449894960000,4.943960205078125,-0.8838958740234375,0.52032470703125,0.4470367431640625
1773258449904975000,4.95397509765625,-0.8331756591796875,0.4503631591796875,0.44293212890625
1773258449914991000,4.9639912109375,-0.73394775390625,0.3742828369140625,0.4763031005859375
1773258449925006000,4.974006103515625,-0.6019744873046875,0.3726348876953125,0.4993743896484375
1773258449935022000,4.98402197265625,-0.472625732421875,0.417083740234375,0.4499969482421875
1773258449945037000,4.994037109375,-0.4293975830078125,0.450775146484375,0.387115478515625
1773258449955053000,5.004052978515625,-0.4791107177734375,0.47601318359375,0.3516693115234375
1773258449965068000,5.014068115234375,-0.515533447265625,0.536376953125,0.335205078125
1773258449975084000,5.024083984375,0.2728271484375,0.796234130859375,0.1876373291015625
1773258449985099000,5.03409912109375,0.7191314697265625,0.8591461181640625,0.167755126953125
1773258449995115300,5.044115234375,-0.2052001953125,0.4484710693359375,0.385162353515625
1773258450005130200,5.054130126953125,-0.3691558837890625,0.32464599609375,0.29901123046875
1773258450015146200,5.064146240234375,-0.5393218994140625,0.5305023193359375,0.3070220947265625
1773258450025161200,5.0741611328125,-0.671722412109375,0.6807098388671875,0.32904052734375
1773258450035177200,5.08417724609375,-0.7549285888671875,0.7347412109375,0.268035888671875
1773258450045192200,5.094192138671875,-0.749969482421875,0.6974639892578125,0.2368316650390625
1773258450055208200,5.104208251953125,-0.6950836181640625,0.70086669921875,0.2249298095703125
1773258450065223200,5.11422314453125,-0.843902587890625,0.768310546875,0.2318572998046875
1773258450075239200,5.1242392578125,-1.097930908203125,0.7173309326171875,0.319366455078125
1773258450085254100,5.134254150390625,-1.166748046875,0.580963134765625,0.4514007568359375
1773258450095269000,5.14426904296875,-1.19244384765625,0.45751953125,0.44476318359375
1773258450105285000,5.15428515625,-1.255340576171875,0.3217926025390625,0.4165802001953125
1773258450115300000,5.164300048828125,-1.23138427734375,0.1824951171875,0.41888427734375
1773258450125316000,5.174316162109375,-1.161712646484375,0.078369140625,0.473968505859375
1773258450135331000,5.1843310546875,-1.1478729248046875,0.018829345703125,0.4251861572265625
1773258450145347000,5.19434716796875,-1.16949462890625,-0.02056884765625,0.3612213134765625
1773258450155362000,5.204362060546875,-1.2124786376953125,0.0361785888671875,0.3074188232421875
1773258450165378300,5.21437841796875,-1.225921630859375,0.1439666748046875,0.2441864013671875
1773258450175393300,5.224393310546875,-1.134735107421875,0.3044281005859375,0.1593475341796875
1773258450185409500,5.234409423828125,-0.96588134765625,0.4605712890625,0.0655670166015625
1773258450195424300,5.24442431640625,-0.7936553955078125,0.6135101318359375,-0.0740203857421875
1773258450205440500,5.2544404296875,-0.7070159912109375,0.689117431640625,-0.0815582275390625
1773258450215455500,5.26445556640625,-0.5708770751953125,0.5544891357421875,0.0837249755859375
1773258450225471500,5.274471435546875,-0.4659271240234375,0.4689178466796875,0.1966094970703125
1773258450235486500,5.284486572265625,-0.3865203857421875,0.47967529296875,0.3022613525390625
1773258450245501400,5.29450146484375,-0.39483642578125,0.446441650390625,0.3277435302734375
1773258450255517400,5.304517333984375,-0.454345703125,0.4272918701171875,0.385589599609375
1773258450265532400,5.314532470703125,-0.5115509033203125,0.5904693603515625,0.4738311767578125
1773258450275548400,5.32454833984375,-0.5628204345703125,0.818115234375,0.4515533447265625
1773258450285563400,5.3345634765625,-0.6072845458984375,0.9249114990234375,0.35418701171875
1773258450295579400,5.344579345703125,-0.7255859375,0.8221282958984375,0.32281494140625
1773258450305594400,5.354594482421875,-0.75286865234375,0.753082275390625,0.4005126953125
1773258450315610400,5.3646103515625,-0.7889862060546875,0.7349395751953125,0.4184417724609375
1773258450325625300,5.374625244140625,-0.8671722412109375,0.714630126953125,0.418853759765625
1773258450335641300,5.384641357421875,-0.9169464111328125,0.7004547119140625,0.39190673828125
1773258450345656300,5.39465625,-0.92059326171875,0.684844970703125,0.3442230224609375
1773258450355672300,5.40467236328125,-0.9359283447265625,0.639251708984375,0.327880859375
1773258450365687300,5.414687255859375,-0.9864959716796875,0.5914154052734375,0.2714385986328125
1773258450375703300,5.424703369140625,-0.9785614013671875,0.5622406005859375,0.217132568359375
1773258450385718300,5.43471826171875,-0.942169189453125,0.5328521728515625,0.2151031494140625
1773258450395734500,5.444734619140625,-0.92010498046875,0.5294189453125,0.196075439453125
1773258450405749200,5.454749267578125,-0.7989959716796875,0.5908966064453125,0.1812896728515625
1773258450415765500,5.464765625,-0.7572174072265625,0.6615142822265625,0.1290130615234375
1773258450425780500,5.474780517578125,-0.742034912109375,0.7082672119140625,0.117340087890625
1773258450435795500,5.48479541015625,-0.6953277587890625,0.716705322265625,0.13134765625
1773258450445811500,5.4948115234375,-0.670867919921875,0.702850341796875,0.1673126220703125
1773258450455826400,5.504826416015625,-0.5648040771484375,0.6457061767578125,0.2436370849609375
1773258450465842400,5.514842529296875,-0.521270751953125,0.5469818115234375,0.2598724365234375
1773258450475857400,5.524857421875,-0.5503692626953125,0.4892730712890625,0.2884368896484375
1773258450485873400,5.534873291015625,-0.54876708984375,0.4974822998046875,0.332977294921875
1773258450495888400,5.544888427734375,-0.701385498046875,0.475555419921875,0.3374176025390625
1773258450505904400,5.554904296875,-0.8091888427734375,0.473236083984375,0.40093994140625
1773258450515919400,5.56491943359375,-0.9334564208984375,0.4314422607421875,0.3854827880859375
1773258450525935400,5.574935302734375,-1.0087127685546875,0.4691162109375,0.45660400390625
1773258450535950300,5.584950439453125,-1.01068115234375,0.472686767578125,0.4130096435546875
1773258450545966300,5.59496630859375,-0.9844970703125,0.4848175048828125,0.388580322265625
1773258450555981300,5.604981201171875,-0.9586639404296875,0.5105743408203125,0.400848388671875
1773258450565997300,5.614997314453125,-0.9351043701171875,0.5089874267578125,0.32476806640625
1773258450576012300,5.62501220703125,-0.91064453125,0.5242767333984375,0.2723388671875
1773258450586027300,5.63502734375,-0.92303466796875,0.5444488525390625,0.2242889404296875
1773258450596043300,5.645043212890625,-0.952850341796875,0.5713043212890625,0.158447265625
1773258450606058200,5.655058349609375,-1.03167724609375,0.5722808837890625,0.1617889404296875
1773258450616074200,5.66507421875,-1.104461669921875,0.5491180419921875,0.136566162109375
1773258450626089200,5.675089111328125,-1.13531494140625,0.5211639404296875,0.1638336181640625
1773258450636105500,5.68510546875,-1.149932861328125,0.496307373046875,0.23175048828125
1773258450646120400,5.695120361328125,-1.048614501953125,0.4405059814453125,0.2421112060546875
1773258450656136400,5.705136474609375,-0.84210205078125,0.3845367431640625,0.239349365234375
1773258450666151400,5.7151513671875,-0.2271575927734375,0.4634857177734375,0.09521484375
1773258450676167400,5.72516748046875,1.3244476318359375,0.6816253662109375,-0.1879425048828125
1773258450686182400,5.735182373046875,-0.188812255859375,0.3888397216796875,0.3126373291015625
1773258450696198400,5.745198486328125,-0.494537353515625,0.54620361328125,0.2908172607421875
1773258450706213400,5.75521337890625,-0.4590911865234375,0.7496795654296875,0.2263946533203125
1773258450716229400,5.7652294921875,-0.74127197265625,0.8010711669921875,0.249267578125
1773258450726244400,5.775244384765625,-0.762786865234375,0.93768310546875,0.328857421875
1773258450736259600,5.785259521484375,-0.514739990234375,0.96148681640625,0.26251220703125
1773258450746275300,5.795275390625,-0.430633544921875,0.8421173095703125,0.2431640625
1773258450756290600,5.80529052734375,-0.6359100341796875,0.8563690185546875,0.1939849853515625
1773258450766306300,5.815306396484375,-0.85479736328125,0.8910064697265625,0.1270751953125
1773258450776321500,5.825321533203125,-0.911956787109375,0.8475799560546875,0.2152557373046875
1773258450786337300,5.835337158203125,-1.0759735107421875,0.7245635986328125,0.2494964599609375
1773258450796352500,5.8453525390625,-1.1867523193359375,0.5867919921875,0.3269805908203125
1773258450806368300,5.8553681640625,-1.142547607421875,0.486602783203125,0.34906005859375
1773258450816383500,5.865383544921875,-1.2013092041015625,0.4586029052734375,0.3446807861328125
1773258450826399200,5.875399169921875,-1.4100494384765625,0.4739837646484375,0.3587799072265625
1773258450836414500,5.88541455078125,-1.3992919921875,0.4119415283203125,0.193145751953125
1773258450846430500,5.895430419921875,-1.23834228515625,0.2527923583984375,0.1576995849609375
1773258450856445400,5.905445556640625,-1.030242919921875,0.1844940185546875,0.353485107421875
1773258450866461400,5.91546142578125,-0.739044189453125,0.2211761474609375,0.305999755859375
1773258450876476400,5.925476318359375,-0.4160003662109375,0.25408935546875,0.185272216796875
1773258450886491600,5.93549169921875,-0.3053131103515625,0.3057708740234375,0.023345947265625
1773258450896507400,5.94550732421875,-0.33453369140625,0.4461669921875,-0.0450592041015625
1773258450906522600,5.955522705078125,-0.3287200927734375,0.5027313232421875,-0.0471038818359375
1773258450916538400,5.965538330078125,-0.38421630859375,0.4795684814453125,0.075408935546875
1773258450926553600,5.9755537109375,-0.3460540771484375,0.4651641845703125,0.1925201416015625
1773258450936569300,5.9855693359375,-0.3609466552734375,0.6553802490234375,0.3179779052734375
1773258450946584600,5.99558447265625,-0.48406982421875,1.025054931640625,0.3327178955078125
1773258450956600300,6.005600341796875,-0.5660858154296875,0.994384765625,0.2761688232421875
1773258450966615600,6.015615478515625,-0.605804443359375,0.895416259765625,0.3461456298828125
1773258450976631300,6.02563134765625,-0.587677001953125,0.84844970703125,0.3779449462890625
1773258450986646500,6.035646484375,-0.6669158935546875,0.834320068359375,0.3660430908203125
1773258450996662300,6.045662353515625,-0.8449554443359375,0.755645751953125,0.3321990966796875
1773258451006677500,6.055677490234375,-0.9778289794921875,0.71240234375,0.2742462158203125
1773258451016693200,6.065693359375,-0.9775238037109375,0.69146728515625,0.1805572509765625
1773258451026708500,6.07570849609375,-0.9886474609375,0.68328857421875,0.1348876953125
1773258451036723500,6.085723388671875,-0.9434051513671875,0.6595916748046875,0.156097412109375
1773258451046739500,6.095739501953125,-0.836212158203125,0.6025390625,0.1700439453125
1773258451056754400,6.10575439453125,-0.7476959228515625,0.5564117431640625,0.226593017578125
1773258451066770400,6.1157705078125,-0.664825439453125,0.5453338623046875,0.2928619384765625
1773258451076785400,6.125785400390625,-0.5765838623046875,0.58502197265625,0.3462982177734375
1773258451086801400,6.135801513671875,-0.493194580078125,0.629730224609375,0.3331451416015625
1773258451096816600,6.145816650390625,-0.4915618896484375,0.710357666015625,0.2097625732421875
1773258451106832400,6.155832275390625,-0.614959716796875,0.8561553955078125,0.0518646240234375
1773258451116847600,6.16584765625,-0.7441558837890625,0.87835693359375,0.0052642822265625
1773258451126863400,6.17586328125,-0.7591094970703125,0.7624664306640625,-0.0379791259765625
1773258451136878600,6.185878662109375,-0.7540435791015625,0.6692962646484375,0.0265045166015625
1773258451146894300,6.195894287109375,-0.8337860107421875,0.6144866943359375,0.0557861328125
1773258451156909600,6.20590966796875,-0.80731201171875,0.6518402099609375,0.071197509765625
1773258451166924300,6.21592431640625,-0.8533935546875,0.6821746826171875,0.0183868408203125
1773258451176940300,6.225940185546875,-0.8680419921875,0.694061279296875,0.0281219482421875
1773258451186955300,6.235955322265625,-0.8127288818359375,0.6707611083984375,0.2701568603515625
1773258451196971300,6.24597119140625,-0.7071685791015625,0.5157470703125,0.391754150390625
1773258451206986200,6.255986328125,-0.47662353515625,0.489837646484375,0.3791656494140625
1773258451217002200,6.266002197265625,-0.5319366455078125,0.5412139892578125,0.29974365234375
1773258451227017200,6.276017333984375,-0.787933349609375,0.5566864013671875,0.35040283203125
1773258451237033200,6.286033203125,-0.8278350830078125,0.5175323486328125,0.419036865234375
1773258451247048200,6.296048095703125,-0.8834991455078125,0.53326416015625,0.3381500244140625
1773258451257064200,6.306064208984375,-0.989959716796875,0.6273193359375,0.261749267578125
1773258451267079200,6.3160791015625,-0.9151763916015625,0.632232666015625,0.226043701171875
1773258451277095200,6.32609521484375,-0.7904815673828125,0.6517333984375,0.140777587890625
1773258451287110100,6.336110107421875,-0.7318572998046875,0.6642913818359375,0.1025848388671875
1773258451297125000,6.346125,-0.7511749267578125,0.6209869384765625,0.0809783935546875
1773258451307141000,6.35614111328125,-0.6658782958984375,0.5972747802734375,0.036224365234375
1773258451317156000,6.366156005859375,-0.6030731201171875,0.6724090576171875,0.0964202880859375
1773258451327172400,6.37617236328125,-0.6963348388671875,0.7905426025390625,0.2308807373046875
1773258451337187300,6.386187255859375,-0.688323974609375,0.8567352294921875,0.1377716064453125
1773258451347203300,6.396203369140625,-0.545684814453125,0.959716796875,0.037139892578125
1773258451357218300,6.40621826171875,-0.2808074951171875,1.0034942626953125,0.11181640625
1773258451367234300,6.416234375,-0.5015716552734375,0.7452239990234375,0.210418701171875
1773258451377249300,6.426249267578125,-0.7034759521484375,0.5825347900390625,0.409515380859375
1773258451387265300,6.436265380859375,-0.65838623046875,0.638397216796875,0.2498016357421875
1773258451397280300,6.4462802734375,-0.936279296875,0.6907806396484375,0.1440277099609375
1773258451407296300,6.456296142578125,-0.8926849365234375,0.744842529296875,0.2416534423828125
1773258451417311200,6.466311279296875,-0.7636566162109375,0.706634521484375,0.2292633056640625
1773258451427327200,6.4763271484375,-0.769683837890625,0.6430816650390625,0.1575927734375
1773258451437342200,6.48634228515625,-0.6786651611328125,0.70166015625,0.28094482421875
1773258451447357200,6.496357177734375,-0.9285430908203125,0.600250244140625,0.111541748046875
1773258451457373200,6.506373291015625,-0.68292236328125,0.560546875,0.3765411376953125
1773258451467388200,6.51638818359375,-0.776123046875,0.5001373291015625,0.3393707275390625
1773258451477404200,6.526404052734375,-0.7412109375,0.511627197265625,0.38385009765625
1773258451487419100,6.536419189453125,-0.7582244873046875,0.47393798828125,0.39569091796875
1773258451497435100,6.54643505859375,-0.7069549560546875,0.5137176513671875,0.408905029296875
1773258451507450000,6.5564501953125,-0.6348419189453125,0.598602294921875,0.3626708984375
1773258451517466000,6.566466064453125,-0.6120452880859375,0.605865478515625,0.2730865478515625
1773258451527481000,6.576481201171875,-0.596527099609375,0.6053619384765625,0.2637786865234375
1773258451537497300,6.586497314453125,-0.5625762939453125,0.6448974609375,0.27545166015625
1773258451547512300,6.59651220703125,-0.5805816650390625,0.6774139404296875,0.2694854736328125
1773258451557528300,6.6065283203125,-0.62518310546875,0.69500732421875,0.27734375
1773258451567543300,6.616543212890625,-0.5941314697265625,0.6814727783203125,0.26373291015625
1773258451577558300,6.626558349609375,-0.547119140625,0.671173095703125,0.2403717041015625
1773258451587574300,6.63657421875,-0.561859130859375,0.6758575439453125,0.2262725830078125
1773258451597589200,6.64658935546875,-0.648193359375,0.7048797607421875,0.2191925048828125
1773258451607605200,6.656605224609375,-0.705352783203125,0.7158203125,0.2273101806640625
1773258451617620200,6.6666201171875,-0.73236083984375,0.7087554931640625,0.234375
1773258451627636200,6.67663623046875,-0.7826385498046875,0.68084716796875,0.2527008056640625
1773258451637651200,6.686651123046875,-0.796356201171875,0.62603759765625,0.273101806640625
1773258451647667200,6.696667236328125,-0.85321044921875,0.60052490234375,0.3189239501953125
1773258451657682200,6.70668212890625,-0.8517608642578125,0.5447998046875,0.3448486328125
1773258451667698200,6.7166982421875,-0.7381134033203125,0.542022705078125,0.3904876708984375
1773258451677713200,6.726713134765625,-0.9174957275390625,0.5382843017578125,0.428802490234375
1773258451687729200,6.736729248046875,-1.058013916015625,0.5769805908203125,0.34564208984375
1773258451697744100,6.746744140625,-1.00994873046875,0.487091064453125,0.3850860595703125
1773258451707759000,6.756759033203125,-0.970977783203125,0.538482666015625,0.4311981201171875
1773258451717775000,6.766775146484375,-0.9333038330078125,0.5397186279296875,0.3770599365234375
1773258451727790000,6.7767900390625,-0.8831329345703125,0.5402374267578125,0.385223388671875
1773258451737806000,6.78680615234375,-0.8329315185546875,0.5659637451171875,0.3788604736328125
1773258451747821000,6.796821044921875,-0.78118896484375,0.5966796875,0.355194091796875
1773258451757837300,6.80683740234375,-0.798431396484375,0.62384033203125,0.3336029052734375
1773258451767852000,6.81685205078125,-0.8233642578125,0.6488189697265625,0.3050994873046875
1773258451777868300,6.826868408203125,-0.8148193359375,0.666595458984375,0.30517578125
1773258451787883300,6.83688330078125,-0.811370849609375,0.670684814453125,0.30914306640625
1773258451797899300,6.846899169921875,-0.780120849609375,0.6682586669921875,0.3431243896484375
1773258451807914200,6.856914306640625,-0.7327880859375,0.638336181640625,0.3515472412109375
1773258451817930200,6.86693017578125,-0.6970062255859375,0.6084442138671875,0.3588714599609375
1773258451827945200,6.8769453125,-0.690399169921875,0.5899200439453125,0.3487091064453125
1773258451837961200,6.886961181640625,-0.668060302734375,0.5635528564453125,0.322845458984375
1773258451847976200,6.89697607421875,-0.5175018310546875,0.52911376953125,0.283935546875
1773258451857991200,6.9069912109375,-0.48321533203125,0.5629119873046875,0.317657470703125
1773258451868007200,6.917007080078125,-0.6614532470703125,0.612884521484375,0.2912750244140625
1773258451878022100,6.927022216796875,-0.71173095703125,0.628387451171875,0.2601776123046875
1773258451888038100,6.9370380859375,-0.7079315185546875,0.70050048828125,0.240753173828125
1773258451898053000,6.94705322265625,-0.6934967041015625,0.7432708740234375,0.2505950927734375
1773258451908069000,6.957069091796875,-0.4339141845703125,0.51025390625,0.56524658203125
1773258451918084000,6.967083984375,-0.6682586669921875,0.6751556396484375,0.2630157470703125
1773258451928100000,6.97710009765625,-0.6810302734375,0.878204345703125,0.2015380859375
1773258451938115000,6.987114990234375,-0.6000518798828125,0.7847442626953125,0.2116241455078125
1773258451948131000,6.997131103515625,-0.7106475830078125,0.769683837890625,0.2273101806640625
1773258451958146000,7.00714599609375,-0.7895965576171875,0.745330810546875,0.2213134765625
1773258451968162300,7.017162353515625,-0.850311279296875,0.6928863525390625,0.226043701171875
1773258451978177000,7.027177001953125,-0.8173828125,0.62762451171875,0.2935333251953125
1773258451988192000,7.03719189453125,-0.7388458251953125,0.53546142578125,0.3375396728515625
1773258451998208300,7.047208251953125,-0.7355194091796875,0.4547882080078125,0.3807220458984375
1773258452008223200,7.05722314453125,-0.8165435791015625,0.439178466796875,0.37567138671875
1773258452018239200,7.0672392578125,-0.8990631103515625,0.4645538330078125,0.375885009765625
1773258452028254200,7.077254150390625,-0.8389434814453125,0.4659271240234375,0.3631591796875
1773258452038270200,7.087270263671875,-0.727386474609375,0.4438323974609375,0.329986572265625
1773258452048285200,7.09728515625,-0.6472930908203125,0.4827423095703125,0.2598876953125
1773258452058301200,7.10730126953125,-0.5938873291015625,0.55535888671875,0.19305419921875
1773258452068316200,7.117316162109375,-0.6165008544921875,0.62158203125,0.1473388671875
1773258452078332200,7.127332275390625,-0.6765899658203125,0.6561279296875,0.134429931640625
1773258452088347100,7.13734716796875,-0.7505645751953125,0.7650299072265625,0.13690185546875
1773258452098363100,7.147363037109375,-1.2933807373046875,1.0315704345703125,-0.064697265625
1773258452108378000,7.157378173828125,-1.1935272216796875,1.0300750732421875,0.128936767578125
1773258452118393000,7.16739306640625,-0.660888671875,0.6563720703125,0.2712554931640625
1773258452128409000,7.1774091796875,-0.7019805908203125,0.5245208740234375,0.1686553955078125
1773258452138424000,7.187424072265625,-0.67181396484375,0.4658966064453125,0.4974517822265625
1773258452148440000,7.197440185546875,-0.6837921142578125,0.3244781494140625,0.49810791015625
1773258452158455000,7.207455078125,-0.690277099609375,0.3130950927734375,0.5521392822265625
1773258452168471000,7.217470947265625,-0.6817474365234375,0.4273529052734375,0.5821990966796875
1773258452178486000,7.227486083984375,-0.6878204345703125,0.4822540283203125,0.4875946044921875
1773258452188502000,7.237501953125,-0.70928955078125,0.51129150390625,0.4148406982421875
1773258452198517000,7.24751708984375,-0.7465667724609375,0.5811767578125,0.3476104736328125
1773258452208533200,7.257533203125,-0.78656005859375,0.67095947265625,0.2917633056640625
1773258452218548200,7.26754833984375,-0.8422393798828125,0.738525390625,0.275054931640625
1773258452228563000,7.27756298828125,-0.9239654541015625,0.74395751953125,0.2996063232421875
1773258452238579200,7.2875791015625,-1.018218994140625,0.681854248046875,0.35321044921875
1773258452248594200,7.29759423828125,-1.0343475341796875,0.62457275390625,0.4310455322265625
1773258452258610200,7.307610107421875,-0.9954986572265625,0.5601806640625,0.3961944580078125
1773258452268625200,7.317625244140625,-1.0056304931640625,0.4994964599609375,0.4007568359375
1773258452278641200,7.32764111328125,-1.008575439453125,0.469512939453125,0.4928436279296875
1773258452288656100,7.33765625,-1.0307159423828125,0.46527099609375,0.4323883056640625
1773258452298672000,7.347672119140625,-0.9320526123046875,0.4390716552734375,0.338287353515625
1773258452308687000,7.35768701171875,-0.482452392578125,0.5066070556640625,0.178009033203125
1773258452318703000,7.367703125,-0.71710205078125,0.5350189208984375,0.178924560546875
1773258452328718000,7.377718017578125,-0.44207763671875,0.71417236328125,0.2061920166015625
1773258452338734000,7.387734130859375,-0.4443359375,0.645294189453125,0.235107421875
1773258452348749000,7.3977490234375,-0.591766357421875,0.56878662109375,0.363800048828125
1773258452358764300,7.407764404296875,-0.39007568359375,0.5601806640625,0.447601318359375
1773258452368780000,7.417780029296875,-0.2501220703125,0.49957275390625,0.4497222900390625
1773258452378795300,7.427795166015625,-0.1383514404296875,0.633087158203125,0.35845947265625
1773258452388811000,7.43781103515625,-0.185150146484375,0.7119293212890625,0.2616424560546875
1773258452398826200,7.447826171875,-0.2866973876953125,0.7785186767578125,0.1582183837890625
1773258452408842000,7.457842041015625,-0.40679931640625,0.795013427734375,0.0978546142578125
1773258452418857200,7.467857177734375,-0.4607391357421875,0.771514892578125,0.0488739013671875
1773258452428873200,7.477873291015625,-0.453643798828125,0.70831298828125,0.044158935546875
1773258452438888200,7.48788818359375,-0.5375213623046875,0.643829345703125,0.08453369140625
1773258452448904200,7.497904296875,-0.6576385498046875,0.5712127685546875,0.107513427734375
1773258452458919200,7.507919189453125,-0.734283447265625,0.524505615234375,0.180633544921875
1773258452468935200,7.51793505859375,-0.7390899658203125,0.4964599609375,0.26031494140625
1773258452478950100,7.5279501953125,-0.7432403564453125,0.4922637939453125,0.2903289794921875
1773258452488965400,7.53796533203125,-0.755340576171875,0.4965972900390625,0.3047027587890625
1773258452498981000,7.547981201171875,-0.79302978515625,0.511749267578125,0.2868194580078125
1773258452508996400,7.557996337890625,-0.8300628662109375,0.5193023681640625,0.2821807861328125
1773258452519012000,7.56801220703125,-0.8254241943359375,0.5906982421875,0.398773193359375
1773258452529027300,7.57802734375,-0.7830352783203125,0.6438751220703125,0.4543609619140625
1773258452539043000,7.58804296875,-0.8554840087890625,0.6668243408203125,0.408050537109375
1773258452549058300,7.598058349609375,-0.9246673583984375,0.7924957275390625,0.4588165283203125
1773258452559074000,7.608073974609375,-0.908660888671875,0.8263702392578125,0.4475860595703125
1773258452569089300,7.61808935546875,-0.7974700927734375,0.7981109619140625,0.4636993408203125
1773258452579105000,7.62810498046875,-0.6380767822265625,0.8376617431640625,0.4207000732421875
1773258452589120300,7.638120361328125,-0.6396026611328125,0.8235626220703125,0.3638153076171875
1773258452599136000,7.648135986328125,-0.6790771484375,0.7648468017578125,0.310821533203125
1773258452609151200,7.658151123046875,-0.55853271484375,0.8109893798828125,0.18475341796875
1773258452619166200,7.668166259765625,-0.382110595703125,0.9774932861328125,0.1296234130859375
1773258452629182200,7.67818212890625,-0.3251800537109375,1.0619354248046875,0.0440826416015625
1773258452639197200,7.688197265625,-0.4872894287109375,1.0134429931640625,-0.1184234619140625
1773258452649213200,7.698213134765625,-0.551849365234375,0.9973297119140625,0.0245361328125
1773258452659228200,7.708228271484375,-0.5316619873046875,0.986083984375,-0.08270263671875
1773258452669244400,7.718244384765625,-0.61602783203125,0.8519134521484375,-0.0065460205078125
1773258452679259400,7.72825927734375,-0.6079254150390625,0.7412872314453125,0.0827789306640625
1773258452689275400,7.738275390625,-0.7006988525390625,0.6661224365234375,0.1100921630859375
1773258452699290400,7.748290283203125,-0.769256591796875,0.571624755859375,0.211181640625
1773258452709306400,7.758306396484375,-0.85003662109375,0.447235107421875,0.304656982421875
1773258452719321300,7.7683212890625,-0.870452880859375,0.3015594482421875,0.42236328125
1773258452729336300,7.77833642578125,-0.7080535888671875,0.3251953125,0.4358367919921875
1773258452739352300,7.788352294921875,-0.6731109619140625,0.411407470703125,0.38623046875
1773258452749367300,7.7983671875,-0.801910400390625,0.4578094482421875,0.3251190185546875
1773258452759383300,7.80838330078125,-0.832000732421875,0.5453338623046875,0.344329833984375
1773258452769398300,7.818398193359375,-0.748931884765625,0.6361236572265625,0.2900848388671875
1773258452779414300,7.828414306640625,-0.807891845703125,0.6588592529296875,0.25079345703125
1773258452789429200,7.83842919921875,-0.845184326171875,0.7133941650390625,0.280853271484375
1773258452799445200,7.8484453125,-0.884490966796875,0.7397613525390625,0.257293701171875
1773258452809460200,7.858460205078125,-0.84893798828125,0.714508056640625,0.3148040771484375
1773258452819476200,7.868476318359375,-0.6618194580078125,0.508819580078125,0.4069061279296875
1773258452829491200,7.8784912109375,-0.5946044921875,0.4954986572265625,0.366180419921875
1773258452839507200,7.888507080078125,-0.4925384521484375,0.71466064453125,0.3019866943359375
1773258452849522200,7.898522216796875,-0.505126953125,0.68817138671875,0.2691802978515625
1773258452859537200,7.908537109375,-0.545379638671875,0.7308502197265625,0.1969146728515625
1773258452869553200,7.91855322265625,-0.622039794921875,0.8306121826171875,0.1057586669921875
1773258452879568100,7.928568115234375,-0.6286468505859375,0.7808685302734375,0.1840972900390625
1773258452889584000,7.938584228515625,-0.5886077880859375,0.7772216796875,0.1699371337890625
1773258452899599000,7.94859912109375,-0.6190032958984375,0.806732177734375,0.1998291015625
1773258452909615400,7.958615478515625,-0.64764404296875,0.7609405517578125,0.2466278076171875
1773258452919630300,7.96863037109375,-0.6159820556640625,0.7262115478515625,0.2687835693359375
1773258452929646300,7.978646240234375,-0.650115966796875,0.719970703125,0.2910308837890625
1773258452939661300,7.988661376953125,-0.7041168212890625,0.713348388671875,0.3214111328125
1773258452949677300,7.99867724609375,-0.72308349609375,0.6871490478515625,0.349517822265625
1773258452959692300,8.0086923828125,-0.7486114501953125,0.677215576171875,0.3568572998046875
1773258452969708300,8.018708251953125,-0.7648162841796875,0.7015838623046875,0.3582305908203125
1773258452979723300,8.02872314453125,-0.75433349609375,0.7123870849609375,0.35577392578125
1773258452989738200,8.03873828125,-0.7382354736328125,0.701202392578125,0.3646240234375
1773258452999754200,8.048754150390625,-0.76202392578125,0.697052001953125,0.4057159423828125
1773258453009769200,8.058769287109374,-0.7638397216796875,0.6822662353515625,0.468109130859375
1773258453019785200,8.06878515625,-0.76177978515625,0.642974853515625,0.5045318603515625
1773258453029800200,8.07880029296875,-0.8098907470703125,0.5767974853515625,0.565155029296875
1773258453039816200,8.088816162109374,-0.86444091796875,0.527801513671875,0.624969482421875
1773258453049831200,8.0988310546875,-0.897918701171875,0.5135650634765625,0.6329345703125
1773258453059847200,8.10884716796875,-0.92547607421875,0.5059814453125,0.6465606689453125
1773258453069862100,8.118862060546874,-0.895233154296875,0.51861572265625,0.6281890869140625
1773258453079878100,8.128878173828125,-0.8437957763671875,0.5079498291015625,0.53070068359375
1773258453089893000,8.13889306640625,-0.82598876953125,0.53765869140625,0.43023681640625
1773258453099908000,8.148908203125,-0.8262786865234375,0.5921783447265625,0.3712310791015625
1773258453109924000,8.158924072265625,-0.6988525390625,0.7354736328125,0.210906982421875
1773258453119939000,8.16893896484375,-0.1900177001953125,0.957763671875,0.037384033203125
1773258453129955300,8.178955322265624,-0.4601898193359375,0.690338134765625,0.1798553466796875
1773258453139970000,8.188969970703125,-0.17822265625,0.53564453125,0.3217620849609375
1773258453149986300,8.198986328125,-0.1899566650390625,0.5583038330078125,0.414154052734375
1773258453160001300,8.209001220703126,-0.4918975830078125,0.644500732421875,0.307098388671875
1773258453170017500,8.219017578125,-0.5889129638671875,0.73284912109375,0.3139801025390625
1773258453180032500,8.229032470703125,-0.547576904296875,0.8230133056640625,0.2192535400390625
1773258453190048500,8.239048583984374,-0.5375518798828125,0.7369384765625,0.222137451171875
1773258453200063500,8.2490634765625,-0.5612945556640625,0.6710968017578125,0.3362274169921875
1773258453210079700,8.259079833984375,-0.463623046875,0.67205810546875,0.3645782470703125
1773258453220094500,8.269094482421876,-0.434814453125,0.6621246337890625,0.30352783203125
1773258453230109400,8.279109375,-0.4790496826171875,0.6366729736328125,0.35107421875
1773258453240125700,8.289125732421875,-0.563812255859375,0.60260009765625,0.3937530517578125
1773258453250140700,8.299140625,-0.7607269287109375,0.6050567626953125,0.415924072265625
1773258453260156700,8.30915673828125,-0.8086090087890625,0.632293701171875,0.40765380859375
1773258453270171600,8.319171630859374,-0.7106170654296875,0.6643218994140625,0.4255218505859375
1773258453280187600,8.329187744140626,-0.677154541015625,0.639495849609375,0.4443511962890625
1773258453290202600,8.33920263671875,-0.6013031005859375,0.6956024169921875,0.4021759033203125
1773258453300218600,8.349218505859374,-0.588226318359375,0.703369140625,0.3985748291015625
1773258453310233600,8.359233642578126,-0.5705413818359375,0.6810455322265625,0.3928070068359375
1773258453320249600,8.36924951171875,-0.607269287109375,0.657012939453125,0.372772216796875
1773258453330264600,8.3792646484375,-0.6367645263671875,0.632720947265625,0.3978424072265625
1773258453340279600,8.389279541015625,-0.66741943359375,0.6599273681640625,0.394439697265625
1773258453350295600,8.399295654296875,-0.792572021484375,0.6396942138671875,0.4268951416015625
1773258453360310500,8.409310546875,-0.897552490234375,0.5965118408203125,0.47943115234375
1773258453370326500,8.419326416015625,-0.846832275390625,0.5478515625,0.5197601318359375
1773258453380341500,8.429341552734375,-0.7053985595703125,0.6177978515625,0.5157012939453125
1773258453390357500,8.439357421875,-0.6532440185546875,0.6597900390625,0.4427947998046875
1773258453400372500,8.44937255859375,-0.6226348876953125,0.657012939453125,0.4759674072265625
1773258453410388500,8.459388427734375,-0.7151641845703125,0.842620849609375,0.401458740234375
1773258453420403500,8.469403564453126,-0.9427490234375,0.9201812744140625,0.4782257080078125
1773258453430419500,8.47941943359375,-1.067108154296875,1.1748046875,0.271087646484375
1773258453440434400,8.489434326171875,-0.5385284423828125,1.0514373779296875,0.083251953125
1773258453450450700,8.49945068359375,-0.64141845703125,0.86737060546875,0.079254150390625
1773258453460465700,8.509465576171875,-0.706329345703125,0.783050537109375,0.240814208984375
1773258453470480400,8.51948046875,-0.555267333984375,0.6883392333984375,0.1831207275390625
1773258453480496600,8.52949658203125,-0.525665283203125,0.571807861328125,0.1118316650390625
1773258453490511600,8.53951171875,-0.4905853271484375,0.4991302490234375,0.1719207763671875
1773258453500527600,8.549527587890625,-0.460205078125,0.472930908203125,0.18896484375
1773258453510542600,8.55954248046875,-0.5086212158203125,0.499298095703125,0.2293701171875
1773258453520558600,8.56955859375,-0.5486602783203125,0.54791259765625,0.275054931640625
1773258453530573600,8.579573486328124,-0.6007537841796875,0.597930908203125,0.3220062255859375
1773258453540589600,8.589589599609376,-0.6851348876953125,0.642730712890625,0.4138946533203125
1773258453550604500,8.5996044921875,-0.761260986328125,0.6746978759765625,0.4976654052734375
1773258453560620500,8.60962060546875,-0.77459716796875,0.7048797607421875,0.5458831787109375
1773258453570635500,8.619635498046875,-0.6411895751953125,0.647003173828125,0.642852783203125
1773258453580650500,8.629650390625,-0.6721343994140625,0.6682281494140625,0.5918121337890625
1773258453590666500,8.63966650390625,-0.8090972900390625,0.8700103759765625,0.4609832763671875
1773258453600681500,8.649681396484375,-0.8858795166015625,1.0846710205078125,0.2679901123046875
1773258453610697500,8.659697509765625,-0.8125457763671875,1.1285400390625,0.1434783935546875
1773258453620712400,8.66971240234375,-0.704681396484375,1.08526611328125,0.053131103515625
1773258453630728400,8.679728515625,-0.619964599609375,1.0066986083984375,0.0279388427734375
1773258453640743400,8.689743408203125,-0.5859832763671875,0.8351287841796875,0.1029815673828125
1773258453650759400,8.699759521484374,-0.6315765380859375,0.650848388671875,0.12982177734375
1773258453660774400,8.7097744140625,-0.6324920654296875,0.5590362548828125,0.1399688720703125
1773258453670790700,8.719790771484375,-0.6845703125,0.5231781005859375,0.1477508544921875
1773258453680805400,8.729805419921876,-0.6421661376953125,0.5292510986328125,0.1741790771484375
1773258453690820400,8.7398203125,-0.567962646484375,0.527191162109375,0.1600189208984375
1773258453700836600,8.749836669921875,-0.6028289794921875,0.587738037109375,0.1361541748046875
1773258453710851600,8.7598515625,-0.5864105224609375,0.6252899169921875,0.1017608642578125
1773258453720867600,8.76986767578125,-0.68829345703125,0.6444549560546875,0.0702056884765625
1773258453730882600,8.779882568359374,-0.7247467041015625,0.6850433349609375,0.0785675048828125
1773258453740898600,8.789898681640626,-0.7435455322265625,0.693572998046875,0.0610809326171875
1773258453750913500,8.79991357421875,-0.7405853271484375,0.6594390869140625,0.0138397216796875
1773258453760929500,8.809929443359374,-0.68505859375,0.57440185546875,0.005767822265625
1773258453770944500,8.819944580078126,-0.6383209228515625,0.5117340087890625,-0.0568084716796875
1773258453780960500,8.82996044921875,-0.6558990478515625,0.47442626953125,-0.103759765625
1773258453790975500,8.8399755859375,-0.68719482421875,0.4601287841796875,-0.1061553955078125
1773258453800991500,8.849991455078126,-0.6437225341796875,0.4675140380859375,-0.0803680419921875
1773258453811006500,8.86000634765625,-0.6272430419921875,0.5325927734375,-0.0657958984375
1773258453821021400,8.870021484375,-0.6865081787109375,0.5709381103515625,-0.0499267578125
1773258453831037400,8.880037353515625,-0.709930419921875,0.5789337158203125,0.0465087890625
1773258453841052400,8.890052490234375,-0.691497802734375,0.52642822265625,0.1887359619140625
1773258453851068400,8.900068359375,-0.68341064453125,0.485260009765625,0.3153228759765625
1773258453861083400,8.91008349609375,-0.7701416015625,0.5661163330078125,0.338897705078125
1773258453871099400,8.920099365234375,-0.7973785400390625,0.6581268310546875,0.3331451416015625
1773258453881114400,8.9301142578125,-0.753021240234375,0.69610595703125,0.27984619140625
1773258453891130400,8.94013037109375,-0.7391204833984375,0.75732421875,0.1885986328125
1773258453901145300,8.950145263671875,-0.7275390625,0.8155975341796875,0.1403350830078125
1773258453911161600,8.96016162109375,-0.66595458984375,0.855377197265625,0.0519866943359375
1773258453921176600,8.970176513671875,-0.62841796875,0.903564453125,-0.0117950439453125
1773258453931191600,8.980191650390625,-0.62054443359375,0.95843505859375,-0.08306884765625
1773258453941207600,8.99020751953125,-0.5329742431640625,1.031280517578125,-0.156951904296875
1773258453951222800,9.000222900390625,-0.4352569580078125,1.097412109375,-0.21368408203125
1773258453961238500,9.010238525390625,-0.39642333984375,1.086944580078125,-0.2127685546875
1773258453971253800,9.020253662109376,-0.38189697265625,1.0239105224609375,-0.172027587890625
1773258453981269500,9.03026953125,-0.3675689697265625,0.9722442626953125,-0.128875732421875
1773258453991284700,9.04028466796875,-0.3754119873046875,0.9220733642578125,-0.0728759765625
1773258454001300500,9.050300537109376,-0.365081787109375,0.866851806640625,-0.069610595703125
1773258454011315700,9.060315673828125,-0.382568359375,0.8457183837890625,-0.0362701416015625
1773258454021331500,9.07033154296875,-0.385009765625,0.824676513671875,-0.010345458984375
1773258454031346400,9.080346435546875,-0.3812103271484375,0.8141326904296875,0.01068115234375
1773258454041361700,9.090361572265625,-0.4012451171875,0.7891082763671875,0.061248779296875
1773258454051377400,9.10037744140625,-0.3935699462890625,0.7563934326171875,0.1107025146484375
1773258454061392600,9.110392578125,-0.396697998046875,0.7402801513671875,0.151458740234375
1773258454071408400,9.120408447265625,-0.419281005859375,0.747528076171875,0.1455841064453125
1773258454081423600,9.130423583984374,-0.4311981201171875,0.76715087890625,0.1385955810546875
1773258454091439400,9.140439453125,-0.439666748046875,0.793212890625,0.15771484375
1773258454101454600,9.15045458984375,-0.4583892822265625,0.8152008056640625,0.15911865234375
1773258454111470300,9.16047021484375,-0.483673095703125,0.83184814453125,0.1591033935546875
1773258454121485600,9.170485595703125,-0.5034027099609375,0.856109619140625,0.1788482666015625
1773258454131501600,9.18050146484375,-0.524810791015625,0.883514404296875,0.19171142578125
1773258454141516500,9.1905166015625,-0.5649871826171875,0.8917999267578125,0.1898345947265625
1773258454151531500,9.200531494140625,-0.584686279296875,0.8914947509765625,0.189239501953125
1773258454161547800,9.2105478515625,-0.5894927978515625,0.8989715576171875,0.1998291015625
1773258454171562500,9.2205625,-0.59368896484375,0.8984375,0.201080322265625
1773258454181578500,9.23057861328125,-0.5883331298828125,0.8751983642578125,0.1975250244140625
1773258454191593500,9.240593505859374,-0.57861328125,0.849578857421875,0.2103271484375
1773258454201609500,9.250609375,-0.5787353515625,0.8417510986328125,0.2242584228515625
1773258454211624400,9.26062451171875,-0.5877227783203125,0.83026123046875,0.2223052978515625
1773258454221640700,9.270640625,-0.600006103515625,0.8257293701171875,0.2178192138671875
1773258454231655400,9.280655517578126,-0.6126861572265625,0.8196868896484375,0.2044219970703125
1773258454241671700,9.290671630859375,-0.6321563720703125,0.8187408447265625,0.199554443359375
1773258454251686700,9.300686767578124,-0.654205322265625,0.8153839111328125,0.204010009765625
1773258454261701600,9.31070166015625,-0.6602935791015625,0.80096435546875,0.1991729736328125
1773258454271717600,9.320717529296875,-0.6534576416015625,0.7919921875,0.20361328125
1773258454281732600,9.330732666015624,-0.628326416015625,0.7837677001953125,0.215972900390625
1773258454291748600,9.34074853515625,-0.5987701416015625,0.78057861328125,0.2276153564453125
1773258454301763600,9.350763671875,-0.5781707763671875,0.7706756591796875,0.21722412109375
1773258454311779600,9.360779541015624,-0.569244384765625,0.7584075927734375,0.1973419189453125
1773258454321794600,9.370794677734375,-0.5686492919921875,0.76507568359375,0.18426513671875
1773258454331810600,9.380810546875,-0.5624847412109375,0.777374267578125,0.1830596923828125
1773258454341825500,9.390825439453126,-0.5575103759765625,0.783905029296875,0.1855010986328125
1773258454351841500,9.400841552734375,-0.5526275634765625,0.78900146484375,0.1846466064453125
1773258454361856500,9.4108564453125,-0.547088623046875,0.7813720703125,0.1837615966796875
1773258454371871500,9.42087158203125,-0.536285400390625,0.7816619873046875,0.184326171875
1773258454381887500,9.430887451171875,-0.5219268798828125,0.8025360107421875,0.1807861328125
1773258454391902500,9.44090234375,-0.506439208984375,0.80926513671875,0.1502532958984375
1773258454401918500,9.45091845703125,-0.500030517578125,0.8243865966796875,0.1329345703125
1773258454411933400,9.460933349609375,-0.5166473388671875,0.8653717041015625,0.142913818359375
1773258454421949400,9.470949462890625,-0.5306243896484375,0.8990936279296875,0.1627044677734375
1773258454431964400,9.48096435546875,-0.548980712890625,0.9001617431640625,0.1798858642578125
1773258454441980400,9.49098046875,-0.55230712890625,0.8806610107421875,0.218505859375
1773258454451995400,9.500995361328124,-0.577362060546875,0.86029052734375,0.26409912109375
1773258454462011600,9.51101171875,-0.5995635986328125,0.8291015625,0.2965545654296875
1773258454472026600,9.521026611328125,-0.5887908935546875,0.802490234375,0.2453155517578125
1773258454482041300,9.531041259765624,-0.5854034423828125,0.82177734375,0.2373504638671875
1773258454492057600,9.5410576171875,-0.5940704345703125,0.84027099609375,0.255889892578125
1773258454502072600,9.551072509765625,-0.595672607421875,0.840179443359375,0.25164794921875
1773258454512088600,9.561088623046874,-0.585662841796875,0.8444976806640625,0.2686767578125
1773258454522103600,9.571103515625,-0.563751220703125,0.85589599609375,0.2925262451171875
1773258454532119600,9.58111962890625,-0.5397796630859375,0.853240966796875,0.316192626953125
1773258454542134500,9.591134521484374,-0.5226898193359375,0.835174560546875,0.3539276123046875
1773258454552150500,9.601150634765625,-0.508819580078125,0.811981201171875,0.384429931640625
1773258454562165500,9.61116552734375,-0.49139404296875,0.7859954833984375,0.377349853515625
1773258454572181500,9.621181396484374,-0.48089599609375,0.7730712890625,0.3591156005859375
1773258454582196500,9.631196533203125,-0.4994354248046875,0.767120361328125,0.361297607421875
1773258454592211500,9.64121142578125,-0.5322418212890625,0.752716064453125,0.3509979248046875
1773258454602227500,9.6512275390625,-0.5402984619140625,0.75799560546875,0.3459625244140625
1773258454612242400,9.661242431640625,-0.528961181640625,0.7709503173828125,0.351287841796875
1773258454622258400,9.671258544921875,-0.511871337890625,0.7718658447265625,0.3586273193359375
1773258454632273400,9.6812734375,-0.5040130615234375,0.7703857421875,0.372711181640625
1773258454642289400,9.691289306640625,-0.4972076416015625,0.77294921875,0.3932342529296875
1773258454652304400,9.701304443359374,-0.488861083984375,0.774993896484375,0.405181884765625
1773258454662320400,9.7113203125,-0.4930267333984375,0.7783660888671875,0.4135589599609375
1773258454672335400,9.72133544921875,-0.506439208984375,0.78076171875,0.4120635986328125
1773258454682351600,9.7313515625,-0.514190673828125,0.78485107421875,0.3810882568359375
1773258454692366300,9.741366455078126,-0.5266571044921875,0.7992095947265625,0.386749267578125
1773258454702381300,9.75138134765625,-0.533782958984375,0.8006134033203125,0.4076080322265625
1773258454712397600,9.7613974609375,-0.5220184326171875,0.7899627685546875,0.4208221435546875
1773258454722412500,9.77141259765625,-0.49298095703125,0.7760009765625,0.4344940185546875
1773258454732428500,9.781428466796875,-0.463775634765625,0.760467529296875,0.4472808837890625
1773258454742443500,9.791443603515624,-0.4456787109375,0.746917724609375,0.46759033203125
1773258454752459500,9.80145947265625,-0.4396514892578125,0.737762451171875,0.4878997802734375
1773258454762474500,9.811474609375,-0.4369049072265625,0.726470947265625,0.472259521484375
1773258454772490500,9.821490478515624,-0.4467926025390625,0.7374114990234375,0.4681396484375
1773258454782505500,9.83150537109375,-0.4663238525390625,0.7512664794921875,0.484649658203125
1773258454792521500,9.841521484375,-0.4878387451171875,0.7583160400390625,0.498046875
1773258454802536400,9.851536376953124,-0.5186614990234375,0.7649078369140625,0.514892578125
1773258454812552400,9.861552490234375,-0.5429229736328125,0.7691650390625,0.5301666259765625
1773258454822567400,9.8715673828125,-0.559234619140625,0.7728271484375,0.5380401611328125
1773258454832582400,9.88158251953125,-0.563934326171875,0.7724609375,0.5431060791015625
1773258454842598400,9.891598388671875,-0.558868408203125,0.7705535888671875,0.5435638427734375
1773258454852613400,9.90161328125,-0.5465087890625,0.767730712890625,0.5330810546875
1773258454862629400,9.91162939453125,-0.5375213623046875,0.7557220458984375,0.5173797607421875
1773258454872644400,9.921644287109375,-0.5310211181640625,0.740692138671875,0.502716064453125
1773258454882660400,9.931660400390625,-0.5238037109375,0.729217529296875,0.483154296875
1773258454892675300,9.94167529296875,-0.5087432861328125,0.714141845703125,0.47271728515625
1773258454902691300,9.95169140625,-0.4986419677734375,0.7021026611328125,0.456268310546875
1773258454912706300,9.961706298828124,-0.5157012939453125,0.6902313232421875,0.4469757080078125
1773258454922721300,9.97172119140625,-0.501129150390625,0.6435699462890625,0.459442138671875
1773258454932737500,9.981737548828125,-0.4799041748046875,0.6269683837890625,0.470001220703125
1773258454942752300,9.991752197265624,-0.5101776123046875,0.6268310546875,0.4394378662109375
1773258454952768500,10.0017685546875,-0.5190582275390625,0.63543701171875,0.4405364990234375
1773258454962783500,10.011783447265625,-0.538726806640625,0.6651611328125,0.45318603515625
1773258454972799500,10.021799560546874,-0.5470428466796875,0.6864776611328125,0.4573211669921875
1773258454982814500,10.031814453125,-0.5457000732421875,0.7064361572265625,0.4655609130859375
1773258454992830500,10.04183056640625,-0.5419464111328125,0.73541259765625,0.4974365234375
1773258455002845400,10.051845458984374,-0.539398193359375,0.7568817138671875,0.5245513916015625
1773258455012861400,10.061861328125,-0.543304443359375,0.7608184814453125,0.545928955078125
1773258455022876400,10.07187646484375,-0.5280914306640625,0.7685699462890625,0.566131591796875
1773258455032892400,10.081892333984374,-0.50799560546875,0.775238037109375,0.56536865234375
1773258455042907400,10.091907470703125,-0.4909210205078125,0.76837158203125,0.572265625
1773258455052922400,10.10192236328125,-0.4877166748046875,0.7542572021484375,0.5830841064453125
1773258455062938400,10.1119384765625,-0.491668701171875,0.7430877685546875,0.5816802978515625
1773258455072953300,10.121953369140625,-0.4846649169921875,0.7352752685546875,0.5910797119140625
1773258455082969300,10.13196923828125,-0.4894256591796875,0.7307281494140625,0.61297607421875
1773258455092984300,10.141984375,-0.5042266845703125,0.6989593505859375,0.593292236328125
1773258455103000300,10.152000244140625,-0.4876708984375,0.70306396484375,0.5873260498046875
1773258455113015300,10.162015380859375,-0.454345703125,0.702423095703125,0.5980072021484375
1773258455123031300,10.17203125,-0.4475250244140625,0.6799163818359375,0.5969085693359375
1773258455133046300,10.18204638671875,-0.4694976806640625,0.65338134765625,0.600189208984375
1773258455143062500,10.1920625,-0.4880523681640625,0.635040283203125,0.6092681884765625
1773258455153077200,10.2020771484375,-0.505279541015625,0.620147705078125,0.6058349609375
1773258455163092500,10.212092529296875,-0.5102386474609375,0.6107330322265625,0.6139373779296875
1773258455173108500,10.2221083984375,-0.49652099609375,0.5988311767578125,0.605560302734375
1773258455183123700,10.232123779296876,-0.4914093017578125,0.5930938720703125,0.6002655029296875
1773258455193139500,10.242139404296875,-0.503082275390625,0.5872802734375,0.6106719970703125
1773258455203154700,10.25215478515625,-0.5091705322265625,0.58544921875,0.611785888671875
1773258455213170400,10.26217041015625,-0.514007568359375,0.596649169921875,0.621826171875
1773258455223185700,10.272185546875,-0.5075836181640625,0.6017303466796875,0.6285247802734375
1773258455233201400,10.282201416015624,-0.5004425048828125,0.5964202880859375,0.6334991455078125
1773258455243216600,10.292216552734375,-0.49945068359375,0.5946197509765625,0.63214111328125
1773258455253232400,10.302232421875,-0.5039825439453125,0.584075927734375,0.61663818359375
1773258455263247600,10.31224755859375,-0.51507568359375,0.5704803466796875,0.5980987548828125
1773258455273262600,10.3222626953125,-0.537872314453125,0.5596923828125,0.5827789306640625
1773258455283278600,10.332278564453125,-0.5506744384765625,0.55108642578125,0.564300537109375
1773258455293293600,10.34229345703125,-0.5496826171875,0.5448150634765625,0.5453643798828125
1773258455303309600,10.3523095703125,-0.5496826171875,0.537841796875,0.5236358642578125
1773258455313324500,10.362324462890625,-0.5476531982421875,0.54107666015625,0.5131378173828125
1773258455323340300,10.37234033203125,-0.542694091796875,0.5415802001953125,0.512176513671875
1773258455333355500,10.38235546875,-0.5526580810546875,0.534942626953125,0.5165557861328125
1773258455343371300,10.392371337890625,-0.554107666015625,0.5363311767578125,0.528289794921875
1773258455353386500,10.402386474609376,-0.538299560546875,0.5399932861328125,0.5379486083984375
1773258455363402200,10.41240234375,-0.538299560546875,0.5289154052734375,0.5485076904296875
1773258455373417500,10.42241748046875,-0.55316162109375,0.528717041015625,0.5653839111328125
1773258455383433500,10.43243359375,-0.5631103515625,0.5384674072265625,0.5903472900390625
1773258455393448700,10.44244873046875,-0.568267822265625,0.5364837646484375,0.5971832275390625
1773258455403464400,10.45246435546875,-0.571136474609375,0.536163330078125,0.6200408935546875
1773258455413479700,10.462479736328126,-0.563262939453125,0.5281524658203125,0.6336517333984375
1773258455423494700,10.47249462890625,-0.5668182373046875,0.5142974853515625,0.644012451171875
1773258455433510700,10.4825107421875,-0.5733184814453125,0.504180908203125,0.6586456298828125
1773258455443525600,10.492525634765625,-0.576873779296875,0.4965667724609375,0.6728057861328125
1773258455453541600,10.502541748046875,-0.57781982421875,0.4860687255859375,0.69091796875
1773258455463556600,10.512556640625,-0.57501220703125,0.472412109375,0.6949920654296875
1773258455473572600,10.522572509765626,-0.57000732421875,0.462127685546875,0.687255859375
1773258455483587600,10.532587646484375,-0.5647430419921875,0.4590301513671875,0.6889190673828125
1773258455493603600,10.542603515625,-0.563995361328125,0.46051025390625,0.6996307373046875
1773258455503618600,10.55261865234375,-0.5655364990234375,0.4611358642578125,0.70855712890625
1773258455513634600,10.562634521484375,-0.5623779296875,0.46368408203125,0.71307373046875
1773258455523649500,10.5726494140625,-0.5615386962890625,0.461822509765625,0.71173095703125
1773258455533665500,10.58266552734375,-0.5691986083984375,0.4534759521484375,0.7116546630859375
1773258455543680500,10.592680419921875,-0.58319091796875,0.4405670166015625,0.7069091796875
1773258455553695500,10.602695556640626,-0.6009063720703125,0.431640625,0.706024169921875
1773258455563711500,10.61271142578125,-0.614410400390625,0.4174957275390625,0.7111358642578125
1773258455573726500,10.6227265625,-0.6215667724609375,0.4055938720703125,0.6998443603515625
1773258455583742500,10.632742431640626,-0.6240081787109375,0.4039154052734375,0.6982269287109375
1773258455593757400,10.64275732421875,-0.636444091796875,0.4084320068359375,0.69171142578125
1773258455603773400,10.6527734375,-0.6507568359375,0.41717529296875,0.6833648681640625
1773258455613788400,10.662788330078126,-0.6668853759765625,0.4300689697265625,0.68609619140625
1773258455623804700,10.6728046875,-0.689483642578125,0.4356689453125,0.6881103515625
1773258455633819600,10.682819580078124,-0.7025604248046875,0.4434356689453125,0.6781463623046875
1773258455643835600,10.692835693359376,-0.6981048583984375,0.4481964111328125,0.6663818359375
1773258455653850600,10.7028505859375,-0.6922149658203125,0.4431610107421875,0.655364990234375
1773258455663866600,10.71286669921875,-0.6934356689453125,0.44049072265625,0.648590087890625
1773258455673881600,10.722881591796876,-0.70159912109375,0.4336395263671875,0.63226318359375
1773258455683896600,10.732896484375,-0.7212982177734375,0.426055908203125,0.61907958984375
1773258455693912600,10.74291259765625,-0.7405853271484375,0.419769287109375,0.6133880615234375
1773258455703927600,10.752927490234375,-0.7494659423828125,0.409912109375,0.6045989990234375
1773258455713943600,10.762943603515625,-0.7468719482421875,0.4029541015625,0.5928192138671875
1773258455723958500,10.77295849609375,-0.731597900390625,0.3995819091796875,0.58319091796875
1773258455733974500,10.782974609375,-0.7232513427734375,0.3971405029296875,0.5792694091796875
1773258455743989500,10.792989501953125,-0.719512939453125,0.404327392578125,0.5778045654296875
1773258455754005500,10.803005615234374,-0.7090301513671875,0.3988494873046875,0.571075439453125
1773258455764020500,10.8130205078125,-0.702484130859375,0.394012451171875,0.565643310546875
1773258455774036500,10.823036376953125,-0.69586181640625,0.3995208740234375,0.5640716552734375
1773258455784051500,10.833051513671874,-0.69329833984375,0.3959197998046875,0.5592803955078125
1773258455794067500,10.8430673828125,-0.696929931640625,0.384613037109375,0.5504150390625
1773258455804082400,10.85308251953125,-0.70733642578125,0.3727569580078125,0.543304443359375
1773258455814098400,10.863098388671874,-0.7198333740234375,0.3618316650390625,0.5333099365234375
1773258455824113400,10.873113525390625,-0.7211761474609375,0.3521881103515625,0.53314208984375
1773258455834128400,10.88312841796875,-0.7199554443359375,0.3421478271484375,0.535491943359375
1773258455844144600,10.89314453125,-0.72186279296875,0.33740234375,0.5416717529296875
1773258455854159400,10.903159423828125,-0.7253875732421875,0.335205078125,0.54400634765625
1773258455864175600,10.913175537109375,-0.7173309326171875,0.335662841796875,0.5456390380859375
1773258455874190600,10.923190673828126,-0.7216339111328125,0.3378448486328125,0.54693603515625
1773258455884206600,10.93320654296875,-0.7309112548828125,0.3450927734375,0.53753662109375
1773258455894221600,10.9432216796875,-0.7352294921875,0.3593292236328125,0.5369110107421875
1773258455904237600,10.953237548828126,-0.74029541015625,0.3599395751953125,0.533050537109375
1773258455914252500,10.96325244140625,-0.751861572265625,0.35516357421875,0.532806396484375
1773258455924268500,10.9732685546875,-0.760528564453125,0.3621826171875,0.5410308837890625
1773258455934283500,10.983283447265626,-0.765228271484375,0.3636932373046875,0.536590576171875
1773258455944299500,10.993299560546875,-0.7840576171875,0.351898193359375,0.5458221435546875
1773258455954314500,11.003314453125,-0.8007049560546875,0.3352813720703125,0.541656494140625
1773258455964329500,11.01332958984375,-0.8068695068359375,0.3255157470703125,0.5379791259765625
1773258455974345500,11.023345458984375,-0.8133697509765625,0.3158416748046875,0.539398193359375
1773258455984360400,11.0333603515625,-0.81378173828125,0.3042755126953125,0.5376739501953125
1773258455994376400,11.04337646484375,-0.8144073486328125,0.296966552734375,0.5379638671875
1773258456004391400,11.053391357421875,-0.815582275390625,0.2920989990234375,0.535247802734375
1773258456014407400,11.063407470703124,-0.813568115234375,0.2808685302734375,0.5263671875
1773258456024422400,11.07342236328125,-0.8008575439453125,0.2724456787109375,0.519622802734375
1773258456034438400,11.0834384765625,-0.790130615234375,0.2694091796875,0.508056640625
1773258456044453400,11.093453369140626,-0.77886962890625,0.2548065185546875,0.4890899658203125
1773258456054469600,11.1034697265625,-0.77008056640625,0.249359130859375,0.4824981689453125
1773258456064484400,11.113484375,-0.7685699462890625,0.2455291748046875,0.4692535400390625
1773258456074500600,11.12350048828125,-0.7751922607421875,0.242156982421875,0.45904541015625
1773258456084515600,11.133515625,-0.7752532958984375,0.239501953125,0.4496307373046875
1773258456094530600,11.143530517578125,-0.7771453857421875,0.2419891357421875,0.4447174072265625
1773258456104546600,11.153546630859376,-0.7776641845703125,0.2336273193359375,0.441497802734375
1773258456114561500,11.1635615234375,-0.773834228515625,0.2245025634765625,0.4402618408203125
1773258456124577500,11.17357763671875,-0.7751922607421875,0.221527099609375,0.443603515625
1773258456134592500,11.183592529296876,-0.7834930419921875,0.21710205078125,0.4444122314453125
1773258456144608500,11.1936083984375,-0.796234130859375,0.2145538330078125,0.4416351318359375
1773258456154623500,11.20362353515625,-0.807464599609375,0.2174530029296875,0.4471435546875
1773258456164639500,11.213639404296876,-0.8176116943359375,0.218048095703125,0.44830322265625
1773258456174653700,11.22365380859375,-0.828460693359375,0.2172088623046875,0.4500885009765625
1773258456184669700,11.233669677734374,-0.8355560302734375,0.219085693359375,0.4578399658203125
1773258456194684700,11.2436845703125,-0.8411407470703125,0.2202301025390625,0.459381103515625
1773258456204700700,11.25370068359375,-0.847930908203125,0.21343994140625,0.4625701904296875
1773258456214715600,11.263715576171874,-0.8527984619140625,0.208465576171875,0.4718475341796875
1773258456224730600,11.273730712890625,-0.857696533203125,0.20953369140625,0.4759979248046875
1773258456234746600,11.28374658203125,-0.8606414794921875,0.2015533447265625,0.48944091796875
1773258456244761600,11.29376171875,-0.8537750244140625,0.196197509765625,0.4948272705078125
1773258456254777900,11.30377783203125,-0.8513336181640625,0.196990966796875,0.5006103515625
1773258456264792800,11.313792724609375,-0.858642578125,0.196380615234375,0.51019287109375
1773258456274808800,11.323808837890626,-0.8556365966796875,0.1977081298828125,0.50970458984375
1773258456284823800,11.33382373046875,-0.86993408203125,0.2016143798828125,0.5140380859375
1773258456294839800,11.34383984375,-0.88079833984375,0.20440673828125,0.51953125
1773258456304854800,11.353854736328126,-0.8896484375,0.207611083984375,0.5229949951171875
1773258456314870800,11.363870849609375,-0.89239501953125,0.2069244384765625,0.5360565185546875
1773258456324885800,11.3738857421875,-0.8854827880859375,0.1970977783203125,0.539154052734375
1773258456334900700,11.383900634765626,-0.8726654052734375,0.1937408447265625,0.5472412109375
1773258456344916700,11.393916748046875,-0.8693695068359375,0.1936187744140625,0.557861328125
1773258456354931700,11.403931640625,-0.868255615234375,0.1984405517578125,0.562835693359375
1773258456364947700,11.41394775390625,-0.8751373291015625,0.2023773193359375,0.571533203125
1773258456374962700,11.423962646484375,-0.876190185546875,0.2023162841796875,0.5735626220703125
1773258456384978700,11.433978759765624,-0.869781494140625,0.2017974853515625,0.573455810546875
1773258456394993700,11.44399365234375,-0.8553466796875,0.1947479248046875,0.5721282958984375
1773258456405009700,11.454009765625,-0.842559814453125,0.1848297119140625,0.5616607666015625
1773258456415024600,11.464024658203124,-0.8305206298828125,0.1751708984375,0.548126220703125
1773258456425040600,11.47404052734375,-0.824951171875,0.1713104248046875,0.542572021484375
1773258456435055600,11.4840556640625,-0.82513427734375,0.16845703125,0.5419464111328125
1773258456445071600,11.494071533203124,-0.822906494140625,0.15728759765625,0.5323638916015625
1773258456455086600,11.504086669921875,-0.826019287109375,0.1568603515625,0.532989501953125
1773258456465101800,11.514101806640625,-0.84112548828125,0.1606903076171875,0.5248260498046875
1773258456475117800,11.524117919921874,-0.84393310546875,0.16510009765625,0.513641357421875
1773258456485132800,11.5341328125,-0.8491668701171875,0.16943359375,0.508056640625
1773258456495148800,11.544148681640625,-0.8601531982421875,0.169464111328125,0.5037994384765625
1773258456505164000,11.5541640625,-0.8738861083984375,0.1660614013671875,0.5042724609375
1773258456515179800,11.5641796875,-0.887664794921875,0.1572265625,0.5024261474609375
1773258456525195000,11.574195068359375,-0.899505615234375,0.1465606689453125,0.501495361328125
1773258456535210800,11.584210693359376,-0.9068145751953125,0.13494873046875,0.4973297119140625
1773258456545226000,11.59422607421875,-0.9077301025390625,0.1323089599609375,0.4963836669921875
1773258456555241700,11.60424169921875,-0.903350830078125,0.1412506103515625,0.4932861328125
1773258456565257000,11.614257080078126,-0.9074859619140625,0.1478118896484375,0.483917236328125
1773258456575272000,11.62427197265625,-0.9090118408203125,0.1517333984375,0.4792633056640625
1773258456585288000,11.634287841796874,-0.90087890625,0.1501617431640625,0.466278076171875
1773258456595303000,11.644302978515626,-0.89898681640625,0.1563568115234375,0.4580535888671875
1773258456605319000,11.65431884765625,-0.9166107177734375,0.169769287109375,0.45416259765625
1773258456615334000,11.664333984375,-0.92138671875,0.1700439453125,0.44854736328125
1773258456625350000,11.674349853515626,-0.9133453369140625,0.1723480224609375,0.43743896484375
1773258456635364900,11.68436474609375,-0.899871826171875,0.18682861328125,0.432525634765625
1773258456645380600,11.694380615234374,-0.89501953125,0.1892242431640625,0.4282073974609375
1773258456655395800,11.704395751953125,-0.9087677001953125,0.1848602294921875,0.41986083984375
1773258456665411600,11.71441162109375,-0.914520263671875,0.176300048828125,0.4092254638671875
1773258456675426800,11.7244267578125,-0.9188690185546875,0.16888427734375,0.403839111328125
1773258456685441800,11.73444189453125,-0.92724609375,0.1545867919921875,0.397064208984375
1773258456695457800,11.744457763671875,-0.9380340576171875,0.1385345458984375,0.3886260986328125
1773258456705472800,11.75447265625,-0.95367431640625,0.118988037109375,0.3843231201171875
1773258456715489000,11.764489013671875,-0.976470947265625,0.1011199951171875,0.38287353515625
1773258456725504000,11.77450390625,-0.9859161376953125,0.0823822021484375,0.386993408203125
1773258456735520000,11.78452001953125,-0.9784698486328125,0.0738067626953125,0.3817291259765625
1773258456745535000,11.794534912109375,-0.958526611328125,0.075042724609375,0.368927001953125
1773258456755551000,11.804551025390625,-0.9319000244140625,0.0764312744140625,0.351776123046875
1773258456765566000,11.81456591796875,-0.9156646728515625,0.0765533447265625,0.3358917236328125
1773258456775582000,11.82458203125,-0.8876495361328125,0.069122314453125,0.3174591064453125
1773258456785597000,11.834596923828125,-0.875518798828125,0.0614013671875,0.2968597412109375
1773258456795612000,11.84461181640625,-0.895263671875,0.0431060791015625,0.2713623046875
1773258456805628000,11.8546279296875,-0.923553466796875,0.0242919921875,0.2372894287109375
1773258456815643000,11.864642822265624,-0.95379638671875,0.016082763671875,0.2126312255859375
1773258456825659000,11.874658935546876,-0.965545654296875,0.009185791015625,0.1913909912109375
1773258456835673900,11.884673828125,-0.9677581787109375,-0.0087738037109375,0.1535491943359375
1773258456845689900,11.89468994140625,-0.98272705078125,-0.00030517578125,0.144622802734375
1773258456855704800,11.904704833984376,-0.9754180908203125,0.0340423583984375,0.14373779296875
1773258456865720800,11.914720947265625,-0.98345947265625,0.031585693359375,0.135498046875
1773258456875735800,11.92473583984375,-0.9787445068359375,0.036712646484375,0.120361328125
1773258456885751800,11.934751708984376,-0.9822540283203125,0.0449981689453125,0.1124114990234375
1773258456895766800,11.944766845703125,-0.9891510009765625,0.044189453125,0.0956573486328125
1773258456905782800,11.95478271484375,-0.987701416015625,0.02410888671875,0.0815887451171875
1773258456915797800,11.9647978515625,-0.998016357421875,-0.0145263671875,0.08282470703125
1773258456925812700,11.974812744140625,-0.9858551025390625,0.0189361572265625,0.050262451171875
1773258456935829000,11.9848291015625,-0.97174072265625,0.0592498779296875,0.038238525390625
1773258456945843700,11.99484375,-0.999237060546875,0.0626220703125,0.0289306640625
1773258456955860000,12.00485986328125,-1.0072479248046875,0.0483856201171875,0.014923095703125
1773258456965875000,12.014875,-1.016448974609375,0.03619384765625,0.0304412841796875
1773258456975891000,12.024890869140625,-1.0271759033203125,0.0202178955078125,0.032196044921875
1773258456985906000,12.034906005859375,-1.0233917236328125,0.00115966796875,0.0128631591796875
1773258456995922000,12.044921875,-1.0029449462890625,-0.01678466796875,0.0222930908203125
1773258457005937000,12.05493701171875,-0.985137939453125,-0.0321807861328125,0.031219482421875
1773258457015953000,12.064952880859375,-0.9607696533203125,-0.0462188720703125,0.025909423828125
1773258457025967900,12.0749677734375,-0.941070556640625,-0.0626373291015625,0.0223541259765625
1773258457035982800,12.08498291015625,-0.9228668212890625,-0.067352294921875,0.02508544921875
1773258457045998800,12.094998779296875,-0.9046783447265625,-0.0650482177734375,0.0174407958984375
1773258457056013800,12.105013916015626,-0.8955078125,-0.060699462890625,0.024078369140625
1773258457066029800,12.11502978515625,-0.910186767578125,-0.067535400390625,0.0156707763671875
1773258457076044800,12.125044921875,-0.921600341796875,-0.069427490234375,0.00335693359375
1773258457086060800,12.135060791015626,-0.941864013671875,-0.066925048828125,-0.0038604736328125
1773258457096075800,12.14507568359375,-0.964202880859375,-0.0504608154296875,-0.0201568603515625
1773258457106091800,12.155091796875,-0.9827728271484375,-0.02862548828125,-0.0369873046875
1773258457116106800,12.165106689453125,-0.9879150390625,-0.0217437744140625,-0.042266845703125
1773258457126122800,12.175122802734375,-0.989654541015625,-0.0256805419921875,-0.034942626953125
1773258457136137700,12.1851376953125,-0.983642578125,-0.036651611328125,-0.025634765625
1773258457146152700,12.195152587890625,-0.9757537841796875,-0.05377197265625,-0.0150604248046875
1773258457156168700,12.205168701171875,-0.9709930419921875,-0.08026123046875,-0.0077362060546875
1773258457166184700,12.215184814453124,-0.9640960693359375,-0.1042327880859375,-0.01513671875
1773258457176200700,12.22520068359375,-0.961181640625,-0.112213134765625,-0.01373291015625
1773258457186215700,12.235215576171875,-0.9644317626953125,-0.115081787109375,-0.025360107421875
1773258457196232000,12.24523193359375,-0.9648895263671875,-0.118743896484375,-0.0375823974609375
1773258457206246700,12.25524658203125,-0.9857635498046875,-0.104888916015625,-0.04998779296875
1773258457216263000,12.265262939453125,-1.0032501220703125,-0.0872344970703125,-0.0638885498046875
1773258457226278000,12.27527783203125,-1.0067291259765625,-0.080596923828125,-0.0640106201171875
1773258457236294000,12.2852939453125,-0.99200439453125,-0.0894775390625,-0.05999755859375
1773258457246308900,12.295308837890625,-0.9651641845703125,-0.1055145263671875,-0.0587921142578125
1773258457256323800,12.30532373046875,-0.9581451416015625,-0.1155548095703125,-0.0684967041015625
1773258457266339800,12.31533984375,-0.9510040283203125,-0.1126556396484375,-0.087158203125
1773258457276354800,12.325354736328125,-0.9190521240234375,-0.1034393310546875,-0.108245849609375
1773258457286370800,12.335370849609374,-0.89263916015625,-0.1031494140625,-0.1355743408203125
1773258457296385800,12.3453857421875,-0.9015960693359375,-0.1038818359375,-0.1445159912109375
1773258457306401800,12.35540185546875,-0.9600067138671875,-0.101837158203125,-0.155059814453125
1773258457316416800,12.365416748046876,-1.01007080078125,-0.1107177734375,-0.1558837890625
1773258457326432800,12.375432861328125,-1.0095062255859375,-0.133880615234375,-0.134552001953125
1773258457336447700,12.38544775390625,-0.9965362548828125,-0.136993408203125,-0.1335601806640625
1773258457346463700,12.395463623046876,-0.99700927734375,-0.1234130859375,-0.144683837890625
1773258457356478700,12.405478759765625,-1.0095367431640625,-0.1192779541015625,-0.1435394287109375
1773258457366493700,12.41549365234375,-1.00897216796875,-0.098297119140625,-0.156219482421875
1773258457376509700,12.425509765625,-1.0159149169921875,-0.0700836181640625,-0.1649932861328125
1773258457386524700,12.435524658203125,-1.0425262451171875,-0.06170654296875,-0.1418304443359375
1773258457396540700,12.445540771484374,-1.080596923828125,-0.0489044189453125,-0.133819580078125
1773258457406555600,12.4555556640625,-1.1360015869140625,-0.0453948974609375,-0.1325531005859375
1773258457416571600,12.465571533203125,-1.13616943359375,-0.067779541015625,-0.1294403076171875
1773258457426586600,12.475586669921874,-1.1002655029296875,-0.0676116943359375,-0.153839111328125
1773258457436603000,12.485602783203126,-1.076995849609375,-0.0852508544921875,-0.1651763916015625
1773258457446617900,12.495617919921875,-1.0767822265625,-0.1466064453125,-0.1263275146484375
1773258457456632600,12.505632568359376,-1.1022796630859375,-0.176361083984375,-0.1366729736328125
1773258457466648800,12.51564892578125,-1.05438232421875,-0.2181243896484375,-0.1350555419921875
1773258457476663800,12.525663818359375,-0.993377685546875,-0.217620849609375,-0.1248016357421875
1773258457486679800,12.5356796875,-0.9634857177734375,-0.201446533203125,-0.1224365234375
1773258457496694800,12.54569482421875,-0.95196533203125,-0.1893157958984375,-0.09674072265625
1773258457506710800,12.555710693359375,-0.9539642333984375,-0.213409423828125,-0.08428955078125
1773258457516725800,12.565725830078126,-0.9774169921875,-0.2224578857421875,-0.0474853515625
1773258457526741800,12.57574169921875,-0.9370269775390625,-0.171600341796875,0.1268463134765625
1773258457536756700,12.5857568359375,-0.938995361328125,-0.4152069091796875,0.1217041015625
1773258457546772700,12.595772705078126,-1.2208099365234375,-0.5714874267578125,0.2873687744140625
1773258457556787700,12.60578759765625,-1.3010406494140625,-0.5880584716796875,0.2396087646484375
1773258457566802700,12.615802734375,-1.1901092529296875,-0.4622039794921875,0.0970306396484375
1773258457576818700,12.625818603515626,-1.050811767578125,-0.3643798828125,0.0373077392578125
1773258457586833700,12.635833740234375,-0.8625640869140625,-0.3236846923828125,0.008331298828125
1773258457596849700,12.645849609375,-0.71807861328125,-0.2977294921875,0.013519287109375
1773258457606864600,12.65586474609375,-0.58306884765625,-0.4311676025390625,0.0348663330078125
1773258457616880600,12.665880615234375,-0.8188629150390625,-0.2774505615234375,0.01953125
1773258457626895600,12.6758955078125,-1.0396575927734375,-0.010009765625,0.0356292724609375
1773258457636911600,12.68591162109375,-1.15142822265625,0.0189361572265625,0.160308837890625
1773258457646926600,12.695926513671875,-1.1136016845703125,-0.0745849609375,0.2015533447265625
1773258457657567700,12.706567626953126,-1.0830841064453125,-0.208526611328125,0.188323974609375
1773258457667582700,12.716582763671875,-1.1638031005859375,-0.284881591796875,0.1255035400390625
1773258457677598700,12.7265986328125,-1.17333984375,-0.2607269287109375,-0.06317138671875
1773258457687613700,12.73661376953125,-1.0966644287109375,-0.3225250244140625,-0.106414794921875
1773258457697629700,12.746629638671875,-1.0603179931640625,-0.4525299072265625,-0.027740478515625
1773258457707644700,12.756644775390624,-1.034637451171875,-0.50244140625,-0.12054443359375
1773258457717659600,12.76665966796875,-0.9520416259765625,-0.5800323486328125,-0.1625213623046875
1773258457727675600,12.776675537109375,-0.884246826171875,-0.64129638671875,-0.1707763671875
1773258457737690600,12.786690673828126,-0.7573394775390625,-0.690704345703125,-0.2081451416015625
1773258457747706600,12.79670654296875,-0.6789398193359375,-0.771392822265625,-0.22943115234375
1773258457757721600,12.8067216796875,-0.6215667724609375,-0.8932037353515625,-0.1653900146484375
1773258457767737600,12.816737548828126,-0.700531005859375,-0.93817138671875,-0.06854248046875
1773258457777752600,12.826752685546875,-0.89501953125,-0.8928985595703125,0.06475830078125
1773258457787768800,12.836768798828125,-1.0476226806640625,-0.7789764404296875,0.1875762939453125
1773258457797783600,12.846783447265626,-1.1140899658203125,-0.66290283203125,0.3295440673828125
1773258457807799800,12.8567998046875,-1.15478515625,-0.5607452392578125,0.505279541015625
1773258457817814800,12.866814697265625,-1.154327392578125,-0.4976654052734375,0.6710205078125
1773258457827829800,12.876829833984376,-1.101654052734375,-0.4666900634765625,0.7947235107421875
1773258457837845800,12.886845703125,-1.0576019287109375,-0.461700439453125,0.8924102783203125
1773258457847860700,12.89686083984375,-1.0291290283203125,-0.439697265625,0.928741455078125
1773258457857876700,12.906876708984376,-0.9919586181640625,-0.430084228515625,0.93206787109375
1773258457867891700,12.9168916015625,-0.930206298828125,-0.428375244140625,0.898101806640625
1773258457877907700,12.92690771484375,-0.8496551513671875,-0.45135498046875,0.85784912109375
1773258457887922700,12.936922607421875,-0.7572784423828125,-0.444793701171875,0.831024169921875
1773258457897938700,12.946938720703125,-0.686279296875,-0.428924560546875,0.7902069091796875
1773258457907953700,12.95695361328125,-0.6141815185546875,-0.383758544921875,0.7413482666015625
1773258457917969700,12.9669697265625,-0.5039825439453125,-0.322967529296875,0.6927490234375
1773258457927984600,12.976984619140625,-0.3950653076171875,-0.2710418701171875,0.6659088134765625
1773258457937999600,12.98699951171875,-0.333251953125,-0.2174530029296875,0.650360107421875
1773258457948015600,12.997015625,-0.3337860107421875,-0.19793701171875,0.62335205078125
1773258457958030600,13.007030517578125,-0.368560791015625,-0.1885833740234375,0.5587615966796875
