time,seconds_elapsed,z,y,x
1774470633100626000,0.0736259765625,-0.40545374155044556,0.5156412720680237,1.4230306148529053
1774470633110653200,0.083653076171875,-0.572028636932373,0.487454354763031,1.4337940216064453
1774470633120680200,0.09368017578125,-0.737472414970398,0.42443278431892395,1.2645066976547241
1774470633130707000,0.10370703125,-0.788424015045166,0.15212509036064148,0.7829746603965759
1774470633140734200,0.113734130859375,-0.47996020317077637,0.22674979269504547,0.21510857343673706
1774470633150761200,0.12376123046875,-0.12827914953231812,0.2547939419746399,-0.2998761832714081
1774470633160788000,0.1337880859375,0.055753275752067566,0.23668578267097473,-0.6402881145477295
1774470633170815000,0.14381494140625,-0.023486416786909103,0.7347142100334167,-0.6767760515213013
1774470633180842200,0.15384228515625,-0.03984541818499565,1.3841185569763184,-0.26188966631889343
1774470633190869000,0.163868896484375,-0.12835104763507843,1.746721863746643,0.3554478585720062
1774470633200896000,0.17389599609375,-0.8413692712783813,1.653269648551941,0.9001601338386536
1774470633210924000,0.183924072265625,-1.437484860420227,0.8670621514320374,1.4345759153366089
1774470633220951000,0.193950927734375,-1.5320841073989868,-0.5788812041282654,1.6614716053009033
1774470633230978000,0.20397802734375,-1.2855433225631714,-2.2253310680389404,1.7003321647644043
1774470633241005000,0.214005126953125,-1.0956406593322754,-3.467202663421631,1.7198057174682617
1774470633251032000,0.224031982421875,-0.8335286974906921,-4.331465721130371,1.778576374053955
1774470633261059000,0.23405908203125,-0.7364551424980164,-4.966912746429443,1.8426566123962402
1774470633271086300,0.24408642578125,-0.904830276966095,-5.492715835571289,1.7731683254241943
1774470633281113000,0.254113037109375,-1.2183964252471924,-5.494917392730713,1.4989192485809326
1774470633291140000,0.26414013671875,-1.406793475151062,-4.998878002166748,1.1260385513305664
1774470633301167000,0.2741669921875,-1.3736419677734375,-4.508989334106445,0.8553172945976257
1774470633311194000,0.284194091796875,-1.2953757047653198,-3.540365219116211,0.6222078800201416
1774470633321221000,0.29422119140625,-1.1825066804885864,-2.1496493816375732,0.48841148614883423
1774470633331248000,0.304248046875,-1.00959050655365,-0.36106792092323303,0.48516350984573364
1774470633341276200,0.314276123046875,-0.6992589831352234,1.628541350364685,0.6180986166000366
1774470633351303200,0.32430322265625,-0.2957421839237213,2.9694175720214844,0.5406160950660706
1774470633361330000,0.334329833984375,0.03839106485247612,2.57395601272583,0.06726772338151932
1774470633371357200,0.344357177734375,0.2774316072463989,1.4954719543457031,-0.41604727506637573
1774470633381384200,0.35438427734375,0.47920680046081543,0.9926381707191467,-0.7129402160644531
1774470633391411000,0.364410888671875,0.576659083366394,1.240375280380249,-0.8133248686790466
1774470633401438000,0.37443798828125,0.5469874739646912,1.3167685270309448,-0.7276935577392578
1774470633411465200,0.38446533203125,0.5329509973526001,0.9947247505187988,-0.5823262929916382
1774470633421492200,0.3944921875,0.4579273462295532,0.4553914964199066,-0.4119289517402649
1774470633431519000,0.40451904296875,0.2936688959598541,0.0645156130194664,-0.31021830439567566
1774470633441546200,0.414546142578125,0.15943679213523865,-0.047383759170770645,-0.256805956363678
1774470633451573200,0.4245732421875,0.10283370316028595,0.0006977482116781175,-0.2544466555118561
1774470633461600000,0.43460009765625,0.07583484053611755,0.06684640794992447,-0.2888650894165039
1774470633471628300,0.444628173828125,0.11933651566505432,0.21239641308784485,-0.3565541207790375
1774470633481655000,0.454655029296875,0.26276716589927673,0.4708079993724823,-0.4348675608634949
1774470633491682000,0.46468212890625,0.36421099305152893,0.732825517654419,-0.4988979399204254
1774470633501709000,0.474708984375,0.3685798943042755,0.7914144992828369,-0.5804588794708252
1774470633511736000,0.484736083984375,0.39877748489379883,0.591911792755127,-0.6351417899131775
1774470633521763000,0.49476318359375,0.3621435761451721,0.3478724956512451,-0.5387566685676575
1774470633531790000,0.5047900390625,0.28214967250823975,0.3121752142906189,-0.2918235957622528
1774470633541817000,0.514817138671875,0.26936277747154236,0.5191243886947632,0.01768525317311287
1774470633551844000,0.524843994140625,0.2826620638370514,0.5409785509109497,0.28895777463912964
1774470633561871000,0.53487109375,0.3081037700176239,0.29211121797561646,0.4886769950389862
1774470633571897900,0.54489794921875,0.27444300055503845,-0.08580145984888077,0.6247546672821045
1774470633581925000,0.554925048828125,0.31453824043273926,-0.306118369102478,0.6737352609634399
1774470633591952100,0.5649521484375,0.4069983959197998,-0.4504412114620209,0.5019201040267944
1774470633601980200,0.574980224609375,0.4854327440261841,-0.4841237962245941,0.11112119257450104
1774470633612007200,0.585007080078125,0.5739743113517761,-0.38842150568962097,-0.38111433386802673
1774470633622034200,0.5950341796875,0.6360994577407837,-0.32970067858695984,-0.8280947804450989
1774470633632061000,0.60506103515625,0.6307326555252075,-0.344561368227005,-1.111560583114624
1774470633642088200,0.615088134765625,0.6156114935874939,-0.3548840582370758,-1.1582624912261963
1774470633652115200,0.625115234375,0.5558818578720093,-0.3793233633041382,-0.9918884634971619
1774470633662142000,0.635141845703125,0.3842533826828003,-0.4854617714881897,-0.570244550704956
1774470633672169200,0.645169189453125,0.30186131596565247,-0.7159831523895264,-0.07608597725629807
1774470633682196200,0.6551962890625,0.4374154210090637,-0.8880579471588135,0.3358467221260071
1774470633692223000,0.665222900390625,0.6940115094184875,-1.2314648628234863,0.6716622710227966
1774470633702250000,0.67525,0.9473835825920105,-1.3606699705123901,0.9885233044624329
1774470633712277200,0.68527734375,1.13270103931427,-1.488297462463379,1.0649230480194092
1774470633722305000,0.695304931640625,1.200786828994751,-1.5778241157531738,0.8449488282203674
1774470633732332000,0.70533203125,1.1188209056854248,-1.4928474426269531,0.44227543473243713
1774470633742359000,0.715359130859375,0.9422324895858765,-1.3424108028411865,-0.11634817719459534
1774470633752386000,0.725385986328125,0.7557438611984253,-1.1667073965072632,-0.736189603805542
1774470633762413000,0.7354130859375,0.5977441072463989,-1.0898510217666626,-1.3651129007339478
1774470633772440300,0.7454404296875,0.4937966763973236,-0.960719883441925,-1.809799313545227
1774470633782467000,0.755467041015625,0.372878760099411,-1.1846052408218384,-1.8586864471435547
1774470633792494000,0.765494140625,0.3687402307987213,-1.5011190176010132,-1.5712274312973022
1774470633802521000,0.77552099609375,0.640318751335144,-1.774029016494751,-1.1250598430633545
1774470633812548000,0.785548095703125,1.0503896474838257,-2.294874429702759,-0.6262599229812622
1774470633822575000,0.7955751953125,1.6524752378463745,-2.9573402404785156,-0.21005576848983765
1774470633832602000,0.80560205078125,2.345156669616699,-3.347346067428589,0.07355251163244247
1774470633842630100,0.815630126953125,2.9705140590667725,-3.410550594329834,0.20205536484718323
1774470633852657200,0.8256572265625,3.469372034072876,-3.2594053745269775,0.1092015877366066
1774470633862684000,0.835683837890625,3.9866456985473633,-3.1430439949035645,-0.00914369709789753
1774470633872711200,0.845711181640625,4.388714790344238,-3.1974282264709473,-0.06904830783605576
1774470633882738200,0.85573828125,4.688767910003662,-3.4119246006011963,-0.14111877977848053
1774470633892765000,0.865764892578125,4.803702354431152,-3.1557273864746094,-0.39231690764427185
1774470633902792200,0.875792236328125,4.934493541717529,-2.7503087520599365,-0.9174155592918396
1774470633912819200,0.885819091796875,5.270390033721924,-2.803539752960205,-1.6002501249313354
1774470633922846000,0.895845947265625,5.751031398773193,-3.2354037761688232,-2.34218692779541
1774470633932873000,0.905873046875,6.2522993087768555,-3.8051035404205322,-3.0035126209259033
1774470633942900200,0.915900146484375,7.010007858276367,-4.69713830947876,-3.6281216144561768
1774470633952927200,0.92592724609375,8.18969440460205,-5.843327045440674,-4.406466960906982
1774470633962954000,0.9359541015625,9.141427993774414,-5.229003429412842,-4.454994201660156
1774470633972982300,0.945982177734375,9.580021858215332,-3.4003140926361084,-3.9710495471954346
1774470633983009000,0.956009033203125,9.225508689880371,-2.685065746307373,-3.3490078449249268
1774470633993036000,0.9660361328125,8.467848777770996,-1.9774327278137207,-2.4277284145355225
1774470634003063300,0.976063232421875,7.731255054473877,-0.9378926157951355,-1.2725603580474854
1774470634013090000,0.986090087890625,7.228236675262451,0.22462086379528046,-0.1198720782995224
1774470634023117000,0.996116943359375,6.773812294006348,1.9234611988067627,0.6939129829406738
1774470634033144000,1.00614404296875,6.178860187530518,3.871554136276245,1.0013229846954346
1774470634043171000,1.016171142578125,5.399187088012695,5.797102928161621,1.12825345993042
1774470634053198000,1.026197998046875,4.5241169929504395,6.941210746765137,1.2872239351272583
1774470634063225000,1.03622509765625,3.6540870666503906,7.374845504760742,1.6457984447479248
1774470634073251800,1.046251953125,2.9611141681671143,7.330670356750488,2.0373175144195557
1774470634083279000,1.056279052734375,2.4028728008270264,7.048232555389404,2.2177929878234863
1774470634093307100,1.06630712890625,1.9585847854614258,6.771875381469727,2.1794798374176025
1774470634103334000,1.076333984375,1.6849857568740845,6.751564025878906,1.9799020290374756
1774470634113361200,1.086361083984375,1.4934391975402832,6.857183456420898,1.650521993637085
1774470634123388200,1.09638818359375,1.1592226028442383,6.769760608673096,1.2710093259811401
1774470634133415000,1.106414794921875,0.7495922446250916,6.64727783203125,1.0066490173339844
1774470634143442200,1.116442138671875,0.34099993109703064,6.486569404602051,0.8429054021835327
1774470634153469200,1.12646923828125,-0.11563178896903992,6.158298969268799,0.6474599838256836
1774470634163496000,1.136495849609375,-0.9150301814079285,5.906250953674316,0.19055156409740448
1774470634173523000,1.14652294921875,-2.08992338180542,5.3540754318237305,-1.0263841152191162
1774470634183550200,1.15655029296875,-2.5336499214172363,4.674763202667236,-2.3199357986450195
1774470634193577000,1.166576904296875,-3.602660655975342,4.431751251220703,-3.7673537731170654
1774470634203604000,1.17660400390625,-4.120734214782715,3.9968461990356445,-5.218067646026611
1774470634213632000,1.186632080078125,-3.693622589111328,4.106631278991699,-6.016331195831299
1774470634223659000,1.196658935546875,-2.4394092559814453,4.773105621337891,-5.780215740203857
1774470634233686000,1.20668603515625,-1.4692158699035645,5.197695732116699,-4.621107578277588
1774470634243713000,1.216713134765625,-1.379521131515503,5.073684215545654,-2.7812628746032715
1774470634253740000,1.226739990234375,-1.6682919263839722,4.3607096672058105,-0.9484014511108398
1774470634263767000,1.23676708984375,-2.0693323612213135,3.6306357383728027,0.3050360679626465
1774470634273794000,1.2467939453125,-2.39621901512146,2.9217281341552734,0.578097939491272
1774470634283821000,1.256821044921875,-2.2403924465179443,1.9568601846694946,-0.5096619129180908
1774470634293848000,1.26684814453125,-1.398267388343811,0.7502985000610352,-2.6728084087371826
1774470634303875000,1.276875,-0.4637492895126343,-0.30463021993637085,-3.3566884994506836
1774470634313902000,1.286902099609375,-0.1807628571987152,-1.0862445831298828,-2.1289968490600586
1774470634323929000,1.29692919921875,-0.3012940585613251,-1.7335628271102905,-0.6488794684410095
1774470634333956000,1.3069560546875,-0.41353803873062134,-2.32965350151062,-0.0471763014793396
1774470634343984000,1.316984130859375,-0.22511513531208038,-2.2863526344299316,-0.11620277166366577
1774470634354011100,1.32701123046875,0.33509278297424316,-1.7387791872024536,-0.21609555184841156
1774470634364038000,1.337037841796875,0.9264734983444214,-1.1507154703140259,-0.28312569856643677
1774470634374065200,1.347065185546875,1.2568995952606201,-0.7177538871765137,-0.5360562205314636
1774470634384092200,1.357092041015625,1.2699835300445557,-0.541557788848877,-1.017807126045227
1774470634394119000,1.367118896484375,0.9914354681968689,-0.409791499376297,-1.5939998626708984
1774470634404146000,1.37714599609375,0.8194423913955688,-0.5362847447395325,-2.2491021156311035
1774470634414173200,1.387173095703125,0.41073426604270935,1.1808221340179443,0.09806185215711594
1774470634424200000,1.397199951171875,0.7546271681785583,-1.1436198949813843,0.4947085380554199
1774470634434227000,1.40722705078125,0.9047785997390747,-1.556293249130249,0.6382476091384888
1774470634444254200,1.417254150390625,1.3148452043533325,-1.876297950744629,0.43945538997650146
1774470634454281200,1.42728125,1.4739052057266235,-1.7805255651474,-0.0502471923828125
1774470634464308000,1.437307861328125,1.2574809789657593,-1.3855185508728027,-0.40613898634910583
1774470634474335000,1.4473349609375,0.9569182395935059,-0.9417043924331665,-0.47789013385772705
1774470634484363000,1.457363037109375,0.986800491809845,-0.5258049368858337,-0.3657132685184479
1774470634494390000,1.46739013671875,1.0811948776245117,-0.1811346411705017,-0.22583791613578796
1774470634504417000,1.4774169921875,1.0306614637374878,-0.20681416988372803,-0.1466861069202423
1774470634514444000,1.487444091796875,0.985671877861023,-0.21705535054206848,-0.18286648392677307
1774470634524471000,1.497470947265625,0.8635683059692383,-0.23099246621131897,-0.24128451943397522
1774470634534498000,1.507498046875,0.7242570519447327,-0.287924200296402,-0.2519014775753021
1774470634544525000,1.517525146484375,0.6023428440093994,-0.3334469497203827,-0.1447121798992157
1774470634554552000,1.527552001953125,0.610737144947052,-0.29240044951438904,-0.027048662304878235
1774470634564579000,1.5375791015625,0.6967790722846985,-0.16331009566783905,-0.07697121053934097
1774470634574605800,1.547605712890625,0.8026970028877258,-0.06440908461809158,-0.3473494350910187
1774470634584633000,1.557633056640625,1.0209946632385254,0.026585537940263748,-0.7605314254760742
1774470634594660000,1.56766015625,1.1760878562927246,0.07858162373304367,-1.174936294555664
1774470634604688100,1.577688232421875,1.0001088380813599,-0.011446799151599407,-1.454951524734497
1774470634614715100,1.587715087890625,0.518839955329895,-0.10908228158950806,-1.5749680995941162
1774470634624742100,1.5977421875,-0.017237309366464615,-0.4668657183647156,-1.4195822477340698
1774470634634769000,1.607768798828125,-0.6449739336967468,-0.8220618963241577,-1.0959080457687378
1774470634644796200,1.617796142578125,-1.33309006690979,-0.9116306900978088,-0.8781070709228516
1774470634654823200,1.6278232421875,-2.3056681156158447,0.015726499259471893,-1.0274715423583984
1774470634664850000,1.637849853515625,-2.948040723800659,1.349453330039978,-1.5579015016555786
1774470634674877200,1.647877197265625,-3.2238473892211914,2.3138794898986816,-2.1854183673858643
1774470634684904200,1.657904296875,-3.284316062927246,2.600905656814575,-2.549861192703247
1774470634694931000,1.667930908203125,-3.241926670074463,2.614442825317383,-2.560853958129883
1774470634704958000,1.6779580078125,-3.1156880855560303,2.168205499649048,-2.342566728591919
1774470634714985200,1.687985107421875,-2.8866260051727295,1.0358878374099731,-1.8958114385604858
1774470634725012000,1.698011962890625,-2.8251450061798096,-0.17932315170764923,-1.2694684267044067
1774470634735039000,1.7080390625,-3.060590982437134,-1.1806442737579346,-0.7090147137641907
1774470634745067000,1.71806689453125,-3.6409754753112793,-1.4568465948104858,-0.2088288515806198
1774470634755094000,1.728093994140625,-4.674412250518799,-1.0171775817871094,0.23772494494915009
1774470634765121000,1.73812109375,-5.412349700927734,-0.26419490575790405,0.6153057813644409
1774470634775148000,1.74814794921875,-5.022096633911133,0.4172680675983429,0.7878423929214478
1774470634785175000,1.758175048828125,-3.7985105514526367,0.3463275730609894,0.5460990071296692
1774470634795202000,1.7682021484375,-2.4680423736572266,-0.7768012285232544,-0.03699583560228348
1774470634805229000,1.77822900390625,-1.826561450958252,-1.6179225444793701,-0.2934073805809021
1774470634815256000,1.788256103515625,-2.245882272720337,-2.0659868717193604,-0.2458193600177765
1774470634825283000,1.798282958984375,-3.0557785034179688,-2.1094307899475098,0.1118924468755722
1774470634835310000,1.80831005859375,-3.4147791862487793,-1.4585750102996826,0.4056982398033142
1774470634845337000,1.818337158203125,-3.361051559448242,-0.3275115489959717,0.2174241989850998
1774470634855364000,1.828364013671875,-3.283743143081665,0.44885554909706116,-0.411208838224411
1774470634865391000,1.83839111328125,-3.324289321899414,0.9423744678497314,-1.1798722743988037
1774470634875419100,1.848419189453125,-3.443326473236084,0.3436015844345093,-1.8867276906967163
1774470634885446100,1.858446044921875,-3.356412172317505,-0.4995940923690796,-2.041419506072998
1774470634895473000,1.868472900390625,-3.2845675945281982,-1.0223745107650757,-1.7096107006072998
1774470634905500200,1.878500244140625,-3.0814590454101562,-0.9064899682998657,-0.956530749797821
1774470634915527200,1.888527099609375,-2.712374210357666,-0.5395684242248535,-0.262334942817688
1774470634925554000,1.898553955078125,-2.160484552383423,-0.3638996481895447,0.2790771722793579
1774470634935581000,1.908580810546875,-1.5577048063278198,-0.49073296785354614,0.6082150936126709
1774470634945608200,1.918608154296875,-1.2650619745254517,-0.43366381525993347,0.6588423252105713
1774470634955635000,1.928635009765625,-1.2032475471496582,-0.21831102669239044,0.7155897617340088
1774470634965662000,1.938661865234375,-1.2537089586257935,-0.034262631088495255,0.8950541019439697
1774470634975689200,1.948689208984375,-1.3455184698104858,-0.023967649787664413,1.1445746421813965
1774470634985716200,1.95871630859375,-1.4084542989730835,-0.17751219868659973,1.1737360954284668
1774470634995744000,1.968743896484375,-1.4941017627716064,-0.32673925161361694,1.0450137853622437
1774470635005771300,1.978771240234375,-1.1699734926223755,-0.6164538860321045,0.7178009748458862
1774470635015798000,1.988798095703125,-0.8341662287712097,-1.0545843839645386,0.08666245639324188
1774470635025825000,1.998824951171875,-1.0083239078521729,-0.8194951415061951,0.5315512418746948
1774470635035852000,2.00885205078125,-0.6827961206436157,-0.867537796497345,0.9647684693336487
1774470635045879000,2.018879150390625,-0.4223161041736603,-1.3041664361953735,0.8343992829322815
1774470635055906000,2.028906005859375,-0.1565893441438675,-1.4542946815490723,0.5580459833145142
1774470635065929000,2.038928955078125,0.1504150778055191,-1.3682005405426025,0.38992831110954285
1774470635075956000,2.0489560546875,0.40102651715278625,-1.5008779764175415,0.5050530433654785
1774470635085983000,2.05898291015625,0.6098010540008545,-1.6003693342208862,0.8221284747123718
1774470635096010000,2.069010009765625,0.8358876705169678,-1.413594126701355,1.0102821588516235
1774470635106037000,2.079037109375,1.1229172945022583,-1.362464189529419,0.9528012871742249
1774470635116064000,2.08906396484375,1.353058099746704,-1.3957449197769165,0.8162277340888977
1774470635126092000,2.099092041015625,1.5371466875076294,-1.3990596532821655,0.7353203296661377
1774470635136118800,2.109118896484375,1.719710111618042,-1.3318101167678833,0.6967537999153137
1774470635146146000,2.11914599609375,1.9536051750183105,-1.1914100646972656,0.7307090759277344
1774470635156173000,2.129173095703125,1.9793076515197754,-0.8173220157623291,0.7629213333129883
1774470635166199800,2.13919970703125,1.7014718055725098,-0.42292967438697815,0.7689033150672913
1774470635176227000,2.14922705078125,1.16378915309906,-0.44026073813438416,0.7467668652534485
1774470635186254000,2.159254150390625,0.4981466829776764,-1.1405996084213257,0.579289972782135
1774470635196280800,2.16928076171875,-0.2600603401660919,-1.3237212896347046,0.4834716022014618
1774470635206307800,2.179307861328125,-0.7930268049240112,-0.983203113079071,0.7876591682434082
1774470635216335000,2.189335205078125,-0.9368382692337036,-0.6946259140968323,1.312270164489746
1774470635226362000,2.199362060546875,-0.677992045879364,-0.811805248260498,1.8057994842529297
1774470635236390000,2.209389892578125,0.007250722497701645,-1.3306093215942383,2.0153777599334717
1774470635246417200,2.219417236328125,0.8045644164085388,-1.688669204711914,1.6908828020095825
1774470635256444000,2.22944384765625,1.2982614040374756,-2.225210189819336,0.45013919472694397
1774470635266471000,2.239470947265625,1.3486764430999756,-2.0644619464874268,-1.2919247150421143
1774470635276498200,2.249498291015625,0.8889620900154114,-1.6775368452072144,-2.3018980026245117
1774470635286525000,2.25952490234375,0.2151394784450531,-1.4026947021484375,-2.6331331729888916
1774470635296552000,2.269552001953125,-0.5997111201286316,-1.2385680675506592,-2.4456958770751953
1774470635306579000,2.279578857421875,-1.3065359592437744,-1.289534330368042,-1.906259298324585
1774470635316606000,2.28960595703125,-1.6723871231079102,-1.0800186395645142,-1.2715438604354858
1774470635326633000,2.299633056640625,-1.860090732574463,-0.9091467261314392,-0.6690337061882019
1774470635336660000,2.309659912109375,-1.9055581092834473,-0.9039562344551086,-0.15813371539115906
1774470635346688000,2.31968798828125,-1.8260818719863892,-1.1256638765335083,0.22636070847511292
1774470635356715000,2.329715087890625,-1.7875051498413086,-1.2358840703964233,0.5106816291809082
1774470635366742000,2.339741943359375,-1.681599497795105,-0.9946565628051758,0.6165385842323303
1774470635376769000,2.34976904296875,-1.5866245031356812,-0.4210604131221771,0.40460261702537537
1774470635386796000,2.359796142578125,-1.5989805459976196,-0.03724377602338791,0.06772605329751968
1774470635396823000,2.369822998046875,-1.6681175231933594,0.013391172513365746,-0.154962956905365
1774470635406849800,2.379849853515625,-1.6595128774642944,-0.08327198773622513,-0.16554155945777893
1774470635416877000,2.389876953125,-1.5650867223739624,-0.28981292247772217,-0.039735160768032074
1774470635426904000,2.399904052734375,-1.430895447731018,-0.3253088593482971,0.20825307071208954
1774470635436930800,2.409930908203125,-1.3574012517929077,-0.2624308168888092,0.5594225525856018
1774470635446958000,2.4199580078125,-1.3990988731384277,-0.20246203243732452,0.9371264576911926
1774470635456985000,2.429985107421875,-1.4853626489639282,-0.05734611302614212,1.2947971820831299
1774470635467012900,2.440012939453125,-1.4381381273269653,0.1370486617088318,1.6521923542022705
1774470635477040000,2.4500400390625,-1.1604372262954712,0.2253553569316864,2.103207588195801
1774470635487067000,2.46006689453125,-0.8198320269584656,0.3732316493988037,2.733131170272827
1774470635497094000,2.470093994140625,-0.41891950368881226,0.2129676640033722,3.410982370376587
1774470635507121200,2.48012109375,-0.022101040929555893,-0.06932900846004486,3.781883716583252
1774470635517148000,2.49014794921875,0.2354050576686859,0.24876374006271362,3.7751786708831787
1774470635527175000,2.5001748046875,0.40707749128341675,1.0267788171768188,3.53780460357666
1774470635537202000,2.510201904296875,0.5984264016151428,1.4919811487197876,3.203066110610962
1774470635547229000,2.52022900390625,1.0590941905975342,1.6673026084899902,2.797971725463867
1774470635557256000,2.530255859375,2.0490996837615967,1.5979571342468262,2.4955496788024902
1774470635567283000,2.540282958984375,3.234001636505127,0.445692241191864,2.7402024269104004
1774470635577310200,2.550310302734375,3.639458179473877,-1.0255987644195557,2.980398178100586
1774470635587338000,2.560337890625,3.2360270023345947,-2.2755651473999023,3.17677640914917
1774470635597365000,2.570364990234375,2.761781692504883,-3.0693421363830566,3.1453096866607666
1774470635607392000,2.58039208984375,2.4440693855285645,-3.269744396209717,2.6245436668395996
1774470635617419000,2.5904189453125,2.3260953426361084,-2.926722288131714,1.6502948999404907
1774470635627446000,2.600446044921875,2.3086156845092773,-2.26448392868042,0.7445905208587646
1774470635637472800,2.61047265625,2.155937433242798,-1.8970173597335815,0.4891177713871002
1774470635647500000,2.6205,1.8134584426879883,-1.8110829591751099,0.880021870136261
1774470635657527000,2.630527099609375,1.34723699092865,-1.3775461912155151,1.5153224468231201
1774470635667553800,2.6405537109375,1.191948652267456,-1.0303837060928345,1.861418604850769
1774470635677581000,2.6505810546875,1.3198351860046387,-0.6244393587112427,2.1575989723205566
1774470635687608000,2.660608154296875,1.5425928831100464,-0.136788472533226,2.361577272415161
1774470635697634800,2.670634765625,1.7873352766036987,-0.0116188395768404,2.480898380279541
1774470635707663000,2.6806630859375,1.8858873844146729,-0.5040010809898376,2.570079803466797
1774470635717690000,2.690690185546875,1.9833791255950928,-1.3185027837753296,2.50016450881958
1774470635727716900,2.700716796875,2.1609549522399902,-1.4114242792129517,1.9311529397964478
1774470635737744100,2.710744140625,2.4580750465393066,-1.0067025423049927,0.9837104678153992
1774470635747771100,2.720771240234375,2.8523550033569336,-0.7221198678016663,0.105922169983387
1774470635757798000,2.7307978515625,3.0943033695220947,-0.6780772805213928,-0.40111786127090454
1774470635767825000,2.740824951171875,3.029205799102783,-0.7274488210678101,-0.3460492789745331
1774470635777852200,2.75085205078125,2.851821184158325,-0.9213900566101074,0.21273677051067352
1774470635787879000,2.76087890625,2.890033006668091,-0.7870492935180664,0.8397035002708435
1774470635797906000,2.770906005859375,3.2022507190704346,-0.18087178468704224,1.134902834892273
1774470635807933200,2.78093310546875,3.794283628463745,0.7641871571540833,1.4149715900421143
1774470635817960000,2.7909599609375,4.6093339920043945,1.5636848211288452,1.8459749221801758
1774470635827988000,2.800988037109375,5.5193610191345215,1.7631947994232178,2.095956802368164
1774470635838015000,2.811014892578125,6.05867338180542,1.0122363567352295,2.323530435562134
1774470635848042000,2.8210419921875,5.850961685180664,-0.0347750261425972,2.897998809814453
1774470635858069000,2.831069091796875,5.117988586425781,-1.2041394710540771,3.9170000553131104
1774470635868096000,2.841095947265625,3.866107225418091,-1.6468961238861084,4.901352882385254
1774470635878123000,2.851123046875,2.5407304763793945,-1.568000316619873,5.812041282653809
1774470635888150000,2.86114990234375,1.6380374431610107,-1.8995212316513062,6.995029926300049
1774470635898177000,2.871177001953125,0.6859320402145386,-3.0260064601898193,8.110259056091309
1774470635908204000,2.8812041015625,-0.6273784041404724,-4.693065643310547,8.754375457763672
1774470635918231000,2.89123095703125,-2.0840768814086914,-6.061491966247559,8.348745346069336
1774470635928258000,2.901258056640625,-3.5372612476348877,-6.486579418182373,6.874905586242676
1774470635938286000,2.9112861328125,-4.306812286376953,-5.994334697723389,4.811331272125244
1774470635948313000,2.92131298828125,-3.8847339153289795,-5.036480903625488,3.561384916305542
1774470635958339800,2.93133984375,-2.6049411296844482,-3.7510645389556885,3.7204649448394775
1774470635968366800,2.941366943359375,-1.4519461393356323,-2.342766761779785,4.901897430419922
1774470635978394000,2.95139404296875,-0.9459587931632996,-1.6487715244293213,5.991942882537842
1774470635988420900,2.9614208984375,-1.0019371509552002,-1.6820162534713745,6.275665760040283
1774470635998447900,2.97144775390625,-1.3362696170806885,-1.7260463237762451,5.875944137573242
1774470636008475100,2.98147509765625,-1.4640933275222778,-1.2590796947479248,5.350463390350342
1774470636018502000,2.991501953125,-1.3753026723861694,-0.6979905366897583,4.945104598999023
1774470636028529000,3.00152880859375,-1.0732427835464478,-0.8430931568145752,3.8618454933166504
1774470636038556000,3.011555908203125,-0.5279644727706909,-0.9931508302688599,2.862208127975464
1774470636048584000,3.021583984375,0.18678532540798187,-0.5173099637031555,1.2979711294174194
1774470636058611000,3.03161083984375,1.5322401523590088,0.7896445393562317,-0.38549521565437317
1774470636068638200,3.04163818359375,3.3911335468292236,1.3037816286087036,-1.3437703847885132
1774470636078665200,3.051665283203125,5.1713361740112305,1.0740752220153809,-1.1696821451187134
1774470636088692200,3.061692138671875,6.6975860595703125,1.1875008344650269,-0.16219423711299896
1774470636098719200,3.07171923828125,7.619808197021484,2.555861473083496,0.4915553629398346
1774470636108746200,3.081746337890625,9.181143760681152,2.568329334259033,2.1408345699310303
1774470636118773200,3.091773193359375,9.882445335388184,3.1550498008728027,4.427901744842529
1774470636128800300,3.10180029296875,9.668420791625977,3.0414388179779053,6.342737674713135
1774470636138827000,3.111826904296875,8.747743606567383,2.9188835620880127,7.364003658294678
1774470636148854300,3.121854248046875,6.926425457000732,2.8525352478027344,7.628101825714111
1774470636158882000,3.131882080078125,4.232309341430664,2.427460193634033,7.447476863861084
1774470636168909000,3.141908935546875,1.3774782419204712,2.0747244358062744,6.975250244140625
1774470636178936300,3.151936279296875,-1.3364688158035278,1.5128291845321655,6.229745388031006
1774470636188963000,3.161963134765625,-3.489097833633423,0.28533080220222473,5.226873397827148
1774470636198990000,3.171989990234375,-4.9277777671813965,-1.1740678548812866,4.1419196128845215
1774470636209017300,3.182017333984375,-5.62742280960083,-2.589312791824341,3.2170064449310303
1774470636219044000,3.192044189453125,-5.753004550933838,-3.5189104080200195,2.619288921356201
1774470636229071000,3.202071044921875,-5.571425437927246,-3.9357006549835205,2.340242862701416
1774470636239098000,3.21209814453125,-5.289133548736572,-3.8383307456970215,2.1409733295440674
1774470636249125000,3.222125,-5.009819984436035,-3.519542932510376,1.9751200675964355
1774470636259152100,3.232152099609375,-4.719016075134277,-3.4010114669799805,1.8920667171478271
1774470636269180400,3.242180419921875,-4.420333385467529,-3.888456344604492,1.9017928838729858
1774470636279207200,3.252207275390625,-4.112584590911865,-4.587237358093262,1.9730513095855713
1774470636289234200,3.262234130859375,-3.757366180419922,-5.348197937011719,2.053936719894409
1774470636299261200,3.27226123046875,-3.408717632293701,-6.126564979553223,2.1784892082214355
1774470636309288200,3.2822880859375,-3.10170841217041,-6.734116077423096,2.325153112411499
1774470636319315200,3.292315185546875,-2.9493660926818848,-6.840632438659668,2.4433133602142334
1774470636329342200,3.30234228515625,-1.612934947013855,-8.305490493774414,5.836310863494873
1774470636339369200,3.312369140625,0.25482457876205444,-6.278495788574219,11.35354995727539
1774470636349396200,3.322396240234375,0.9058268070220947,-0.8106688857078552,12.025267601013184
1774470636359423200,3.33242333984375,0.4019008278846741,0.8229618072509766,9.731881141662598
1774470636369451300,3.342451171875,-0.5478604435920715,-0.7225632667541504,6.278181552886963
1774470636379478300,3.352478271484375,-0.7860391736030579,-2.6243650913238525,3.310793876647949
1774470636389505000,3.362505126953125,-0.44355931878089905,-3.4251163005828857,2.686535596847534
1774470636399532000,3.372531982421875,0.9070047736167908,1.2803138494491577,1.8536399602890015
1774470636409559300,3.382559326171875,0.8927667140960693,3.1209216117858887,2.7692811489105225
1774470636419586300,3.39258642578125,0.9253454208374023,3.5470056533813477,2.1532862186431885
1774470636429613000,3.402613037109375,0.6841123104095459,1.801284909248352,1.2642076015472412
1774470636439640300,3.412640380859375,0.39717477560043335,0.259827584028244,0.413557231426239
1774470636449667300,3.422667236328125,0.040819067507982254,-0.580564558506012,0.196280837059021
1774470636459694000,3.432694091796875,-0.21822340786457062,-0.7707691192626953,0.2901737689971924
1774470636469721000,3.44272119140625,-0.3029670715332031,-0.6924887299537659,0.44334787130355835
1774470636479749000,3.4527490234375,-0.2679629921913147,-0.698232889175415,0.8111019134521484
1774470636489776000,3.462776123046875,0.0372307263314724,-1.131604790687561,1.4347202777862549
1774470636499803100,3.47280322265625,0.7307458519935608,-2.719154119491577,2.5699446201324463
1774470636509830100,3.482830078125,1.4352525472640991,-4.0697197914123535,3.467068672180176
1774470636519857200,3.492857177734375,1.5400482416152954,-2.979292154312134,2.4283225536346436
1774470636529884200,3.50288427734375,0.9970483779907227,-3.0836808681488037,1.6222584247589111
1774470636539911200,3.5129111328125,0.3045593798160553,-0.6064299941062927,0.3502080738544464
1774470636549938200,3.522938232421875,-0.18787376582622528,1.9259307384490967,-0.49910619854927063
1774470636559965200,3.532965087890625,0.004875182639807463,1.5500867366790771,-0.7599197030067444
1774470636569992200,3.5429921875,0.582129180431366,0.6781867742538452,-1.2574533224105835
1774470636580019200,3.553019287109375,1.0858570337295532,0.37580931186676025,-1.7738796472549438
1774470636590047200,3.563047119140625,1.3930792808532715,0.23013919591903687,-2.2763149738311768
1774470636600074200,3.57307421875,1.6425261497497559,-0.08031082153320312,-2.3220252990722656
1774470636610101200,3.583101318359375,2.0088720321655273,0.3118116855621338,-1.436827540397644
1774470636620128300,3.593128173828125,2.9791321754455566,1.5216985940933228,-1.396327257156372
1774470636630155000,3.603155029296875,3.368014335632324,2.0403964519500732,-1.7115286588668823
1774470636640182300,3.613182373046875,2.610590696334839,1.6999492645263672,-1.610769510269165
1774470636650209300,3.623209228515625,1.843339204788208,1.149308204650879,-1.438306450843811
1774470636660236000,3.633236083984375,1.3363561630249023,0.48541516065597534,-1.2380998134613037
1774470636670263300,3.64326318359375,1.0304534435272217,-0.039749011397361755,-0.8819342851638794
1774470636680290300,3.653290283203125,0.5789017081260681,-0.13271251320838928,-0.5056631565093994
1774470636690318000,3.663318115234375,0.44142958521842957,0.2784119248390198,-0.12607936561107635
1774470636700345300,3.673345458984375,0.6525591611862183,0.4505373537540436,0.39518406987190247
1774470636710372000,3.6833720703125,1.0613285303115845,0.8704770803451538,0.49488961696624756
1774470636720399000,3.693399169921875,1.372131109237671,1.3060940504074097,0.09032776206731796
1774470636730426000,3.703426025390625,1.4015476703643799,1.219166874885559,-0.10281159728765488
1774470636740453000,3.713453125,1.107231855392456,0.7620547413825989,0.0067750816233456135
1774470636750480100,3.723480224609375,0.9038989543914795,0.3744939863681793,0.20905548334121704
1774470636760507100,3.733507080078125,0.901089072227478,0.30080562829971313,0.4359480142593384
1774470636770534400,3.743534423828125,1.0407185554504395,0.3028101921081543,0.5955020189285278
1774470636780561200,3.75356103515625,1.2930411100387573,0.2853713035583496,0.6255863904953003
1774470636790589200,3.763589111328125,1.619041085243225,0.41296306252479553,0.6837876439094543
1774470636800616200,3.7736162109375,1.884082555770874,0.4904746413230896,0.8529723882675171
1774470636810643200,3.783643310546875,2.0903396606445312,0.6496967673301697,1.0312143564224243
1774470636820670200,3.793670166015625,2.2119410037994385,0.8297267556190491,1.1362265348434448
1774470636830697200,3.803697265625,2.1517486572265625,0.7696085572242737,1.1312536001205444
1774470636840724200,3.81372412109375,2.045454502105713,0.628898024559021,0.9301899671554565
1774470636850751200,3.823751220703125,2.097154378890991,0.5830850005149841,0.7453106641769409
1774470636860778000,3.833778076171875,2.1450252532958984,0.7882149815559387,0.5911362767219543
1774470636870805200,3.84380517578125,2.161790132522583,1.2071280479431152,0.22228606045246124
1774470636880832300,3.853832275390625,2.0943009853363037,1.554128885269165,-0.0890750139951706
1774470636890860000,3.863860107421875,1.8922313451766968,1.6103549003601074,-0.23346760869026184
1774470636900887300,3.87388720703125,1.6247152090072632,1.478733777999878,-0.4117279052734375
1774470636910914300,3.883914306640625,1.3633688688278198,0.9826792478561401,-0.6378744840621948
1774470636920941000,3.893941162109375,1.3392877578735352,0.7272927761077881,-0.7077928185462952
1774470636930968300,3.90396826171875,1.4684361219406128,0.6887557506561279,-0.5569348931312561
1774470636940995300,3.913995361328125,1.5975065231323242,0.6526129245758057,-0.33949896693229675
1774470636951022000,3.92402197265625,1.545154094696045,0.5254243612289429,-0.08263895660638809
1774470636961049000,3.934049072265625,1.4436849355697632,0.45146119594573975,0.20970448851585388
1774470636971076400,3.944076416015625,1.411659598350525,0.5220754146575928,0.49796023964881897
1774470636981103000,3.95410302734375,1.4810371398925781,0.6975529789924622,0.6526172161102295
1774470636991131100,3.964131103515625,1.5119037628173828,0.8815808892250061,0.6870297789573669
1774470637001158100,3.974158203125,1.4979599714279175,0.9524127244949341,0.6553938388824463
1774470637011185200,3.98418505859375,1.4441452026367188,0.8603520393371582,0.7772558331489563
1774470637021212200,3.994212158203125,1.2933531999588013,0.6756221055984497,1.0398738384246826
1774470637031239200,4.0042392578125,1.1473220586776733,0.543042004108429,1.2578176259994507
1774470637041266200,4.01426611328125,0.8821406960487366,0.6100825071334839,1.4846014976501465
1774470637051293200,4.024293212890625,0.6834669709205627,0.48426520824432373,1.6300913095474243
1774470637061320200,4.0343203125,0.9165979623794556,0.4268527925014496,1.6759991645812988
1774470637071347000,4.044346923828125,1.1741094589233398,0.5883287787437439,1.7535426616668701
1774470637081374200,4.054374267578125,1.2632709741592407,0.7311269044876099,1.8311296701431274
1774470637091401200,4.064401123046875,1.2207666635513306,0.7352167367935181,1.9266340732574463
1774470637101429000,4.074428955078125,1.1219724416732788,0.36931970715522766,2.0746304988861084
1774470637111456300,4.084456298828125,1.0365574359893799,0.2980705797672272,2.24514102935791
1774470637121483000,4.09448291015625,0.8055593371391296,0.37295466661453247,2.136702299118042
1774470637131510000,4.104510009765625,0.41181817650794983,0.35035401582717896,1.9754610061645508
1774470637141537000,4.114537109375,0.2552008628845215,0.03197338059544563,1.7616664171218872
1774470637151564000,4.12456396484375,0.5017475485801697,-0.05315349996089935,1.534328579902649
1774470637161591000,4.134591064453125,0.6697927117347717,0.17150065302848816,1.5765676498413086
1774470637171618000,4.1446181640625,0.8037622570991516,0.41542863845825195,1.6537386178970337
1774470637181645000,4.15464501953125,1.0621628761291504,0.5264062881469727,1.6143789291381836
1774470637191673000,4.164673095703125,1.2990127801895142,0.6035612225532532,1.5408538579940796
1774470637201700000,4.1747001953125,1.26130211353302,0.8849974274635315,1.519587755203247
1774470637211727000,4.18472705078125,1.240385890007019,1.026788353919983,1.596119999885559
1774470637221754000,4.194754150390625,1.2618331909179688,1.0035456418991089,1.4307976961135864
1774470637231781000,4.204781005859375,1.3090012073516846,1.1413540840148926,1.3571463823318481
1774470637241808100,4.21480810546875,1.1804810762405396,0.9811636805534363,1.5440642833709717
1774470637251835100,4.224835205078125,0.7766033411026001,0.972378671169281,1.6271512508392334
1774470637261862100,4.234862060546875,0.16924388706684113,1.161112666130066,1.3921794891357422
1774470637271889000,4.244888916015625,0.060631390661001205,1.3969489336013794,1.5400786399841309
1774470637281916200,4.254916259765625,-0.09877344965934753,1.5189847946166992,1.8211443424224854
1774470637291944000,4.26494384765625,-0.13650457561016083,1.6140612363815308,2.0477426052093506
1774470637301971000,4.274970947265625,0.0908803716301918,1.4504318237304688,2.01422381401062
1774470637311998200,4.284998291015625,0.36299043893814087,1.3495339155197144,1.9409711360931396
1774470637322025000,4.29502490234375,0.1291942000389099,1.2868770360946655,1.9851919412612915
1774470637332052000,4.305052001953125,0.5370461344718933,1.2708112001419067,2.027278423309326
1774470637342079200,4.315079345703125,0.2674042880535126,1.4595134258270264,1.9478235244750977
1774470637352106000,4.32510595703125,-0.3267354965209961,1.5530610084533691,1.6896649599075317
1774470637362133000,4.335133056640625,-0.6781824827194214,1.7972043752670288,1.908797264099121
1774470637372160000,4.345159912109375,-0.6425004005432129,1.7849634885787964,2.343139410018921
1774470637382188000,4.35518798828125,-0.3922964036464691,1.5655906200408936,2.47182297706604
1774470637392215000,4.365215087890625,-0.5530006289482117,1.4438029527664185,2.5908212661743164
1774470637402242000,4.375241943359375,-0.5732978582382202,1.4064090251922607,2.297285795211792
1774470637412269000,4.38526904296875,-0.6428548693656921,1.3792846202850342,1.8463983535766602
1774470637422296000,4.395296142578125,-0.717515766620636,1.0898348093032837,1.3355880975723267
1774470637432323000,4.405322998046875,-0.6550303101539612,0.9123015403747559,0.7231531739234924
1774470637442350000,4.41535009765625,-0.6671141386032104,0.8789606094360352,0.42338189482688904
1774470637452377000,4.425377197265625,-0.7104560136795044,0.6145946979522705,0.49364912509918213
1774470637462404000,4.435404052734375,-0.6745675206184387,0.35793736577033997,0.8362956643104553
1774470637472432000,4.44543212890625,-0.6697016358375549,0.22303947806358337,1.25090491771698
1774470637482459100,4.455459228515625,-0.6671990752220154,0.11298700422048569,1.5619913339614868
1774470637492486000,4.46548583984375,-0.7224159836769104,0.14515478909015656,1.881972074508667
1774470637502513200,4.47551318359375,-0.7134480476379395,0.3005680739879608,2.1802265644073486
1774470637512540200,4.4855400390625,-0.6313238739967346,0.3396401107311249,2.090674877166748
1774470637522567000,4.49556689453125,-0.4553928077220917,0.8464570045471191,2.085270404815674
1774470637532594000,4.505593994140625,-0.22150522470474243,1.2233091592788696,2.106631278991699
1774470637542621200,4.51562109375,0.05338892340660095,1.6658791303634644,1.999572992324829
1774470637552648200,4.525648193359375,0.31672629714012146,1.9089299440383911,1.8191941976547241
1774470637562675000,4.535675048828125,1.34969961643219,-0.9177881479263306,-0.6408178210258484
1774470637572703200,4.545703125,1.2603436708450317,-0.904079020023346,-0.12247185409069061
1774470637582730000,4.55572998046875,1.3289011716842651,-0.5297626852989197,0.1090356707572937
1774470637592757000,4.565757080078125,1.2139180898666382,-0.16687314212322235,0.4273976683616638
1774470637602784300,4.5757841796875,0.9275110960006714,-0.48252350091934204,1.0690943002700806
1774470637612811000,4.58581103515625,0.9238386154174805,-0.46374794840812683,1.400197982788086
1774470637622838000,4.595838134765625,0.9973807334899902,-0.5979507565498352,1.6545008420944214
1774470637632865000,4.605864990234375,1.1998581886291504,-0.8441693186759949,1.8798165321350098
1774470637642892000,4.61589208984375,1.4667892456054688,-0.8072688579559326,1.9643257856369019
1774470637652919000,4.6259189453125,1.7360193729400635,-0.6141912341117859,1.896330714225769
1774470637662946000,4.635946044921875,1.9747861623764038,-0.45305269956588745,1.7252801656723022
1774470637672973000,4.64597314453125,2.1421902179718018,-0.0495089627802372,1.4374624490737915
1774470637683001000,4.6560009765625,2.0839953422546387,0.6885839700698853,0.9785460233688354
1774470637693028000,4.666028076171875,1.9511202573776245,2.984179735183716,0.3239128291606903
1774470637703055000,4.67605517578125,1.4927515983581543,2.8041181564331055,0.19921404123306274
1774470637713082000,4.68608203125,1.222509741783142,0.6607012152671814,0.5559359192848206
1774470637723109000,4.696109130859375,0.48871803283691406,1.4381752014160156,0.19760681688785553
1774470637733136100,4.70613623046875,-0.23522131145000458,2.44661021232605,0.2560112774372101
1774470637743163100,4.7161630859375,-0.553809642791748,1.4668129682540894,0.9084780216217041
1774470637753190100,4.726190185546875,-0.5484135746955872,0.4538615047931671,1.145641565322876
1774470637763217000,4.736216796875,-0.31940463185310364,0.46851128339767456,0.8142141103744507
1774470637773245200,4.7462451171875,-0.035468246787786484,0.6472261548042297,0.573375940322876
1774470637783272000,4.75627197265625,0.05498601868748665,0.6768860816955566,0.6036323308944702
1774470637793299000,4.766298828125,0.11637295037508011,0.5170849561691284,0.6307148337364197
1774470637803326200,4.776326171875,0.10231784731149673,0.5922995209693909,0.7111348509788513
1774470637813353000,4.78635302734375,0.15972761809825897,0.5878142714500427,0.7222833633422852
1774470637823380000,4.7963798828125,0.2945578694343567,0.5124529004096985,0.7188846468925476
1774470637833407200,4.8064072265625,0.31841740012168884,0.570987343788147,0.7233981490135193
1774470637843434000,4.81643408203125,0.3641936779022217,0.5673771500587463,0.7745559215545654
1774470637853461000,4.8264609375,0.3945521116256714,0.5869426131248474,0.9302794337272644
1774470637863488000,4.836488037109375,0.35932859778404236,0.6439358592033386,1.09527587890625
1774470637873515000,4.846514892578125,0.401153564453125,0.7661685347557068,1.1608092784881592
1774470637883543000,4.85654296875,0.5020697712898254,0.9159827828407288,1.2767181396484375
1774470637893570000,4.866570068359375,0.6342166066169739,0.9729504585266113,1.4641966819763184
1774470637903597000,4.87659716796875,0.7024571895599365,0.6271954774856567,1.5850160121917725
1774470637913624000,4.8866240234375,0.61529541015625,0.04162999987602234,1.511100172996521
1774470637923651000,4.896651123046875,0.49077585339546204,-0.12838566303253174,1.2465766668319702
1774470637933678000,4.906677978515625,0.3772892355918884,0.062428757548332214,0.9162901043891907
1774470637943705000,4.916705078125,0.3673649728298187,0.38394153118133545,0.6353399753570557
1774470637953732000,4.926732177734375,0.4172358512878418,0.6438998579978943,0.4296312630176544
1774470637963758800,4.9367587890625,0.4845277965068817,0.7775279879570007,0.2894142270088196
1774470637973786000,4.9467861328125,0.5585623383522034,0.7510241866111755,0.21620313823223114
1774470637983814000,4.95681396484375,0.6279819011688232,0.576077401638031,0.22298115491867065
1774470637993841200,4.966841064453125,0.6859242916107178,0.3571394979953766,0.28740036487579346
1774470638003868200,4.9768681640625,0.72670578956604,0.16931019723415375,0.36586159467697144
1774470638013895000,4.98689501953125,0.7462475299835205,0.05048341304063797,0.4393416941165924
1774470638023922000,4.996921875,0.731636106967926,0.018096711486577988,0.5173352956771851
1774470638033949200,5.00694921875,0.6859908699989319,0.03941132128238678,0.5662559270858765
1774470638043976200,5.01697607421875,0.6389157772064209,0.10859385132789612,0.5607187151908875
1774470638054003000,5.0270029296875,0.5833028554916382,0.21115005016326904,0.5242355465888977
1774470638064030700,5.03703076171875,0.515408456325531,0.327414870262146,0.4865858852863312
1774470638074057700,5.0470576171875,0.43502628803253174,0.42679527401924133,0.48032960295677185
1774470638084085800,5.057085693359375,0.333390474319458,0.49239078164100647,0.5005842447280884
1774470638094112500,5.067112548828125,0.20324978232383728,0.5112494230270386,0.5384762287139893
1774470638104139800,5.077139892578125,0.06283248960971832,0.4812326729297638,0.5948860049247742
1774470638114166800,5.087166748046875,-0.02719194069504738,0.4130765199661255,0.6833527684211731
1774470638124193800,5.09719384765625,-0.02941754274070263,0.29935553669929504,0.7866144180297852
1774470638134220800,5.107220703125,0.02022590860724449,0.16416843235492706,0.8801041841506958
1774470638144247800,5.117247802734375,0.10378711670637131,0.08372312784194946,0.9191597104072571
1774470638154274800,5.12727490234375,0.19137661159038544,0.10573361814022064,0.8920202255249023
1774470638164301600,5.137301513671875,0.2721460461616516,0.2138635516166687,0.8185361623764038
1774470638174328800,5.147328857421875,0.32382732629776,0.3516552448272705,0.7330111265182495
1774470638184356600,5.157356689453125,0.3179095387458801,0.4552048146724701,0.6826763153076172
1774470638194383600,5.167383544921875,0.2524698078632355,0.4673040807247162,0.6902647018432617
1774470638204411000,5.177410888671875,0.16460518538951874,0.3913259506225586,0.7450499534606934
1774470638214437600,5.187437744140625,0.09098690003156662,0.2862868905067444,0.8154559135437012
1774470638224464600,5.197464599609375,0.05808300897479057,0.20349320769309998,0.8651797771453857
1774470638234492000,5.207491943359375,0.061708904802799225,0.16164322197437286,0.8893956542015076
1774470638244518700,5.2175185546875,0.08614740520715714,0.1742578148841858,0.8853583335876465
1774470638254545700,5.227545654296875,0.10798558592796326,0.21370962262153625,0.8532480597496033
1774470638264572700,5.23757275390625,0.13149304687976837,0.2632787823677063,0.805457353591919
1774470638274599700,5.247599609375,0.14570286870002747,0.28919506072998047,0.7654678821563721
1774470638284627700,5.257627685546875,0.16421663761138916,0.2742704451084137,0.7285457849502563
1774470638294654700,5.26765478515625,0.1744690090417862,0.2510457932949066,0.7126214504241943
1774470638304681700,5.277681640625,0.18029333651065826,0.24480335414409637,0.6991721987724304
1774470638314708700,5.287708740234375,0.17405728995800018,0.25335371494293213,0.6810643076896667
1774470638324735700,5.29773583984375,0.14685921370983124,0.26634833216667175,0.656766414642334
1774470638334762800,5.3077626953125,0.10095830261707306,0.27226772904396057,0.6270804405212402
1774470638344789800,5.317789794921875,0.04688841104507446,0.2746424674987793,0.5840693116188049
1774470638354816800,5.327816650390625,0.0009749832679517567,0.2720200717449188,0.5242299437522888
1774470638364843500,5.337843505859375,-0.02142539620399475,0.26709961891174316,0.4689467251300812
1774470638374870800,5.347870849609375,-0.02082485519349575,0.25246819853782654,0.4255100190639496
1774470638384898600,5.357898681640625,-0.001814411603845656,0.24205337464809418,0.4012893736362457
1774470638394925800,5.36792578125,0.01924852840602398,0.2411298006772995,0.388380765914917
1774470638404952800,5.377952880859375,0.036123115569353104,0.25850746035575867,0.370191365480423
1774470638414979600,5.3879794921875,0.049070075154304504,0.2730046212673187,0.3539290428161621
1774470638425006600,5.398006591796875,0.05221952870488167,0.2675725817680359,0.33315610885620117
1774470638435033900,5.408033935546875,0.05097370222210884,0.23851457238197327,0.31901445984840393
1774470638445060600,5.418060546875,0.04260312020778656,0.19523127377033234,0.31648901104927063
1774470638455087600,5.428087646484375,0.02821379527449608,0.15757444500923157,0.31721869111061096
1774470638465115000,5.438114990234375,0.019650666043162346,0.1367914080619812,0.3036384582519531
1774470638475142000,5.448141845703125,0.013516874052584171,0.12850897014141083,0.2829161286354065
1774470638485169700,5.458169677734375,0.013363742269575596,0.10604733973741531,0.25842276215553284
1774470638495197000,5.468197021484375,0.011844408698379993,0.06641338020563126,0.24044722318649292
1774470638505223700,5.4782236328125,0.008886169642210007,0.039563123136758804,0.2164422869682312
1774470638515250700,5.488250732421875,-0.00333161442540586,0.032280441373586655,0.18518663942813873
1774470638525277700,5.498277587890625,-0.01822427660226822,0.04947833716869354,0.13569365441799164
1774470638535304700,5.5083046875,-0.042085934430360794,0.07504255324602127,0.07853608578443527
1774470638545331700,5.518331787109375,-0.05812428891658783,0.09458109736442566,0.024996429681777954
1774470638555358700,5.528358642578125,-0.0709223747253418,0.10453599691390991,-0.01512835267931223
1774470638565385700,5.5383857421875,-0.07796350866556168,0.09593158960342407,-0.04772331193089485
1774470638575412700,5.548412841796875,-0.07926153391599655,0.07724844664335251,-0.07459407299757004
1774470638585440500,5.5584404296875,-0.07220415771007538,0.05595887452363968,-0.09601414948701859
1774470638595467800,5.5684677734375,-0.0642775222659111,0.03609781712293625,-0.1172318160533905
1774470638605494800,5.578494873046875,-0.06323648989200592,0.0145901283249259,-0.13106614351272583
1774470638615521800,5.588521728515625,-0.06386792659759521,-0.0065503111109137535,-0.1452389508485794
1774470638625548800,5.598548828125,-0.07446038722991943,-0.014642592519521713,-0.1575283706188202
1774470638635575800,5.608575927734375,-0.0840807855129242,-0.007921040058135986,-0.17198507487773895
1774470638645602800,5.618602783203125,-0.10182969272136688,-0.012209261767566204,-0.18293732404708862
1774470638655629600,5.628629638671875,-0.11961747705936432,-0.01432194747030735,-0.19124798476696014
1774470638665656800,5.63865673828125,-0.13905109465122223,-0.023740483447909355,-0.1988355964422226
1774470638675683800,5.648683837890625,-0.15872333943843842,-0.03738385811448097,-0.20907412469387054
1774470638685711600,5.658711669921875,-0.16962231695652008,-0.06072087213397026,-0.22026392817497253
1774470638695739000,5.66873876953125,-0.17133952677249908,-0.09110114723443985,-0.23609881103038788
1774470638705765600,5.678765625,-0.17140690982341766,-0.13760846853256226,-0.2349749654531479
1774470638715792600,5.688792724609375,-0.17536036670207977,-0.18755871057510376,-0.2347603142261505
1774470638725820000,5.69881982421875,-0.17813964188098907,-0.2352418154478073,-0.2280571311712265
1774470638735846700,5.7088466796875,-0.18100254237651825,-0.24410107731819153,-0.23085026443004608
1774470638745873700,5.718873779296875,-0.17916442453861237,-0.2362908273935318,-0.24738262593746185
1774470638755900700,5.728900634765625,-0.1623910367488861,-0.2242131233215332,-0.27173110842704773
1774470638765927700,5.738927734375,-0.14355289936065674,-0.22074835002422333,-0.28245991468429565
1774470638775954700,5.74895458984375,-0.12265428155660629,-0.22924037277698517,-0.2869047522544861
1774470638785982700,5.758982666015625,-0.10346114635467529,-0.22856447100639343,-0.2890933156013489
1774470638796009700,5.769009765625,-0.08141230046749115,-0.21166138350963593,-0.28883445262908936
1774470638806036700,5.77903662109375,-0.0615999810397625,-0.18130986392498016,-0.28887706995010376
1774470638816063700,5.789063720703125,-0.03463760390877724,-0.14749757945537567,-0.28496435284614563
1774470638826090800,5.7990908203125,-0.01648896187543869,-0.13691018521785736,-0.2745561897754669
1774470638836117800,5.80911767578125,-0.004878911189734936,-0.1465633362531662,-0.26115649938583374
1774470638846144800,5.819144775390625,-0.0016450346447527409,-0.15643008053302765,-0.23808100819587708
1774470638856171500,5.829171630859375,-0.004746818449348211,-0.15929298102855682,-0.22620011866092682
1774470638866198800,5.83919873046875,-0.008491222746670246,-0.1536838412284851,-0.21482229232788086
1774470638876225800,5.849225830078125,-0.018484201282262802,-0.13828836381435394,-0.20333553850650787
1774470638886252500,5.85925244140625,-0.02407337725162506,-0.11650077998638153,-0.1960992068052292
1774470638896280800,5.86928076171875,-0.026007631793618202,-0.09865014255046844,-0.18984423577785492
1774470638906307600,5.8793076171875,-0.02485901117324829,-0.0924881249666214,-0.17640645802021027
1774470638916334600,5.88933447265625,-0.018730809912085533,-0.09768901020288467,-0.1595262736082077
1774470638926361900,5.89936181640625,-0.009328254498541355,-0.09979317337274551,-0.14322426915168762
1774470638936388600,5.909388671875,0.0007203850545920432,-0.10178947448730469,-0.13109277188777924
1774470638946415600,5.91941552734375,0.013075854629278183,-0.10111090540885925,-0.12564048171043396
1774470638956443000,5.92944287109375,0.020960142835974693,-0.09056558459997177,-0.12015703320503235
1774470638966470000,5.939469970703125,0.025233717635273933,-0.07901039719581604,-0.11963638663291931
1774470638976496600,5.94949658203125,0.022953785955905914,-0.06566236913204193,-0.11537932604551315
1774470638986523600,5.959523681640625,0.014256167225539684,-0.049858368933200836,-0.11299765855073929
1774470638996551700,5.9695517578125,0.0011374361347407103,-0.04344388097524643,-0.10349363833665848
1774470639006578700,5.97957861328125,-0.007416104432195425,-0.03877456113696098,-0.09483703225851059
1774470639016605700,5.989605712890625,-0.011697934940457344,-0.037040308117866516,-0.08074917644262314
1774470639026632700,5.9996328125,-0.011366104707121849,-0.03045404516160488,-0.07066484540700912
1774470639036659700,6.00965966796875,-0.006689860485494137,-0.018618158996105194,-0.06840435415506363
1774470639046686700,6.019686767578125,0.0005014732014387846,-0.002168079372495413,-0.05862443149089813
1774470639056713700,6.029713623046875,0.00968511775135994,0.018155567348003387,-0.049313221126794815
1774470639066740500,6.039740478515625,0.019233616068959236,0.033664219081401825,-0.04409023001790047
1774470639076767500,6.049767578125,0.023964721709489822,0.04963652789592743,-0.038714904338121414
1774470639086794500,6.05979443359375,0.025142371654510498,0.0637427568435669,-0.02857598476111889
1774470639096822500,6.069822509765625,0.023491743952035904,0.06851700693368912,-0.02177800051867962
1774470639106849800,6.079849853515625,0.013708354905247688,0.06510789692401886,-0.018639197573065758
1774470639116876500,6.08987646484375,0.00518810423091054,0.06324101984500885,-0.01918754354119301
1774470639126903600,6.099903564453125,0.0017755294684320688,0.06774016469717026,-0.021584654226899147
1774470639136930600,6.1099306640625,0.003070358419790864,0.07046564668416977,-0.02966947853565216
1774470639146957600,6.11995751953125,0.004030427895486355,0.07437916100025177,-0.03899666666984558
1774470639156984600,6.129984619140625,0.007226487621665001,0.07372428476810455,-0.04466467350721359
1774470639167011600,6.140011474609375,0.0008719189208932221,0.06861874461174011,-0.05067942291498184
1774470639177038600,6.15003857421875,-0.011378088966012001,0.06181409955024719,-0.0547466017305851
1774470639187065600,6.160065673828125,-0.02787077985703945,0.05290715768933296,-0.059790097177028656
1774470639197093400,6.17009326171875,-0.04321857541799545,0.042283009737730026,-0.07015245407819748
1774470639207120600,6.18012060546875,-0.053031791001558304,0.03887123242020607,-0.07436451315879822
1774470639217147600,6.190147705078125,-0.05963962897658348,0.03969681262969971,-0.0773634985089302
1774470639227174400,6.20017431640625,-0.05992751568555832,0.041843585669994354,-0.08501289784908295
1774470639237201400,6.210201416015625,-0.05687206983566284,0.038545262068510056,-0.08860470354557037
1774470639247228700,6.220228759765625,-0.050211504101753235,0.03828773275017738,-0.09146679937839508
1774470639257255700,6.230255615234375,-0.04352777078747749,0.03290974721312523,-0.09158797562122345
1774470639267282400,6.240282470703125,-0.04223347455263138,0.02756504900753498,-0.08931177109479904
1774470639277309700,6.250309814453125,-0.036983851343393326,0.022102106362581253,-0.08858099579811096
1774470639287336700,6.260336669921875,-0.03531404957175255,0.02328321896493435,-0.09190914779901505
1774470639297363500,6.270363525390625,-0.0381641648709774,0.023373499512672424,-0.09840460121631622
1774470639307391700,6.280391845703125,-0.04195490851998329,0.025126924738287926,-0.10212264209985733
1774470639317418500,6.29041845703125,-0.04514697194099426,0.024925323203206062,-0.10267151892185211
1774470639327445500,6.300445556640625,-0.0475214459002018,0.02256523072719574,-0.09847784042358398
1774470639337472800,6.31047265625,-0.052914347499608994,0.013678793795406818,-0.09546500444412231
1774470639347499500,6.32049951171875,-0.0517398938536644,0.01053173653781414,-0.09268439561128616
1774470639357526500,6.330526611328125,-0.05210767686367035,0.007157777901738882,-0.08907581120729446
1774470639367553500,6.340553466796875,-0.047256194055080414,0.006684534251689911,-0.08147381991147995
1774470639377580500,6.35058056640625,-0.04283108562231064,0.0030274814926087856,-0.07512830942869186
1774470639387607600,6.360607666015625,-0.036501817405223846,0.0014705975772812963,-0.06720566749572754
1774470639397634600,6.370634521484375,-0.030778419226408005,0.002683401107788086,-0.06157334893941879
1774470639407662600,6.38066259765625,-0.02472878247499466,0.01248250249773264,-0.05607818439602852
1774470639417689600,6.390689697265625,-0.01907568983733654,0.022971095517277718,-0.04728122800588608
1774470639427716600,6.400716552734375,-0.012444418855011463,0.030720895156264305,-0.035287950187921524
1774470639437743600,6.41074365234375,-0.006826214492321014,0.03971252590417862,-0.019037606194615364
1774470639447770600,6.4207705078125,-0.000871652620844543,0.04658934101462364,-0.006558300461620092
1774470639457797600,6.430797607421875,0.00044581317342817783,0.048939045518636703,0.0001675128296483308
1774470639467824400,6.440824462890625,0.0038834214210510254,0.05379026010632515,0.009291502647101879
1774470639477851600,6.4508515625,0.007643005810678005,0.05489147827029228,0.011591941118240356
1774470639487878700,6.460878662109375,0.010734137147665024,0.0533875897526741,0.01895158737897873
1774470639497905400,6.470905517578125,0.01269901730120182,0.0577746145427227,0.023240074515342712
1774470639507932700,6.4809326171875,0.007411577273160219,0.0644913762807846,0.024103205651044846
1774470639517960400,6.49096044921875,0.005270129535347223,0.06926828622817993,0.02443530224263668
1774470639527987500,6.500987548828125,-0.00040613205055706203,0.07594802975654602,0.017123593017458916
1774470639538014700,6.5110146484375,-0.007196127437055111,0.08119738101959229,0.016447415575385094
1774470639548041500,6.52104150390625,-0.015370966866612434,0.07789187133312225,0.009488310664892197
1774470639558068500,6.531068359375,-0.027232952415943146,0.0732308030128479,0.012536298483610153
1774470639568095500,6.541095458984375,-0.03742646798491478,0.06951143592596054,0.010378338396549225
1774470639578122500,6.55112255859375,-0.04941628500819206,0.05891604721546173,0.010949852876365185
1774470639588149500,6.5611494140625,-0.059601545333862305,0.043348804116249084,0.010242783464491367
1774470639598176500,6.571176513671875,-0.06198747083544731,0.027308586984872818,0.014576279558241367
1774470639608203800,6.581203857421875,-0.059358663856983185,0.016934774816036224,0.018906844779849052
1774470639618231600,6.5912314453125,-0.06435315310955048,0.022370019927620888,0.012005796656012535
1774470639628258600,6.601258544921875,-0.06918146461248398,0.04122919589281082,-0.00021891183860134333
1774470639638285600,6.61128564453125,-0.07267207652330399,0.053095974028110504,-0.0057407100684940815
1774470639648312600,6.6213125,-0.06966269761323929,0.05343686044216156,-0.001457548001781106
1774470639658339600,6.631339599609375,-0.06258028745651245,0.03712579607963562,0.015250591561198235
1774470639668366600,6.64136669921875,-0.057726677507162094,0.013760020956397057,0.030594127252697945
1774470639678393600,6.6513935546875,-0.05994562432169914,0.009912817738950253,0.036197684705257416
1774470639688420600,6.661420654296875,-0.05909554287791252,0.02755599468946457,0.030604248866438866
1774470639698447400,6.671447265625,-0.06232835352420807,0.05517324060201645,0.010102967731654644
1774470639708474600,6.681474609375,-0.0679422989487648,0.07950680702924728,-0.0070680296048521996
1774470639718501600,6.691501708984375,-0.07485346496105194,0.0922071561217308,-0.02262355387210846
1774470639728529400,6.701529296875,-0.07880640029907227,0.08923054486513138,-0.023734889924526215
1774470639738556700,6.711556640625,-0.07774219661951065,0.06693083047866821,-0.01624448411166668
1774470639748583700,6.721583740234375,-0.07193198055028915,0.04909457638859749,0.00013608753215521574
1774470639758610400,6.7316103515625,-0.05510799214243889,0.03610127791762352,0.014503574930131435
1774470639768637700,6.7416376953125,-0.03235793858766556,0.03490232303738594,0.02376791276037693
1774470639778664700,6.751664794921875,-0.009590042755007744,0.031931567937135696,0.03431296721100807
1774470639788691500,6.76169140625,0.008439024910330772,0.03075205348432064,0.04242868348956108
1774470639798718500,6.771718505859375,0.021413413807749748,0.024875255301594734,0.05204775556921959
1774470639808745700,6.781745849609375,0.033539317548274994,0.019600333645939827,0.0639965608716011
1774470639818772500,6.7917724609375,0.03248337283730507,0.01649455353617668,0.06707517057657242
1774470639828800500,6.801800537109375,0.025599369779229164,0.019174493849277496,0.06156322732567787
1774470639838827500,6.81182763671875,0.013738182373344898,0.023750869557261467,0.05306242033839226
1774470639848854500,6.8218544921875,0.004852279555052519,0.02634878270328045,0.04295998439192772
1774470639858881500,6.831881591796875,-0.003117230022326112,0.01829857937991619,0.03664536401629448
1774470639868908500,6.841908447265625,-0.009338107891380787,0.008287224918603897,0.031971514225006104
1774470639878935600,6.851935546875,-0.009969543665647507,0.0000029294772048160667,0.030733412131667137
1774470639888962600,6.861962646484375,-0.014503574930131435,-0.018813634291291237,0.023568708449602127
1774470639898989600,6.871989501953125,-0.025364212691783905,-0.028483040630817413,0.015805594623088837
1774470639909016600,6.8820166015625,-0.03211532533168793,-0.03322746232151985,0.007543403655290604
1774470639919043600,6.892043701171875,-0.03743791952729225,-0.02617940679192543,0.0015808524331077933
1774470639929070600,6.902070556640625,-0.03612871095538139,-0.015686284750699997,-0.00532658863812685
1774470639939098600,6.9120986328125,-0.039736226201057434,-0.01525724958628416,-0.0038983351550996304
1774470639949125600,6.922125732421875,-0.038298118859529495,-0.026398584246635437,0.0029377329628914595
1774470639959152400,6.93215234375,-0.03825311362743378,-0.0348471961915493,0.00854368694126606
1774470639969179600,6.9421796875,-0.03199175372719765,-0.039018239825963974,0.013449229300022125
1774470639979206700,6.95220654296875,-0.02365712635219097,-0.03422801196575165,0.010319748893380165
1774470639989233400,6.9622333984375,-0.015693210065364838,-0.024942634627223015,0.010427074506878853
1774470639999260700,6.9722607421875,-0.0032029838766902685,-0.011721104383468628,0.006674680393189192
1774470640009287700,6.98228759765625,0.004752943757921457,-0.007336742244660854,0.00768801337108016
1774470640019314400,6.992314453125,0.004375573713332415,-0.0030746194534003735,0.018307633697986603
1774470640029341400,7.002341552734375,0.0036573191173374653,-0.0010245180455967784,0.025463014841079712
1774470640039368700,7.01236865234375,0.0004471447318792343,-0.005077050067484379,0.032652486115694046
1774470640049396500,7.022396484375,-0.002614957746118307,-0.005502623505890369,0.048109207302331924
1774470640059423500,7.032423583984375,-0.003962783608585596,-0.004772917367517948,0.053693320602178574
1774470640069450000,7.042449951171875,-0.003525226376950741,-0.002835467690601945,0.0590854249894619
1774470640079476700,7.052476806640625,0.0018093516118824482,-0.0030304109677672386,0.06722164899110794
1774470640089503700,7.062503662109375,0.011451059952378273,0.0013401026371866465,0.07386437058448792
1774470640099531000,7.072531005859375,0.016458602622151375,0.009244364686310291,0.08200432360172272
1774470640109557800,7.082557861328125,0.02267441898584366,0.015973374247550964,0.08549012988805771
1774470640119584800,7.092584716796875,0.027245735749602318,0.03087429329752922,0.08748510479927063
1774470640129612000,7.102612060546875,0.030399717390537262,0.046116627752780914,0.08260699361562729
1774470640139638800,7.112638671875,0.03279150277376175,0.05992565304040909,0.07576480507850647
1774470640149666800,7.122666748046875,0.03257152438163757,0.06419523060321808,0.07283133268356323
1774470640159694000,7.132694091796875,0.032341159880161285,0.05934721231460571,0.07594563066959381
1774470640169720800,7.142720947265625,0.028013525530695915,0.04874942824244499,0.07483162730932236
1774470640179747800,7.152747802734375,0.024286163970828056,0.046249255537986755,0.07073009759187698
1774470640189774800,7.16277490234375,0.015874303877353668,0.03701314702630043,0.062074288725852966
1774470640199801900,7.1728017578125,0.008888832293450832,0.03508022427558899,0.05059606581926346
1774470640209828900,7.182828857421875,-0.002832271857187152,0.03177523985505104,0.04131761193275452
1774470640219856000,7.19285595703125,-0.01474485732614994,0.02793309837579727,0.0314873531460762
1774470640229883000,7.2028828125,-0.024170849472284317,0.029408222064375877,0.02099130116403103
1774470640239910000,7.212909912109375,-0.026609240099787712,0.030714768916368484,0.005693305749446154
1774470640249937000,7.22293701171875,-0.03346341848373413,0.024957014247775078,-0.002600576728582382
1774470640259965000,7.23296484375,-0.034322552382946014,0.021381188184022903,-0.010393252596259117
1774470640269992000,7.242991943359375,-0.0319099947810173,0.01733398251235485,-0.015569372102618217
1774470640280018700,7.253018798828125,-0.027584223076701164,0.017014669254422188,-0.02419428527355194
1774470640290045700,7.263045654296875,-0.028236432000994682,0.01410623174160719,-0.027640948072075844
1774470640300073000,7.273072998046875,-0.023485351353883743,0.01606578566133976,-0.032821062952280045
1774470640310100000,7.283099853515625,-0.01637178286910057,0.011710984632372856,-0.03957430645823479
1774470640320126700,7.293126708984375,-0.014390656724572182,0.008331432938575745,-0.04216423258185387
1774470640330154000,7.303154052734375,-0.013742444105446339,0.0024077638518065214,-0.047145143151283264
1774470640340181000,7.313180908203125,-0.012117383070290089,-0.013114470057189465,-0.041722144931554794
1774470640350207700,7.323207763671875,-0.012864399701356888,-0.02041046693921089,-0.04397145286202431
1774470640360234800,7.33323486328125,-0.01575605943799019,-0.008494684472680092,-0.05357694253325462
1774470640370262800,7.3432626953125,-0.01938008889555931,0.002065015025436878,-0.06978627294301987
1774470640380289800,7.353289794921875,-0.020377974957227707,-0.006120476871728897,-0.0810043066740036
1774470640390317000,7.363317138671875,-0.02298547700047493,-0.02912113443017006,-0.08100031316280365
1774470640400343800,7.37334375,-0.026391925290226936,-0.06116056069731712,-0.07333999127149582
1774470640410370800,7.383370849609375,-0.03261333703994751,-0.08923773467540741,-0.07491178810596466
1774470640420397800,7.393397705078125,-0.037517815828323364,-0.10801009088754654,-0.07667107880115509
1774470640430424800,7.4034248046875,-0.037888526916503906,-0.11348634958267212,-0.08535617589950562
1774470640440451800,7.413451904296875,-0.04784715175628662,-0.11267940700054169,-0.10072661191225052
1774470640450478800,7.423478759765625,-0.058643873780965805,-0.09578005224466324,-0.1251818835735321
1774470640460505900,7.433505859375,-0.06452439725399017,-0.07451950758695602,-0.14776203036308289
1774470640470532900,7.443532958984375,-0.06490229815244675,-0.06629220396280289,-0.16190874576568604
1774470640480561000,7.453560791015625,-0.06554199010133743,-0.07500473409891129,-0.17070329189300537
1774470640490588000,7.463587890625,-0.0729471743106842,-0.09175229072570801,-0.1717160940170288
1774470640500615000,7.473614990234375,-0.07905620336532593,-0.11570875346660614,-0.1739395707845688
1774470640510642000,7.483641845703125,-0.0908992812037468,-0.13115455210208893,-0.18023927509784698
1774470640520668700,7.493668701171875,-0.09796970337629318,-0.14410178363323212,-0.19128021597862244
1774470640530696000,7.503696044921875,-0.10571178048849106,-0.1513224095106125,-0.20819342136383057
1774470640540723000,7.513722900390625,-0.11042051762342453,-0.1511751413345337,-0.22126421332359314
1774470640550749700,7.523749755859375,-0.1220068633556366,-0.15661704540252686,-0.23642611503601074
1774470640560777000,7.53377685546875,-0.1289166957139969,-0.14889147877693176,-0.25506213307380676
1774470640570804000,7.543803955078125,-0.13995204865932465,-0.13364194333553314,-0.2753112018108368
1774470640580830700,7.553830810546875,-0.14918895065784454,-0.11526773869991302,-0.3063122630119324
1774470640590859000,7.56385888671875,-0.1533125936985016,-0.09657474607229233,-0.3403959274291992
1774470640600885800,7.5738857421875,-0.15438690781593323,-0.09255789965391159,-0.35740581154823303
1774470640610912800,7.583912841796875,-0.15274320542812347,-0.1087680235505104,-0.3726332187652588
1774470640620939800,7.593939697265625,-0.15086302161216736,-0.1310538947582245,-0.37794411182403564
1774470640630966800,7.603966796875,-0.15278714895248413,-0.1585662066936493,-0.3806445598602295
1774470640640993800,7.613993896484375,-0.15803463757038116,-0.17819610238075256,-0.3904249966144562
1774470640651020800,7.624020751953125,-0.16136811673641205,-0.19668376445770264,-0.39370203018188477
1774470640661047800,7.6340478515625,-0.16900420188903809,-0.2183842658996582,-0.38865000009536743
1774470640671074800,7.64407470703125,-0.17778517305850983,-0.2345603108406067,-0.37847432494163513
1774470640681101800,7.654101806640625,-0.1854390949010849,-0.24514424800872803,-0.36378806829452515
1774470640691129000,7.664129150390625,-0.1897081434726715,-0.24045734107494354,-0.35680046677589417
1774470640701156900,7.674156982421875,-0.1949511170387268,-0.23162603378295898,-0.3603738844394684
1774470640711184000,7.684183837890625,-0.18870094418525696,-0.21665267646312714,-0.3680552542209625
1774470640721211000,7.6942109375,-0.1816781908273697,-0.21161291003227234,-0.37665167450904846
1774470640731238000,7.70423779296875,-0.17628741264343262,-0.20761683583259583,-0.382401704788208
1774470640741265000,7.714264892578125,-0.1689613312482834,-0.22579717636108398,-0.3768463432788849
1774470640751291600,7.724291748046875,-0.16251488029956818,-0.25048574805259705,-0.3716595768928528
1774470640761319000,7.73431884765625,-0.15764981508255005,-0.27231380343437195,-0.3621462285518646
1774470640771346000,7.744345947265625,-0.15804769098758698,-0.2849867343902588,-0.36579981446266174
1774470640781372700,7.75437255859375,-0.16070125997066498,-0.2847222685813904,-0.37296372652053833
1774470640791400000,7.76439990234375,-0.16397562623023987,-0.2718493640422821,-0.3855615258216858
1774470640801427000,7.774427001953125,-0.16874347627162933,-0.2539944648742676,-0.40015727281570435
1774470640811454700,7.784454833984375,-0.17442266643047333,-0.22996582090854645,-0.40756911039352417
1774470640821482000,7.79448193359375,-0.18093542754650116,-0.22029055655002594,-0.41368797421455383
1774470640831509000,7.804509033203125,-0.17599792778491974,-0.22358569502830505,-0.4166446328163147
1774470640841535700,7.81453564453125,-0.1768253743648529,-0.2188071757555008,-0.42033177614212036
1774470640851562800,7.824562744140625,-0.1731984168291092,-0.2117745727300644,-0.4212638735771179
1774470640861590000,7.834590087890625,-0.17118293046951294,-0.20408682525157928,-0.4313596487045288
1774470640871616800,7.84461669921875,-0.1656169295310974,-0.2031714916229248,-0.42876386642456055
1774470640881643800,7.854643798828125,-0.1607838273048401,-0.20833136141300201,-0.43614667654037476
1774470640891671000,7.864671142578125,-0.14970293641090393,-0.21997444331645966,-0.4309873580932617
1774470640901697800,7.87469775390625,-0.13947907090187073,-0.23510119318962097,-0.42357364296913147
1774470640911724800,7.884724853515625,-0.13229785859584808,-0.24214765429496765,-0.41470345854759216
1774470640921752800,7.8947529296875,-0.1329505890607834,-0.24244806170463562,-0.41504591703414917
1774470640931779800,7.90477978515625,-0.12995107471942902,-0.2366146743297577,-0.4207637310028076
1774470640941806800,7.914806884765625,-0.12404125183820724,-0.22241683304309845,-0.422783225774765
1774470640951833900,7.924833740234375,-0.11804221570491791,-0.22026818990707397,-0.418645977973938
1774470640961860900,7.93486083984375,-0.11788082867860794,-0.21814031898975372,-0.41511011123657227
1774470640971887900,7.944887939453125,-0.11644485592842102,-0.2285175919532776,-0.4100727438926697
1774470640981915000,7.954914794921875,-0.11883903294801712,-0.24202488362789154,-0.4049821197986603
1774470640991942000,7.96494189453125,-0.11642967164516449,-0.2535654306411743,-0.40154770016670227
1774470641001969000,7.974968994140625,-0.11631356179714203,-0.2646732032299042,-0.39727652072906494
1774470641011996000,7.984995849609375,-0.11329539865255356,-0.2640058100223541,-0.3945299983024597
1774470641022023000,7.99502294921875,-0.11054142564535141,-0.264423668384552,-0.3910260796546936
1774470641032051000,8.005051025390625,-0.10894379764795303,-0.26256585121154785,-0.38833707571029663
1774470641042077700,8.01507763671875,-0.11019228398799896,-0.26791825890541077,-0.37942880392074585
1774470641052105000,8.02510498046875,-0.11093370616436005,-0.2736507058143616,-0.3717847466468811
1774470641062132000,8.035132080078125,-0.11403656005859375,-0.28037306666374207,-0.356966108083725
1774470641072159500,8.045159423828125,-0.11365865170955658,-0.2977360785007477,-0.34501171112060547
1774470641082186500,8.0551865234375,-0.10627983510494232,-0.30613115429878235,-0.33360618352890015
1774470641092213500,8.065213623046875,-0.09754892438650131,-0.3163779377937317,-0.3340669274330139
1774470641102240500,8.075240478515624,-0.08617323637008667,-0.32458099722862244,-0.3458849787712097
1774470641112267500,8.085267578125,-0.07848814874887466,-0.33537960052490234,-0.35778796672821045
1774470641122294500,8.09529443359375,-0.07205501943826675,-0.340340793132782,-0.3663095533847809
1774470641132321300,8.1053212890625,-0.06437020003795624,-0.33891066908836365,-0.3855823278427124
1774470641142348500,8.1153486328125,-0.0692235454916954,-0.3318474590778351,-0.4080772399902344
1774470641152376300,8.125376220703124,-0.0789044052362442,-0.30968302488327026,-0.4365488290786743
1774470641162403600,8.135403564453124,-0.09408149123191833,-0.2725188732147217,-0.47130998969078064
1774470641172430600,8.1454306640625,-0.11547838896512985,-0.2428230345249176,-0.5044056177139282
1774470641182457300,8.155457275390624,-0.13795652985572815,-0.22397130727767944,-0.5318899750709534
1774470641192484400,8.165484375,-0.16121551394462585,-0.2227984517812729,-0.5574344992637634
1774470641202511600,8.17551171875,-0.18758587539196014,-0.23514726758003235,-0.5676775574684143
1774470641212538400,8.185538330078124,-0.2217278629541397,-0.2492348551750183,-0.5747977495193481
1774470641222565400,8.1955654296875,-0.24327203631401062,-0.2717928886413574,-0.576811671257019
1774470641232592600,8.205592529296876,-0.2554866373538971,-0.2902805507183075,-0.5831835269927979
1774470641242619400,8.215619384765626,-0.2541787624359131,-0.3055631220340729,-0.5904926061630249
1774470641252646400,8.225646484375,-0.2499358057975769,-0.31508204340934753,-0.5997923612594604
1774470641262674700,8.2356748046875,-0.24271996319293976,-0.32063740491867065,-0.6044829487800598
1774470641272701400,8.245701416015624,-0.2419617623090744,-0.32175832986831665,-0.6126737594604492
1774470641282728400,8.255728515625,-0.2449468970298767,-0.3251349627971649,-0.6070963144302368
1774470641292755500,8.26575537109375,-0.24952754378318787,-0.3322373330593109,-0.5974202752113342
1774470641302782500,8.275782470703126,-0.2504061162471771,-0.3444575071334839,-0.5888057351112366
1774470641312809500,8.2858095703125,-0.2517174482345581,-0.3409314751625061,-0.5839566588401794
1774470641322836500,8.29583642578125,-0.24946948885917664,-0.33472710847854614,-0.5809478163719177
1774470641332863500,8.305863525390626,-0.2418762743473053,-0.33729785680770874,-0.5814362168312073
1774470641342890500,8.315890380859376,-0.23468440771102905,-0.3452884256839752,-0.5733972191810608
1774470641352917500,8.32591748046875,-0.22432364523410797,-0.3585062325000763,-0.5678074955940247
1774470641362944300,8.3359443359375,-0.22321070730686188,-0.3785313367843628,-0.5618694424629211
1774470641372971500,8.345971435546875,-0.22303947806358337,-0.3894396424293518,-0.5582345128059387
1774470641382999300,8.355999267578126,-0.21701167523860931,-0.39300161600112915,-0.5527947545051575
1774470641393026600,8.366026611328126,-0.20839820802211761,-0.391971230506897,-0.5545369982719421
1774470641403053600,8.376053466796876,-0.202093705534935,-0.365926593542099,-0.5523534417152405
1774470641413080600,8.38608056640625,-0.19988727569580078,-0.34020179510116577,-0.5526962280273438
1774470641423107300,8.396107421875,-0.20252487063407898,-0.33098405599594116,-0.5584425330162048
1774470641433134600,8.406134521484375,-0.1999053955078125,-0.3343100845813751,-0.5625001192092896
1774470641443161600,8.41616162109375,-0.1956011950969696,-0.33877885341644287,-0.5605320334434509
1774470641453188400,8.426188232421875,-0.18738028407096863,-0.3476490378379822,-0.5624380707740784
1774470641463215600,8.436215576171875,-0.18957605957984924,-0.34982725977897644,-0.5645395517349243
1774470641473242600,8.44624267578125,-0.18894754350185394,-0.35174018144607544,-0.5706440210342407
1774470641483269400,8.456269287109375,-0.18629078567028046,-0.34945201873779297,-0.5819036364555359
1774470641493296400,8.46629638671875,-0.18238551914691925,-0.3332325518131256,-0.5924878120422363
1774470641503324400,8.476324462890625,-0.18417036533355713,-0.31846877932548523,-0.5999734401702881
1774470641513351400,8.486351318359375,-0.19153347611427307,-0.31289294362068176,-0.6104487180709839
1774470641523378400,8.49637841796875,-0.20230063796043396,-0.3097807466983795,-0.6210401058197021
1774470641533405400,8.506405517578125,-0.21730434894561768,-0.3146146535873413,-0.6258271336555481
1774470641543432400,8.516432373046875,-0.23428253829479218,-0.32029998302459717,-0.6253288388252258
1774470641553459500,8.52645947265625,-0.25682592391967773,-0.3172125816345215,-0.6246297955513
1774470641563486500,8.536486572265625,-0.2821142375469208,-0.3059719204902649,-0.62471604347229
1774470641573513500,8.546513427734375,-0.2989635467529297,-0.2928212285041809,-0.6218183040618896
1774470641583540500,8.55654052734375,-0.309182345867157,-0.285200834274292,-0.61753910779953
1774470641593567500,8.5665673828125,-0.3121853172779083,-0.28306180238723755,-0.599532425403595
1774470641603594500,8.576594482421875,-0.3053759038448334,-0.27922871708869934,-0.5795584321022034
1774470641613621500,8.58662158203125,-0.2893356680870056,-0.269243448972702,-0.5557116866111755
1774470641623649300,8.596649169921875,-0.2690010964870453,-0.24804069101810455,-0.5236131548881531
1774470641633676500,8.606676513671875,-0.24486008286476135,-0.2259625643491745,-0.4982318878173828
1774470641643703600,8.61670361328125,-0.2256118208169937,-0.1963532716035843,-0.46992620825767517
1774470641653730300,8.626730224609375,-0.20599311590194702,-0.16646647453308105,-0.4367070198059082
1774470641663757600,8.636757568359375,-0.191166490316391,-0.1382811814546585,-0.3990887999534607
1774470641673784600,8.64678466796875,-0.17823392152786255,-0.12302020192146301,-0.3545972406864166
1774470641683811300,8.656811279296875,-0.16229276359081268,-0.12192856520414352,-0.31783148646354675
1774470641693838300,8.66683837890625,-0.15999045968055725,-0.12306787073612213,-0.2863984704017639
1774470641703865600,8.676865478515625,-0.15341831743717194,-0.12480051815509796,-0.2680157423019409
1774470641713892400,8.686892333984375,-0.15015888214111328,-0.12740962207317352,-0.2532202899456024
1774470641723919400,8.69691943359375,-0.1437036395072937,-0.12838061153888702,-0.25103649497032166
1774470641733946600,8.706946533203125,-0.13834989070892334,-0.13109304010868073,-0.24635571241378784
1774470641743974400,8.716974365234375,-0.13771392405033112,-0.1390170007944107,-0.25056377053260803
1774470641754001400,8.72700146484375,-0.14276167750358582,-0.15028324723243713,-0.2560770511627197
1774470641764028700,8.737028564453125,-0.1499924212694168,-0.1625146120786667,-0.2669254243373871
1774470641774055400,8.747055419921875,-0.15721465647220612,-0.1748969852924347,-0.28012406826019287
1774470641784082400,8.75708251953125,-0.16932591795921326,-0.18793128430843353,-0.28868985176086426
1774470641794109700,8.767109619140625,-0.17930637300014496,-0.19715914130210876,-0.29911720752716064
1774470641804136400,8.777136474609375,-0.18860825896263123,-0.1980246603488922,-0.3135738968849182
1774470641814163500,8.78716357421875,-0.19534313678741455,-0.20010672509670258,-0.324496328830719
1774470641824190500,8.7971904296875,-0.19741027057170868,-0.2020668089389801,-0.32095858454704285
1774470641834217500,8.807217529296874,-0.19305041432380676,-0.20065613090991974,-0.3200610876083374
1774470641844244500,8.817244384765624,-0.17954899370670319,-0.1929454803466797,-0.31118902564048767
1774470641854272300,8.827272216796874,-0.16606754064559937,-0.174016535282135,-0.3080939054489136
1774470641864299500,8.837299560546874,-0.15382897853851318,-0.15955157577991486,-0.30759963393211365
1774470641874326500,8.847326416015624,-0.1481870710849762,-0.15307530760765076,-0.3075868487358093
1774470641884353300,8.857353271484374,-0.14088068902492523,-0.15469689667224884,-0.3003678023815155
1774470641894380500,8.867380615234374,-0.13826893270015717,-0.15376213192939758,-0.29183903336524963
1774470641904407600,8.877407470703124,-0.13895708322525024,-0.1474003791809082,-0.278957337141037
1774470641914434600,8.8874345703125,-0.13268747925758362,-0.14945100247859955,-0.26857900619506836
1774470641924461300,8.89746142578125,-0.12743918597698212,-0.1520015150308609,-0.2613852620124817
1774470641934488600,8.907488525390624,-0.11716390401124954,-0.1403091698884964,-0.25853168964385986
1774470641944515600,8.917515625,-0.10933101922273636,-0.12029977887868881,-0.2647182047367096
1774470641954542300,8.927542236328126,-0.1015242263674736,-0.09869701415300369,-0.2688157558441162
1774470641964569600,8.937569580078126,-0.09822537004947662,-0.08996850252151489,-0.26664233207702637
1774470641974597400,8.947597412109374,-0.09635529667139053,-0.0966610312461853,-0.25100159645080566
1774470641984624400,8.957624267578124,-0.09435659646987915,-0.10689342767000198,-0.2374735325574875
1774470641994651600,8.967651611328124,-0.09180475771427155,-0.10481829196214676,-0.22565948963165283
1774470642004678400,8.977678466796876,-0.08976717293262482,-0.09382423013448715,-0.22099736332893372
1774470642014705400,8.987705322265626,-0.0904337614774704,-0.0745469406247139,-0.22064608335494995
1774470642024732700,8.997732666015626,-0.0882134810090065,-0.05294843390583992,-0.21968229115009308
1774470642034759400,9.007759521484376,-0.08171110600233078,-0.03797481209039688,-0.2155328243970871
1774470642044786400,9.017786376953126,-0.07280310243368149,-0.033545177429914474,-0.19965185225009918
1774470642054813400,9.0278134765625,-0.059956811368465424,-0.04111654311418533,-0.17911195755004883
1774470642064840400,9.03784033203125,-0.041675541549921036,-0.04734381288290024,-0.15532460808753967
1774470642074867000,9.047866943359375,-0.01841549202799797,-0.04526069015264511,-0.12628336250782013
1774470642084894000,9.05789404296875,0.0013813816476613283,-0.044932056218385696,-0.09748581051826477
1774470642094922000,9.067921875,0.023361781612038612,-0.042341332882642746,-0.08056488633155823
1774470642104949000,9.077948974609376,0.04339967295527458,-0.04219033196568489,-0.05765344202518463
1774470642114976300,9.087976318359376,0.057258494198322296,-0.04664366692304611,-0.03588077053427696
1774470642125003000,9.0980029296875,0.061040449887514114,-0.04472645744681358,-0.015156581997871399
1774470642135030000,9.108030029296875,0.06276591122150421,-0.04021506384015083,0.0013992248568683863
1774470642145057000,9.11805712890625,0.06584825366735458,-0.0338253416121006,0.014305169694125652
1774470642155084000,9.128083984375,0.06575637310743332,-0.023122895509004593,0.028088092803955078
1774470642165111000,9.138111083984375,0.06479284167289734,-0.018553178757429123,0.03838121145963669
1774470642175138000,9.148137939453125,0.06570710986852646,-0.014259896241128445,0.04893212392926216
1774470642185165000,9.1581650390625,0.06756412982940674,-0.011030014604330063,0.05856664106249809
1774470642195192000,9.168192138671875,0.07184329628944397,-0.015793876722455025,0.0640314444899559
1774470642205219000,9.178218994140625,0.07870972901582718,-0.022950323298573494,0.06952634453773499
1774470642215246000,9.18824609375,0.08302910625934601,-0.031146202236413956,0.06313236057758331
1774470642225274000,9.198274169921875,0.08038139343261719,-0.04193732887506485,0.05163682997226715
1774470642235301000,9.208301025390625,0.07583857327699661,-0.05987531691789627,0.042628686875104904
1774470642245328000,9.218327880859375,0.0703122466802597,-0.08175718039274216,0.030226878821849823
1774470642255355100,9.228355224609375,0.05956638976931572,-0.09779660403728485,0.009051552042365074
1774470642265382100,9.238382080078125,0.0424896702170372,-0.12479332834482193,-0.017915351316332817
1774470642275409000,9.248408935546875,0.025247300043702126,-0.1515330672264099,-0.045162949711084366
1774470642285436200,9.258436279296875,0.007813714444637299,-0.1724676489830017,-0.06932581216096878
1774470642295463200,9.268463134765625,-0.010696586221456528,-0.19277317821979523,-0.08769655972719193
1774470642305490000,9.278489990234375,-0.026989273726940155,-0.20405831933021545,-0.11075154691934586
1774470642315517000,9.288516845703125,-0.043724045157432556,-0.2191491276025772,-0.13108079135417938
1774470642325544200,9.298544189453125,-0.05409839004278183,-0.2369377166032791,-0.14320829510688782
1774470642335571000,9.308571044921875,-0.06269161403179169,-0.26171523332595825,-0.15216876566410065
1774470642345599200,9.31859912109375,-0.07085739821195602,-0.27076518535614014,-0.158178448677063
1774470642355626000,9.3286259765625,-0.08016008138656616,-0.2813400626182556,-0.16239769756793976
1774470642365653000,9.338653076171875,-0.0906984806060791,-0.28675132989883423,-0.1698167324066162
1774470642375680000,9.348679931640625,-0.10251732170581818,-0.28340694308280945,-0.16812455654144287
1774470642385707300,9.358707275390625,-0.10966604202985764,-0.27851977944374084,-0.16435138881206512
1774470642395734000,9.368734130859375,-0.11708907037973404,-0.267379492521286,-0.15562714636325836
1774470642405761000,9.378760986328125,-0.11898790299892426,-0.24814216792583466,-0.14509594440460205
1774470642415788300,9.388788330078125,-0.1215759664773941,-0.22706404328346252,-0.13925056159496307
1774470642425815000,9.39881494140625,-0.11613539606332779,-0.20970715582370758,-0.122836172580719
1774470642435842000,9.408842041015625,-0.10733337700366974,-0.1999882161617279,-0.112617626786232
1774470642445869000,9.418869140625,-0.10363691300153732,-0.19504699110984802,-0.09128384292125702
1774470642455896000,9.42889599609375,-0.09665756672620773,-0.19223521649837494,-0.06878625601530075
1774470642465923000,9.438923095703124,-0.0877775251865387,-0.16995947062969208,-0.04192081838846207
1774470642475950800,9.448950927734375,-0.07123210281133652,-0.14319337904453278,-0.012545086443424225
1774470642485978000,9.45897802734375,-0.05528882145881653,-0.10397673398256302,0.020831245929002762
1774470642496005000,9.469005126953125,-0.02684253267943859,-0.05434473231434822,0.05439826101064682
1774470642506031900,9.479031982421875,0.010716027580201626,-0.008611864410340786,0.0957917720079422
1774470642516059100,9.48905908203125,0.061283864080905914,0.026499250903725624,0.14225594699382782
1774470642526086100,9.499086181640624,0.11142639070749283,0.04916355013847351,0.1933974325656891
1774470642536113000,9.50911279296875,0.15761758387088776,0.05155373737215996,0.23779818415641785
1774470642546140000,9.519139892578124,0.1933944970369339,0.050443731248378754,0.2716786563396454
1774470642556167200,9.529167236328124,0.21700714528560638,0.05097822844982147,0.2961792051792145
1774470642566194200,9.539194091796874,0.22093051671981812,0.06139545142650604,0.31146201491355896
1774470642576221000,9.549220947265624,0.21047787368297577,0.06806933134794235,0.3103533387184143
1774470642586248200,9.559248291015624,0.19278596341609955,0.07400897890329361,0.30545738339424133
1774470642596276000,9.56927587890625,0.1647479385137558,0.07791157811880112,0.2880869209766388
1774470642606303000,9.579302978515624,0.13461746275424957,0.07304784655570984,0.27116280794143677
1774470642616330200,9.589330322265624,0.1029580757021904,0.060859087854623795,0.24917493760585785
1774470642626357000,9.59935693359375,0.07907537370920181,0.03862409293651581,0.2252320498228073
1774470642636384000,9.609384033203124,0.06130596622824669,0.02003442868590355,0.1984987109899521
1774470642646411000,9.619410888671876,0.04537680372595787,-0.0005446164286695421,0.16105999052524567
1774470642656438000,9.62943798828125,0.03503548353910446,-0.011877964250743389,0.12664982676506042
1774470642666465000,9.639465087890626,0.02310665138065815,-0.023923708125948906,0.08669228106737137
1774470642676492000,9.649491943359376,0.011147459968924522,-0.030111828818917274,0.042269159108400345
1774470642686519000,9.65951904296875,-0.00036192359402775764,-0.035524703562259674,0.0062216767109930515
1774470642696546000,9.669546142578126,-0.01019671093672514,-0.03284929320216179,-0.024269919842481613
1774470642706573000,9.679572998046876,-0.014673218131065369,-0.030313696712255478,-0.04060095548629761
1774470642716600000,9.68960009765625,-0.015684153884649277,-0.03365330025553703,-0.04259619489312172
1774470642726628000,9.699628173828126,-0.009366869926452637,-0.050635747611522675,-0.03732660040259361
1774470642736655000,9.709655029296876,-0.006743390113115311,-0.07242067158222198,-0.03063247725367546
1774470642746682000,9.71968212890625,-0.0019318570848554373,-0.09059594571590424,-0.027095001190900803
1774470642756709000,9.729709228515626,-0.0013496900210157037,-0.09717448800802231,-0.025968749076128006
1774470642766736100,9.739736083984376,-0.004026167094707489,-0.0921000987291336,-0.030066821724176407
1774470642776763000,9.749762939453126,-0.00821132492274046,-0.08585019409656525,-0.030461503192782402
1774470642786790100,9.7597900390625,-0.015600531361997128,-0.08077766746282578,-0.023184414952993393
1774470642796817200,9.769817138671876,-0.019685819745063782,-0.0822991356253624,-0.019039737060666084
1774470642806844000,9.779843994140625,-0.020656809210777283,-0.08350261300802231,-0.01278450433164835
1774470642816871200,9.78987109375,-0.017781926319003105,-0.08387279510498047,-0.01173362135887146
1774470642826898200,9.799898193359375,-0.009787649847567081,-0.07939548790454865,-0.015863385051488876
1774470642836925000,9.809925048828125,-0.0017209346406161785,-0.0707644522190094,-0.020231768488883972
1774470642846952000,9.819951904296875,0.011115767993032932,-0.07121425867080688,-0.022886406630277634
1774470642856980000,9.82997998046875,0.02021046355366707,-0.08371619880199432,-0.0137240681797266
1774470642867007000,9.840007080078125,0.026396986097097397,-0.10141583532094955,0.005380117800086737
1774470642877034000,9.850033935546875,0.033137448132038116,-0.11712129414081573,0.019901802763342857
1774470642887061000,9.86006103515625,0.039372172206640244,-0.12770549952983856,0.032293759286403656
1774470642897088000,9.870087890625,0.0496639609336853,-0.1350049525499344,0.04025873914361
1774470642907115000,9.880114990234375,0.06028491258621216,-0.13142725825309753,0.04219405725598335
1774470642917142300,9.890142333984375,0.06919798254966736,-0.12719470262527466,0.04603300616145134
1774470642927169000,9.9001689453125,0.08091641962528229,-0.12998808920383453,0.055329300463199615
1774470642937196000,9.910196044921875,0.08877673745155334,-0.13980025053024292,0.062188006937503815
1774470642947223000,9.92022314453125,0.09280823171138763,-0.14107057452201843,0.0636783093214035
1774470642957250000,9.93025,0.09301755577325821,-0.14251932501792908,0.06306951493024826
1774470642967277000,9.940277099609375,0.0877213329076767,-0.1445997953414917,0.06246071308851242
1774470642977305000,9.95030517578125,0.0831819698214531,-0.13867531716823578,0.061705972999334335
1774470642987332000,9.96033203125,0.08007220178842545,-0.13324406743049622,0.0630926862359047
1774470642997359000,9.970359130859375,0.07533443719148636,-0.1271938979625702,0.061339523643255234
1774470643007385900,9.9803857421875,0.07154422253370285,-0.13090795278549194,0.05620548129081726
1774470643017413000,9.9904130859375,0.0720992237329483,-0.12711374461650848,0.05194282531738281
1774470643027440000,10.000440185546875,0.06845016032457352,-0.12033173441886902,0.05133802071213722
1774470643037467000,10.010466796875,0.06482213735580444,-0.11689013242721558,0.043770384043455124
1774470643047494100,10.020494140625,0.06359362602233887,-0.11902119219303131,0.0387687012553215
1774470643057521200,10.030521240234375,0.06089557334780693,-0.1215866208076477,0.03422295302152634
1774470643067548200,10.040548095703125,0.05299823731184006,-0.12439039349555969,0.03418167307972908
1774470643077575200,10.0505751953125,0.0476016066968441,-0.1218356266617775,0.031870581209659576
1774470643087602400,10.0606025390625,0.03804725036025047,-0.11552739143371582,0.03262319043278694
1774470643097629200,10.070629150390625,0.03069373033940792,-0.10414797067642212,0.03008999116718769
1774470643107657200,10.0806572265625,0.03081410564482212,-0.10120038688182831,0.030230872333049774
1774470643117684500,10.0906845703125,0.028426848351955414,-0.10139533132314682,0.0302636306732893
1774470643127711200,10.100711181640625,0.025412149727344513,-0.09534808993339539,0.03195367008447647
1774470643137738200,10.11073828125,0.02515568770468235,-0.09112245589494705,0.03587570786476135
1774470643147765500,10.120765625,0.02377377264201641,-0.08234120905399323,0.0365404337644577
1774470643157792300,10.130792236328125,0.024998294189572334,-0.07476159185171127,0.03311001509428024
1774470643167819300,10.1408193359375,0.024582307785749435,-0.06196856126189232,0.03484533354640007
1774470643177846300,10.15084619140625,0.026801254600286484,-0.054305315017700195,0.03320615738630295
1774470643187873300,10.160873291015625,0.02634611912071705,-0.045519549399614334,0.027519509196281433
1774470643197900300,10.170900390625,0.03152010962367058,-0.03869679570198059,0.02695252187550068
1774470643207927300,10.18092724609375,0.02990170568227768,-0.02383529208600521,0.02743268944323063
1774470643217954300,10.190954345703124,0.03677346184849739,-0.020064787939190865,0.034506842494010925
1774470643227981300,10.200981201171874,0.04855421930551529,-0.02521667256951332,0.038900259882211685
1774470643238008300,10.21100830078125,0.05462063476443291,-0.03305169194936752,0.052839245647192
1774470643248036400,10.221036376953125,0.0643097460269928,-0.0432012677192688,0.054247524589300156
1774470643258063400,10.2310634765625,0.07164515554904938,-0.044432178139686584,0.05053028464317322
1774470643268090400,10.24109033203125,0.07561592757701874,-0.03779957816004753,0.054009173065423965
1774470643278117400,10.251117431640624,0.07534242421388626,-0.0367758572101593,0.05145653337240219
1774470643288144400,10.261144287109374,0.07215329259634018,-0.043102994561195374,0.055758602917194366
1774470643298171400,10.27117138671875,0.062363773584365845,-0.04591156542301178,0.05792668089270592
1774470643308198100,10.2811982421875,0.05411037430167198,-0.03789252042770386,0.0565655417740345
1774470643318225400,10.291225341796874,0.04988952726125717,-0.029996247962117195,0.05538123473525047
1774470643328252400,10.30125244140625,0.04953745752573013,-0.024885641410946846,0.049256760627031326
1774470643338279200,10.311279052734376,0.045033786445856094,-0.020845361053943634,0.04267848655581474
1774470643348306400,10.321306396484376,0.04573606327176094,-0.016340890899300575,0.040886711329221725
1774470643358333400,10.33133349609375,0.04675285890698433,-0.019459186121821404,0.0349167063832283
1774470643368360200,10.341360107421876,0.04556695371866226,-0.024923725053668022,0.03069053404033184
1774470643378388500,10.351388427734374,0.04711771011352539,-0.02112685702741146,0.03260374814271927
1774470643388415200,10.361415283203126,0.04268088564276695,-0.019105518236756325,0.029631927609443665
1774470643398442200,10.371442138671876,0.03951758146286011,-0.024507474154233932,0.024763137102127075
1774470643408469200,10.38146923828125,0.04814862087368965,-0.028561336919665337,0.02437538094818592
1774470643418496300,10.391496337890626,0.053093310445547104,-0.03628290817141533,0.02262701466679573
1774470643428523300,10.401523193359376,0.05549761280417442,-0.04315812140703201,0.017946243286132812
1774470643438550300,10.41155029296875,0.058995142579078674,-0.04078551381826401,0.011604990810155869
1774470643448577300,10.421577392578126,0.05658072233200073,-0.03550286591053009,0.009384979493916035
1774470643458604300,10.431604248046876,0.05946412682533264,-0.03579767793416977,0.00860600546002388
1774470643468631300,10.44163134765625,0.061524614691734314,-0.03665468469262123,0.017055150121450424
1774470643478658300,10.451658203125,0.0611799992620945,-0.037402763962745667,0.020122578367590904
1774470643488685300,10.461685302734375,0.05742228031158447,-0.03221146762371063,0.02093777246773243
1774470643498712300,10.47171240234375,0.053040582686662674,-0.01997663825750351,0.016599483788013458
1774470643508740400,10.481740234375,0.0477193184196949,-0.002752110594883561,0.01426309160888195
1774470643518767400,10.491767333984376,0.04426439851522446,0.014595454558730125,0.0112824821844697
1774470643528794400,10.50179443359375,0.042759448289871216,0.02443423680961132,0.00908537395298481
1774470643538821000,10.511821044921875,0.04945969581604004,0.03386928513646126,0.013222062028944492
1774470643548848400,10.521848388671875,0.056711483746767044,0.03473454341292381,0.016876984387636185
1774470643558875400,10.53187548828125,0.06546635925769806,0.02893923968076706,0.024863271042704582
1774470643568902100,10.541902099609375,0.07489820569753647,0.018096977844834328,0.028201011940836906
1774470643578929400,10.551929443359375,0.0839255228638649,0.012514193542301655,0.03720782324671745
1774470643588956400,10.561956298828125,0.09140767902135849,0.013968279585242271,0.03827681392431259
1774470643598983200,10.571983154296875,0.09843283146619797,0.014248178340494633,0.035283420234918594
1774470643609010200,10.58201025390625,0.10889185965061188,0.012152536772191525,0.030343258753418922
1774470643619037400,10.592037353515625,0.11580862104892731,0.004514590837061405,0.023197997361421585
1774470643629064400,10.602064453125,0.11866113543510437,-0.00227886694483459,0.012329903431236744
1774470643639091200,10.61209130859375,0.1175370141863823,-0.01245027780532837,0.008028898388147354
1774470643649119500,10.622119384765625,0.11669758707284927,-0.020902086049318314,-0.0007880293414928019
1774470643659146200,10.632146240234375,0.10659834742546082,-0.024949558079242706,-0.009689644910395145
1774470643669173200,10.64217333984375,0.09528523683547974,-0.031037012115120888,-0.016930246725678444
1774470643679200500,10.652200439453125,0.07968843728303909,-0.0327313132584095,-0.018138790503144264
1774470643689227300,10.662227294921875,0.06730979681015015,-0.032769132405519485,-0.01577150635421276
1774470643699254300,10.672254150390625,0.055456601083278656,-0.029886526986956596,-0.014817561954259872
1774470643709281300,10.68228125,0.04855475202202797,-0.026853984221816063,-0.017410149797797203
1774470643719308300,10.692308349609375,0.046128612011671066,-0.021506890654563904,-0.027542145922780037
1774470643729335300,10.702335205078125,0.040717869997024536,-0.013489976525306702,-0.04173839092254639
1774470643739362300,10.7123623046875,0.03828853368759155,-0.005655488930642605,-0.054356981068849564
1774470643749389300,10.722389404296875,0.031129157170653343,0.007413174957036972,-0.06404769420623779
1774470643759416300,10.732416259765625,0.020126041024923325,0.017435714602470398,-0.07348833233118057
1774470643769443300,10.742443359375,0.0114590497687459,0.025135979056358337,-0.07819067686796188
1774470643779471400,10.752471435546875,0.004963599611073732,0.030044984072446823,-0.08002692461013794
1774470643789498400,10.762498291015625,0.00019121496006846428,0.03195793181657791,-0.08079791069030762
1774470643799525400,10.772525390625,-0.0034256239887326956,0.034500185400247574,-0.08568134903907776
1774470643809552100,10.78255224609375,-0.0021321268286556005,0.042938679456710815,-0.09005798399448395
1774470643819579400,10.792579345703125,-0.006179066374897957,0.0464005209505558,-0.09241994470357895
1774470643829606400,10.8026064453125,-0.008810536004602909,0.05146265774965286,-0.1002243384718895
1774470643839633200,10.812633056640625,-0.011885687708854675,0.04627934843301773,-0.10451069474220276
1774470643849660400,10.822660400390625,-0.013979198411107063,0.03647411987185478,-0.10371387749910355
1774470643859687400,10.8326875,-0.01673983223736286,0.029866019263863564,-0.10160918533802032
1774470643869714200,10.842714111328124,-0.012694490142166615,0.028854550793766975,-0.10046322643756866
1774470643879741200,10.8527412109375,-0.014268950559198856,0.03350016847252846,-0.09662827104330063
1774470643889768400,10.8627685546875,-0.012736834585666656,0.03936817869544029,-0.0978245660662651
1774470643899795200,10.872795166015624,-0.004576908424496651,0.04421380162239075,-0.09560934454202652
1774470643909822200,10.882822265625,0.0038333539851009846,0.041798047721385956,-0.09145002067089081
1774470643919849500,10.892849365234374,0.008481102995574474,0.031020499765872955,-0.08362272381782532
1774470643929877200,10.902877197265624,0.014161092229187489,0.023812389001250267,-0.06582614779472351
1774470643939904300,10.912904296875,0.015359781682491302,0.021687451750040054,-0.055387623608112335
1774470643949931300,10.92293115234375,0.015981096774339676,0.025141838937997818,-0.04634566232562065
1774470643959958300,10.932958251953124,0.013688115403056145,0.034750524908304214,-0.03321920707821846
1774470643969985300,10.9429853515625,0.0115546565502882,0.04328196123242378,-0.022598786279559135
1774470643980012500,10.953012451171874,0.009943710640072823,0.04899657145142555,-0.009560481645166874
1774470643990039300,10.963039306640624,0.006738063879311085,0.051654137670993805,0.005388640332967043
1774470644000066300,10.97306640625,0.00839694682508707,0.05681508034467697,0.017593374475836754
1774470644010093300,10.98309326171875,0.013591708615422249,0.05469520390033722,0.03605706989765167
1774470644020120300,10.993120361328126,0.02021712064743042,0.04866953566670418,0.052315402776002884
1774470644030147300,11.003147216796876,0.02726570889353752,0.04270298779010773,0.06349881738424301
1774470644040174300,11.01317431640625,0.030464697629213333,0.043110452592372894,0.07343479990959167
1774470644050201300,11.023201416015626,0.03075098805129528,0.04170083999633789,0.07075433433055878
1774470644060229400,11.0332294921875,0.030127009376883507,0.04884530231356621,0.06828638166189194
1774470644070260500,11.043260498046875,0.026021214202046394,0.052862416952848434,0.05964069440960884
1774470644080287500,11.05328759765625,0.0207540150731802,0.05247519165277481,0.05107516795396805
1774470644090314500,11.063314453125,0.011826565489172935,0.0530104860663414,0.041786860674619675
1774470644100341200,11.07334130859375,0.0057593523524701595,0.05716075748205185,0.0336756706237793
1774470644110368500,11.083368408203125,0.0009693906176835299,0.054487209767103195,0.023921044543385506
1774470644120395500,11.0933955078125,0.0006540723843500018,0.04795074835419655,0.015597601421177387
1774470644130422300,11.10342236328125,0.0011297129094600677,0.0348312184214592,0.012565060518682003
1774470644140449500,11.113449462890625,0.00041039311327040195,0.019568640738725662,0.012495019473135471
1774470644150476500,11.1234765625,0.0029976540245115757,0.007306915242224932,0.007685350254178047
1774470644160503300,11.13350341796875,0.005071990191936493,-0.010879012756049633,0.0009688580175861716
1774470644170530300,11.1435302734375,0.004825381562113762,-0.022065887227654457,-0.005120459944009781
1774470644180557600,11.1535576171875,0.003972903825342655,-0.036186233162879944,-0.013634852133691311
1774470644190584300,11.163584228515624,-0.0018066884949803352,-0.046833816915750504,-0.021749770268797874
1774470644200611300,11.173611328125,-0.010449444875121117,-0.055322643369436264,-0.033725205808877945
1774470644210639400,11.183639404296875,-0.02387950010597706,-0.06204872205853462,-0.044488370418548584
1774470644220666400,11.193666259765624,-0.04008110612630844,-0.06733136624097824,-0.058699265122413635
1774470644230693400,11.203693359375,-0.05398893356323242,-0.080573670566082,-0.0705745667219162
1774470644240720400,11.213720458984374,-0.06706079095602036,-0.09951673448085785,-0.07771503180265427
1774470644250747400,11.223747314453124,-0.08155371248722076,-0.12257438153028488,-0.07948577404022217
1774470644260774400,11.2337744140625,-0.09295284003019333,-0.14540113508701324,-0.08568853884935379
1774470644270801700,11.2438017578125,-0.10074631869792938,-0.16675090789794922,-0.09036798030138016
1774470644280828400,11.253828369140624,-0.10827667266130447,-0.171775221824646,-0.1029151976108551
1774470644290855400,11.26385546875,-0.11560702323913574,-0.17322690784931183,-0.11986568570137024
1774470644300882400,11.27388232421875,-0.12632997334003448,-0.16577325761318207,-0.1360313445329666
1774470644310909400,11.283909423828124,-0.1314067542552948,-0.15373976528644562,-0.1437116265296936
1774470644320936400,11.2939365234375,-0.13152579963207245,-0.14853914082050323,-0.15500423312187195
1774470644330963500,11.30396337890625,-0.12571531534194946,-0.14529594779014587,-0.16313832998275757
1774470644340990500,11.313990478515626,-0.11334866285324097,-0.14254143834114075,-0.16757647693157196
1774470644351018500,11.3240185546875,-0.0988813042640686,-0.1428767293691635,-0.16603530943393707
1774470644361045200,11.334045166015626,-0.08393458276987076,-0.14638890326023102,-0.1613268405199051
1774470644371072500,11.344072509765626,-0.0741565153002739,-0.14545413851737976,-0.1519346684217453
1774470644381099500,11.354099609375,-0.06330440193414688,-0.143101766705513,-0.145437091588974
1774470644391126300,11.364126220703126,-0.05844014137983322,-0.1254095882177353,-0.14158323407173157
1774470644401153300,11.3741533203125,-0.05862735956907272,-0.1046646237373352,-0.1370856761932373
1774470644411180500,11.3841806640625,-0.05922284349799156,-0.08397053182125092,-0.12800483405590057
1774470644421207600,11.39420751953125,-0.05596259981393814,-0.06465009599924088,-0.11155795305967331
1774470644431234300,11.404234375,-0.05573463439941406,-0.05222645401954651,-0.09400718659162521
1774470644441261600,11.414261474609376,-0.049378469586372375,-0.049004826694726944,-0.07102570682764053
1774470644451288600,11.42428857421875,-0.04084170609712601,-0.04435175284743309,-0.05294949933886528
1774470644461315300,11.4343154296875,-0.029751503840088844,-0.03753618896007538,-0.03327566385269165
1774470644471342300,11.44434228515625,-0.02382916584610939,-0.032166190445423126,-0.02141501009464264
1774470644481369600,11.45436962890625,-0.019965186715126038,-0.023268837481737137,-0.014484666287899017
1774470644491396400,11.464396240234375,-0.01890578120946884,-0.014375477097928524,-0.010759437456727028
1774470644501424600,11.474424560546876,-0.024812672287225723,-0.00038296254933811724,-0.014765896834433079
1774470644511451400,11.484451416015625,-0.028623921796679497,0.008097074925899506,-0.019599534571170807
1774470644521478400,11.494478515625,-0.026023078709840775,0.01769058033823967,-0.024967135861516
1774470644531505400,11.50450537109375,-0.02792350947856903,0.018012024462223053,-0.03319763392210007
1774470644541532400,11.514532470703125,-0.026267023757100105,0.01071096770465374,-0.03864806145429611
1774470644551559400,11.524559326171875,-0.02267282083630562,-0.0011166634503751993,-0.04012132063508034
1774470644561586400,11.53458642578125,-0.018986741080880165,-0.012315788306295872,-0.044322457164525986
1774470644571613400,11.544613525390625,-0.015084144659340382,-0.02371012233197689,-0.052013933658599854
1774470644581640400,11.554640380859375,-0.01008299458771944,-0.030703583732247353,-0.060377854853868484
1774470644591667500,11.56466748046875,-0.007582552265375853,-0.03371082618832588,-0.06463544815778732
1774470644601694500,11.574694580078125,-0.007766310125589371,-0.041065145283937454,-0.07095246762037277
1774470644611721500,11.584721435546875,-0.009699765592813492,-0.03825604170560837,-0.07372722029685974
1774470644621748500,11.59474853515625,-0.018257301300764084,-0.03489246964454651,-0.07933264225721359
1774470644631775500,11.604775390625,-0.028079571202397346,-0.03331641107797623,-0.08160857856273651
1774470644641803500,11.614803466796875,-0.03340829163789749,-0.025921078398823738,-0.079610675573349
1774470644651830500,11.62483056640625,-0.040660079568624496,-0.017592841759324074,-0.07679624110460281
1774470644661857300,11.634857177734375,-0.03746961057186127,-0.009518403559923172,-0.07926712185144424
1774470644671884500,11.644884521484375,-0.03322772681713104,-0.0006231797160580754,-0.08505097776651382
1774470644681911600,11.65491162109375,-0.02624252252280712,0.0034884747583419085,-0.0877828523516655
1774470644691938300,11.664938232421875,-0.015241270884871483,0.00583631731569767,-0.09231315553188324
1774470644701965300,11.67496533203125,-0.007127151824533939,0.002010420197620988,-0.0869455486536026
1774470644711992600,11.68499267578125,0.004159324802458286,0.0002205097407568246,-0.08226504176855087
1774470644722019300,11.695019287109375,0.013669739477336407,-0.0000857537888805382,-0.07738826423883438
1774470644732046300,11.70504638671875,0.018263159319758415,0.002031991956755519,-0.07278872281312943
1774470644742073600,11.715073486328125,0.017415741458535194,0.0037388119380921125,-0.06754868477582932
1774470644752100400,11.725100341796875,0.016412528231739998,0.00959590170532465,-0.06782379001379013
1774470644762127400,11.73512744140625,0.007187072653323412,0.010476609691977501,-0.06805121898651123
1774470644772154400,11.745154296875,-0.0006471481174230576,0.013390107080340385,-0.06741126626729965
1774470644782181400,11.755181396484375,-0.006109557580202818,0.006617955397814512,-0.07142997533082962
1774470644792209400,11.76520947265625,-0.013289973139762878,-0.00180881901178509,-0.06978227943181992
1774470644802236400,11.775236328125,-0.01787939853966236,-0.0067782774567604065,-0.0689481720328331
1774470644812263400,11.785263427734375,-0.021315142512321472,-0.00860440731048584,-0.0712139904499054
1774470644822290400,11.79529052734375,-0.02827637828886509,-0.004854676313698292,-0.07490114122629166
1774470644832317400,11.8053173828125,-0.031746476888656616,0.0020572920329868793,-0.08067300915718079
1774470644842344400,11.815344482421875,-0.032951559871435165,0.007524229120463133,-0.08182695508003235
1774470644852371500,11.825371337890624,-0.03400217369198799,0.0027228158432990313,-0.08377958834171295
1774470644862398500,11.8353984375,-0.033425066620111465,0.005997971165925264,-0.08505284041166306
1774470644872425200,11.84542529296875,-0.029581859707832336,0.007125820033252239,-0.08029723912477493
1774470644882452500,11.855452392578124,-0.024270186200737953,0.0038922098465263844,-0.07789639383554459
1774470644892479500,11.8654794921875,-0.014248444698750973,0.011352256871759892,-0.07164356112480164
1774470644902506200,11.87550634765625,-0.0007840346079319715,0.018444787710905075,-0.06085216626524925
1774470644912533500,11.885533447265624,0.009312541224062443,0.015200524590909481,-0.04406306520104408
1774470644922560500,11.895560546875,0.022760173305869102,0.014883608557283878,-0.024507474154233932
1774470644932587300,11.905587158203126,0.034398455172777176,0.012945359572768211,-0.00484349112957716
1774470644942615600,11.915615478515624,0.04104570299386978,0.01458799745887518,0.0025238776579499245
1774470644952642600,11.925642578125,0.047449007630348206,0.020240556448698044,0.014810903929173946
1774470644962669300,11.93566943359375,0.04874330386519432,0.020854948088526726,0.026030002161860466
1774470644972696600,11.945696533203124,0.04565616697072983,0.019538281485438347,0.039558060467243195
1774470644982723600,11.9557236328125,0.04330912604928017,0.015094797126948833,0.04911428317427635
1774470644992750300,11.965750244140626,0.04115968570113182,0.010644654743373394,0.06181063503026962
1774470645002777300,11.97577734375,0.0391298271715641,0.00256355875171721,0.07903596013784409
1774470645012804600,11.9858046875,0.036624323576688766,-0.004626177251338959,0.09117624908685684
1774470645022831400,11.995831298828126,0.030230339616537094,-0.008205997757613659,0.10435756295919418
1774470645032858400,12.0058583984375,0.022184131667017937,-0.008358065038919449,0.11295264959335327
1774470645042885600,12.0158857421875,0.013712616637349129,-0.011894742958247662,0.11980922520160675
1774470645052912400,12.025912353515626,0.0038480013608932495,-0.0028429245576262474,0.11699718981981277
1774470645062939400,12.035939453125,0.0024378576781600714,-0.0015369103057309985,0.11258087307214737
1774470645072962600,12.045962646484375,0.002657302189618349,-0.005857889074832201,0.10948015749454498
1774470645082989600,12.055989501953125,0.00216594897210598,-0.01426282525062561,0.1070857048034668
1774470645093016600,12.0660166015625,-0.0004719121498055756,-0.027163444086909294,0.10461429506540298
1774470645103044600,12.076044677734375,-0.0025571673177182674,-0.03223862871527672,0.09499575197696686
1774470645113071400,12.0860712890625,-0.007997206412255764,-0.0392930768430233,0.08488186448812485
1774470645123098600,12.0960986328125,-0.012145346030592918,-0.04752757027745247,0.07363693416118622
1774470645133125600,12.106125732421875,-0.022543923929333687,-0.05561825633049011,0.0711897611618042
1774470645143152400,12.11615234375,-0.03976019471883774,-0.06651218235492706,0.07104115188121796
1774470645153179600,12.1261796875,-0.054547931998968124,-0.08017978817224503,0.06601550430059433
1774470645163206700,12.13620654296875,-0.07416850328445435,-0.07964929193258286,0.06191636249423027
1774470645173233400,12.1462333984375,-0.09194936603307724,-0.07389126718044281,0.0532672144472599
1774470645183260400,12.156260498046874,-0.10502628237009048,-0.06642216444015503,0.04459276795387268
1774470645193287700,12.16628759765625,-0.11518917232751846,-0.06450548768043518,0.0335070937871933
1774470645203314400,12.176314453125,-0.11999724060297012,-0.06939425319433212,0.030112627893686295
1774470645213341400,12.186341552734374,-0.11699213087558746,-0.07886472344398499,0.024101873859763145
1774470645223368700,12.19636865234375,-0.1059485375881195,-0.0925254076719284,0.01798832230269909
1774470645233395500,12.2063955078125,-0.09587619453668594,-0.10129812359809875,0.009757556021213531
1774470645243422500,12.21642236328125,-0.08180911093950272,-0.10603775084018707,0.005629922728985548
1774470645253450800,12.22645068359375,-0.0759405717253685,-0.1091291531920433,-0.003996872343122959
1774470645263477500,12.2364775390625,-0.07416237890720367,-0.10948867350816727,-0.012486763298511505
1774470645273504500,12.24650439453125,-0.07220255583524704,-0.10243476182222366,-0.024685371667146683
1774470645283531800,12.25653173828125,-0.07334452122449875,-0.10122568905353546,-0.0366288498044014
1774470645293558500,12.26655859375,-0.07619649916887283,-0.0994512215256691,-0.05041630193591118
1774470645303585500,12.27658544921875,-0.07549342513084412,-0.09504209458827972,-0.06826480478048325
1774470645313612500,12.286612548828124,-0.08201444149017334,-0.09163404256105423,-0.08868672698736191
1774470645323639600,12.2966396484375,-0.08321712911128998,-0.08664701133966446,-0.10333064943552017
1774470645333666600,12.30666650390625,-0.08198568224906921,-0.07992519438266754,-0.11001119017601013
1774470645343693600,12.316693603515626,-0.07926073670387268,-0.08491728454828262,-0.10693071037530899
1774470645353720600,12.326720458984376,-0.07356157153844833,-0.08507760614156723,-0.10022513568401337
1774470645363747600,12.33674755859375,-0.06393343955278397,-0.08822839707136154,-0.08782865852117538
1774470645373774600,12.346774658203126,-0.05493542179465294,-0.07971560209989548,-0.07884794473648071
1774470645383801300,12.35680126953125,-0.04405587539076805,-0.07333386689424515,-0.06785547733306885
1774470645393828600,12.36682861328125,-0.04030534625053406,-0.0648287981748581,-0.06519098579883575
