time,seconds_elapsed,z,y,x
1774473191284671000,0.0556708984375,-0.85784912109375,-0.513671875,0.111663818359375
1774473191294691000,0.065691162109375,-0.849822998046875,-0.5162353515625,0.1214141845703125
1774473191304711000,0.0757109375,-0.841796875,-0.5156707763671875,0.1202392578125
1774473191314731000,0.08573095703125,-0.8232879638671875,-0.5110015869140625,0.1068878173828125
1774473191324750800,0.095750732421875,-0.809844970703125,-0.5151519775390625,0.0906982421875
1774473191334771000,0.10577099609375,-0.814727783203125,-0.519012451171875,0.0773468017578125
1774473191344791000,0.115791015625,-0.8240509033203125,-0.5220947265625,0.067474365234375
1774473191354811000,0.125810791015625,-0.8702850341796875,-0.536468505859375,0.054473876953125
1774473191364831000,0.1358310546875,-0.932586669921875,-0.5293731689453125,0.0439300537109375
1774473191374851000,0.14585107421875,-0.960479736328125,-0.5027618408203125,0.044189453125
1774473191384871000,0.155870849609375,-0.9545745849609375,-0.4877166748046875,0.053253173828125
1774473191394891000,0.16589111328125,-0.9317474365234375,-0.479644775390625,0.071929931640625
1774473191404911900,0.175911865234375,-0.871490478515625,-0.4282379150390625,0.0583648681640625
1774473191414932000,0.185931884765625,-0.8734588623046875,-0.4349517822265625,0.0977783203125
1774473191424952000,0.1959521484375,-0.835662841796875,-0.38372802734375,0.0062103271484375
1774473191434972200,0.20597216796875,-0.839324951171875,-0.408477783203125,0.0320587158203125
1774473191444992000,0.215991943359375,-0.8563690185546875,-0.4525604248046875,0.065643310546875
1774473191455012000,0.22601220703125,-0.835174560546875,-0.45849609375,0.0688934326171875
1774473191465032700,0.23603271484375,-0.7955169677734375,-0.445037841796875,0.0760498046875
1774473191475052800,0.246052734375,-0.79119873046875,-0.4822540283203125,0.105743408203125
1774473191485073000,0.256072998046875,-0.75042724609375,-0.4706878662109375,0.12359619140625
1774473191495093000,0.266093017578125,-0.7242584228515625,-0.459320068359375,0.152496337890625
1774473191505112800,0.27611279296875,-0.6883544921875,-0.45904541015625,0.1880035400390625
1774473191515134000,0.286134033203125,-0.6681365966796875,-0.485504150390625,0.1962738037109375
1774473191525153800,0.29615380859375,-0.6841278076171875,-0.4650115966796875,0.2455902099609375
1774473191535174000,0.306173828125,-0.7456512451171875,-0.47332763671875,0.2691497802734375
1774473191545194000,0.316194091796875,-0.8335418701171875,-0.5243988037109375,0.272064208984375
1774473191555213800,0.3262138671875,-0.877716064453125,-0.558746337890625,0.242950439453125
1774473191565234000,0.33623388671875,-0.8546295166015625,-0.5260467529296875,0.21319580078125
1774473191575253800,0.346253662109375,-0.825775146484375,-0.5007171630859375,0.1948394775390625
1774473191585273900,0.35627392578125,-0.8040313720703125,-0.486968994140625,0.18719482421875
1774473191595293700,0.366293701171875,-0.7730255126953125,-0.4975128173828125,0.18658447265625
1774473191605313800,0.376313720703125,-0.7513275146484375,-0.5189208984375,0.24078369140625
1774473191615334000,0.386333984375,-0.784912109375,-0.5708770751953125,0.476043701171875
1774473191625354800,0.396354736328125,-0.831024169921875,-0.53326416015625,0.694671630859375
1774473191635374800,0.406374755859375,-0.8030853271484375,-0.339385986328125,0.43951416015625
1774473191645394700,0.416394775390625,-0.8878021240234375,-0.3383026123046875,0.21533203125
1774473191655414800,0.426414794921875,-0.9185028076171875,-0.4018096923828125,0.2282257080078125
1774473191665435000,0.436434814453125,-0.9868927001953125,-0.438018798828125,0.149383544921875
1774473191675455000,0.446455078125,-0.997283935546875,-0.522369384765625,0.0794830322265625
1774473191685474800,0.456474853515625,-0.9832763671875,-0.5294189453125,0.005859375
1774473191695495000,0.466494873046875,-0.9839019775390625,-0.5024261474609375,0.009490966796875
1774473191705515000,0.476514892578125,-0.9732818603515625,-0.4427337646484375,0.0413360595703125
1774473191715534800,0.486534912109375,-0.9593353271484375,-0.437255859375,0.0819549560546875
1774473191725555000,0.496554931640625,-0.9487457275390625,-0.470977783203125,0.16925048828125
1774473191735575800,0.506575927734375,-0.933135986328125,-0.4669342041015625,0.1705169677734375
1774473191745596000,0.516595947265625,-0.936065673828125,-0.461029052734375,0.1520233154296875
1774473191755616000,0.526615966796875,-0.9586181640625,-0.4696197509765625,0.182220458984375
1774473191765635800,0.5366357421875,-0.9792327880859375,-0.4737548828125,0.1693115234375
1774473191775655700,0.54665576171875,-0.97735595703125,-0.4782257080078125,0.14227294921875
1774473191785675800,0.55667578125,-0.9567413330078125,-0.4889678955078125,0.14202880859375
1774473191795695900,0.56669580078125,-0.9278411865234375,-0.4971771240234375,0.1416473388671875
1774473191805715700,0.5767158203125,-0.905670166015625,-0.5046844482421875,0.130828857421875
1774473191815735800,0.58673583984375,-0.896026611328125,-0.5151214599609375,0.11761474609375
1774473191825756000,0.596755859375,-0.898773193359375,-0.52740478515625,0.0872802734375
1774473191835775700,0.606775634765625,-0.918243408203125,-0.533538818359375,0.0756378173828125
1774473191845796900,0.616796875,-0.944091796875,-0.5257110595703125,0.0808258056640625
1774473191855817000,0.62681689453125,-0.954925537109375,-0.504608154296875,0.0858917236328125
1774473191865836800,0.6368369140625,-0.953643798828125,-0.48486328125,0.1007537841796875
1774473191875857000,0.64685693359375,-0.948028564453125,-0.472381591796875,0.1231231689453125
1774473191885877000,0.656876953125,-0.9476776123046875,-0.4665374755859375,0.13812255859375
1774473191895896800,0.666896728515625,-0.95074462890625,-0.46221923828125,0.1309661865234375
1774473191905917000,0.6769169921875,-0.9504547119140625,-0.45831298828125,0.11962890625
1774473191915937000,0.68693701171875,-0.943359375,-0.455535888671875,0.1069793701171875
1774473191925956600,0.69695654296875,-0.9160919189453125,-0.4585113525390625,0.122955322265625
1774473191935976700,0.706976806640625,-0.888153076171875,-0.4466094970703125,0.144378662109375
1774473191945996800,0.716996826171875,-0.863616943359375,-0.441680908203125,0.1667633056640625
1774473191956017000,0.727016845703125,-0.8448486328125,-0.435516357421875,0.159759521484375
1774473191966037800,0.737037841796875,-0.8322601318359375,-0.442718505859375,0.1521453857421875
1774473191976057900,0.747057861328125,-0.8152008056640625,-0.4376068115234375,0.1540679931640625
1774473191986077700,0.75707763671875,-0.8173370361328125,-0.42633056640625,0.1778106689453125
1774473191996097800,0.767097900390625,-0.8184661865234375,-0.402923583984375,0.1915740966796875
1774473192006118000,0.777117919921875,-0.8344573974609375,-0.3677520751953125,0.2023162841796875
1774473192016137700,0.7871376953125,-0.8648223876953125,-0.3442535400390625,0.2305908203125
1774473192026157800,0.79715771484375,-0.9107208251953125,-0.315673828125,0.2188262939453125
1774473192036178000,0.807177978515625,-0.96649169921875,-0.299896240234375,0.20703125
1774473192046198000,0.817197998046875,-1.0169830322265625,-0.283447265625,0.191558837890625
1774473192056217900,0.8272177734375,-1.0577850341796875,-0.26605224609375,0.156585693359375
1774473192066238000,0.837238037109375,-1.0709381103515625,-0.2730560302734375,0.158203125
1774473192076258800,0.8472587890625,-1.0564727783203125,-0.2664642333984375,0.164306640625
1774473192086279000,0.85727880859375,-1.0340118408203125,-0.254913330078125,0.1746673583984375
1774473192096299000,0.867299072265625,-1.0484161376953125,-0.212646484375,0.195404052734375
1774473192106318800,0.87731884765625,-1.035003662109375,-0.261260986328125,0.1456298828125
1774473192116338700,0.887338623046875,-0.9490509033203125,-0.34149169921875,0.1612548828125
1774473192126358800,0.89735888671875,-0.8778228759765625,-0.33038330078125,0.155426025390625
1774473192136379000,0.90737890625,-0.8800201416015625,-0.3086395263671875,0.1768951416015625
1774473192146398700,0.917398681640625,-0.9225616455078125,-0.298492431640625,0.186798095703125
1774473192156418800,0.927418701171875,-0.9539642333984375,-0.30462646484375,0.16802978515625
1774473192166439000,0.93743896484375,-0.963897705078125,-0.3164825439453125,0.1389923095703125
1774473192176458800,0.947458740234375,-0.967864990234375,-0.3369293212890625,0.1066741943359375
1774473192186478800,0.957478759765625,-0.96209716796875,-0.361175537109375,0.098907470703125
1774473192196499700,0.967499755859375,-0.943634033203125,-0.36236572265625,0.106170654296875
1774473192206519800,0.977519775390625,-0.919097900390625,-0.3577728271484375,0.1222381591796875
1774473192216540000,0.987539794921875,-0.9002685546875,-0.3639068603515625,0.1370086669921875
1774473192226560000,0.99756005859375,-0.8914031982421875,-0.3764495849609375,0.1304779052734375
1774473192236579800,1.007579833984375,-0.8907012939453125,-0.394256591796875,0.111846923828125
1774473192246600000,1.017599853515625,-0.89892578125,-0.411224365234375,0.095367431640625
1774473192256620000,1.0276201171875,-0.9095001220703125,-0.4243011474609375,0.093902587890625
1774473192266640000,1.037639892578125,-0.9104461669921875,-0.4325103759765625,0.095977783203125
1774473192276659700,1.04765966796875,-0.9072113037109375,-0.4392242431640625,0.096435546875
1774473192286679800,1.0576796875,-0.8981170654296875,-0.451385498046875,0.090118408203125
1774473192296699600,1.06769970703125,-0.8837127685546875,-0.46466064453125,0.08026123046875
1774473192306720800,1.077720703125,-0.882781982421875,-0.4824371337890625,0.0489501953125
1774473192316740900,1.087740966796875,-0.900299072265625,-0.5142059326171875,0.0128326416015625
1774473192326760700,1.0977607421875,-0.903228759765625,-0.533294677734375,0.0046234130859375
1774473192336780800,1.10778076171875,-0.8888397216796875,-0.5330963134765625,0.01214599609375
1774473192346801000,1.11780078125,-0.8791961669921875,-0.5359649658203125,0.0260009765625
1774473192356820700,1.12782080078125,-0.879425048828125,-0.546966552734375,0.0237579345703125
1774473192366840800,1.1378408203125,-0.8849334716796875,-0.5469207763671875,0.04888916015625
1774473192376861000,1.14786083984375,-0.8855743408203125,-0.5307769775390625,0.0831756591796875
1774473192386880800,1.157880859375,-0.895050048828125,-0.5193023681640625,0.098663330078125
1774473192396900900,1.16790087890625,-0.903717041015625,-0.5218353271484375,0.095794677734375
1774473192406921000,1.1779208984375,-0.8944244384765625,-0.52618408203125,0.1127166748046875
1774473192416941800,1.18794189453125,-0.8691558837890625,-0.52490234375,0.1260223388671875
1774473192426962000,1.1979619140625,-0.86004638671875,-0.5152130126953125,0.115753173828125
1774473192436982000,1.20798193359375,-0.8683929443359375,-0.51336669921875,0.1022491455078125
1774473192447001900,1.218001953125,-0.86865234375,-0.513916015625,0.0846710205078125
1774473192457022000,1.22802197265625,-0.8583221435546875,-0.5142974853515625,0.064178466796875
1774473192467041500,1.23804150390625,-0.841339111328125,-0.5253753662109375,0.0425567626953125
1774473192477061600,1.2480615234375,-0.814239501953125,-0.53338623046875,0.028167724609375
1774473192487081500,1.25808154296875,-0.7741241455078125,-0.553314208984375,0.0074615478515625
1774473192497101600,1.2681015625,-0.742401123046875,-0.575531005859375,-0.0139007568359375
1774473192507121700,1.27812158203125,-0.7110595703125,-0.5979156494140625,-0.0255889892578125
1774473192517141500,1.2881416015625,-0.699310302734375,-0.6033172607421875,-0.0256500244140625
1774473192527161300,1.298161376953125,-0.7022705078125,-0.6022796630859375,-0.0131072998046875
1774473192537182500,1.308182373046875,-0.7165679931640625,-0.5985870361328125,-0.0013885498046875
1774473192547202300,1.318202392578125,-0.7409515380859375,-0.6015167236328125,-0.0093994140625
1774473192557222400,1.328222412109375,-0.7644805908203125,-0.605194091796875,-0.0102081298828125
1774473192567242500,1.338242431640625,-0.7742156982421875,-0.599029541015625,-0.0025482177734375
1774473192577262300,1.348262451171875,-0.7750396728515625,-0.609466552734375,-0.009246826171875
1774473192587282400,1.358282470703125,-0.7624359130859375,-0.6126861572265625,-0.005767822265625
1774473192597302500,1.368302490234375,-0.7471160888671875,-0.626007080078125,-0.0078277587890625
1774473192607322400,1.378322265625,-0.75299072265625,-0.6439666748046875,-0.0136566162109375
1774473192617342500,1.388342529296875,-0.7765655517578125,-0.6534576416015625,-0.023773193359375
1774473192627362600,1.398362548828125,-0.7903289794921875,-0.6528472900390625,-0.01995849609375
1774473192637382400,1.40838232421875,-0.8060150146484375,-0.6700286865234375,-0.0401153564453125
1774473192647403500,1.418403564453125,-0.79974365234375,-0.69207763671875,-0.0566864013671875
1774473192657423600,1.428423583984375,-0.7692413330078125,-0.7039794921875,-0.0568084716796875
1774473192667443500,1.438443359375,-0.7678985595703125,-0.710357666015625,-0.0687103271484375
1774473192677463600,1.448463623046875,-0.7636566162109375,-0.70947265625,-0.0713653564453125
1774473192687483600,1.458483642578125,-0.739166259765625,-0.7059326171875,-0.05816650390625
1774473192697503500,1.46850341796875,-0.7210235595703125,-0.7071533203125,-0.03228759765625
1774473192707523600,1.478523681640625,-0.7278594970703125,-0.7055511474609375,-0.013214111328125
1774473192717543400,1.48854345703125,-0.74383544921875,-0.68670654296875,-0.011444091796875
1774473192727563300,1.498563232421875,-0.7585601806640625,-0.6853485107421875,0.0154876708984375
1774473192737583400,1.508583251953125,-0.762847900390625,-0.6751708984375,0.0337677001953125
1774473192747603500,1.518603515625,-0.753662109375,-0.6730804443359375,0.0437774658203125
1774473192757624300,1.528624267578125,-0.751068115234375,-0.665252685546875,0.0598297119140625
1774473192767644400,1.53864453125,-0.7609405517578125,-0.656951904296875,0.067291259765625
1774473192777664500,1.54866455078125,-0.77752685546875,-0.661285400390625,0.0561065673828125
1774473192787684400,1.558684326171875,-0.779296875,-0.6553802490234375,0.071807861328125
1774473192797704400,1.568704345703125,-0.74090576171875,-0.6289825439453125,0.10162353515625
1774473192807724500,1.578724609375,-0.68414306640625,-0.612640380859375,0.1323699951171875
1774473192817744400,1.588744384765625,-0.6397705078125,-0.636993408203125,0.14947509765625
1774473192827764500,1.598764404296875,-0.6087188720703125,-0.65216064453125,0.1521148681640625
1774473192837784600,1.60878466796875,-0.6031036376953125,-0.6742706298828125,0.1023406982421875
1774473192847804700,1.6188046875,-0.6264801025390625,-0.691925048828125,0.0591278076171875
1774473192857824500,1.628824462890625,-0.6864013671875,-0.6940460205078125,0.0293426513671875
1774473192867845600,1.638845703125,-0.7287750244140625,-0.6885986328125,0.058807373046875
1774473192877865500,1.648865478515625,-0.749420166015625,-0.615966796875,0.01556396484375
1774473192887885600,1.658885498046875,-0.732574462890625,-0.657562255859375,0.0295257568359375
1774473192897905400,1.668905517578125,-0.684661865234375,-0.735626220703125,0.024139404296875
1774473192907925200,1.67892529296875,-0.6925048828125,-0.715179443359375,-0.01409912109375
1774473192917945300,1.6889453125,-0.7312164306640625,-0.666839599609375,0.0195159912109375
1774473192927965400,1.69896533203125,-0.6781463623046875,-0.636688232421875,0.016632080078125
1774473192937985500,1.708985595703125,-0.70001220703125,-0.69671630859375,0.0078277587890625
1774473192948005400,1.71900537109375,-0.76470947265625,-0.7285003662109375,0.01495361328125
1774473192958025500,1.729025390625,-0.780609130859375,-0.7360992431640625,-0.000640869140625
1774473192968045600,1.739045654296875,-0.728668212890625,-0.59100341796875,-0.0543212890625
1774473192978066400,1.74906640625,-0.7356414794921875,-0.547454833984375,-0.0246734619140625
1774473192988086500,1.75908642578125,-0.7866058349609375,-0.585662841796875,-0.082611083984375
1774473192998106400,1.7691064453125,-0.825836181640625,-0.6115570068359375,-0.1505126953125
1774473193008126500,1.77912646484375,-0.889007568359375,-0.680633544921875,-0.1462249755859375
1774473193018146600,1.789146484375,-0.9532623291015625,-0.732086181640625,-0.100982666015625
1774473193028166700,1.799166748046875,-0.94281005859375,-0.7018890380859375,-0.0752410888671875
1774473193038186500,1.8091865234375,-0.9311065673828125,-0.6673126220703125,0.0025482177734375
1774473193048206600,1.81920654296875,-0.91094970703125,-0.653717041015625,0.1046600341796875
1774473193058226700,1.829226806640625,-0.9224395751953125,-0.6436614990234375,0.016998291015625
1774473193068246300,1.839246337890625,-0.9064788818359375,-0.569580078125,-0.0320892333984375
1774473193078266400,1.849266357421875,-0.8106231689453125,-0.46026611328125,0.1380462646484375
1774473193088287200,1.859287353515625,-0.7182464599609375,-0.52630615234375,0.40081787109375
1774473193098307300,1.869307373046875,-0.6138916015625,-0.6211700439453125,0.471893310546875
1774473193108327400,1.879327392578125,-0.5805816650390625,-0.640899658203125,0.406982421875
1774473193118347500,1.889347412109375,-0.6309051513671875,-0.634307861328125,0.38006591796875
1774473193128367400,1.899367431640625,-0.6939239501953125,-0.616485595703125,0.326751708984375
1774473193138387500,1.909387451171875,-0.813385009765625,-0.6572723388671875,0.2112579345703125
1774473193148407600,1.919407470703125,-0.837799072265625,-0.7249755859375,0.1360626220703125
1774473193158427400,1.929427490234375,-0.7481536865234375,-0.717041015625,0.1297149658203125
1774473193168447500,1.939447509765625,-0.671173095703125,-0.681243896484375,0.172210693359375
1774473193178467600,1.949467529296875,-0.63372802734375,-0.6726226806640625,0.209136962890625
1774473193188488400,1.959488525390625,-0.5908355712890625,-0.6671142578125,0.20562744140625
1774473193198508500,1.969508544921875,-0.576934814453125,-0.6797332763671875,0.185150146484375
1774473193208528600,1.979528564453125,-0.5753936767578125,-0.702117919921875,0.148345947265625
1774473193218548500,1.989548583984375,-0.5486907958984375,-0.722381591796875,0.114288330078125
1774473193228568600,1.999568603515625,-0.5418853759765625,-0.7545013427734375,0.105987548828125
1774473193238588700,2.009588623046875,-0.5291595458984375,-0.7790679931640625,0.0933837890625
1774473193248608300,2.019608154296875,-0.5125732421875,-0.7985382080078125,0.0633697509765625
1774473193258628400,2.02962841796875,-0.516937255859375,-0.79461669921875,0.026275634765625
1774473193268648400,2.0396484375,-0.5505218505859375,-0.78790283203125,-0.00262451171875
1774473193278668300,2.049668212890625,-0.591461181640625,-0.8008575439453125,-0.0171661376953125
1774473193288688400,2.0596884765625,-0.6495819091796875,-0.8114166259765625,-0.0181121826171875
1774473193298709500,2.06970947265625,-0.6976318359375,-0.812652587890625,-0.024658203125
1774473193308729300,2.079729248046875,-0.68963623046875,-0.8021697998046875,-0.03057861328125
1774473193318749400,2.08974951171875,-0.62481689453125,-0.799713134765625,0.0016632080078125
1774473193328769500,2.09976953125,-0.57855224609375,-0.7957763671875,0.030517578125
1774473193338789400,2.109789306640625,-0.56414794921875,-0.7757415771484375,0.036407470703125
1774473193348809500,2.1198095703125,-0.5750579833984375,-0.767730712890625,0.05950927734375
1774473193358829600,2.12982958984375,-0.574493408203125,-0.7611236572265625,0.0612030029296875
1774473193368849400,2.139849365234375,-0.5782012939453125,-0.7657623291015625,0.067474365234375
1774473193378869500,2.149869384765625,-0.600555419921875,-0.777923583984375,0.05712890625
1774473193388889600,2.1598896484375,-0.6100311279296875,-0.7887420654296875,0.040435791015625
1774473193398910500,2.169910400390625,-0.620635986328125,-0.7836456298828125,0.0402069091796875
1774473193408930600,2.1799306640625,-0.6234130859375,-0.77471923828125,0.064239501953125
1774473193418950700,2.18995068359375,-0.6346282958984375,-0.7651519775390625,0.07958984375
1774473193428970500,2.199970458984375,-0.627044677734375,-0.7581787109375,0.086944580078125
1774473193438990300,2.209990234375,-0.6234588623046875,-0.7459716796875,0.0829925537109375
1774473193449010400,2.220010498046875,-0.639495849609375,-0.7397613525390625,0.0803680419921875
1774473193459030300,2.2300302734375,-0.6547393798828125,-0.743621826171875,0.08905029296875
1774473193469050600,2.240050537109375,-0.66796875,-0.7301788330078125,0.0901336669921875
1774473193479070700,2.25007080078125,-0.677215576171875,-0.723602294921875,0.0985107421875
1774473193489090600,2.260090576171875,-0.691802978515625,-0.7278289794921875,0.0890350341796875
1774473193499110700,2.270110595703125,-0.699737548828125,-0.719085693359375,0.0689544677734375
1774473193509131800,2.2801318359375,-0.6978607177734375,-0.7174072265625,0.0666656494140625
1774473193519151600,2.290151611328125,-0.6910247802734375,-0.7173919677734375,0.077423095703125
1774473193529171700,2.300171630859375,-0.6864776611328125,-0.7024688720703125,0.080535888671875
1774473193539191600,2.310191650390625,-0.6656494140625,-0.696624755859375,0.0915985107421875
1774473193549211400,2.32021142578125,-0.6457061767578125,-0.68896484375,0.09613037109375
1774473193559231500,2.3302314453125,-0.6577911376953125,-0.691375732421875,0.095184326171875
1774473193569251600,2.34025146484375,-0.6916656494140625,-0.69317626953125,0.099273681640625
1774473193579271700,2.350271728515625,-0.7303924560546875,-0.683929443359375,0.0918121337890625
1774473193589291500,2.36029150390625,-0.7732696533203125,-0.6818084716796875,0.07806396484375
1774473193599311600,2.3703115234375,-0.806488037109375,-0.6862030029296875,0.0835723876953125
1774473193609332500,2.38033251953125,-0.7857818603515625,-0.6810760498046875,0.097869873046875
1774473193619352600,2.3903525390625,-0.7322845458984375,-0.67498779296875,0.099151611328125
1774473193629372700,2.40037255859375,-0.701080322265625,-0.681243896484375,0.0897979736328125
1774473193639392500,2.410392578125,-0.683013916015625,-0.684600830078125,0.096893310546875
1774473193649412600,2.42041259765625,-0.6285247802734375,-0.67791748046875,0.099700927734375
1774473193659432700,2.4304326171875,-0.5881195068359375,-0.6614532470703125,0.112823486328125
1774473193669452500,2.44045263671875,-0.6126708984375,-0.6818084716796875,0.1569366455078125
1774473193679472600,2.45047265625,-0.668212890625,-0.661102294921875,0.1586151123046875
1774473193689492700,2.46049267578125,-0.721435546875,-0.6602935791015625,0.1736907958984375
1774473193699512600,2.4705126953125,-0.7481536865234375,-0.636474609375,0.1657867431640625
1774473193709533700,2.48053369140625,-0.7576904296875,-0.614593505859375,0.1609649658203125
1774473193719553800,2.4905537109375,-0.7609405517578125,-0.6410980224609375,0.155517578125
1774473193729573400,2.500573486328125,-0.770111083984375,-0.64019775390625,0.1144561767578125
1774473193739593500,2.510593505859375,-0.8196563720703125,-0.63970947265625,0.175628662109375
1774473193749613600,2.520613525390625,-0.842010498046875,-0.6166839599609375,0.279815673828125
1774473193759633700,2.530633544921875,-0.8380126953125,-0.6231536865234375,0.2038116455078125
1774473193769653500,2.540653564453125,-0.844879150390625,-0.56427001953125,0.16357421875
1774473193779673600,2.550673583984375,-0.877227783203125,-0.58074951171875,0.16400146484375
1774473193789693700,2.560693603515625,-0.8974151611328125,-0.6198272705078125,0.16131591796875
1774473193799714600,2.570714599609375,-0.924896240234375,-0.6292572021484375,0.1199188232421875
1774473193809734700,2.580734619140625,-0.899993896484375,-0.616607666015625,0.105133056640625
1774473193819754500,2.59075439453125,-0.807861328125,-0.64483642578125,0.2134552001953125
1774473193829774600,2.600774658203125,-0.629669189453125,-0.694610595703125,0.135833740234375
1774473193839794700,2.610794677734375,-0.564788818359375,-0.704010009765625,-0.05841064453125
1774473193849814500,2.620814453125,-0.53375244140625,-0.7801513671875,-0.2582550048828125
1774473193859834600,2.630834716796875,-0.4893341064453125,-0.9191131591796875,-0.1898040771484375
1774473193869854700,2.640854736328125,-0.55511474609375,-0.91357421875,-0.139556884765625
1774473193879874800,2.650874755859375,-0.70953369140625,-0.9036102294921875,-0.1445465087890625
1774473193889894400,2.660894287109375,-0.8261260986328125,-0.9317169189453125,-0.0839385986328125
1774473193899915800,2.670915771484375,-0.8533477783203125,-0.8472900390625,-0.001434326171875
1774473193909935400,2.680935302734375,-0.8567962646484375,-0.8050079345703125,0.0527496337890625
1774473193919955500,2.69095556640625,-0.8340606689453125,-0.7820587158203125,0.086273193359375
1774473193929975600,2.7009755859375,-0.7286376953125,-0.747589111328125,0.0796661376953125
1774473193939995600,2.71099560546875,-0.5843048095703125,-0.755828857421875,0.068450927734375
1774473193950015500,2.721015380859375,-0.4771881103515625,-0.781219482421875,-0.0377960205078125
1774473193960035600,2.73103564453125,-0.4046783447265625,-0.8144378662109375,-0.091217041015625
1774473193970055700,2.7410556640625,-0.3667144775390625,-0.792083740234375,-0.1456451416015625
1774473193980075500,2.751075439453125,-0.4193878173828125,-0.7790679931640625,-0.1855316162109375
1774473193990096600,2.7610966796875,-0.4893951416015625,-0.8463287353515625,-0.1862335205078125
1774473194000116500,2.771116455078125,-0.516571044921875,-0.88665771484375,-0.194183349609375
1774473194010136600,2.781136474609375,-0.5337677001953125,-0.9160919189453125,-0.17523193359375
1774473194020156700,2.79115673828125,-0.53948974609375,-0.9256591796875,-0.141204833984375
1774473194030176500,2.801176513671875,-0.53778076171875,-0.9122161865234375,-0.1450347900390625
1774473194040196600,2.811196533203125,-0.5861053466796875,-0.870147705078125,-0.0948486328125
1774473194050216700,2.821216796875,-0.6122894287109375,-0.849578857421875,0.034912109375
1774473194060236800,2.83123681640625,-0.6610260009765625,-0.884368896484375,0.131134033203125
1774473194070256600,2.841256591796875,-0.718597412109375,-0.8574676513671875,0.1697845458984375
1774473194080277800,2.85127783203125,-0.713958740234375,-0.8401947021484375,0.2279205322265625
1774473194090297600,2.861297607421875,-0.69305419921875,-0.795166015625,0.2678070068359375
1774473194100317400,2.8713173828125,-0.71826171875,-0.7832489013671875,0.2754364013671875
1774473194110337500,2.881337646484375,-0.7458038330078125,-0.7968597412109375,0.2683563232421875
1774473194120357600,2.891357666015625,-0.7458648681640625,-0.7821502685546875,0.2686767578125
1774473194130377500,2.90137744140625,-0.703033447265625,-0.767669677734375,0.283660888671875
1774473194140397600,2.9113974609375,-0.63189697265625,-0.756683349609375,0.28302001953125
1774473194150417700,2.921417724609375,-0.5844573974609375,-0.769805908203125,0.254669189453125
1774473194160438500,2.9314384765625,-0.565032958984375,-0.7642364501953125,0.2112884521484375
1774473194170458600,2.941458740234375,-0.5528106689453125,-0.769012451171875,0.160186767578125
1774473194180478500,2.951478515625,-0.538299560546875,-0.71575927734375,0.2095184326171875
1774473194190498600,2.96149853515625,-0.4964752197265625,-0.635467529296875,0.3272552490234375
1774473194200518700,2.9715185546875,-0.432373046875,-0.538726806640625,0.4252777099609375
1774473194210538800,2.981538818359375,-0.446441650390625,-0.45928955078125,0.4820098876953125
1774473194220558600,2.99155859375,-0.5333709716796875,-0.62451171875,0.3366241455078125
1774473194230578700,3.00157861328125,-0.5789031982421875,-0.7111968994140625,0.189971923828125
1774473194240598800,3.011598876953125,-0.5285186767578125,-0.689788818359375,0.17822265625
1774473194250619600,3.02161962890625,-0.47857666015625,-0.6585540771484375,0.195159912109375
1774473194260639700,3.0316396484375,-0.510345458984375,-0.558135986328125,0.1931610107421875
1774473194270659600,3.04165966796875,-0.5092315673828125,-0.5093994140625,0.2600250244140625
1774473194280679700,3.0516796875,-0.5620880126953125,-0.4799652099609375,0.329315185546875
1774473194290699500,3.061699462890625,-0.6309661865234375,-0.42120361328125,0.37548828125
1774473194300719600,3.0717197265625,-0.63726806640625,-0.3543701171875,0.4502410888671875
1774473194310739500,3.081739501953125,-0.718292236328125,-0.3087615966796875,0.5111541748046875
1774473194320759600,3.091759521484375,-0.86444091796875,-0.300140380859375,0.4718475341796875
1774473194330780400,3.101780517578125,-0.8381805419921875,-0.346832275390625,0.4556884765625
1774473194340800500,3.111800537109375,-0.7267608642578125,-0.4213714599609375,0.42095947265625
1774473194350820600,3.121820556640625,-0.5605316162109375,-0.54193115234375,0.2864990234375
1774473194360840400,3.13184033203125,-0.5085906982421875,-0.6535491943359375,0.1711883544921875
1774473194370860500,3.141860595703125,-0.5213165283203125,-0.883270263671875,0.062652587890625
1774473194380880600,3.151880615234375,-0.45989990234375,-1.2569122314453125,-0.317535400390625
1774473194390900700,3.161900634765625,-0.0825653076171875,-1.4764556884765625,-0.7709808349609375
1774473194400920600,3.171920654296875,-0.2529449462890625,-1.4140777587890625,-0.555908203125
1774473194410941700,3.181941650390625,-0.5018157958984375,-1.1695404052734375,0.0264739990234375
1774473194420961500,3.19196142578125,-0.569671630859375,-0.8961944580078125,0.251434326171875
1774473194430981600,3.201981689453125,-0.63018798828125,-0.864166259765625,0.2817230224609375
1774473194441001700,3.212001708984375,-0.9344329833984375,-0.7648162841796875,0.2916107177734375
1774473194451021600,3.222021484375,-0.8635711669921875,-0.72064208984375,0.408233642578125
1774473194461041700,3.232041748046875,-0.811859130859375,-0.698455810546875,0.4975128173828125
1774473194471061000,3.24206103515625,-0.59283447265625,-0.739990234375,0.5527496337890625
1774473194481081000,3.2520810546875,-0.3680877685546875,-0.7900390625,0.3574371337890625
1774473194491101000,3.262100830078125,-0.305023193359375,-0.85418701171875,0.1432037353515625
1774473194501122000,3.2721220703125,-0.3189849853515625,-0.9647369384765625,0.0052337646484375
1774473194511142000,3.282141845703125,-0.508331298828125,-0.9065093994140625,-0.0405120849609375
1774473194521162000,3.292161865234375,-0.6044158935546875,-0.76092529296875,0.119659423828125
1774473194531182000,3.30218212890625,-0.5672760009765625,-0.6827850341796875,0.17279052734375
1774473194541202200,3.3122021484375,-0.6110992431640625,-0.65106201171875,0.131378173828125
1774473194551222000,3.322221923828125,-0.6690673828125,-0.6605987548828125,0.0821380615234375
1774473194561242000,3.3322421875,-0.677093505859375,-0.7159576416015625,0.061767578125
1774473194571263000,3.342262939453125,-0.638214111328125,-0.7634124755859375,0.0319976806640625
1774473194581283000,3.352282958984375,-0.6712646484375,-0.7580108642578125,0.0074310302734375
1774473194591303200,3.36230322265625,-0.732666015625,-0.74920654296875,0.0501708984375
1774473194601323000,3.372322998046875,-0.7430572509765625,-0.7853546142578125,0.0513763427734375
1774473194611343000,3.382343017578125,-0.73431396484375,-0.77886962890625,0.0128326416015625
1774473194621363200,3.39236328125,-0.6740570068359375,-0.766021728515625,-0.008544921875
1774473194631383300,3.40238330078125,-0.632843017578125,-0.7954254150390625,-0.104705810546875
1774473194641403100,3.412403076171875,-0.6178131103515625,-0.7761688232421875,-0.2119293212890625
1774473194651423000,3.422423095703125,-0.6921539306640625,-0.75323486328125,-0.23284912109375
1774473194661444000,3.432444091796875,-0.8508453369140625,-0.710906982421875,-0.1852569580078125
1774473194671464200,3.442464111328125,-0.866790771484375,-0.6927032470703125,-0.091094970703125
1774473194681484000,3.452484130859375,-0.9275360107421875,-0.527252197265625,-0.0155487060546875
1774473194691504000,3.462504150390625,-0.971160888671875,-0.3810882568359375,0.17156982421875
1774473194701524000,3.47252392578125,-1.0305938720703125,-0.310760498046875,0.3272705078125
1774473194711544000,3.4825439453125,-1.0543212890625,-0.28094482421875,0.36895751953125
1774473194721564200,3.492564208984375,-1.0448760986328125,-0.2602386474609375,0.3793487548828125
1774473194731584000,3.502583984375,-1.0274200439453125,-0.2018280029296875,0.411224365234375
1774473194741605000,3.512605224609375,-1.02752685546875,-0.13946533203125,0.47296142578125
1774473194751625000,3.522625,-1.0705718994140625,-0.09759521484375,0.5880889892578125
1774473194761645000,3.53264501953125,-1.1251068115234375,-0.0252227783203125,0.8170013427734375
1774473194771665200,3.5426650390625,-1.12066650390625,0.0819549560546875,0.9724884033203125
1774473194781685000,3.55268505859375,-1.07403564453125,0.1448211669921875,0.9809722900390625
1774473194791705000,3.562705078125,-1.0040130615234375,-0.057220458984375,0.792633056640625
1774473194801725200,3.57272509765625,-1.025970458984375,-0.260833740234375,0.5816497802734375
1774473194811745300,3.582745361328125,-1.012298583984375,-0.2971038818359375,0.5054168701171875
1774473194821765000,3.59276513671875,-0.8965911865234375,-0.272796630859375,0.4308929443359375
1774473194831786200,3.6027861328125,-0.7767333984375,-0.2166595458984375,0.4136505126953125
1774473194841806000,3.61280615234375,-0.6554412841796875,-0.2002410888671875,0.4550933837890625
1774473194851826200,3.622826171875,-0.5615692138671875,-0.183135986328125,0.4660186767578125
1774473194861846300,3.63284619140625,-0.520355224609375,-0.186279296875,0.3710784912109375
1774473194871866000,3.6428662109375,-0.5691070556640625,-0.1860504150390625,0.3252410888671875
1774473194881886000,3.652885986328125,-0.6941680908203125,-0.193389892578125,0.3472442626953125
1774473194891906000,3.662906005859375,-0.8030242919921875,-0.2098541259765625,0.3034820556640625
1774473194901927000,3.672927001953125,-0.822601318359375,-0.28741455078125,0.230255126953125
1774473194911947000,3.682947021484375,-0.7684783935546875,-0.4651641845703125,0.0630340576171875
1774473194921967000,3.692967041015625,-0.74560546875,-0.630462646484375,-0.0683441162109375
1774473194931987000,3.702987060546875,-0.92877197265625,-0.67034912109375,0.0046539306640625
1774473194942007000,3.713007080078125,-0.955780029296875,-0.6370391845703125,0.089019775390625
1774473194952027100,3.723027099609375,-0.6887054443359375,-0.805999755859375,-0.013397216796875
1774473194962047000,3.733046875,-0.78472900390625,-0.7494659423828125,0.100921630859375
1774473194972067000,3.743067138671875,-0.766326904296875,-0.8563690185546875,0.1632080078125
1774473194982087200,3.753087158203125,-0.7861480712890625,-0.8000030517578125,0.11083984375
1774473194992108000,3.76310791015625,-0.6596832275390625,-0.7381439208984375,0.1773223876953125
1774473195002128100,3.773128173828125,-0.76678466796875,-0.602874755859375,0.3538360595703125
1774473195012148200,3.783148193359375,-0.76190185546875,-0.5751800537109375,0.35699462890625
1774473195022168000,3.79316796875,-0.7750244140625,-0.569793701171875,0.2835235595703125
1774473195032188200,3.803188232421875,-0.7902984619140625,-0.5234832763671875,0.28778076171875
1774473195042208300,3.813208251953125,-0.828460693359375,-0.4992828369140625,0.2802734375
1774473195052228000,3.82322802734375,-0.895965576171875,-0.504364013671875,0.243499755859375
1774473195062248000,3.833248046875,-0.9745635986328125,-0.5327911376953125,0.1939849853515625
1774473195072269300,3.843269287109375,-1.0695037841796875,-0.4944305419921875,0.1445465087890625
1774473195082289000,3.853288818359375,-1.0502777099609375,-0.513916015625,0.12451171875
1774473195092309000,3.86330908203125,-1.085540771484375,-0.501922607421875,0.1063079833984375
1774473195102329000,3.8733291015625,-1.0997161865234375,-0.5344085693359375,0.133697509765625
1774473195112349000,3.883348876953125,-1.117584228515625,-0.5645294189453125,0.153411865234375
1774473195122369000,3.893369140625,-1.149993896484375,-0.46832275390625,0.108123779296875
1774473195132389000,3.90338916015625,-1.07110595703125,-0.4638214111328125,0.116851806640625
1774473195142409000,3.913408935546875,-0.9849090576171875,-0.45709228515625,0.1527557373046875
1774473195152430000,3.92343017578125,-0.898712158203125,-0.3278656005859375,0.2257232666015625
1774473195162450200,3.9334501953125,-0.8428497314453125,-0.2678375244140625,0.3072052001953125
1774473195172470000,3.943469970703125,-0.9029388427734375,-0.2070770263671875,0.3166351318359375
1774473195182490000,3.953489990234375,-0.9527587890625,-0.19573974609375,0.3412628173828125
1774473195192510200,3.96351025390625,-0.9581298828125,-0.2477874755859375,0.331298828125
1774473195202530000,3.973530029296875,-0.9058380126953125,-0.37689208984375,0.1277618408203125
1774473195212550100,3.983550048828125,-0.888824462890625,-0.427276611328125,-0.052734375
1774473195222570200,3.9935703125,-0.846527099609375,-0.4315338134765625,-0.051544189453125
1774473195232591000,4.003591064453125,-0.8621826171875,-0.4327545166015625,0.0016937255859375
1774473195242611200,4.013611083984375,-0.8636016845703125,-0.42864990234375,0.017578125
1774473195252631300,4.02363134765625,-0.8504791259765625,-0.385498046875,0.0086212158203125
1774473195262651100,4.033651123046875,-0.82928466796875,-0.3550262451171875,0.0342254638671875
1774473195272671000,4.0436708984375,-0.8369598388671875,-0.4183349609375,0.054229736328125
1774473195282691000,4.053691162109375,-0.8624114990234375,-0.465301513671875,0.0880126953125
1774473195292711000,4.0637109375,-0.852447509765625,-0.46502685546875,0.1104736328125
1774473195302731000,4.07373095703125,-0.842315673828125,-0.4666595458984375,0.15509033203125
1774473195312752000,4.083752197265625,-0.836181640625,-0.47265625,0.2736968994140625
1774473195322772000,4.09377197265625,-0.8827667236328125,-0.4486846923828125,0.33148193359375
1774473195332792000,4.1037919921875,-0.9203338623046875,-0.4385528564453125,0.3140106201171875
1774473195342812200,4.113812255859375,-0.948822021484375,-0.4487457275390625,0.224029541015625
1774473195352832000,4.12383203125,-0.925048828125,-0.476409912109375,0.173309326171875
1774473195362852000,4.13385205078125,-0.8891448974609375,-0.4586639404296875,0.1108551025390625
1774473195372872200,4.1438720703125,-0.8881378173828125,-0.438690185546875,0.0388336181640625
1774473195382893000,4.15389306640625,-0.872344970703125,-0.410003662109375,-0.0602874755859375
1774473195392913200,4.1639130859375,-0.8253173828125,-0.482421875,-0.09759521484375
1774473195402933200,4.173933349609375,-0.810821533203125,-0.5695037841796875,0.0389404296875
1774473195412953000,4.183953125,-0.7846221923828125,-0.4815826416015625,0.03448486328125
1774473195422973200,4.19397314453125,-0.764739990234375,-0.39581298828125,-0.1006011962890625
1774473195432993300,4.2039931640625,-0.8256683349609375,-0.285888671875,-0.228515625
1774473195443013000,4.21401318359375,-0.8791046142578125,-0.1740875244140625,-0.305206298828125
1774473195453033200,4.224033203125,-0.95428466796875,-0.1082916259765625,-0.37548828125
1774473195463054000,4.23405419921875,-1.0771636962890625,-0.0316009521484375,-0.3967132568359375
1774473195473074400,4.244074462890625,-1.1640472412109375,0.0189361572265625,-0.3913116455078125
1774473195483094500,4.254094482421875,-1.220733642578125,-0.0361785888671875,-0.4051361083984375
1774473195493114400,4.2641142578125,-1.2196044921875,-0.11029052734375,-0.4461212158203125
1774473195503134500,4.274134521484375,-1.108062744140625,-0.1595458984375,-0.4774932861328125
1774473195513154600,4.284154541015625,-1.053192138671875,-0.1072235107421875,-0.4918365478515625
1774473195523174400,4.29417431640625,-1.043182373046875,0.0194091796875,-0.533111572265625
1774473195533194500,4.304194580078125,-0.9809417724609375,0.073028564453125,-0.6229248046875
1774473195543215600,4.314215576171875,-0.8831939697265625,-0.0059661865234375,-0.657806396484375
1774473195553235500,4.3242353515625,-0.7713470458984375,-0.14202880859375,-0.5764007568359375
1774473195563255600,4.334255615234375,-0.7547760009765625,-0.1634674072265625,-0.5499420166015625
1774473195573275600,4.344275634765625,-0.691314697265625,-0.1367034912109375,-0.7084503173828125
1774473195583295500,4.35429541015625,-0.7396697998046875,-0.030487060546875,-0.749267578125
1774473195593315600,4.364315673828125,-0.74847412109375,-0.016204833984375,-0.8110809326171875
1774473195603335700,4.374335693359375,-0.7464599609375,-0.0762176513671875,-0.73126220703125
1774473195613356500,4.3843564453125,-0.846710205078125,-0.0543670654296875,-0.599578857421875
1774473195623376600,4.394376708984375,-0.91729736328125,-0.075958251953125,-0.5487060546875
1774473195633396700,4.404396728515625,-0.970611572265625,-0.1110076904296875,-0.5208740234375
1774473195643416300,4.414416259765625,-0.992706298828125,-0.1367950439453125,-0.4934234619140625
1774473195653436400,4.4244365234375,-1.0065460205078125,-0.0938568115234375,-0.3988494873046875
1774473195663456500,4.43445654296875,-1.0305328369140625,-0.0665283203125,-0.300628662109375
1774473195673476400,4.444476318359375,-1.042572021484375,-0.1275482177734375,-0.1949462890625
1774473195683496400,4.454496337890625,-1.0527496337890625,-0.2046356201171875,-0.0827484130859375
1774473195693517600,4.464517578125,-0.9650115966796875,-0.3110809326171875,0.035369873046875
1774473195703537400,4.474537353515625,-0.8712005615234375,-0.4081878662109375,0.1136474609375
1774473195713557500,4.4845576171875,-0.8022308349609375,-0.4840850830078125,0.1729888916015625
1774473195723577600,4.49457763671875,-0.74932861328125,-0.5745697021484375,0.236663818359375
1774473195733597400,4.504597412109375,-0.686859130859375,-0.657012939453125,0.3577423095703125
1774473195743617500,4.514617431640625,-0.669891357421875,-0.6616058349609375,0.4070281982421875
1774473195753637600,4.5246376953125,-0.7249908447265625,-0.6627655029296875,0.4272613525390625
1774473195763658500,4.534658447265625,-0.809295654296875,-0.650543212890625,0.382232666015625
1774473195773678600,4.5446787109375,-0.8218994140625,-0.656494140625,0.4053802490234375
1774473195783698400,4.554698486328125,-0.7889862060546875,-0.6417999267578125,0.48858642578125
1774473195793718500,4.564718505859375,-0.8383331298828125,-0.5671234130859375,0.4695587158203125
1774473195803738600,4.574738525390625,-0.856201171875,-0.5525054931640625,0.35595703125
1774473195813758700,4.5847587890625,-0.8377532958984375,-0.5472259521484375,0.2579803466796875
1774473195823778300,4.5947783203125,-0.824432373046875,-0.4878692626953125,0.18060302734375
1774473195833798400,4.60479833984375,-0.792633056640625,-0.4191436767578125,0.1323089599609375
1774473195843819500,4.614819580078125,-0.77154541015625,-0.3449859619140625,0.0050506591796875
1774473195853839400,4.62483935546875,-0.7854461669921875,-0.31585693359375,-0.1269989013671875
1774473195863859500,4.634859375,-0.8144378662109375,-0.3023529052734375,-0.206451416015625
1774473195873879600,4.644879638671875,-0.88446044921875,-0.2391815185546875,-0.29315185546875
1774473195883899400,4.6548994140625,-0.9265594482421875,-0.175567626953125,-0.4376373291015625
1774473195893919500,4.66491943359375,-0.9529876708984375,-0.1420745849609375,-0.5303192138671875
1774473195903939600,4.674939697265625,-0.98040771484375,-0.1007080078125,-0.624786376953125
1774473195913960400,4.68496044921875,-0.99554443359375,-0.1044464111328125,-0.6938934326171875
1774473195923980500,4.69498046875,-1.0366058349609375,-0.11236572265625,-0.7541351318359375
1774473195934000400,4.70500048828125,-1.045562744140625,-0.0760650634765625,-0.7885589599609375
1774473195944020500,4.7150205078125,-1.03662109375,-0.0613555908203125,-0.7253265380859375
1774473195954040600,4.72504052734375,-1.012451171875,-0.05224609375,-0.649871826171875
1774473195964060700,4.735060791015625,-0.9845733642578125,-0.0655364990234375,-0.552886962890625
1774473195974080500,4.74508056640625,-0.9736480712890625,-0.163543701171875,-0.47259521484375
1774473195984101600,4.7551015625,-0.985260009765625,-0.21124267578125,-0.424407958984375
1774473195994121500,4.76512158203125,-0.9774017333984375,-0.19921875,-0.41876220703125
1774473196004141600,4.7751416015625,-0.9427947998046875,-0.23675537109375,-0.3942413330078125
1774473196014161700,4.78516162109375,-0.923980712890625,-0.35076904296875,-0.2863922119140625
1774473196024181500,4.795181396484375,-0.9132080078125,-0.4145660400390625,-0.2208099365234375
1774473196034201600,4.80520166015625,-0.8616180419921875,-0.5254058837890625,-0.075592041015625
1774473196044221400,4.815221435546875,-0.7550201416015625,-0.5565643310546875,-0.0090484619140625
1774473196054242600,4.82524267578125,-0.616790771484375,-0.475982666015625,-0.15863037109375
1774473196064262400,4.835262451171875,-0.4935302734375,-0.365264892578125,-0.3571624755859375
1774473196074282500,4.845282470703125,-0.7285003662109375,-0.472320556640625,-0.289398193359375
1774473196084302300,4.85530224609375,-0.7117919921875,-0.545867919921875,-0.256866455078125
1774473196094322400,4.865322509765625,-0.63934326171875,-0.5302886962890625,-0.15643310546875
1774473196104342500,4.875342529296875,-0.517608642578125,-0.51348876953125,-0.1709442138671875
1774473196114362400,4.8853623046875,-0.4139862060546875,-0.5008697509765625,-0.1955718994140625
1774473196124383500,4.895383544921875,-0.4564361572265625,-0.5046234130859375,-0.19146728515625
1774473196134403600,4.905403564453125,-0.5593719482421875,-0.507904052734375,-0.154083251953125
1774473196144423400,4.91542333984375,-0.6368865966796875,-0.4567413330078125,-0.197174072265625
1774473196154443500,4.925443603515625,-0.66119384765625,-0.3945159912109375,-0.308807373046875
1774473196164463600,4.935463623046875,-0.6328125,-0.298126220703125,-0.380401611328125
1774473196174483500,4.9454833984375,-0.6180572509765625,-0.211883544921875,-0.3874359130859375
1774473196184503600,4.955503662109375,-0.8183746337890625,-0.2751312255859375,-0.15240478515625
1774473196194524400,4.9655244140625,-1.148773193359375,-0.5855865478515625,0.2108154296875
1774473196204544500,4.97554443359375,-1.04632568359375,-0.7515869140625,0.2198028564453125
1774473196214564600,4.985564697265625,-0.959747314453125,-0.708953857421875,0.358612060546875
1774473196224584700,4.995584716796875,-0.8841400146484375,-0.6759185791015625,0.229522705078125
1774473196234604500,5.0056044921875,-0.90057373046875,-0.6277618408203125,0.114044189453125
1774473196244624600,5.015624755859375,-0.9644317626953125,-0.496368408203125,-0.0307159423828125
1774473196254644500,5.02564453125,-0.963287353515625,-0.407928466796875,-0.1573944091796875
1774473196264665600,5.03566552734375,-0.897491455078125,-0.3485870361328125,-0.1585693359375
1774473196274685700,5.045685791015625,-0.7681884765625,-0.362884521484375,-0.2056121826171875
1774473196284705300,5.055705322265625,-0.881744384765625,-0.40875244140625,-0.1477813720703125
1774473196294725400,5.065725341796875,-1.06109619140625,-0.4462738037109375,-0.143829345703125
1774473196304745500,5.075745361328125,-1.2931671142578125,-0.4402618408203125,-0.1721038818359375
1774473196314765600,5.085765625,-1.548614501953125,-0.41937255859375,-0.23370361328125
1774473196324785400,5.095785400390625,-1.4000396728515625,-0.399627685546875,-0.3652496337890625
1774473196334806500,5.105806640625,-1.109039306640625,-0.3749847412109375,-0.38006591796875
1774473196344826400,5.115826416015625,-0.8592529296875,-0.34368896484375,-0.3634033203125
1774473196354846500,5.125846435546875,-0.730255126953125,-0.3060455322265625,-0.3521728515625
1774473196364866600,5.135866455078125,-0.7253875732421875,-0.3013153076171875,-0.325439453125
1774473196374886400,5.145886474609375,-0.7578887939453125,-0.2909088134765625,-0.29693603515625
1774473196384906500,5.155906494140625,-0.80322265625,-0.2964019775390625,-0.2528228759765625
1774473196394926600,5.165926513671875,-0.801666259765625,-0.3273773193359375,-0.2333984375
1774473196404947500,5.175947509765625,-0.7403717041015625,-0.343017578125,-0.278533935546875
1774473196414967600,5.185967529296875,-0.639801025390625,-0.2970123291015625,-0.2444000244140625
1774473196424987600,5.195987548828125,-0.65087890625,-0.30316162109375,-0.1885223388671875
1774473196435007500,5.206007568359375,-0.688507080078125,-0.318572998046875,-0.18939208984375
1774473196445027600,5.216027587890625,-0.6878204345703125,-0.30145263671875,-0.220733642578125
1774473196455047700,5.226047607421875,-0.5801544189453125,-0.2762908935546875,-0.3196868896484375
1774473196465068500,5.236068603515625,-0.64813232421875,-0.2588348388671875,-0.42315673828125
1774473196475088400,5.24608837890625,-0.7511749267578125,-0.227325439453125,-0.5430145263671875
1774473196485108500,5.2561083984375,-0.748748779296875,-0.14068603515625,-0.6678466796875
1774473196495128300,5.26612841796875,-0.7867889404296875,-0.1268157958984375,-0.6923065185546875
1774473196505148400,5.2761484375,-0.7716217041015625,-0.1926727294921875,-0.5932159423828125
1774473196515168500,5.28616845703125,-0.761322021484375,-0.1980438232421875,-0.67034912109375
1774473196525188400,5.296188232421875,-0.82000732421875,-0.1726531982421875,-0.750518798828125
1774473196535209500,5.30620947265625,-0.840362548828125,-0.157379150390625,-0.7162933349609375
1774473196545229300,5.316229248046875,-0.885528564453125,-0.1476593017578125,-0.7336883544921875
1774473196555249400,5.32624951171875,-0.8289947509765625,-0.1198577880859375,-0.753631591796875
1774473196565269200,5.336269287109375,-0.79730224609375,-0.103546142578125,-0.7975006103515625
1774473196575289300,5.346289306640625,-0.7892608642578125,-0.09423828125,-0.8282012939453125
1774473196585309200,5.35630908203125,-0.7650909423828125,-0.1147613525390625,-0.83251953125
1774473196595329300,5.366329345703125,-0.738433837890625,-0.125701904296875,-0.8535614013671875
1774473196605350100,5.37635009765625,-0.6767425537109375,-0.115692138671875,-0.82568359375
1774473196615370200,5.386370361328125,-0.619110107421875,-0.1031341552734375,-0.786285400390625
1774473196625390300,5.396390380859375,-0.6251068115234375,-0.1310577392578125,-0.8444366455078125
1774473196635410400,5.406410400390625,-0.6327972412109375,-0.1737823486328125,-0.9077911376953125
1774473196645430300,5.41643017578125,-0.6661834716796875,-0.1919708251953125,-0.824981689453125
1774473196655450400,5.426450439453125,-0.723419189453125,-0.19287109375,-0.6772003173828125
1774473196665471200,5.43647119140625,-0.6976165771484375,-0.1554718017578125,-0.6959075927734375
1774473196675491300,5.4464912109375,-0.6273193359375,-0.1529998779296875,-0.716796875
1774473196685511400,5.456511474609375,-0.54541015625,-0.18353271484375,-0.747161865234375
1774473196695531300,5.46653125,-0.51153564453125,-0.1699676513671875,-0.8107147216796875
1774473196705551400,5.47655126953125,-0.5256805419921875,-0.1363677978515625,-0.837005615234375
1774473196715571500,5.486571533203125,-0.581451416015625,-0.1146697998046875,-0.8096466064453125
1774473196725592300,5.49659228515625,-0.69342041015625,-0.1020965576171875,-0.80499267578125
1774473196735612400,5.5066123046875,-0.736785888671875,-0.0996551513671875,-0.7581939697265625
1774473196745632500,5.516632568359375,-0.685882568359375,-0.1348724365234375,-0.702423095703125
1774473196755652400,5.52665234375,-0.64739990234375,-0.1607208251953125,-0.6579742431640625
1774473196765672400,5.53667236328125,-0.6611480712890625,-0.1722869873046875,-0.65557861328125
1774473196775692300,5.5466923828125,-0.6897735595703125,-0.1668701171875,-0.7266082763671875
1774473196785712000,5.556712158203125,-0.6758575439453125,-0.1468048095703125,-0.8039703369140625
1774473196795733500,5.5667333984375,-0.6652984619140625,-0.1602325439453125,-0.829742431640625
1774473196805753300,5.57675341796875,-0.6754913330078125,-0.1271209716796875,-0.8197784423828125
1774473196815773200,5.586773193359375,-0.6807861328125,-0.0753021240234375,-0.795135498046875
1774473196825793300,5.596793212890625,-0.7191009521484375,-0.0048065185546875,-0.76129150390625
1774473196835813400,5.6068134765625,-0.693511962890625,-0.0466461181640625,-0.7035064697265625
1774473196845833200,5.616833251953125,-0.7142333984375,-0.111968994140625,-0.6783905029296875
1774473196855854300,5.626854248046875,-0.7459716796875,-0.1079254150390625,-0.7161865234375
1774473196865874200,5.636874267578125,-0.7137451171875,-0.0881805419921875,-0.7751617431640625
1774473196875894300,5.646894287109375,-0.6762237548828125,-0.13128662109375,-0.77264404296875
1774473196885914400,5.656914306640625,-0.6806640625,-0.13116455078125,-0.77532958984375
1774473196895934500,5.6669345703125,-0.6954193115234375,-0.0906982421875,-0.7882232666015625
1774473196905954300,5.676954345703125,-0.68707275390625,-0.0639495849609375,-0.817352294921875
1774473196915975400,5.686975341796875,-0.665863037109375,-0.1116485595703125,-0.788604736328125
1774473196925995300,5.696995361328125,-0.6741180419921875,-0.1547393798828125,-0.7459716796875
1774473196936015400,5.707015380859375,-0.6900177001953125,-0.102691650390625,-0.7536468505859375
1774473196946035500,5.717035400390625,-0.632568359375,-0.062530517578125,-0.796051025390625
1774473196956055300,5.72705517578125,-0.604522705078125,-0.089935302734375,-0.8107147216796875
1774473196966075400,5.737075439453125,-0.572418212890625,-0.0991058349609375,-0.851287841796875
1774473196976096500,5.747096435546875,-0.5627899169921875,-0.156494140625,-0.874755859375
1774473196986116400,5.757116455078125,-0.65350341796875,-0.1845245361328125,-0.9110870361328125
1774473196996136400,5.767136474609375,-0.6208038330078125,-0.1265716552734375,-0.8780670166015625
1774473197006156500,5.777156494140625,-0.4332122802734375,-0.0774993896484375,-0.8326873779296875
1774473197016176000,5.787176025390625,-0.269317626953125,-0.11090087890625,-0.826263427734375
1774473197026196200,5.7971962890625,-0.3108978271484375,-0.1370086669921875,-0.86553955078125
1774473197036217300,5.80721728515625,-0.33551025390625,-0.1003570556640625,-0.9461669921875
1774473197046237200,5.8172373046875,-0.39068603515625,-0.08111572265625,-0.94012451171875
1774473197056257300,5.82725732421875,-0.459930419921875,-0.0684967041015625,-0.94891357421875
1774473197066277400,5.83727734375,-0.4781494140625,-0.0694122314453125,-0.965484619140625
1774473197076297200,5.847297119140625,-0.4915008544921875,-0.1042633056640625,-0.9507904052734375
1774473197086317300,5.8573173828125,-0.5593414306640625,-0.16107177734375,-0.9443359375
1774473197096337400,5.86733740234375,-0.64453125,-0.21197509765625,-0.9344329833984375
1774473197106358300,5.877358154296875,-0.678436279296875,-0.2506103515625,-0.8729400634765625
1774473197116378400,5.88737841796875,-0.723480224609375,-0.258880615234375,-0.787567138671875
1774473197126398200,5.897398193359375,-0.696990966796875,-0.2562408447265625,-0.7268524169921875
1774473197136418300,5.907418212890625,-0.5356597900390625,-0.1851348876953125,-0.68170166015625
1774473197146438400,5.9174384765625,-0.70159912109375,-0.165557861328125,-0.5736846923828125
1774473197156458500,5.92745849609375,-0.6701507568359375,-0.2325897216796875,-0.6620025634765625
1774473197166479400,5.937479248046875,-0.5687103271484375,-0.230682373046875,-0.8944244384765625
1774473197176499500,5.94749951171875,-0.491424560546875,-0.194091796875,-0.9174652099609375
1774473197186519300,5.957519287109375,-0.435882568359375,-0.0859222412109375,-0.6905975341796875
1774473197196539400,5.967539306640625,-0.3354644775390625,0.08465576171875,-0.2757415771484375
1774473197206559500,5.9775595703125,-0.5343475341796875,-0.0344390869140625,-0.0897064208984375
1774473197216579300,5.987579345703125,-0.8386383056640625,-0.044036865234375,-0.101806640625
1774473197226600400,5.997600341796875,-1.0233154296875,-0.0665283203125,-0.248779296875
1774473197236620500,6.00762060546875,-1.029327392578125,-0.0147705078125,-0.4163665771484375
1774473197246640400,6.017640380859375,-0.972137451171875,0.053558349609375,-0.577301025390625
1774473197256660500,6.027660400390625,-0.920074462890625,0.0912933349609375,-0.628662109375
1774473197266680300,6.037680419921875,-1.00567626953125,0.0071258544921875,-0.5742034912109375
1774473197276700200,6.0477001953125,-1.19140625,-0.1187744140625,-0.3922882080078125
1774473197286721300,6.05772119140625,-1.1979217529296875,0.008331298828125,-0.2960205078125
1774473197296741000,6.0677412109375,-1.0950469970703125,-0.1228485107421875,-0.4730377197265625
1774473197306761200,6.07776123046875,-0.85247802734375,-0.0649566650390625,-0.5408477783203125
1774473197316781300,6.08778125,-0.849395751953125,0.1248321533203125,-0.49462890625
1774473197326801400,6.097801513671875,-0.7374114990234375,0.1968536376953125,-0.6143798828125
1774473197336822300,6.107822265625,-0.510986328125,0.142120361328125,-0.750335693359375
1774473197346842400,6.11784228515625,-0.698089599609375,0.0881805419921875,-0.608673095703125
1774473197356862200,6.1278623046875,-0.797698974609375,-0.0288543701171875,-0.5293731689453125
1774473197366882300,6.13788232421875,-0.7463226318359375,-0.07550048828125,-0.5345458984375
1774473197376902400,6.14790234375,-0.7166748046875,0.0150909423828125,-0.54730224609375
1774473197386922200,6.157922119140625,-0.79833984375,0.10943603515625,-0.6207275390625
1774473197396943400,6.167943359375,-0.8124847412109375,0.133758544921875,-0.5477294921875
1774473197406963500,6.17796337890625,-0.82373046875,0.1126251220703125,-0.468597412109375
1774473197416983300,6.1879833984375,-0.7822723388671875,0.073516845703125,-0.4808197021484375
1774473197427003400,6.19800341796875,-0.8291473388671875,-0.0116119384765625,-0.48529052734375
1774473197437023500,6.2080234375,-0.9234771728515625,-0.0022125244140625,-0.4531097412109375
1774473197447043300,6.218043212890625,-1.009796142578125,0.0203704833984375,-0.5605926513671875
1774473197457064400,6.228064453125,-0.9965362548828125,0.03765869140625,-0.573883056640625
1774473197467084300,6.238084228515625,-0.9300994873046875,0.0671539306640625,-0.539764404296875
1774473197477104400,6.2481044921875,-0.81536865234375,0.139251708984375,-0.488616943359375
1774473197487124500,6.25812451171875,-0.827972412109375,0.1700286865234375,-0.5042266845703125
1774473197497144600,6.26814453125,-0.85809326171875,0.1678009033203125,-0.5648651123046875
1774473197507164200,6.2781640625,-0.9047088623046875,0.211639404296875,-0.5267791748046875
1774473197517185500,6.288185546875,-0.936126708984375,0.2143707275390625,-0.5335235595703125
1774473197527205000,6.298205078125,-0.9181671142578125,0.1972503662109375,-0.5670166015625
1774473197537225200,6.30822509765625,-0.9542083740234375,0.2200927734375,-0.556915283203125
1774473197547245300,6.318245361328125,-0.9742584228515625,0.1506805419921875,-0.4800567626953125
1774473197557265400,6.328265380859375,-0.9653472900390625,0.14581298828125,-0.39703369140625
1774473197567285200,6.33828515625,-1.007843017578125,0.43548583984375,-0.3202667236328125
1774473197577306400,6.348306396484375,-0.925262451171875,0.273284912109375,-0.4777069091796875
1774473197587326200,6.358326171875,-0.8429107666015625,0.1976776123046875,-0.3501129150390625
1774473197597346300,6.36834619140625,-0.9195556640625,0.1808624267578125,-0.337982177734375
1774473197607366400,6.378366455078125,-1.0500335693359375,0.1829681396484375,-0.3022918701171875
1774473197617386200,6.38838623046875,-1.0460662841796875,0.1125946044921875,-0.41827392578125
1774473197627407400,6.398407470703125,-0.98046875,0.0230865478515625,-0.4706878662109375
1774473197637427500,6.408427490234375,-0.90740966796875,0.15972900390625,-0.414520263671875
1774473197647447300,6.418447265625,-0.906585693359375,0.272247314453125,-0.399322509765625
1774473197657467400,6.42846728515625,-0.826934814453125,0.289276123046875,-0.459991455078125
1774473197667487500,6.438487548828125,-0.75897216796875,0.301788330078125,-0.4222869873046875
1774473197677507300,6.44850732421875,-0.7541046142578125,0.44598388671875,-0.334625244140625
1774473197687528400,6.458528564453125,-0.7382354736328125,0.4687042236328125,-0.3328399658203125
1774473197697548300,6.46854833984375,-0.8025360107421875,0.3732147216796875,-0.345306396484375
1774473197707568400,6.478568359375,-0.8772125244140625,0.3670654296875,-0.35186767578125
1774473197720092400,6.491092529296875,-0.9913482666015625,0.270904541015625,-0.3686065673828125
1774473197730112300,6.5011123046875,-1.08563232421875,0.281036376953125,-0.3126983642578125
1774473197740133400,6.51113330078125,-0.99493408203125,0.2713165283203125,-0.229095458984375
1774473197750153200,6.5211533203125,-0.9867095947265625,0.318450927734375,-0.189971923828125
1774473197760173300,6.53117333984375,-0.933624267578125,0.2782135009765625,-0.427490234375
1774473197770193400,6.541193359375,-0.7154388427734375,0.137115478515625,-0.581207275390625
1774473197780213200,6.551213134765625,-0.5438079833984375,0.0532073974609375,-0.523040771484375
1774473197790233300,6.5612333984375,-0.6800689697265625,0.073577880859375,-0.3724365234375
1774473197800254500,6.57125439453125,-0.7517547607421875,0.0328826904296875,-0.390777587890625
1774473197810274300,6.5812744140625,-0.807098388671875,0.0938873291015625,-0.4681243896484375
1774473197820294400,6.59129443359375,-0.940399169921875,0.2079925537109375,-0.4934844970703125
1774473197830314500,6.601314453125,-1.0112457275390625,0.2708892822265625,-0.4694976806640625
1774473197840334300,6.611334228515625,-1.0265350341796875,0.3499603271484375,-0.4946441650390625
1774473197850355500,6.62135546875,-0.994384765625,0.3888397216796875,-0.574859619140625
1774473197860375300,6.631375244140625,-0.982879638671875,0.3700103759765625,-0.602142333984375
1774473197870395400,6.6413955078125,-0.9561309814453125,0.325164794921875,-0.615875244140625
1774473197880415500,6.65141552734375,-0.94915771484375,0.301666259765625,-0.5634002685546875
1774473197890435600,6.661435546875,-0.9373931884765625,0.29205322265625,-0.53936767578125
1774473197900455200,6.671455078125,-0.9069976806640625,0.3003082275390625,-0.486328125
1774473197910476500,6.6814765625,-0.9190521240234375,0.3043212890625,-0.46820068359375
1774473197920496000,6.69149609375,-0.8736724853515625,0.245697021484375,-0.498870849609375
1774473197930516200,6.70151611328125,-0.8892822265625,0.251861572265625,-0.474151611328125
1774473197940536300,6.711536376953125,-0.923675537109375,0.1977081298828125,-0.43658447265625
1774473197950556200,6.72155615234375,-0.970733642578125,0.14154052734375,-0.44476318359375
1774473197960577300,6.731577392578125,-0.9179840087890625,0.142730712890625,-0.463104248046875
1774473197970597400,6.741597412109375,-0.8898773193359375,0.094635009765625,-0.4662017822265625
1774473197980617200,6.7516171875,-0.8073577880859375,-0.0743255615234375,-0.4105377197265625
1774473197990637300,6.76163720703125,-0.8315887451171875,-0.1251220703125,-0.44525146484375
1774473198000657400,6.771657470703125,-0.78131103515625,-0.1830902099609375,-0.565093994140625
1774473198010677200,6.78167724609375,-0.9017791748046875,-0.1968994140625,-0.494171142578125
1774473198020698400,6.791698486328125,-0.980072021484375,-0.083740234375,-0.53399658203125
1774473198030718200,6.80171826171875,-0.913665771484375,0.0041351318359375,-0.7317657470703125
1774473198040738300,6.81173828125,-1.0146636962890625,0.03204345703125,-0.5872802734375
1774473198050758400,6.82175830078125,-0.9820404052734375,-0.00079345703125,-0.5713958740234375
1774473198060778500,6.831778564453125,-0.9779052734375,-0.0047454833984375,-0.487091064453125
1774473198070799400,6.84179931640625,-1.0173492431640625,0.003662109375,-0.4761810302734375
1774473198080819500,6.8518193359375,-0.972686767578125,0.012908935546875,-0.4904937744140625
1774473198090839300,6.86183935546875,-0.978179931640625,0.042327880859375,-0.478240966796875
1774473198100859400,6.871859375,-0.9471282958984375,0.0672760009765625,-0.426971435546875
1774473198110879500,6.88187939453125,-0.9896697998046875,0.197021484375,-0.3189544677734375
1774473198120900400,6.891900390625,-1.047576904296875,0.20751953125,-0.3408355712890625
1774473198130920400,6.90192041015625,-0.9649658203125,0.211334228515625,-0.2483367919921875
1774473198140940500,6.9119404296875,-0.9851837158203125,0.2529449462890625,-0.177001953125
1774473198150960400,6.92196044921875,-1.0398406982421875,0.228668212890625,-0.165252685546875
1774473198160980200,6.931980224609375,-0.9723052978515625,0.17974853515625,-0.0980072021484375
1774473198171001300,6.94200146484375,-0.90277099609375,0.122528076171875,-0.1291046142578125
1774473198181021400,6.952021484375,-0.885101318359375,0.0778656005859375,-0.177093505859375
1774473198191041300,6.962041259765625,-0.8885650634765625,0.043975830078125,-0.177978515625
1774473198201061400,6.972061279296875,-0.89013671875,0.2064056396484375,-0.102020263671875
1774473198211081200,6.982081298828125,-0.890106201171875,0.2067718505859375,0.0305938720703125
1774473198221102300,6.992102294921875,-0.8409271240234375,0.1690521240234375,0.0437469482421875
1774473198231122200,7.0021220703125,-0.8296356201171875,0.1547393798828125,0.0075836181640625
1774473198241142300,7.012142333984375,-0.8421630859375,0.171234130859375,-0.0131683349609375
1774473198251162400,7.022162353515625,-0.8510284423828125,0.1852569580078125,0.009765625
1774473198261182200,7.03218212890625,-0.8594207763671875,0.24688720703125,0.0525970458984375
1774473198271203300,7.042203369140625,-0.8367919921875,0.33087158203125,0.05352783203125
1774473198281223400,7.052223388671875,-0.8156890869140625,0.3751068115234375,0.0716400146484375
1774473198291243300,7.0622431640625,-0.774658203125,0.4326934814453125,0.0714569091796875
1774473198301263400,7.072263427734375,-0.7694549560546875,0.44873046875,0.0926971435546875
1774473198311283500,7.082283447265625,-0.7831573486328125,0.4601287841796875,0.10797119140625
1774473198321304300,7.09230419921875,-0.82708740234375,0.4236297607421875,0.0825653076171875
1774473198331324400,7.102324462890625,-0.8961944580078125,0.351226806640625,0.0469970703125
1774473198341344300,7.11234423828125,-0.883880615234375,0.3233184814453125,-0.0507659912109375
1774473198351364400,7.1223642578125,-0.89398193359375,0.26983642578125,-0.06536865234375
1774473198361384400,7.132384521484375,-0.9703521728515625,0.188079833984375,-0.0753326416015625
1774473198371405300,7.1424052734375,-1.0272674560546875,0.163116455078125,-0.0835113525390625
1774473198381425400,7.15242529296875,-1.0416107177734375,0.1172637939453125,-0.1047515869140625
1774473198391445500,7.162445556640625,-1.0039215087890625,0.1927337646484375,-0.1560821533203125
1774473198401465300,7.17246533203125,-0.9503631591796875,0.249786376953125,-0.1508941650390625
1774473198411485400,7.1824853515625,-0.9976654052734375,0.2887725830078125,-0.13323974609375
1774473198421506300,7.19250634765625,-1.0353240966796875,0.317840576171875,-0.137237548828125
1774473198431526400,7.2025263671875,-1.0474853515625,0.3537139892578125,-0.1513671875
1774473198441546500,7.21254638671875,-1.04296875,0.3262786865234375,-0.17938232421875
1774473198451566300,7.22256640625,-1.0297088623046875,0.2858428955078125,-0.239959716796875
1774473198461587500,7.23258740234375,-0.97979736328125,0.275146484375,-0.290679931640625
1774473198471607600,7.242607666015625,-0.9713287353515625,0.2903594970703125,-0.3161468505859375
1774473198481627400,7.25262744140625,-1.040435791015625,0.284423828125,-0.3099822998046875
1774473198491647500,7.2626474609375,-1.0690155029296875,0.3806610107421875,-0.285919189453125
1774473198501667600,7.27266748046875,-1.051177978515625,0.370452880859375,-0.2611083984375
1774473198511688400,7.2826884765625,-1.08538818359375,0.208404541015625,-0.298919677734375
1774473198521708500,7.29270849609375,-1.0993499755859375,0.236785888671875,-0.33538818359375
1774473198531728400,7.302728271484375,-0.9969635009765625,0.2811431884765625,-0.255889892578125
1774473198541748500,7.31274853515625,-0.8273162841796875,0.3069000244140625,-0.2708282470703125
1774473198551768600,7.3227685546875,-0.9937744140625,0.2484130859375,-0.33026123046875
1774473198561789400,7.33278955078125,-1.0173492431640625,0.243072509765625,-0.3112335205078125
1774473198571809500,7.3428095703125,-1.031707763671875,0.33428955078125,-0.3035888671875
1774473198581829600,7.35282958984375,-1.014892578125,0.3767242431640625,-0.2777557373046875
1774473198591849500,7.362849365234375,-0.9747314453125,0.4141387939453125,-0.287261962890625
1774473198601870600,7.37287060546875,-0.9714508056640625,0.42047119140625,-0.2874298095703125
1774473198611890400,7.382890380859375,-0.9874725341796875,0.396636962890625,-0.2891998291015625
1774473198621910500,7.39291064453125,-0.9821624755859375,0.3770751953125,-0.29376220703125
1774473198631930400,7.402930419921875,-0.9722442626953125,0.3703155517578125,-0.2861785888671875
1774473198641950500,7.412950439453125,-0.97760009765625,0.358551025390625,-0.25537109375
1774473198651971600,7.4229716796875,-0.9780426025390625,0.384429931640625,-0.2385406494140625
1774473198661991400,7.432991455078125,-0.9602508544921875,0.4308013916015625,-0.222137451171875
1774473198672011300,7.44301123046875,-0.9228973388671875,0.5442352294921875,-0.21124267578125
1774473198682031400,7.45303125,-0.838958740234375,0.66534423828125,-0.209564208984375
1774473198692052500,7.463052490234375,-0.774871826171875,0.640228271484375,-0.18011474609375
1774473198702072300,7.473072265625,-0.810302734375,0.5817413330078125,-0.157867431640625
1774473198712092400,7.483092529296875,-0.8238372802734375,0.618316650390625,-0.2062225341796875
1774473198722112500,7.493112548828125,-0.7935333251953125,0.649810791015625,-0.2513580322265625
1774473198732133400,7.50313330078125,-0.7618255615234375,0.6329498291015625,-0.260986328125
1774473198742153500,7.513153564453125,-0.743682861328125,0.5932769775390625,-0.228057861328125
1774473198752173300,7.52317333984375,-0.7290802001953125,0.4794158935546875,-0.15863037109375
1774473198762193400,7.533193359375,-0.708404541015625,0.3217926025390625,-0.11578369140625
1774473198772214500,7.543214599609375,-0.7050018310546875,0.2237091064453125,-0.1272125244140625
1774473198782234400,7.553234375,-0.7400970458984375,0.2024688720703125,-0.1324920654296875
1774473198792254500,7.56325439453125,-0.76519775390625,0.228515625,-0.1073455810546875
1774473198802274600,7.573274658203125,-0.833953857421875,0.2705841064453125,-0.113616943359375
1774473198812295400,7.58329541015625,-0.907073974609375,0.3162841796875,-0.15087890625
1774473198822315500,7.5933154296875,-0.90496826171875,0.372283935546875,-0.185821533203125
1774473198832335400,7.60333544921875,-0.8983154296875,0.4006500244140625,-0.2095794677734375
1774473198842355500,7.61335546875,-0.936126708984375,0.4443206787109375,-0.2061767578125
1774473198852375600,7.62337548828125,-0.922576904296875,0.50054931640625,-0.1914825439453125
1774473198862396400,7.633396484375,-0.8530731201171875,0.539764404296875,-0.20928955078125
1774473198872416500,7.64341650390625,-0.8213348388671875,0.560760498046875,-0.2052001953125
1774473198882436600,7.6534365234375,-0.82489013671875,0.545989990234375,-0.207427978515625
1774473198892456400,7.66345654296875,-0.857086181640625,0.5360565185546875,-0.2102203369140625
1774473198902477600,7.6734775390625,-0.9012451171875,0.531951904296875,-0.208160400390625
1774473198912497400,7.683497314453125,-0.9744720458984375,0.5,-0.208404541015625
1774473198922517500,7.693517578125,-0.995574951171875,0.4331817626953125,-0.2070770263671875
1774473198932537600,7.70353759765625,-0.9130859375,0.3451080322265625,-0.137115478515625
1774473198942558500,7.713558349609375,-0.977691650390625,0.3539886474609375,-0.1558685302734375
1774473198952578600,7.72357861328125,-1.0118560791015625,0.4198760986328125,-0.296356201171875
1774473198962598700,7.7335986328125,-0.92852783203125,0.4079742431640625,-0.41326904296875
1774473198972618500,7.743618408203125,-0.928863525390625,0.4107513427734375,-0.3350067138671875
1774473198982639600,7.7536396484375,-0.9901885986328125,0.424346923828125,-0.2490997314453125
1774473198992659500,7.763659423828125,-1.0340423583984375,0.420013427734375,-0.2135772705078125
1774473199002679600,7.773679443359375,-0.988250732421875,0.4832305908203125,-0.221832275390625
1774473199012699400,7.783699462890625,-0.882965087890625,0.5342559814453125,-0.233001708984375
1774473199022720500,7.793720458984375,-0.8901824951171875,0.5603179931640625,-0.2207489013671875
1774473199032740400,7.803740234375,-0.916168212890625,0.603515625,-0.1634674072265625
1774473199042760400,7.813760498046875,-0.8798980712890625,0.6481781005859375,-0.1115570068359375
1774473199052781600,7.823781494140625,-0.8852996826171875,0.6534423828125,-0.093017578125
1774473199062801400,7.833801513671875,-0.889434814453125,0.626434326171875,-0.027374267578125
1774473199072821500,7.843821533203125,-0.861663818359375,0.5701751708984375,-0.0292205810546875
1774473199082841300,7.85384130859375,-0.81695556640625,0.530426025390625,-0.0119171142578125
1774473199092862500,7.863862548828125,-0.799041748046875,0.5437164306640625,0.01806640625
1774473199102882300,7.87388232421875,-0.8079833984375,0.5644683837890625,-0.0396881103515625
1774473199112902400,7.88390234375,-0.8099365234375,0.5597381591796875,-0.0876312255859375
1774473199122922500,7.893922607421875,-0.8172607421875,0.5699920654296875,-0.0588226318359375
1774473199132943400,7.903943359375,-0.8329620361328125,0.55377197265625,-0.085418701171875
1774473199142963500,7.91396337890625,-0.9110565185546875,0.5346221923828125,-0.1001129150390625
1774473199152983600,7.923983642578125,-0.9118499755859375,0.4904632568359375,-0.1070556640625
1774473199163003400,7.93400341796875,-0.880889892578125,0.4527435302734375,-0.0963287353515625
1774473199173024500,7.9440244140625,-0.8516998291015625,0.4269256591796875,-0.0797271728515625
1774473199183044400,7.95404443359375,-0.8098602294921875,0.3855743408203125,-0.1422882080078125
1774473199193064400,7.964064453125,-0.7592315673828125,0.330322265625,-0.14068603515625
1774473199203085300,7.974085205078125,-0.71539306640625,0.3598785400390625,-0.0981597900390625
1774473199213105400,7.98410546875,-0.7355499267578125,0.420562744140625,-0.1990203857421875
1774473199223125500,7.99412548828125,-0.808258056640625,0.4439544677734375,-0.2217559814453125
1774473199233145600,8.0041455078125,-0.8277740478515625,0.434478759765625,-0.2109222412109375
1774473199243166500,8.01416650390625,-0.8126220703125,0.3966064453125,-0.2831268310546875
1774473199253186600,8.0241865234375,-0.7660980224609375,0.30047607421875,-0.2794036865234375
1774473199263206400,8.034206298828124,-0.944732666015625,0.303131103515625,-0.3271331787109375
1774473199273226500,8.0442265625,-0.937408447265625,0.33221435546875,-0.4070281982421875
1774473199283247400,8.054247314453125,-0.937103271484375,0.406524658203125,-0.3592071533203125
1774473199293267500,8.064267333984375,-0.9105377197265625,0.4070281982421875,-0.2778472900390625
1774473199303287600,8.07428759765625,-0.8808441162109375,0.3793792724609375,-0.226318359375
1774473199313308400,8.084308349609374,-0.9123992919921875,0.318756103515625,-0.25311279296875
1774473199323328500,8.09432861328125,-0.9183807373046875,0.3128662109375,-0.2362518310546875
1774473199333348600,8.1043486328125,-0.9171295166015625,0.3608245849609375,-0.233306884765625
1774473199343368400,8.114368408203125,-0.907073974609375,0.36334228515625,-0.2412872314453125
1774473199353389600,8.1243896484375,-0.864349365234375,0.354522705078125,-0.2668304443359375
1774473199363409400,8.134409423828124,-0.854156494140625,0.3958740234375,-0.272918701171875
1774473199373429500,8.144429443359375,-0.8756256103515625,0.385986328125,-0.2582550048828125
1774473199383449600,8.15444970703125,-0.8809814453125,0.3162384033203125,-0.1868438720703125
1774473199393470500,8.164470458984376,-0.9035186767578125,0.3336029052734375,-0.144256591796875
1774473199403490600,8.174490478515626,-0.8725738525390625,0.37469482421875,-0.135955810546875
1774473199413510700,8.1845107421875,-0.8480224609375,0.342681884765625,-0.1291656494140625
1774473199423531500,8.194531494140625,-0.8587188720703125,0.2950439453125,-0.0655364990234375
1774473199433551600,8.204551513671875,-0.8511199951171875,0.2801361083984375,-0.0431365966796875
1774473199443571500,8.214571533203125,-0.7861328125,0.35009765625,-0.02288818359375
1774473199453591600,8.224591552734376,-0.8059844970703125,0.4047698974609375,-0.0277099609375
1774473199463612700,8.23461279296875,-0.8419036865234375,0.45086669921875,0.0478973388671875
1774473199473632500,8.244632568359375,-0.86614990234375,0.4800872802734375,0.1578826904296875
1774473199483652000,8.254652099609375,-0.9150238037109375,0.5021820068359375,0.12255859375
1774473199493673000,8.2646728515625,-0.9853363037109375,0.4747161865234375,0.10345458984375
1774473199503693000,8.274693115234374,-0.9568939208984375,0.43743896484375,0.1491241455078125
1774473199513713200,8.284713134765624,-1.01611328125,0.42071533203125,0.1614837646484375
1774473199523733200,8.294733154296875,-1.092559814453125,0.396484375,0.1853179931640625
1774473199533754000,8.304754150390625,-1.0811004638671875,0.4072418212890625,0.1909027099609375
1774473199543774200,8.314774169921876,-1.04449462890625,0.4297637939453125,0.1612396240234375
1774473199553794000,8.3247939453125,-1.0290679931640625,0.41693115234375,0.1964111328125
1774473199563815200,8.334815185546875,-1.0095367431640625,0.425933837890625,0.2524871826171875
1774473199573835000,8.3448349609375,-1.0924072265625,0.32745361328125,0.122314453125
1774473199583855000,8.354855224609375,-1.1216583251953125,0.2809906005859375,0.2047119140625
1774473199593876200,8.364876220703126,-1.1165008544921875,0.256561279296875,0.208740234375
1774473199603896000,8.37489599609375,-1.0691375732421875,0.2228851318359375,0.178680419921875
1774473199613916200,8.384916259765625,-0.9984893798828125,0.203826904296875,0.1334075927734375
1774473199623936300,8.394936279296875,-1.0284271240234375,0.1597747802734375,0.0829925537109375
1774473199633957000,8.40495703125,-0.94586181640625,0.1382904052734375,0.11737060546875
1774473199643977200,8.414977294921876,-0.8547515869140625,0.20263671875,0.1022186279296875
1774473199653997000,8.4249970703125,-0.8892669677734375,0.206878662109375,0.1348724365234375
1774473199664018200,8.43501806640625,-0.8813018798828125,0.2052001953125,0.142913818359375
1774473199674038300,8.445038330078125,-0.906982421875,0.2471160888671875,0.1294708251953125
1774473199684058000,8.45505810546875,-0.94525146484375,0.2992095947265625,0.0801239013671875
1774473199694078200,8.465078125,-0.9230804443359375,0.281005859375,0.1614837646484375
1774473199704099000,8.47509912109375,-0.9956207275390625,0.230712890625,0.15814208984375
1774473199714119200,8.485119140625,-1.0340728759765625,0.3112030029296875,0.1360015869140625
1774473199724139000,8.495138916015625,-0.9313201904296875,0.45904541015625,0.157073974609375
1774473199734160100,8.50516015625,-0.91192626953125,0.419342041015625,0.1846160888671875
1774473199744180200,8.51518017578125,-0.9993896484375,0.2746734619140625,0.1714630126953125
1774473199754200000,8.525199951171874,-1.0464324951171875,0.1438140869140625,0.1774139404296875
1774473199764221200,8.53522119140625,-1.06353759765625,0.0946502685546875,0.181884765625
1774473199774241300,8.5452412109375,-0.990020751953125,0.0905914306640625,0.2019500732421875
1774473199784260900,8.5552607421875,-0.9769744873046875,0.1109771728515625,0.177337646484375
1774473199794281000,8.565281005859376,-1.0755462646484375,0.1401519775390625,0.169189453125
1774473199804302000,8.575302001953125,-1.181396484375,0.1590423583984375,0.1524505615234375
1774473199814322000,8.585322021484375,-1.0583648681640625,0.1536407470703125,0.09075927734375
1774473199824342000,8.595342041015625,-0.988983154296875,0.0915985107421875,0.0180511474609375
1774473199834363000,8.60536279296875,-1.0322265625,0.144622802734375,0.0039520263671875
1774473199844383000,8.615383056640624,-1.0208740234375,0.107086181640625,0.11944580078125
1774473199854403000,8.625403076171875,-0.9057464599609375,0.0457916259765625,0.14361572265625
1774473199864424000,8.635423828125,-0.9561614990234375,0.0402069091796875,0.093109130859375
1774473199874444000,8.645444091796875,-0.9876708984375,0.102203369140625,0.1163330078125
1774473199884464000,8.655464111328126,-0.98870849609375,0.1438140869140625,0.1316986083984375
1774473199894484000,8.66548388671875,-1.05072021484375,0.154632568359375,0.11529541015625
1774473199904505000,8.675505126953125,-1.0948333740234375,0.140716552734375,0.107666015625
1774473199914525000,8.68552490234375,-1.0854034423828125,0.1382598876953125,0.1544342041015625
1774473199924545000,8.695544921875,-1.089324951171875,0.1165008544921875,0.148162841796875
1774473199934566100,8.705566162109376,-1.046783447265625,0.1097412109375,0.1140594482421875
1774473199944586000,8.7155859375,-0.972198486328125,0.09259033203125,0.074859619140625
1774473199954606000,8.725606201171875,-0.8760223388671875,0.1342926025390625,0.0224456787109375
1774473199964627000,8.735626953125,-0.9262542724609375,0.0779876708984375,-0.01824951171875
1774473199974647000,8.74564697265625,-0.9341583251953125,0.0649871826171875,-0.050689697265625
1774473199984667100,8.755667236328126,-0.8492584228515625,0.1663970947265625,-0.0168609619140625
1774473199994687000,8.76568701171875,-0.6919403076171875,0.33343505859375,0.017120361328125
1774473200004708000,8.7757080078125,-1.05364990234375,0.263153076171875,-0.025421142578125
1774473200014728200,8.785728271484375,-1.1098785400390625,-0.0528717041015625,-0.3036956787109375
1774473200024748000,8.795748046875,-0.9586944580078125,-0.142791748046875,-0.297119140625
1774473200034769200,8.80576904296875,-1.0153045654296875,-0.1154022216796875,-0.1802215576171875
1774473200044789000,8.8157890625,-0.95660400390625,-0.049774169921875,-0.0921783447265625
1774473200054809000,8.82580908203125,-0.9205169677734375,-0.0168609619140625,-0.074493408203125
1774473200064830000,8.835829833984375,-0.91265869140625,0.0080413818359375,-0.1182098388671875
1774473200074850000,8.84585009765625,-0.906646728515625,0.0144195556640625,-0.1456451416015625
1774473200084870100,8.8558701171875,-0.9343719482421875,-0.0460205078125,-0.1432342529296875
1774473200094891000,8.86589111328125,-0.983184814453125,-0.144012451171875,-0.0642547607421875
1774473200104911000,8.8759111328125,-1.0202789306640625,-0.2176361083984375,0.0721435546875
1774473200114931200,8.88593115234375,-1.0279541015625,-0.209228515625,0.124542236328125
1774473200124951000,8.895950927734376,-1.0392608642578125,-0.2410125732421875,0.15008544921875
1774473200134972200,8.90597216796875,-1.05474853515625,-0.264862060546875,0.1542205810546875
1774473200144992000,8.915991943359375,-1.0131988525390625,-0.276275634765625,0.1347198486328125
1774473200155012000,8.92601220703125,-1.01385498046875,-0.2880401611328125,0.1114044189453125
1774473200165033200,8.936033203125,-1.0277557373046875,-0.2764129638671875,0.0653228759765625
1774473200175053000,8.946052978515626,-1.0176544189453125,-0.2418212890625,0.020965576171875
1774473200185073200,8.9560732421875,-1.0022125244140625,-0.1833648681640625,-0.0184173583984375
1774473200195094000,8.966093994140625,-0.9759368896484375,-0.129119873046875,-0.0439910888671875
1774473200205114000,8.976114013671875,-0.9505157470703125,-0.1204071044921875,-0.073699951171875
1774473200215134200,8.98613427734375,-0.9359130859375,-0.1145477294921875,-0.10919189453125
1774473200225154000,8.996154052734376,-0.92535400390625,-0.0949249267578125,-0.1386871337890625
1774473200235175200,9.006175048828124,-1.0061492919921875,-0.0795440673828125,-0.1418609619140625
1774473200245195300,9.0161953125,-1.074554443359375,-0.07708740234375,-0.110137939453125
1774473200255215000,9.026215087890625,-1.096893310546875,-0.085693359375,-0.083709716796875
1774473200265236200,9.036236328125,-1.0411376953125,-0.066741943359375,-0.0595703125
1774473200275256000,9.046256103515624,-0.9835205078125,-0.043060302734375,-0.0732574462890625
1774473200285276200,9.056276123046874,-0.963623046875,-0.033843994140625,-0.1098480224609375
1774473200295297000,9.066297119140625,-0.9779510498046875,-0.0575103759765625,-0.139923095703125
1774473200305317000,9.076317138671875,-0.992095947265625,-0.096160888671875,-0.1554718017578125
1774473200315337200,9.086337158203126,-0.9703216552734375,-0.133087158203125,-0.1862640380859375
1774473200325358000,9.096358154296874,-1.008941650390625,-0.14910888671875,-0.19232177734375
1774473200335378200,9.106378173828125,-0.9875640869140625,-0.1416015625,-0.1735992431640625
1774473200345398300,9.116398193359375,-0.943267822265625,-0.1230316162109375,-0.18768310546875
1774473200355418000,9.126418212890625,-0.9656829833984375,-0.1156463623046875,-0.2080841064453125
1774473200365439200,9.136439208984376,-0.90850830078125,-0.0975799560546875,-0.2227630615234375
1774473200375459000,9.146458984375,-0.8973541259765625,-0.0975189208984375,-0.2672271728515625
1774473200385479000,9.15647900390625,-0.9494781494140625,-0.134246826171875,-0.2824859619140625
1774473200395500300,9.166500244140625,-0.94696044921875,-0.1609039306640625,-0.2453155517578125
1774473200405520100,9.17652001953125,-0.9730987548828125,-0.19482421875,-0.1841888427734375
1774473200415540000,9.1865400390625,-0.9868316650390625,-0.218170166015625,-0.1244354248046875
1774473200425561000,9.19656103515625,-1.0198516845703125,-0.229339599609375,-0.0958404541015625
1774473200435581200,9.206581298828125,-0.99859619140625,-0.2231597900390625,-0.1343841552734375
1774473200445601000,9.21660107421875,-0.96484375,-0.2022705078125,-0.19586181640625
1774473200455621000,9.22662109375,-0.9279327392578125,-0.1745452880859375,-0.277313232421875
1774473200465642000,9.23664208984375,-0.9116363525390625,-0.14044189453125,-0.3615570068359375
1774473200475662800,9.246662841796875,-0.9595794677734375,-0.126617431640625,-0.410675048828125
1774473200485682700,9.2566826171875,-0.9427337646484375,-0.10247802734375,-0.40997314453125
1774473200495703800,9.266703857421875,-0.931304931640625,-0.086212158203125,-0.39208984375
1774473200505724000,9.276723876953126,-0.950714111328125,-0.069183349609375,-0.3822021484375
1774473200515743700,9.28674365234375,-0.956512451171875,-0.0583648681640625,-0.3738250732421875
1774473200525764900,9.296764892578125,-0.9633636474609375,-0.0401153564453125,-0.3804779052734375
1774473200535785000,9.306784912109375,-0.969390869140625,-0.01519775390625,-0.367462158203125
1774473200545804800,9.3168046875,-0.9595947265625,0.018341064453125,-0.313568115234375
1774473200555826000,9.326825927734374,-0.97930908203125,-0.017486572265625,-0.28643798828125
1774473200565845800,9.336845703125,-1.0309600830078125,-0.048553466796875,-0.2825469970703125
1774473200575865900,9.346865966796875,-0.98797607421875,-0.046356201171875,-0.2689361572265625
1774473200585885700,9.3568857421875,-0.935577392578125,-0.0445404052734375,-0.255584716796875
1774473200595906800,9.36690673828125,-0.8954620361328125,-0.0746612548828125,-0.2469329833984375
1774473200605926700,9.3769267578125,-0.8709869384765625,-0.1340484619140625,-0.2498626708984375
1774473200615946800,9.38694677734375,-0.8760986328125,-0.1126556396484375,-0.1797943115234375
1774473200625967600,9.396967529296875,-0.914276123046875,-0.124420166015625,-0.112335205078125
1774473200635987700,9.40698779296875,-0.9019317626953125,-0.150177001953125,-0.071563720703125
1774473200646007800,9.4170078125,-0.8784027099609375,-0.1920166015625,-0.0785980224609375
1774473200656028700,9.427028564453124,-0.956817626953125,-0.2279205322265625,-0.130126953125
1774473200666048800,9.437048828125,-0.883148193359375,-0.2685699462890625,-0.19586181640625
1774473200676068900,9.44706884765625,-0.9163360595703125,-0.235687255859375,-0.24908447265625
1774473200686088700,9.457088623046875,-0.8618927001953125,-0.293548583984375,-0.2502593994140625
1774473200696109800,9.46710986328125,-0.8554840087890625,-0.3056488037109375,-0.253204345703125
1774473200706129700,9.477129638671874,-0.922119140625,-0.296844482421875,-0.27203369140625
1774473200716149800,9.487149658203125,-0.951019287109375,-0.264068603515625,-0.3204498291015625
1774473200726171000,9.4971708984375,-0.914215087890625,-0.23040771484375,-0.389495849609375
1774473200736190700,9.507190673828125,-0.916107177734375,-0.19024658203125,-0.4675140380859375
1774473200746210800,9.5172109375,-0.884552001953125,-0.11163330078125,-0.467437744140625
1774473200756231700,9.527231689453124,-0.8902587890625,-0.078857421875,-0.3755340576171875
1774473200766251800,9.537251708984375,-0.908447265625,-0.166168212890625,-0.310333251953125
1774473200776272000,9.54727197265625,-0.9047698974609375,-0.1321868896484375,-0.274383544921875
1774473200786292700,9.557292724609376,-0.98712158203125,-0.0623321533203125,-0.31903076171875
1774473200796312800,9.567312744140626,-1.02294921875,-0.03009033203125,-0.38421630859375
1774473200806333000,9.5773330078125,-1.025482177734375,-0.00762939453125,-0.4136962890625
1774473200816352800,9.587352783203125,-0.9914093017578125,0.011566162109375,-0.440277099609375
1774473200826374000,9.597373779296875,-0.959625244140625,0.0475311279296875,-0.4253082275390625
1774473200836393700,9.607393798828125,-0.969757080078125,0.077484130859375,-0.4004364013671875
1774473200846413800,9.617413818359376,-0.9843597412109375,0.0919036865234375,-0.3936309814453125
1774473200856435000,9.62743505859375,-1.00091552734375,0.0859222412109375,-0.3902130126953125
1774473200866454800,9.637454833984375,-1.0045166015625,0.0800323486328125,-0.3865509033203125
1774473200876475000,9.647474853515625,-0.9933929443359375,0.088531494140625,-0.3473968505859375
1774473200886495700,9.657495849609376,-0.9727630615234375,0.1013946533203125,-0.33795166015625
1774473200896515800,9.667515869140624,-0.9398345947265625,0.0778350830078125,-0.3641815185546875
1774473200906536000,9.677535888671875,-0.932861328125,0.0630645751953125,-0.3917388916015625
1774473200916556800,9.687556884765625,-0.91998291015625,0.07659912109375,-0.416229248046875
1774473200926577000,9.697576904296875,-0.85394287109375,0.101470947265625,-0.40576171875
1774473200936597000,9.707596923828126,-0.80743408203125,0.11163330078125,-0.40814208984375
1774473200946617900,9.717617919921874,-0.838897705078125,0.093597412109375,-0.4515380859375
1774473200956638000,9.727637939453125,-0.86163330078125,0.050262451171875,-0.4866485595703125
1774473200966657800,9.73765771484375,-0.9258880615234375,-0.020263671875,-0.4527740478515625
1774473200976678000,9.747677978515625,-0.9325714111328125,-0.003936767578125,-0.3205718994140625
1774473200986698800,9.75769873046875,-0.923980712890625,0.01739501953125,-0.27593994140625
1774473200996718800,9.76771875,-0.95916748046875,-0.0150909423828125,-0.3036956787109375
1774473201006739000,9.777739013671875,-0.960296630859375,-0.0242767333984375,-0.34393310546875
1774473201016759800,9.787759765625,-0.9180755615234375,-0.0032196044921875,-0.3731231689453125
1774473201026780000,9.79777978515625,-0.869415283203125,0.000335693359375,-0.399169921875
1774473201036800000,9.807800048828126,-0.8296356201171875,-0.0147705078125,-0.4102783203125
1774473201046820900,9.81782080078125,-0.8283843994140625,-0.0494232177734375,-0.389678955078125
1774473201056841000,9.827841064453125,-0.947967529296875,-0.1494140625,-0.3174591064453125
1774473201066860800,9.83786083984375,-1.023834228515625,-0.224151611328125,-0.1561279296875
1774473201076882000,9.8478818359375,-0.967132568359375,-0.24139404296875,-0.03350830078125
1774473201086902000,9.857902099609374,-0.959991455078125,-0.3144378662109375,-0.007476806640625
1774473201096921900,9.867921875,-1.0012969970703125,-0.406280517578125,0.00433349609375
1774473201106943000,9.87794287109375,-0.9437103271484375,-0.3900299072265625,-0.088165283203125
1774473201116962800,9.887962890625,-0.8809356689453125,-0.4183807373046875,-0.1311798095703125
1774473201126983000,9.89798291015625,-0.8175506591796875,-0.47406005859375,0.0199737548828125
1774473201137003000,9.9080029296875,-0.5101318359375,-0.6166229248046875,0.5180816650390625
1774473201147024000,9.91802392578125,-0.79534912109375,-0.51409912109375,0.20733642578125
1774473201157044000,9.9280439453125,-0.9601898193359375,-0.50775146484375,0.1944427490234375
1774473201167064000,9.93806396484375,-0.9476470947265625,-0.4745941162109375,0.1030120849609375
1774473201177085000,9.9480849609375,-0.8739013671875,-0.4425201416015625,-0.0061798095703125
1774473201187105000,9.95810498046875,-0.851654052734375,-0.417205810546875,-0.21026611328125
1774473201197124900,9.968124755859375,-0.9190216064453125,-0.3945465087890625,-0.38623046875
1774473201207146000,9.97814599609375,-0.971038818359375,-0.357421875,-0.393218994140625
1774473201217165800,9.988165771484375,-0.916534423828125,-0.24163818359375,-0.21954345703125
1774473201227185700,9.998185546875,-0.889129638671875,-0.20269775390625,-0.029754638671875
1774473201237207000,10.00820703125,-0.8920135498046875,-0.231231689453125,0.08209228515625
1774473201247227000,10.018226806640625,-0.9410400390625,-0.2338714599609375,0.1769866943359375
1774473201257246700,10.028246826171875,-1.019439697265625,-0.2036895751953125,0.160308837890625
1774473201267267800,10.038267822265626,-1.1113128662109375,-0.1778717041015625,-0.0157470703125
1774473201277288000,10.048287841796874,-1.14129638671875,-0.2061614990234375,-0.2932891845703125
1774473201287307800,10.058307861328124,-1.068328857421875,-0.30072021484375,-0.4441375732421875
1774473201297329000,10.068328857421875,-1.0349578857421875,-0.3383026123046875,-0.4338836669921875
1774473201307348700,10.0783486328125,-0.9833984375,-0.342987060546875,-0.4290313720703125
1774473201317368800,10.088368896484376,-0.9995574951171875,-0.276611328125,-0.251617431640625
1774473201327388700,10.098388671875,-0.97955322265625,-0.232940673828125,-0.0097198486328125
1774473201337409800,10.108409912109375,-0.8994903564453125,-0.2768402099609375,0.117767333984375
1774473201347429600,10.1184296875,-0.8468170166015625,-0.414642333984375,-0.0120391845703125
1774473201357449700,10.12844970703125,-0.8406829833984375,-0.5178375244140625,-0.1676025390625
1774473201367470800,10.138470947265626,-0.8374481201171875,-0.5272979736328125,-0.2262115478515625
1774473201377490700,10.14849072265625,-0.7981414794921875,-0.4564208984375,-0.1031494140625
1774473201387510800,10.1585107421875,-0.7342376708984375,-0.4407501220703125,-0.0410919189453125
1774473201397531600,10.16853173828125,-0.7111053466796875,-0.463775634765625,-0.0191497802734375
1774473201407551700,10.1785517578125,-0.719024658203125,-0.45733642578125,0.036102294921875
1774473201417571800,10.18857177734375,-0.7553253173828125,-0.4281158447265625,0.1342315673828125
1774473201427592700,10.1985927734375,-0.783477783203125,-0.4127349853515625,0.155181884765625
1774473201437612800,10.20861279296875,-0.8267364501953125,-0.422760009765625,0.0809173583984375
1774473201447633000,10.2186328125,-0.8343353271484375,-0.4032135009765625,0.0499267578125
1774473201457653800,10.22865380859375,-0.8280792236328125,-0.3927764892578125,0.065582275390625
1774473201467673900,10.238673828125,-0.864715576171875,-0.4013214111328125,0.1005859375
1774473201477694000,10.24869384765625,-0.899627685546875,-0.4114532470703125,0.153564453125
1774473201487715000,10.258715087890625,-0.972137451171875,-0.38592529296875,0.1869354248046875
1774473201497735000,10.26873486328125,-1.1544189453125,-0.314605712890625,0.2289276123046875
1774473201507755000,10.278755126953126,-1.1960601806640625,-0.208465576171875,0.23394775390625
1774473201517776100,10.288776123046874,-1.177581787109375,-0.0931549072265625,0.1531982421875
1774473201527796000,10.2987958984375,-1.2147979736328125,-0.0197906494140625,0.066131591796875
1774473201537816000,10.308816162109375,-1.257049560546875,0.00860595703125,0.004302978515625
1774473201547837000,10.3188369140625,-1.2421875,0.0386199951171875,0.0059356689453125
1774473201557857000,10.32885693359375,-1.18206787109375,0.105010986328125,0.1708221435546875
1774473201567877000,10.338877197265624,-1.204132080078125,0.08807373046875,0.1541900634765625
1774473201577898000,10.34889794921875,-1.301239013671875,-0.00970458984375,0.0270233154296875
1774473201587918000,10.35891796875,-1.109161376953125,-0.242462158203125,0.072906494140625
1774473201597938200,10.368938232421876,-0.602508544921875,-0.93121337890625,0.5812835693359375
1774473201607959000,10.378958984375,-0.917083740234375,-0.9652862548828125,0.6340179443359375
1774473201617979100,10.388979248046875,-1.2009124755859375,-0.656280517578125,-0.09234619140625
1774473201627999000,10.3989990234375,-0.893280029296875,-0.5200653076171875,-0.612823486328125
1774473201638020000,10.40902001953125,-0.7530059814453125,-0.4149169921875,-0.672210693359375
1774473201648040000,10.4190400390625,-0.7893524169921875,-0.26751708984375,-0.662506103515625
1774473201658060000,10.42906005859375,-0.7373504638671875,-0.1772308349609375,-0.7303924560546875
1774473201668079900,10.439079833984374,-0.7032623291015625,-0.260406494140625,-0.6771240234375
1774473201678101000,10.44910107421875,-0.7689056396484375,-0.433807373046875,-0.660888671875
1774473201688121000,10.45912109375,-0.8408660888671875,-0.555450439453125,-0.684356689453125
1774473201698141000,10.469140869140626,-0.9371490478515625,-0.582550048828125,-0.820770263671875
1774473201708162000,10.479162109375,-1.1129913330078125,-0.6651763916015625,-0.9153289794921875
1774473201718182000,10.489181884765625,-1.0514984130859375,-0.7559051513671875,-0.898651123046875
1774473201728202000,10.499201904296875,-0.925506591796875,-0.8308868408203125,-0.9064178466796875
1774473201738223000,10.50922314453125,-0.87841796875,-0.6982879638671875,-0.898956298828125
1774473201748243000,10.519242919921876,-0.871551513671875,-0.5050048828125,-0.6642303466796875
1774473201758262800,10.5292626953125,-1.0781402587890625,-0.258819580078125,-0.409027099609375
1774473201768284200,10.5392841796875,-1.3606109619140625,-0.158050537109375,0.078521728515625
1774473201778303700,10.5493037109375,-1.231048583984375,-0.0679931640625,0.29315185546875
1774473201788323800,10.55932373046875,-1.1870574951171875,0.0227508544921875,0.1456146240234375
1774473201798345000,10.569344970703124,-1.209808349609375,-0.105743408203125,0.3615264892578125
1774473201808364800,10.57936474609375,-1.045013427734375,-0.12335205078125,0.3757781982421875
1774473201818385000,10.589385009765625,-0.988800048828125,-0.077484130859375,0.3055877685546875
1774473201828405800,10.59940576171875,-0.9990234375,-0.14361572265625,0.2946319580078125
1774473201838425900,10.60942578125,-1.0439910888671875,-0.1620025634765625,0.3892364501953125
1774473201848446000,10.619446044921874,-0.9275360107421875,-0.3020172119140625,0.5226593017578125
1774473201858466800,10.629466796875,-0.7821807861328125,-0.3562164306640625,0.48260498046875
1774473201868487000,10.63948681640625,-0.7403411865234375,-0.3597412109375,0.3272247314453125
1774473201878507000,10.649507080078125,-0.72467041015625,-0.432525634765625,0.2251739501953125
1774473201888528000,10.65952783203125,-0.7435150146484375,-0.51116943359375,0.0943603515625
1774473201898548000,10.6695478515625,-0.7965087890625,-0.559722900390625,0.0373077392578125
1774473201908567800,10.67956787109375,-0.8863983154296875,-0.5637359619140625,-0.0883941650390625
1774473201918588000,10.689587890625,-1.0130157470703125,-0.5996551513671875,-0.1327362060546875
1774473201928608800,10.69960888671875,-1.02166748046875,-0.590484619140625,-0.049560546875
1774473201938628900,10.70962890625,-0.9530029296875,-0.52459716796875,-0.021942138671875
1774473201948649000,10.71964892578125,-0.8160247802734375,-0.517730712890625,0.0115203857421875
1774473201958669800,10.729669921875,-0.6483154296875,-0.5884552001953125,0.02191162109375
1774473201968690000,10.73968994140625,-0.5315093994140625,-0.6118316650390625,-0.019683837890625
1774473201978710000,10.7497099609375,-0.381317138671875,-0.5445709228515625,-0.0513153076171875
1774473201988731000,10.75973095703125,-0.2098388671875,-0.4970703125,-0.10089111328125
1774473201998751000,10.7697509765625,-0.155059814453125,-0.5866241455078125,-0.057769775390625
1774473202008770800,10.779770751953125,-0.1273956298828125,-0.717437744140625,-0.03704833984375
1774473202018792000,10.7897919921875,-0.0685272216796875,-0.7105865478515625,-0.1060791015625
1774473202028812000,10.79981201171875,-0.08758544921875,-0.61358642578125,-0.1536102294921875
1774473202038831900,10.809831787109376,-0.3621368408203125,-0.664642333984375,-0.1434326171875
1774473202048853000,10.81985302734375,-0.71044921875,-0.628753662109375,-0.1656036376953125
1774473202058872800,10.829872802734375,-0.8286895751953125,-0.605865478515625,0.0984649658203125
1774473202068893000,10.839892822265625,-0.8321380615234375,-0.465911865234375,0.2130889892578125
1774473202078914000,10.8499140625,-0.759735107421875,-0.31768798828125,0.2376708984375
1774473202088934000,10.859933837890624,-0.626129150390625,-0.3337249755859375,0.2913360595703125
1774473202098954000,10.8699541015625,-0.6789703369140625,-0.329620361328125,0.326934814453125
1774473202108974000,10.87997412109375,-0.7954559326171875,-0.3308258056640625,0.3248748779296875
1774473202118995000,10.889994873046875,-1.0417022705078125,-0.410247802734375,0.120849609375
1774473202129015000,10.90001513671875,-1.291748046875,-0.6132354736328125,-0.0561065673828125
1774473202139035000,10.910034912109374,-1.505706787109375,-0.824920654296875,-0.121429443359375
1774473202149056000,10.920055908203125,-1.603485107421875,-0.8314971923828125,-0.1181640625
1774473202159076000,10.930076171875,-1.4412384033203125,-0.7225799560546875,0.0373687744140625
1774473202169096000,10.940095947265625,-1.21600341796875,-0.6146697998046875,0.1368560791015625
1774473202179117000,10.950116943359374,-1.0198974609375,-0.6384124755859375,0.174346923828125
1774473202189137000,10.960136962890624,-0.888427734375,-0.7847747802734375,0.2563323974609375
1774473202199157000,10.970156982421875,-0.7017059326171875,-0.9445953369140625,0.337890625
1774473202209177900,10.980177734375,-0.7899932861328125,-1.0223388671875,0.2464447021484375
1774473202219198000,10.990197998046876,-0.8136444091796875,-0.9765777587890625,0.2065887451171875
1774473202229218000,11.000218017578124,-0.6981658935546875,-0.9117584228515625,0.276702880859375
1774473202239239000,11.010239013671875,-0.5181427001953125,-0.847625732421875,0.302276611328125
1774473202249259000,11.020259033203125,-0.29351806640625,-0.7938079833984375,0.290069580078125
1774473202259279000,11.030279052734375,-0.14337158203125,-0.762664794921875,0.2685394287109375
1774473202269300000,11.040300048828126,-0.0452423095703125,-0.7465362548828125,0.1855621337890625
1774473202279320000,11.050320068359374,0.010162353515625,-0.6824493408203125,0.1794891357421875
1774473202289340000,11.06033984375,0.04754638671875,-0.62664794921875,0.2557830810546875
1774473202299361000,11.070361083984375,0.040618896484375,-0.58343505859375,0.162811279296875
1774473202309381000,11.080381103515625,-0.0272979736328125,-0.5155181884765625,0.0309295654296875
1774473202319401000,11.09040087890625,-0.090057373046875,-0.469329833984375,0.024688720703125
1774473202329422000,11.100422119140624,-0.21942138671875,-0.446929931640625,0.055328369140625
1774473202339442000,11.11044189453125,-0.715057373046875,-0.2624664306640625,0.0025177001953125
1774473202349462000,11.1204619140625,-1.3703765869140625,-0.394805908203125,0.0703582763671875
1774473202359482000,11.130482177734375,-1.568572998046875,-0.626251220703125,0.0821380615234375
1774473202369503000,11.1405029296875,-1.3226470947265625,-0.6707611083984375,0.06396484375
1774473202379523000,11.150523193359374,-1.050750732421875,-0.6401824951171875,0.1517791748046875
1774473202389543200,11.160543212890625,-0.9654541015625,-0.507232666015625,0.2269287109375
1774473202399564000,11.17056396484375,-0.9258880615234375,-0.4562835693359375,0.3125
1774473202409584000,11.180584228515626,-0.7943115234375,-0.510223388671875,0.4058837890625
1774473202419604000,11.19060400390625,-0.824462890625,-0.3961944580078125,0.4293670654296875
1774473202429625000,11.200625,-1.033599853515625,-0.3499603271484375,0.4065399169921875
1774473202439645000,11.21064501953125,-0.9662017822265625,-0.4280853271484375,0.3887176513671875
1774473202449665000,11.2206650390625,-0.97320556640625,-0.44598388671875,0.3480682373046875
1774473202459686100,11.23068603515625,-0.9662017822265625,-0.4932861328125,0.313720703125
1774473202469706000,11.2407060546875,-0.9670867919921875,-0.513214111328125,0.3056640625
1774473202479725000,11.25072509765625,-0.98260498046875,-0.4433746337890625,0.2978973388671875
1774473202489746200,11.26074609375,-1.03240966796875,-0.43646240234375,0.3054962158203125
1774473202499766000,11.27076611328125,-1.1063690185546875,-0.4884490966796875,0.2633056640625
1774473202509786000,11.2807861328125,-1.17181396484375,-0.512451171875,0.2419281005859375
1774473202519807000,11.290806884765624,-1.132568359375,-0.506195068359375,0.2731475830078125
1774473202529827000,11.3008271484375,-0.998016357421875,-0.4584503173828125,0.3201904296875
1774473202539847200,11.31084716796875,-0.86590576171875,-0.4056243896484375,0.347991943359375
1774473202549868000,11.320867919921875,-0.748809814453125,-0.370849609375,0.3242340087890625
1774473202559888100,11.33088818359375,-0.7089996337890625,-0.4654388427734375,0.245635986328125
1774473202569908200,11.340908203125,-0.7798919677734375,-0.539794921875,0.1957244873046875
1774473202579929000,11.35092919921875,-0.8258209228515625,-0.565460205078125,0.183929443359375
1774473202589949200,11.36094921875,-0.8538360595703125,-0.60321044921875,0.1183624267578125
1774473202599969000,11.370968994140625,-0.869476318359375,-0.66387939453125,0.0642547607421875
1774473202609990100,11.380990234375,-0.8675537109375,-0.633636474609375,0.04034423828125
1774473202620010200,11.39101025390625,-0.8019561767578125,-0.6262664794921875,0.0545501708984375
1774473202630030000,11.401030029296875,-0.6988525390625,-0.6398162841796875,0.0788726806640625
1774473202640051200,11.41105126953125,-0.6151885986328125,-0.607940673828125,0.103271484375
1774473202650071000,11.421071044921876,-0.58538818359375,-0.6065673828125,0.1541290283203125
1774473202660091100,11.431091064453126,-0.640838623046875,-0.595001220703125,0.1739654541015625
1774473202670111200,11.441111328125,-0.7354888916015625,-0.5745697021484375,0.144622802734375
1774473202680132000,11.451132080078125,-0.8396759033203125,-0.5859527587890625,0.1483917236328125
1774473202690152200,11.461152099609375,-0.9221343994140625,-0.5986328125,0.1348724365234375
1774473202700173000,11.471173095703126,-0.941650390625,-0.613922119140625,0.0963897705078125
1774473202710193200,11.481193115234374,-0.931488037109375,-0.6282501220703125,0.0286407470703125
1774473202720213200,11.491213134765625,-0.886322021484375,-0.6720428466796875,-0.0207672119140625
1774473202730233000,11.501233154296875,-0.7571868896484375,-0.7103729248046875,-0.04541015625
1774473202740254200,11.511254150390625,-0.637725830078125,-0.7275848388671875,-0.1268310546875
1774473202750274300,11.5212744140625,-0.585113525390625,-0.69573974609375,-0.1943359375
1774473202760294100,11.531294189453124,-0.5058135986328125,-0.6741180419921875,-0.195587158203125
1774473202770315300,11.541315185546875,-0.427093505859375,-0.67779541015625,-0.157470703125
1774473202780335000,11.551335205078125,-0.42974853515625,-0.6593017578125,-0.1151580810546875
1774473202790355200,11.561355224609375,-0.55615234375,-0.6962738037109375,-0.1337127685546875
1774473202800376000,11.5713759765625,-0.697509765625,-0.7778167724609375,-0.1670684814453125
1774473202810396200,11.581396240234374,-0.7425079345703125,-0.7946624755859375,-0.14581298828125
1774473202820416000,11.591416015625,-0.7781829833984375,-0.723785400390625,-0.0493621826171875
1774473202830437000,11.60143701171875,-0.7392578125,-0.672515869140625,0.094879150390625
1774473202840457200,11.611457275390626,-0.800689697265625,-0.5927276611328125,0.1058197021484375
1774473202850477000,11.62147705078125,-0.868896484375,-0.572723388671875,0.0806121826171875
1774473202860498200,11.631498291015625,-0.811737060546875,-0.61962890625,0.1278839111328125
1774473202870518300,11.641518310546875,-0.7179718017578125,-0.6462249755859375,0.102020263671875
1774473202880538000,11.6515380859375,-0.6298980712890625,-0.6663970947265625,0.0653076171875
1774473202890559200,11.661559326171876,-0.6081695556640625,-0.6951446533203125,-0.0218963623046875
1774473202900579000,11.6715791015625,-0.6293487548828125,-0.736846923828125,-0.156982421875
1774473202910599000,11.681598876953124,-0.6295928955078125,-0.763519287109375,-0.23834228515625
1774473202920620300,11.691620361328125,-0.641387939453125,-0.7656402587890625,-0.1876373291015625
1774473202930640000,11.701639892578125,-0.66912841796875,-0.748077392578125,-0.1405792236328125
1774473202940660000,11.711659912109376,-0.69683837890625,-0.7117767333984375,-0.0722198486328125
1774473202950681000,11.72168115234375,-0.7074127197265625,-0.6689453125,0.0662841796875
1774473202960701000,11.731700927734375,-0.67022705078125,-0.5870361328125,0.217437744140625
1774473202970721000,11.741720947265625,-0.5934295654296875,-0.4864501953125,0.3463134765625
1774473202980742000,11.751741943359375,-0.6289215087890625,-0.388031005859375,0.3668670654296875
1774473202990762000,11.761761962890626,-0.7919921875,-0.2972412109375,0.2485198974609375
1774473203000782000,11.771781982421874,-0.8204345703125,-0.3527984619140625,-0.0083770751953125
1774473203010803000,11.781802978515625,-0.836578369140625,-0.43896484375,-0.1725616455078125
1774473203020823000,11.791822998046875,-0.9147186279296875,-0.5531463623046875,-0.3265533447265625
1774473203030843100,11.801843017578125,-0.8568878173828125,-0.7540283203125,-0.6548309326171875
1774473203040864000,11.811864013671874,-0.7525787353515625,-0.947357177734375,-0.580322265625
1774473203050884000,11.821884033203125,-0.779998779296875,-1.0379180908203125,-0.6156768798828125
1774473203060904000,11.831904052734375,-0.694976806640625,-0.9553375244140625,-0.5885162353515625
1774473203070925000,11.841925048828125,-0.4738922119140625,-0.8614044189453125,-0.662445068359375
1774473203080945000,11.85194482421875,-0.41778564453125,-0.80059814453125,-0.637969970703125
1774473203090965000,11.861965087890624,-0.5051116943359375,-0.726531982421875,-0.383575439453125
1774473203100986000,11.871986083984375,-0.578125,-0.74005126953125,-0.2972869873046875
1774473203111006000,11.882005859375,-0.5558929443359375,-0.772491455078125,-0.3239898681640625
1774473203121026000,11.892026123046875,-0.58831787109375,-0.7359161376953125,-0.35589599609375
1774473203131047000,11.902046875,-0.6875152587890625,-0.6572723388671875,-0.2959747314453125
1774473203141067000,11.91206689453125,-0.74609375,-0.55120849609375,-0.2266693115234375
1774473203151087000,11.922087158203125,-0.7581329345703125,-0.6278839111328125,-0.2266082763671875
1774473203161108000,11.93210791015625,-0.790283203125,-0.5854034423828125,-0.2234039306640625
1774473203171128000,11.942128173828126,-0.754791259765625,-0.5615386962890625,-0.196868896484375
1774473203181148200,11.952148193359376,-0.691436767578125,-0.627777099609375,-0.2914581298828125
1774473203191169000,11.9621689453125,-0.7062530517578125,-0.510833740234375,-0.3001708984375
1774473203201189000,11.972189208984375,-0.80364990234375,-0.6074981689453125,-0.2780303955078125
1774473203211209000,11.982208984375,-0.87646484375,-0.5299224853515625,-0.294891357421875
1774473203221229000,11.99222900390625,-0.8080902099609375,-0.710662841796875,-0.3615875244140625
1774473203231250000,12.00225,-0.80926513671875,-0.5982818603515625,-0.40155029296875
1774473203241270000,12.01227001953125,-0.803192138671875,-0.6724090576171875,-0.4005889892578125
1774473203251290000,12.0222900390625,-0.7134246826171875,-0.69622802734375,-0.3758392333984375
1774473203261311000,12.03231103515625,-0.6728515625,-0.6213836669921875,-0.3736572265625
1774473203271331000,12.0423310546875,-0.68292236328125,-0.6114349365234375,-0.406036376953125
1774473203281351200,12.05235107421875,-0.765472412109375,-0.60394287109375,-0.4828338623046875
1774473203291372000,12.0623720703125,-0.883636474609375,-0.666656494140625,-0.57354736328125
1774473203301392100,12.07239208984375,-0.872406005859375,-0.84844970703125,-0.6866455078125
1774473203311412200,12.082412109375,-0.6940155029296875,-0.9924774169921875,-0.757171630859375
1774473203321433000,12.09243310546875,-0.6124267578125,-1.0099334716796875,-0.8213958740234375
1774473203331453200,12.102453125,-0.7232666015625,-0.9236907958984375,-0.755950927734375
1774473203341473000,12.11247314453125,-0.82427978515625,-0.82763671875,-0.5447845458984375
1774473203351494100,12.122494140625,-0.86968994140625,-0.764984130859375,-0.391937255859375
1774473203361514000,12.132513916015625,-0.8508758544921875,-0.6754150390625,-0.195037841796875
1774473203371534000,12.1425341796875,-0.918060302734375,-0.5355072021484375,0.0366058349609375
1774473203381555200,12.15255517578125,-0.965179443359375,-0.482391357421875,0.24688720703125
1774473203391575000,12.162574951171875,-0.968048095703125,-0.3926239013671875,0.3392791748046875
1774473203401595100,12.17259521484375,-0.972076416015625,-0.25341796875,0.44635009765625
1774473203411616000,12.182615966796876,-0.8363037109375,-0.321441650390625,0.4422149658203125
1774473203421636000,12.192635986328124,-0.9514007568359375,-0.4581756591796875,0.241912841796875
1774473203431656200,12.20265625,-0.975799560546875,-0.4625396728515625,0.1384735107421875
1774473203441677000,12.212677001953125,-0.894500732421875,-0.496124267578125,0.1255340576171875
1774473203451697200,12.222697265625,-0.779388427734375,-0.6634368896484375,0.00482177734375
1774473203461717200,12.23271728515625,-0.7321319580078125,-0.6444244384765625,-0.0369873046875
1774473203471738000,12.242738037109374,-0.7747650146484375,-0.5512542724609375,0.0361785888671875
1774473203481758700,12.2527587890625,-0.7603302001953125,-0.450408935546875,0.1595611572265625
1774473203491778600,12.262778564453125,-0.7355804443359375,-0.355072021484375,0.2951812744140625
1774473203501800000,12.272800048828126,-0.581512451171875,-0.2518768310546875,0.278106689453125
1774473203511819500,12.282819580078124,-0.4139862060546875,-0.1368255615234375,0.2291412353515625
1774473203521839600,12.292839599609374,-0.3696441650390625,-0.1712188720703125,0.108154296875
1774473203531860700,12.30286083984375,-0.388671875,-0.4727783203125,-0.136962890625
1774473203541880600,12.312880615234375,-0.3928680419921875,-0.6765594482421875,-0.1679534912109375
1774473203551900700,12.322900634765626,-0.6852569580078125,-0.7009124755859375,-0.2451171875
1774473203561921800,12.332921875,-0.8163909912109375,-0.569732666015625,-0.1412506103515625
1774473203571941600,12.342941650390625,-0.710357666015625,-0.4662628173828125,-0.0442352294921875
1774473203581961700,12.352961669921875,-0.67901611328125,-0.3673553466796875,0.123138427734375
1774473203591982600,12.362982666015625,-0.799560546875,-0.292755126953125,0.0438385009765625
1774473203602002700,12.373002685546876,-0.8018798828125,-0.3489990234375,-0.1142730712890625
1774473203612022500,12.3830224609375,-0.797454833984375,-0.2399749755859375,0.09271240234375
1774473203622043600,12.393043701171875,-0.868560791015625,-0.23931884765625,0.10040283203125
1774473203632063700,12.403063720703125,-0.9170379638671875,-0.3223876953125,0.15069580078125
1774473203642083600,12.41308349609375,-1.0245513916015625,-0.269195556640625,0.0157470703125
1774473203652104700,12.423104736328124,-1.0598602294921875,-0.345733642578125,-0.1155548095703125
1774473203662124500,12.43312451171875,-1.07354736328125,-0.564300537109375,-0.2120208740234375
1774473203672144600,12.44314453125,-1.0672760009765625,-0.5580596923828125,-0.325958251953125
1774473203682165500,12.45316552734375,-0.9145050048828125,-0.4070892333984375,-0.2794647216796875
1774473203692185600,12.463185546875,-1.036346435546875,-0.302703857421875,-0.1964263916015625
1774473203702205700,12.473205810546874,-1.1042938232421875,-0.3053436279296875,-0.2617034912109375
1774473203712226600,12.4832265625,-1.0765838623046875,-0.282562255859375,-0.2947540283203125
1774473203722246700,12.49324658203125,-1.0421600341796875,-0.291107177734375,-0.3280029296875
1774473203732266800,12.503266845703125,-0.9675445556640625,-0.31787109375,-0.2704315185546875
1774473203742286600,12.51328662109375,-0.8000335693359375,-0.3974609375,-0.14044189453125
1774473203752307700,12.5233076171875,-0.6660919189453125,-0.423370361328125,0.027008056640625
1774473203762327600,12.53332763671875,-0.668975830078125,-0.4021148681640625,-0.075653076171875
1774473203772347600,12.54334765625,-0.8315582275390625,-0.46722412109375,-0.1959991455078125
1774473203782368800,12.55336865234375,-0.888397216796875,-0.38153076171875,-0.07879638671875
1774473203792388600,12.563388671875,-1.054656982421875,-0.3162994384765625,-0.162994384765625
1774473203802408700,12.57340869140625,-1.1378936767578125,-0.3362884521484375,-0.2462615966796875
1774473203812429600,12.5834296875,-1.0490875244140625,-0.2255706787109375,-0.114410400390625
1774473203822449700,12.59344970703125,-1.05511474609375,-0.181304931640625,-0.1406402587890625
1774473203832469800,12.6034697265625,-1.0193939208984375,-0.20184326171875,-0.2795867919921875
1774473203842490600,12.61349072265625,-0.9453125,-0.10504150390625,-0.3961181640625
1774473203852510700,12.6235107421875,-1.005523681640625,-0.0469512939453125,-0.493011474609375
1774473203862530800,12.63353076171875,-0.984588623046875,-0.0124053955078125,-0.537750244140625
1774473203872551700,12.6435517578125,-0.9702606201171875,0.0234375,-0.5004730224609375
1774473203882571800,12.65357177734375,-1.014068603515625,-0.04644775390625,-0.486541748046875
1774473203892591600,12.663591552734376,-1.0232696533203125,-0.1175079345703125,-0.4308929443359375
1774473203902612700,12.67361279296875,-1.04168701171875,-0.2230072021484375,-0.3430328369140625
1774473203912632600,12.683632568359375,-1.0567779541015625,-0.2243499755859375,-0.2410888671875
1774473203922652700,12.693652587890625,-1.0645294189453125,-0.1974945068359375,-0.1956939697265625
1774473203932673800,12.703673828125,-1.073455810546875,-0.225006103515625,-0.151824951171875
1774473203942693600,12.713693603515624,-1.07562255859375,-0.2315521240234375,-0.0180206298828125
1774473203952713700,12.723713623046875,-1.017913818359375,-0.2911834716796875,0.044952392578125
1774473203962734600,12.733734619140625,-0.97344970703125,-0.31005859375,0.0529022216796875
1774473203972754700,12.743754638671875,-0.9718170166015625,-0.3450164794921875,0.0426025390625
1774473203982774800,12.75377490234375,-0.972412109375,-0.3441009521484375,0.02752685546875
1774473203992795600,12.763795654296874,-0.9487457275390625,-0.32037353515625,0.0017242431640625
1774473204002815700,12.773815673828125,-0.9238739013671875,-0.3154754638671875,-0.015411376953125
1774473204012835800,12.7838359375,-0.9004058837890625,-0.3157196044921875,-0.0186004638671875
1774473204022856700,12.793856689453126,-0.8828277587890625,-0.321685791015625,-0.0544891357421875
1774473204032876800,12.803876708984374,-0.9083404541015625,-0.33648681640625,-0.07110595703125
1774473204042896600,12.813896728515624,-0.9500732421875,-0.3690032958984375,-0.0612335205078125
1774473204052917800,12.823917724609375,-0.9662017822265625,-0.3748016357421875,-0.0660552978515625
1774473204062937900,12.833937744140625,-0.968414306640625,-0.36444091796875,-0.093505859375
1774473204072957700,12.843957763671876,-0.9512939453125,-0.36029052734375,-0.1105499267578125
1774473204082978800,12.853978759765624,-0.9478912353515625,-0.3349151611328125,-0.1125946044921875
1774473204092998700,12.86399853515625,-0.9609527587890625,-0.325164794921875,-0.130950927734375
1774473204103018800,12.874018798828125,-0.957763671875,-0.3199462890625,-0.12847900390625
1774473204113039600,12.88403955078125,-0.94049072265625,-0.3213958740234375,-0.1190032958984375
1774473204123059700,12.894059814453126,-0.9152069091796875,-0.3267364501953125,-0.0948638916015625
1774473204133079800,12.904079833984374,-0.9420623779296875,-0.3574066162109375,-0.04229736328125
1774473204143100700,12.9141005859375,-0.9191741943359375,-0.3966064453125,0.0151519775390625
