time,seconds_elapsed,z,y,x
1774473191292185000,0.06318505859375,0.10958880931138992,0.22085464000701904,-0.04584554582834244
1774473191302205200,0.073205078125,0.11795191466808319,0.19641214609146118,0.008438747376203537
1774473191312224800,0.083224853515625,0.1264529973268509,0.2032490074634552,0.02819966897368431
1774473191322244900,0.093244873046875,0.1043747216463089,0.24635004997253418,0.0177167858928442
1774473191332265000,0.103264892578125,0.0570700541138649,0.2998654842376709,-0.011812077835202217
1774473191342284800,0.113284912109375,-0.00035663717426359653,0.3520190119743347,-0.051985964179039
1774473191352305000,0.123304931640625,-0.10205130279064178,0.39455077052116394,-0.08103785663843155
1774473191362325000,0.133324951171875,-0.213776096701622,0.4640284478664398,-0.05835209786891937
1774473191372345000,0.143344970703125,-0.30813297629356384,0.5938921570777893,0.013499454595148563
1774473191382365000,0.153364990234375,-0.3954048752784729,0.7391331195831299,0.10230270028114319
1774473191392385000,0.163385009765625,-0.47328051924705505,0.8953632116317749,0.16838131844997406
1774473191402406000,0.173406005859375,-0.49897733330726624,0.8818821310997009,0.1820789873600006
1774473191412426000,0.183426025390625,-0.679461658000946,0.8470162749290466,0.1319497674703598
1774473191422446000,0.193446044921875,-0.9799180626869202,0.36653780937194824,0.03891221806406975
1774473191432466000,0.2034658203125,-1.2222602367401123,-0.021453602239489555,0.000995196052826941
1774473191442486000,0.213486083984375,-1.4251112937927246,-0.25639602541923523,0.0030327842105180025
1774473191452506000,0.223506103515625,-1.3943097591400146,-0.6687300205230713,0.10130076110363007
1774473191462526200,0.233526123046875,-1.4210196733474731,-1.0590029954910278,0.07568859308958054
1774473191472546800,0.243546875,-1.5924835205078125,-1.3274507522583008,-0.0023311087861657143
1774473191482567000,0.25356689453125,-1.7769187688827515,-1.6131430864334106,-0.013041342608630657
1774473191492586800,0.263586669921875,-1.9711995124816895,-1.8745452165603638,0.0004944399115629494
1774473191502606800,0.27360693359375,-2.1004998683929443,-2.182499647140503,0.03462640941143036
1774473191512627000,0.283626953125,-2.1140520572662354,-2.512572765350342,0.06467378884553909
1774473191522647800,0.293647705078125,-2.030474901199341,-2.760350465774536,0.03640724718570709
1774473191532668000,0.30366796875,-1.915128469467163,-2.882021188735962,-0.032053034752607346
1774473191542688000,0.31368798828125,-1.7997924089431763,-2.677292585372925,-0.07262847572565079
1774473191552707800,0.323707763671875,-1.673462152481079,-2.1409730911254883,-0.09610983729362488
1774473191562728000,0.33372802734375,-1.5370019674301147,-1.520939826965332,-0.09249603748321533
1774473191572748000,0.343748046875,-1.418184757232666,-0.8496174812316895,-0.12343903630971909
1774473191582767600,0.353767578125,-1.3244578838348389,-0.17339645326137543,-0.2037324756383896
1774473191592787700,0.36378759765625,-1.2389346361160278,0.4528847634792328,-0.3166707754135132
1774473191602807800,0.373807861328125,-1.091292142868042,0.733466386795044,-0.4450812339782715
1774473191612828000,0.383827880859375,-0.7548736929893494,0.386457622051239,-0.5674300193786621
1774473191622847700,0.39384765625,-0.20760087668895721,-0.12036304920911789,-0.7086227536201477
1774473191632868900,0.403868896484375,0.22730611264705658,0.06430080533027649,-0.8480666279792786
1774473191642888700,0.413888671875,0.538439929485321,0.23104409873485565,-0.8593237400054932
1774473191652908800,0.42390869140625,0.7597720623016357,0.24322831630706787,-0.7552505731582642
1774473191662929000,0.433928955078125,0.7919260263442993,0.27485567331314087,-0.5708080530166626
1774473191672948700,0.44394873046875,0.6399327516555786,0.21088628470897675,-0.3901996314525604
1774473191682968800,0.45396875,0.36747097969055176,0.04986852779984474,-0.2394706904888153
1774473191692989000,0.463989013671875,0.14599743485450745,-0.11663895845413208,-0.11209462583065033
1774473191703008800,0.4740087890625,0.048225678503513336,-0.15450133383274078,-0.021855873987078667
1774473191713028900,0.48402880859375,0.08168137073516846,-0.17502285540103912,0.0013562384992837906
1774473191723049000,0.494049072265625,0.16548673808574677,-0.23241224884986877,-0.008256885223090649
1774473191733069000,0.504069091796875,0.19435380399227142,-0.2841702401638031,-0.020047232508659363
1774473191743090000,0.51408984375,0.18785497546195984,-0.3562626540660858,-0.018867308273911476
1774473191753110000,0.524110107421875,0.2000834196805954,-0.3565945029258728,0.01902095228433609
1774473191763129900,0.5341298828125,0.20170220732688904,-0.2846456468105316,0.08733626455068588
1774473191773149700,0.544149658203125,0.19611355662345886,-0.20640332996845245,0.1346217542886734
1774473191783169800,0.554169677734375,0.20077408850193024,-0.15842397511005402,0.12879632413387299
1774473191793190000,0.56418994140625,0.20762081444263458,-0.10376526415348053,0.07021422684192657
1774473191803209700,0.574209716796875,0.20659351348876953,-0.06651686131954193,-0.04055502638220787
1774473191813229800,0.584229736328125,0.1956591159105301,-0.06348831206560135,-0.17351014912128448
1774473191823250000,0.59425,0.15071727335453033,-0.06042926758527756,-0.2948553264141083
1774473191833269800,0.604269775390625,0.10080937296152115,-0.040787387639284134,-0.38942232728004456
1774473191843289900,0.614289794921875,0.06882954388856888,0.012474638409912586,-0.44494354724884033
1774473191853310700,0.624310791015625,0.051672931760549545,0.09013214707374573,-0.48054760694503784
1774473191863330800,0.634330810546875,0.053354885429143906,0.12221820652484894,-0.48953384160995483
1774473191873351000,0.644350830078125,0.059896670281887054,0.11458452045917511,-0.4711732268333435
1774473191883370800,0.654370849609375,0.06201223284006119,0.08762609958648682,-0.42131826281547546
1774473191893390800,0.664390869140625,0.03522295877337456,0.07356540858745575,-0.35209256410598755
1774473191903411000,0.674410888671875,-0.011916677467525005,0.06682603806257248,-0.2769228518009186
1774473191913431000,0.68443115234375,-0.07878465205430984,0.07447570562362671,-0.21751144528388977
1774473191923451000,0.694450927734375,-0.12924502789974213,0.0579104870557785,-0.18768128752708435
1774473191933470700,0.704470703125,-0.16045807301998138,0.05296526476740837,-0.20109829306602478
1774473191943490800,0.71449072265625,-0.1634666472673416,0.07707832008600235,-0.25460463762283325
1774473191953510700,0.7245107421875,-0.16698575019836426,0.13044433295726776,-0.342414915561676
1774473191963531800,0.73453173828125,-0.17283400893211365,0.25268709659576416,-0.4693593978881836
1774473191973551900,0.7445517578125,-0.17216290533542633,0.38635489344596863,-0.6234807968139648
1774473191983571700,0.75457177734375,-0.17265094816684723,0.4695376455783844,-0.7744016647338867
1774473191993591800,0.764591796875,-0.17362166941165924,0.48807936906814575,-0.8862687945365906
1774473192003612000,0.77461181640625,-0.18368643522262573,0.4095801115036011,-0.9355597496032715
1774473192013631700,0.7846318359375,-0.16127167642116547,0.283054381608963,-0.916902482509613
1774473192023651800,0.79465185546875,-0.15290147066116333,0.10856907814741135,-0.8163139820098877
1774473192033672000,0.804671875,-0.15494544804096222,-0.07697362452745438,-0.6390446424484253
1774473192043691800,0.81469189453125,-0.15116411447525024,-0.21247994899749756,-0.4098840355873108
1774473192053712000,0.8247119140625,-0.14805833995342255,-0.2796909511089325,-0.17790965735912323
1774473192063732000,0.83473193359375,-0.145302876830101,-0.25928881764411926,0.02664197050035
1774473192073751800,0.844751708984375,-0.1277635544538498,-0.1919984519481659,0.18620046973228455
1774473192083773000,0.85477294921875,-0.027520975098013878,-0.10682593286037445,0.3015088438987732
1774473192093793000,0.86479296875,0.3874490559101105,0.20887050032615662,0.44988125562667847
1774473192103812900,0.874812744140625,0.364748477935791,0.4992818832397461,0.536055326461792
1774473192113833000,0.8848330078125,0.11306244879961014,0.33000311255455017,0.5128762722015381
1774473192123852800,0.894852783203125,-0.08593331277370453,-0.16048677265644073,0.39161911606788635
1774473192133872600,0.90487255859375,-0.10072451084852219,-0.48488110303878784,0.3120015263557434
1774473192143892700,0.914892822265625,-0.03736868500709534,-0.46622058749198914,0.33432015776634216
1774473192153912800,0.924912841796875,0.019203513860702515,-0.3375161588191986,0.40113645792007446
1774473192163933000,0.934932861328125,0.0373058021068573,-0.27485373616218567,0.47585684061050415
1774473192173952800,0.944952880859375,0.02504327893257141,-0.2532818615436554,0.5583255887031555
1774473192183972900,0.954972900390625,0.0034224428236484528,-0.24308353662490845,0.6527255773544312
1774473192193993700,0.96499365234375,-0.0014000092633068562,-0.2332863062620163,0.7287817597389221
1774473192204013800,0.975013916015625,0.028595728799700737,-0.2190185785293579,0.7763713002204895
1774473192214034000,0.985033935546875,0.07562049478292465,-0.2414860725402832,0.8044735193252563
1774473192224053800,0.9950537109375,0.10749934613704681,-0.3019697964191437,0.8242123126983643
1774473192234073900,1.005073974609375,0.12785175442695618,-0.35067716240882874,0.8408375978469849
1774473192244094000,1.015093994140625,0.14078360795974731,-0.3692435324192047,0.8687297105789185
1774473192254113800,1.02511376953125,0.15756738185882568,-0.3717591464519501,0.8987438082695007
1774473192264134000,1.0351337890625,0.18591731786727905,-0.3805486261844635,0.9185910820960999
1774473192274154000,1.045154052734375,0.2238979935646057,-0.3766193985939026,0.9291220307350159
1774473192284173800,1.055173828125,0.25438427925109863,-0.36870259046554565,0.9343794584274292
1774473192294193700,1.065193603515625,0.2715531587600708,-0.36587536334991455,0.9261505603790283
1774473192304213800,1.0752138671875,0.23966524004936218,-0.40646615624427795,0.9093004465103149
1774473192314234600,1.085234619140625,0.15928570926189423,-0.4509241580963135,0.8776072263717651
1774473192324254700,1.095254638671875,0.08975889533758163,-0.4198252260684967,0.8297879695892334
1774473192334274800,1.10527490234375,0.05312924087047577,-0.30447307229042053,0.7580522894859314
1774473192344295000,1.115294921875,0.026134055107831955,-0.033914316445589066,0.6118625998497009
1774473192354314800,1.125314697265625,0.03156876564025879,0.24094919860363007,0.4091705083847046
1774473192364334800,1.1353349609375,0.04753120243549347,0.31767353415489197,0.273518443107605
1774473192374355000,1.14535498046875,0.053762733936309814,0.28736063838005066,0.23713617026805878
1774473192384374800,1.155374755859375,0.06515737622976303,0.19034028053283691,0.29867783188819885
1774473192394395000,1.165394775390625,0.05149189382791519,0.0061802938580513,0.4557010233402252
1774473192404415000,1.1754150390625,0.007326943799853325,-0.3382621109485626,0.6783701777458191
1774473192414434800,1.185434814453125,-0.021268215030431747,-0.8111753463745117,0.9108811616897583
1774473192424456000,1.1954560546875,-0.03828207030892372,-1.1978477239608765,1.131263256072998
1774473192434475800,1.205475830078125,-0.04706810787320137,-1.3620669841766357,1.3192856311798096
1774473192444496000,1.215495849609375,-0.031948503106832504,-1.335543155670166,1.4179766178131104
1774473192454516000,1.225515869140625,0.013685296289622784,-1.180976152420044,1.412552833557129
1774473192464536000,1.2355361328125,0.06089439243078232,-0.9760488271713257,1.3431230783462524
1774473192474555400,1.245555419921875,0.113827645778656,-0.7283948063850403,1.2192151546478271
1774473192484575500,1.255575439453125,0.1413572132587433,-0.4389347732067108,1.0469367504119873
1774473192494595600,1.265595703125,0.14785052835941315,-0.1421789824962616,0.836097776889801
1774473192504615400,1.275615478515625,0.13562902808189392,0.04745069518685341,0.6097809076309204
1774473192514635500,1.285635498046875,0.1236882209777832,0.16874383389949799,0.4113712012767792
1774473192524655600,1.295655517578125,0.12259911745786667,0.2411544770002365,0.26999184489250183
1774473192534676500,1.305676513671875,0.12395226210355759,0.23984766006469727,0.2004479169845581
1774473192544696600,1.315696533203125,0.11337542533874512,0.17991936206817627,0.20718681812286377
1774473192554716400,1.32571630859375,0.11344946175813675,0.13496306538581848,0.2506014108657837
1774473192564736300,1.335736328125,0.12705501914024353,0.12997621297836304,0.2947164475917816
1774473192574756400,1.34575634765625,0.14236445724964142,0.15329591929912567,0.3302914798259735
1774473192584776400,1.3557763671875,0.15952293574810028,0.15770584344863892,0.3525720238685608
1774473192594796500,1.365796630859375,0.16914254426956177,0.10796493291854858,0.3677040934562683
1774473192604816400,1.37581640625,0.16403232514858246,0.053494129329919815,0.3953244090080261
1774473192614836500,1.38583642578125,0.15020306408405304,0.01590600796043873,0.4477612376213074
1774473192624856600,1.395856689453125,0.13587571680545807,-0.0034579774364829063,0.5048837661743164
1774473192634876400,1.40587646484375,0.0943988487124443,-0.06600284576416016,0.5619379878044128
1774473192644897500,1.4158974609375,0.05072478950023651,-0.1103043183684349,0.5462695956230164
1774473192654917400,1.42591748046875,0.0390433669090271,-0.05745122209191322,0.42962315678596497
1774473192664937500,1.4359375,0.022127117961645126,0.13244211673736572,0.3581749498844147
1774473192674957600,1.44595751953125,0.010577253997325897,0.35388264060020447,0.291871041059494
1774473192684977400,1.455977294921875,-0.007322192192077637,0.44759121537208557,0.1997174769639969
1774473192694997500,1.46599755859375,-0.014259993098676205,0.44727110862731934,0.11437965929508209
1774473192705017600,1.476017578125,-0.029780590906739235,0.42685624957084656,0.06817774474620819
1774473192715037700,1.48603759765625,-0.027084939181804657,0.4242146611213684,0.062303341925144196
1774473192725057300,1.496057373046875,-0.021782586351037025,0.4253157675266266,0.10309448838233948
1774473192735077400,1.506077392578125,-0.019131941720843315,0.3734443187713623,0.16276925802230835
1774473192745097500,1.516097412109375,-0.031548094004392624,0.26644814014434814,0.2125903218984604
1774473192755117300,1.526117431640625,-0.03598971664905548,0.1903373748064041,0.24551790952682495
1774473192765138400,1.536138427734375,-0.030570846050977707,0.13854360580444336,0.26884278655052185
1774473192775158500,1.546158447265625,-0.04161683842539787,0.08610169589519501,0.29590901732444763
1774473192785178400,1.556178466796875,-0.038565780967473984,0.03850168734788895,0.3376963436603546
1774473192795198500,1.566198486328125,-0.012293965555727482,0.08155914396047592,0.35386574268341064
1774473192805218600,1.576218505859375,0.0707540437579155,0.17586416006088257,0.2896185517311096
1774473192815238400,1.58623828125,0.15367156267166138,0.212652787566185,0.13037852942943573
1774473192825258500,1.596258544921875,0.23294280469417572,0.1274346560239792,-0.05347343161702156
1774473192835278600,1.606278564453125,0.27074718475341797,0.11212893575429916,-0.2306700497865677
1774473192845298400,1.61629833984375,0.24942216277122498,0.07941519469022751,-0.3616317808628082
1774473192855318500,1.626318603515625,0.19948603212833405,0.029538709670305252,-0.4263841509819031
1774473192865338600,1.636338623046875,0.29231104254722595,0.09833134710788727,-0.48436594009399414
1774473192875359500,1.646359375,0.36991554498672485,0.34370383620262146,-0.5047628283500671
1774473192885379600,1.656379638671875,0.3081124424934387,0.25793951749801636,-0.41659656167030334
1774473192895399700,1.666399658203125,0.17008690536022186,-0.11941975355148315,-0.35090169310569763
1774473192905419300,1.676419189453125,0.05499790608882904,-0.3340532183647156,-0.30281808972358704
1774473192915439400,1.686439453125,-0.019327986985445023,-0.34165892004966736,-0.28276529908180237
1774473192925459500,1.69645947265625,-0.02018108032643795,-0.5833987593650818,-0.2248036116361618
1774473192935479300,1.706479248046875,0.009435667656362057,-0.7994013428688049,-0.15751539170742035
1774473192945499400,1.71649951171875,0.05370944365859032,-0.8140398859977722,-0.10987761616706848
1774473192955519500,1.72651953125,0.031313057988882065,-0.4998556077480316,-0.062174271792173386
1774473192965539300,1.736539306640625,-0.04146120697259903,0.010584545321762562,-0.04971100762486458
1774473192975559400,1.746559326171875,0.03513742983341217,0.27237966656684875,-0.14027580618858337
1774473192985580500,1.75658056640625,0.028556346893310547,0.9485146403312683,-0.220160111784935
1774473192995600400,1.766600341796875,0.01696547120809555,1.3458456993103027,-0.2876954972743988
1774473193005620500,1.776620361328125,0.03437868505716324,1.1593143939971924,-0.2925010323524475
1774473193015640600,1.786640625,0.02819429524242878,1.126974105834961,-0.22608980536460876
1774473193025660400,1.796660400390625,-0.006927127484232187,1.230175256729126,-0.10620204359292984
1774473193035680500,1.806680419921875,-0.0706762820482254,1.6415936946868896,0.06568263471126556
1774473193045700600,1.81670068359375,-0.1458866149187088,2.0807511806488037,0.20884265005588531
1774473193055720400,1.826720458984375,-0.2532671391963959,1.982898473739624,0.307142049074173
1774473193065740500,1.836740478515625,-0.36458539962768555,1.568184494972229,0.4264538586139679
1774473193075760400,1.846760498046875,-0.5148830413818359,1.9064147472381592,0.6253030300140381
1774473193085780500,1.856780517578125,-0.4834941327571869,2.0064282417297363,0.772885262966156
1774473193095801300,1.86680126953125,-0.24946673214435577,1.7694077491760254,0.7312650680541992
1774473193105821400,1.876821533203125,0.07282508909702301,1.2022641897201538,0.6433337926864624
1774473193115841300,1.88684130859375,0.36896538734436035,0.6230165958404541,0.6648260354995728
1774473193125861400,1.896861328125,0.5587499737739563,0.09668193757534027,0.8995338678359985
1774473193135881500,1.906881591796875,0.6238182187080383,-0.17159052193164825,1.2295973300933838
1774473193145901600,1.916901611328125,0.5790761113166809,-0.5165672898292542,1.482184648513794
1774473193155921400,1.92692138671875,0.46766144037246704,-0.7684258818626404,1.582301139831543
1774473193165941500,1.93694140625,0.34236153960227966,-0.7539608478546143,1.5239646434783936
1774473193175961600,1.946961669921875,0.2936680316925049,-0.4918639361858368,1.3814730644226074
1774473193185981400,1.9569814453125,0.38877326250076294,-0.31263312697410583,1.1921665668487549
1774473193196002600,1.96700244140625,0.5175791382789612,-0.24292194843292236,1.0184533596038818
1774473193206022400,1.9770224609375,0.5964060425758362,-0.20885665714740753,0.9002249240875244
1774473193216042500,1.98704248046875,0.616436779499054,-0.3481961786746979,0.8398388028144836
1774473193226062600,1.9970625,0.622849702835083,-0.532640814781189,0.790726363658905
1774473193236082400,2.00708251953125,0.6262947916984558,-0.7023802995681763,0.6982342600822449
1774473193246102500,2.0171025390625,0.6120426654815674,-0.5048310160636902,0.4560021162033081
1774473193256122400,2.027122314453125,0.5683106184005737,-0.1554516851902008,0.11657532304525375
1774473193266142500,2.037142578125,0.5312288999557495,0.11434723436832428,-0.1128617599606514
1774473193276162300,2.047162353515625,0.48863112926483154,0.22062040865421295,-0.19054803252220154
1774473193286182400,2.057182373046875,0.4128977954387665,0.2829585373401642,-0.133726567029953
1774473193296202500,2.067202392578125,0.3144974410533905,0.4712482988834381,-0.022353967651724815
1774473193306223400,2.077223388671875,0.21871317923069,0.5009258985519409,0.02767316810786724
1774473193316243500,2.087243408203125,0.18402311205863953,0.4901773929595947,0.0168458204716444
1774473193326263600,2.097263671875,0.1526012271642685,0.4473465085029602,-0.041820377111434937
1774473193336283400,2.107283447265625,0.14351212978363037,0.3747607171535492,-0.11092434078454971
1774473193346303500,2.117303466796875,0.16643881797790527,0.3499745726585388,-0.1706506311893463
1774473193356323600,2.127323486328125,0.20401015877723694,0.3411589562892914,-0.276064395904541
1774473193366343400,2.137343505859375,0.23680199682712555,0.39019760489463806,-0.36677008867263794
1774473193376363500,2.147363525390625,0.22970519959926605,0.3528672754764557,-0.4080416262149811
1774473193386383600,2.157383544921875,0.20226982235908508,0.2926408350467682,-0.43169549107551575
1774473193396403500,2.167403564453125,0.16135726869106293,0.24834337830543518,-0.45390334725379944
1774473193406424600,2.177424560546875,0.15800896286964417,0.23235853016376495,-0.4820461571216583
1774473193416444400,2.1874443359375,0.15834611654281616,0.24328307807445526,-0.5211994051933289
1774473193426464500,2.197464599609375,0.1640634834766388,0.18442222476005554,-0.5255018472671509
1774473193436484600,2.207484619140625,0.15342974662780762,0.09096578508615494,-0.5116877555847168
1774473193446504400,2.21750439453125,0.1334533393383026,0.03288797289133072,-0.48701801896095276
1774473193456524300,2.227524169921875,0.13258621096611023,-0.021831996738910675,-0.4450111985206604
1774473193466544400,2.23754443359375,0.12380914390087128,-0.06877603381872177,-0.4060610830783844
1774473193476564700,2.247564697265625,0.1229606568813324,-0.06785564869642258,-0.3800223171710968
1774473193486584600,2.25758447265625,0.11685241013765335,-0.016040580347180367,-0.3599403500556946
1774473193496604700,2.267604736328125,0.08078042417764664,0.029104260727763176,-0.335321307182312
1774473193506625500,2.27762548828125,0.03328988701105118,0.08092592656612396,-0.30635732412338257
1774473193516645600,2.287645751953125,0.005736558698117733,0.11827462911605835,-0.30225151777267456
1774473193526665700,2.297665771484375,-0.002383544109761715,0.16775742173194885,-0.3191491663455963
1774473193536685800,2.307685791015625,0.00011130515486001968,0.1951592117547989,-0.3559098541736603
1774473193546705400,2.317705322265625,0.029584260657429695,0.1642303317785263,-0.4094114303588867
1774473193556725500,2.3277255859375,0.04863225668668747,0.0840795710682869,-0.42745089530944824
1774473193566745600,2.33774560546875,0.06229311600327492,-0.012360209599137306,-0.3955213725566864
1774473193576765400,2.347765380859375,0.06442444771528244,-0.07355565577745438,-0.3296169340610504
1774473193586785500,2.35778564453125,0.04451706260442734,-0.09058043360710144,-0.2414465993642807
1774473193596805600,2.3678056640625,0.021222928538918495,-0.00013708716141991317,-0.1319078505039215
1774473193606826500,2.377826416015625,0.03433102369308472,0.10128568857908249,-0.05477394536137581
1774473193616846600,2.3878466796875,0.06295468658208847,0.17934134602546692,-0.04312288016080856
1774473193626866700,2.39786669921875,0.07109420746564865,0.21757304668426514,-0.06330124288797379
1774473193636886500,2.407886474609375,0.07430464774370193,0.24834507703781128,-0.09467301517724991
1774473193646906600,2.41790673828125,0.07171311229467392,0.16034480929374695,-0.23610839247703552
1774473193656926700,2.4279267578125,0.09197896718978882,0.09335911273956299,-0.4710255563259125
1774473193666946600,2.437946533203125,0.17496690154075623,0.07221376895904541,-0.6451346278190613
1774473193676966700,2.447966552734375,0.2567853331565857,0.06452708691358566,-0.7327100038528442
1774473193686986800,2.45798681640625,0.3482036888599396,0.07771854102611542,-0.7184285521507263
1774473193697006600,2.468006591796875,0.43990805745124817,0.06116459518671036,-0.6745412349700928
1774473193707027700,2.47802783203125,0.5035186409950256,0.03447996452450752,-0.6004297733306885
1774473193717047800,2.4880478515625,0.5536747574806213,-0.06677208840847015,-0.5220691561698914
1774473193727067600,2.498067626953125,0.536773681640625,-0.25140246748924255,-0.4040318429470062
1774473193737087500,2.50808740234375,0.5546160936355591,-0.023163188248872757,-0.19641315937042236
1774473193747107600,2.518107666015625,0.6584267616271973,0.6392987370491028,-0.03691549226641655
1774473193757127400,2.52812744140625,0.7929155826568604,0.9222089648246765,-0.040012482553720474
1774473193767147500,2.5381474609375,0.8305371403694153,0.9438273310661316,0.0707751139998436
1774473193777167600,2.548167724609375,0.8577096462249756,0.9312199354171753,0.25015154480934143
1774473193787187500,2.5581875,0.9152438640594482,0.9368939399719238,0.4592306315898895
1774473193797207600,2.56820751953125,0.9726967811584473,1.033922791481018,0.6879562139511108
1774473193807228700,2.578228759765625,0.8954303860664368,1.1506484746932983,0.8802781105041504
1774473193817248500,2.58824853515625,0.8854060173034668,1.1720640659332275,0.9486126899719238
1774473193827268600,2.5982685546875,1.0081020593643188,0.8148980140686035,0.8244364857673645
1774473193837288700,2.608288818359375,1.1285808086395264,0.4302115738391876,0.679972767829895
1774473193847308500,2.61830859375,0.8022172451019287,0.23915885388851166,0.6918997168540955
1774473193857328600,2.62832861328125,0.4339255392551422,-0.18343980610370636,0.5928881764411926
1774473193867348700,2.6383486328125,0.2301340252161026,-0.7921061515808105,0.541802704334259
1774473193877368600,2.64836865234375,0.13461416959762573,-1.2603706121444702,0.6496085524559021
1774473193887388700,2.658388671875,0.07906167209148407,-1.2844206094741821,0.852024257183075
1774473193897409800,2.668409912109375,0.11912653595209122,-1.0681601762771606,0.9923582077026367
1774473193907429600,2.6784296875,0.2253682166337967,-0.8103256821632385,1.100290060043335
1774473193917449500,2.688449462890625,0.33211731910705566,-0.4109857678413391,1.1564838886260986
1774473193927469600,2.698469482421875,0.35772207379341125,0.27215394377708435,1.046134114265442
1774473193937489400,2.708489501953125,0.5097768306732178,0.8372248411178589,0.8648836016654968
1774473193947509500,2.718509521484375,0.5478149056434631,1.037088394165039,0.6538172364234924
1774473193957529600,2.728529541015625,0.603036105632782,1.231659173965454,0.47417744994163513
1774473193967549400,2.738549560546875,0.5243947505950928,1.2486361265182495,0.20175451040267944
1774473193977569500,2.748569580078125,0.4199937582015991,1.2890602350234985,0.06033853068947792
1774473193987590700,2.758590576171875,0.2867887318134308,1.4184777736663818,-0.07735396176576614
1774473193997610500,2.768610595703125,0.08096712827682495,1.6866607666015625,-0.27383533120155334
1774473194007630600,2.778630615234375,-0.14564858376979828,1.9391189813613892,-0.41047075390815735
1774473194017650700,2.788650634765625,-0.32311341166496277,2.070993185043335,-0.4707021415233612
1774473194027670500,2.79867041015625,-0.4915875196456909,1.9264757633209229,-0.49245789647102356
1774473194037690600,2.808690673828125,-0.6080486178398132,1.6090553998947144,-0.4157918691635132
1774473194047710700,2.818710693359375,-0.7072202563285828,1.3125016689300537,-0.32955095171928406
1774473194057730600,2.82873046875,-0.7876522541046143,1.0797781944274902,-0.19116376340389252
1774473194067750700,2.838750732421875,-0.8117233514785767,0.8757650256156921,0.010510069318115711
1774473194077771800,2.848771728515625,-0.7625390291213989,0.6833282113075256,0.1463584452867508
1774473194087791600,2.85879150390625,-0.6643175482749939,0.5270944833755493,0.24998965859413147
1774473194097811700,2.868811767578125,-0.564640462398529,0.34148144721984863,0.4067968428134918
1774473194107831600,2.87883154296875,-0.5141193270683289,0.12895146012306213,0.5952228307723999
1774473194117851400,2.888851318359375,-0.481747031211853,0.0015402500284835696,0.7561635375022888
1774473194127871500,2.89887158203125,-0.4292416572570801,-0.038029029965400696,0.8055708408355713
1774473194137891600,2.9088916015625,-0.41036224365234375,-0.06530033051967621,0.7915745973587036
1774473194147911400,2.918911376953125,-0.4106729328632355,-0.11033228039741516,0.753963828086853
1774473194157931500,2.928931640625,-0.4329151213169098,-0.014019324444234371,0.6222031116485596
1774473194167952600,2.93895263671875,-0.5065007209777832,0.169080913066864,0.4537460207939148
1774473194177972500,2.948972412109375,-0.5125892758369446,0.3795579969882965,0.27081426978111267
1774473194187992600,2.95899267578125,-0.44802674651145935,0.5288060903549194,0.08280438184738159
1774473194198012700,2.9690126953125,-0.23970843851566315,0.6710599064826965,-0.130377396941185
1774473194208032500,2.979032470703125,0.07456594705581665,0.8343886733055115,-0.2798271179199219
1774473194218052600,2.989052490234375,0.009749668650329113,0.8952525854110718,-0.29291975498199463
1774473194228072700,2.99907275390625,-0.14862486720085144,1.1576337814331055,-0.384552925825119
1774473194238092500,3.009092529296875,-0.27249833941459656,1.341981053352356,-0.48421427607536316
1774473194248113700,3.01911376953125,-0.31373587250709534,1.3045448064804077,-0.5807340741157532
1774473194258133800,3.0291337890625,-0.3062971234321594,1.2618719339370728,-0.6368716359138489
1774473194268153600,3.039153564453125,-0.165774866938591,1.1750884056091309,-0.6623901128768921
1774473194278173700,3.049173583984375,0.07107841968536377,0.8848382234573364,-0.6339483261108398
1774473194288193800,3.05919384765625,0.3081391453742981,0.9249655604362488,-0.6146944165229797
1774473194298213400,3.06921337890625,0.5799035429954529,0.9067599177360535,-0.5963370203971863
1774473194308233500,3.0792333984375,0.9509806036949158,0.8505891561508179,-0.4236002564430237
1774473194318253600,3.089253662109375,1.3748146295547485,1.0109484195709229,-0.13564518094062805
1774473194328274400,3.0992744140625,1.7338688373565674,0.9402981996536255,0.07368017733097076
1774473194338294500,3.10929443359375,2.016535997390747,0.8504948019981384,0.21308201551437378
1774473194348314600,3.119314697265625,2.030378818511963,0.6233983039855957,0.1915859580039978
1774473194358334500,3.12933447265625,1.8014456033706665,0.4365786612033844,0.14413481950759888
1774473194368354600,3.1393544921875,1.500584602355957,-0.3741151690483093,0.18846629559993744
1774473194378374700,3.149374755859375,0.7491875290870667,-1.2246757745742798,0.387645959854126
1774473194388394500,3.15939453125,-0.6079167127609253,-1.6745948791503906,0.04606015607714653
1774473194398414600,3.16941455078125,-1.556361198425293,-1.1912803649902344,-0.5574340224266052
1774473194408434700,3.1794345703125,-1.5630868673324585,-0.7235203981399536,-0.9223166108131409
1774473194418455600,3.18945556640625,-1.0980992317199707,-0.4389991760253906,-1.1066827774047852
1774473194428475600,3.1994755859375,-0.6261396408081055,-0.2710625231266022,-0.9952540397644043
1774473194438495700,3.209495849609375,-0.1951298713684082,0.07855941355228424,-0.6242908835411072
1774473194448515600,3.219515625,0.2556617259979248,0.19371461868286133,-0.33360299468040466
1774473194458535700,3.22953564453125,0.7308790683746338,0.18123744428157806,-0.15754114091396332
1774473194468555800,3.2395556640625,1.119205355644226,-0.22379601001739502,-0.21681813895702362
1774473194478575000,3.2495751953125,1.1981092691421509,-0.45825615525245667,-0.49387767910957336
1774473194488595000,3.259594970703125,0.9783172607421875,-0.6798348426818848,-0.8471550941467285
1774473194498616000,3.269615966796875,0.5570081472396851,-0.725095272064209,-1.1755868196487427
1774473194508636000,3.279635986328125,0.22528062760829926,-0.38515275716781616,-1.3310739994049072
1774473194518656000,3.289656005859375,0.19736777245998383,-0.06856361031532288,-1.436122179031372
1774473194528676000,3.299676025390625,0.26943719387054443,0.006694051902741194,-1.5380812883377075
1774473194538696000,3.309696044921875,0.34048956632614136,0.04115189611911774,-1.580427646636963
1774473194548716000,3.319716064453125,0.4202529489994049,0.038384512066841125,-1.5859251022338867
1774473194558736100,3.329736083984375,0.5559295415878296,0.17483848333358765,-1.588606595993042
1774473194568756200,3.339756103515625,0.6611806750297546,0.3720478415489197,-1.6777591705322266
1774473194578777000,3.349777099609375,0.7124910354614258,0.4908623993396759,-1.756026029586792
1774473194588797200,3.359797119140625,0.7721027731895447,0.549377977848053,-1.8078376054763794
1774473194598817000,3.369817138671875,0.715069591999054,0.5819931626319885,-1.842911958694458
1774473194608837000,3.379837158203125,0.47917014360427856,0.6105086207389832,-1.916054129600525
1774473194618857200,3.389857177734375,0.10463650524616241,0.7344270944595337,-2.0544378757476807
1774473194628877000,3.399876953125,-0.39692023396492004,0.7523102760314941,-2.174316883087158
1774473194638897200,3.409897216796875,-0.9576722383499146,0.8400840759277344,-2.3181018829345703
1774473194648917200,3.419917236328125,-1.5090259313583374,0.708967924118042,-2.402831554412842
1774473194658938000,3.429938232421875,-2.005810499191284,0.6562466621398926,-2.2858808040618896
1774473194668958200,3.439958251953125,-2.3961915969848633,0.8330286145210266,-2.210338830947876
1774473194678978300,3.449978271484375,-2.630495071411133,1.0408731698989868,-2.075348377227783
1774473194688998000,3.459997802734375,-2.5809922218322754,1.0076137781143188,-1.8604719638824463
1774473194699018000,3.47001806640625,-2.3967158794403076,0.8913128972053528,-1.528672456741333
1774473194709038000,3.4800380859375,-2.24047589302063,0.6699967980384827,-1.1678035259246826
1774473194719058000,3.490057861328125,-2.124514579772949,0.42590054869651794,-0.8616268038749695
1774473194729078000,3.500078125,-2.0047531127929688,0.2705690860748291,-0.6322399973869324
1774473194739098000,3.51009814453125,-1.8100850582122803,0.2056761085987091,-0.4737139642238617
1774473194749119000,3.520118896484375,-1.5863051414489746,0.24094900488853455,-0.22420071065425873
1774473194759139000,3.53013916015625,-1.1061036586761475,0.39964544773101807,0.057093799114227295
1774473194769159200,3.5401591796875,-0.3586643636226654,0.5692096948623657,0.27832528948783875
1774473194779179000,3.550178955078125,0.4675384759902954,0.6181844472885132,0.45161423087120056
1774473194789199000,3.56019921875,0.8025902509689331,0.4466221034526825,0.6167280077934265
1774473194799219200,3.57021923828125,0.8502046465873718,0.460743248462677,0.7900790572166443
1774473194809239000,3.580239013671875,0.9022930860519409,0.5914886593818665,0.8939288258552551
1774473194819259100,3.590259033203125,0.9976406693458557,0.6840230822563171,0.8732975721359253
1774473194829280300,3.6002802734375,1.160543441772461,0.5823202729225159,0.8205758929252625
1774473194839300000,3.610300048828125,1.3932815790176392,0.37247434258461,0.6518294811248779
1774473194849320200,3.6203203125,1.6369431018829346,0.15564051270484924,0.36039650440216064
1774473194859340300,3.63034033203125,1.781599521636963,-0.0030695083551108837,0.001475616474635899
1774473194869360000,3.640360107421875,1.8446694612503052,-0.08530817925930023,-0.28212156891822815
1774473194879380000,3.6503798828125,1.9411954879760742,-0.13453352451324463,-0.36482498049736023
1774473194889400000,3.660400146484375,1.9835923910140991,-0.21906332671642303,-0.2594210207462311
1774473194899420000,3.670419921875,1.89422607421875,-0.3277607560157776,-0.12054463475942612
1774473194909441000,3.68044091796875,1.5941911935806274,-0.46423396468162537,-0.05299443379044533
1774473194919461000,3.690461181640625,1.235586166381836,-0.7145774364471436,-0.0713963508605957
1774473194929481000,3.70048095703125,0.9070324301719666,-0.3438971936702728,0.10930619388818741
1774473194939501000,3.7105009765625,0.6306445002555847,-0.6738486886024475,0.2735092341899872
1774473194949521200,3.720521240234375,0.3281934857368469,-0.7526818513870239,0.1110653206706047
1774473194959541000,3.730541015625,0.21664750576019287,-0.7838467359542847,-0.11629113554954529
1774473194969561000,3.74056103515625,0.12300018966197968,-0.8231850862503052,-0.20199011266231537
1774473194979581200,3.750581298828125,0.010884301736950874,-0.9857257604598999,-0.3379133343696594
1774473194989602000,3.76060205078125,0.07814787328243256,-1.0497779846191406,-0.6313696503639221
1774473194999622100,3.7706220703125,0.3972233235836029,-0.9374682307243347,-0.8839558362960815
1774473195009642200,3.780642333984375,0.6231223940849304,-0.9517128467559814,-1.1035279035568237
1774473195019662000,3.790662109375,0.7392008304595947,-0.9648542404174805,-1.2768927812576294
1774473195029682200,3.80068212890625,0.8473649621009827,-1.0526788234710693,-1.3874566555023193
1774473195039702300,3.810702392578125,0.8756229281425476,-0.9796650409698486,-1.446654200553894
1774473195049722000,3.82072216796875,0.8155533671379089,-0.8000872135162354,-1.4828346967697144
1774473195059742000,3.830741943359375,0.7571502327919006,-0.6365326642990112,-1.366593837738037
1774473195069763000,3.84076318359375,0.6801503896713257,-0.5091305375099182,-1.080676794052124
1774473195079783200,3.850783203125,0.5893834829330444,-0.40115293860435486,-0.7599228024482727
1774473195089803000,3.860802978515625,0.395370215177536,0.03469885140657425,-0.4899575114250183
1774473195099823000,3.870822998046875,0.29067495465278625,0.2966436445713043,-0.2988285720348358
1774473195109843000,3.880843017578125,0.21590155363082886,0.4090174436569214,-0.09792837500572205
1774473195119863000,3.890863037109375,0.1579543650150299,0.6390711665153503,0.15552227199077606
1774473195129883100,3.900883056640625,0.058384526520967484,0.6513774394989014,0.31112051010131836
1774473195139903000,3.910903076171875,0.01770101487636566,0.539185106754303,0.32347092032432556
1774473195149924000,3.920924072265625,0.18835270404815674,0.31349462270736694,0.36013349890708923
1774473195159944000,3.93094384765625,0.4903583824634552,0.11283902823925018,0.34746670722961426
1774473195169964000,3.940964111328125,0.7619376182556152,0.1600673794746399,0.42865246534347534
1774473195179984100,3.950984130859375,1.0617178678512573,0.23513762652873993,0.49528768658638
1774473195190004200,3.961004150390625,1.2511318922042847,0.2594812214374542,0.5242859125137329
1774473195200024000,3.971024169921875,1.2014397382736206,0.2526901662349701,0.5065385699272156
1774473195210044200,3.981044189453125,1.0452314615249634,0.2622320353984833,0.4672071635723114
1774473195220064300,3.991064208984375,0.9471483826637268,0.3173866271972656,0.37316083908081055
1774473195230085000,4.001085205078125,0.8695905208587646,0.4394364058971405,0.24432635307312012
1774473195240105200,4.011105224609375,0.8379178047180176,0.44831350445747375,0.07633468508720398
1774473195250125000,4.021125,0.884636402130127,0.4096332788467407,-0.07507195323705673
1774473195260145200,4.031145263671875,0.8767643570899963,0.21565423905849457,-0.17189569771289825
1774473195270165200,4.041165283203125,0.8096547722816467,0.09142038971185684,-0.29767194390296936
1774473195280185000,4.05118505859375,0.7184225916862488,-0.14667367935180664,-0.443583607673645
1774473195290205000,4.061204833984375,0.6385908722877502,-0.5237666368484497,-0.5215103626251221
1774473195300225000,4.07122509765625,0.5977513194084167,-0.8230246901512146,-0.6269539594650269
1774473195310246000,4.081245849609375,0.6651865243911743,-1.1480339765548706,-0.7269684076309204
1774473195320266000,4.091265869140625,0.7482563853263855,-1.5432547330856323,-0.7906928062438965
1774473195330286000,4.1012861328125,0.7161522507667542,-1.9759092330932617,-0.8265952467918396
1774473195340306000,4.111305908203125,0.6480339169502258,-2.330734968185425,-0.8536361455917358
1774473195350326000,4.121325927734375,0.6248651742935181,-2.718630313873291,-0.9286413788795471
1774473195360346000,4.13134619140625,0.5660404562950134,-3.296140193939209,-1.0943632125854492
1774473195370366200,4.1413662109375,0.4613158404827118,-3.7513160705566406,-1.3218005895614624
1774473195380386000,4.151385986328125,0.29612740874290466,-3.930929660797119,-1.5738301277160645
1774473195390407200,4.1614072265625,0.33647704124450684,-3.4940905570983887,-1.8528902530670166
1774473195400427000,4.171427001953125,0.5465264320373535,-2.7441396713256836,-2.127899408340454
1774473195410447000,4.181447021484375,0.7208844423294067,-2.1851701736450195,-2.4693305492401123
1774473195420467200,4.19146728515625,0.690092146396637,-2.0168707370758057,-2.8605618476867676
1774473195430487000,4.201487060546875,0.5609826445579529,-2.0227749347686768,-3.1414668560028076
1774473195440507100,4.211507080078125,0.3968520164489746,-1.991710901260376,-3.2184574604034424
1774473195450527200,4.22152734375,0.18464495241641998,-1.898590087890625,-3.0578629970550537
1774473195460548000,4.231548095703125,-0.06512334197759628,-2.249157428741455,-2.658761501312256
1774473195470568400,4.241568359375,-0.19878949224948883,-2.6912102699279785,-2.0403406620025635
1774473195480588500,4.251588623046875,-0.07237190008163452,-2.877898931503296,-1.2148345708847046
1774473195490608400,4.2616083984375,0.2792988419532776,-2.4684126377105713,-0.5182187557220459
1774473195500628500,4.27162841796875,0.5578324198722839,-1.9224438667297363,-0.08203213661909103
1774473195510648600,4.281648681640625,0.6420174837112427,-1.411265254020691,0.30617114901542664
1774473195520668400,4.29166845703125,0.5391286611557007,-0.9275698065757751,0.7579668164253235
1774473195530688500,4.3016884765625,0.2779344320297241,-0.4297802150249481,1.1551902294158936
1774473195540709400,4.31170947265625,0.009195353835821152,0.22355152666568756,1.333709955215454
1774473195550729500,4.3217294921875,-0.09050103276968002,1.1056126356124878,1.3248662948608398
1774473195560749600,4.33174951171875,-0.1746388077735901,1.8150885105133057,1.1934175491333008
1774473195570769700,4.341769775390625,-0.45915722846984863,2.156280755996704,1.0665916204452515
1774473195580789500,4.35178955078125,-0.8832818269729614,2.3596420288085938,0.989036500453949
1774473195590809600,4.3618095703125,-1.3238489627838135,2.654315948486328,1.0121588706970215
1774473195600829700,4.37182958984375,-1.6373778581619263,3.2138917446136475,1.1461116075515747
1774473195610849500,4.381849609375,-1.8100111484527588,3.786351203918457,1.3209420442581177
1774473195620870700,4.39187060546875,-1.8732178211212158,4.312035083770752,1.5696570873260498
1774473195630890500,4.401890380859375,-1.7960517406463623,4.614326000213623,1.8483450412750244
1774473195640910600,4.41191064453125,-1.6652159690856934,4.3970232009887695,2.0741958618164062
1774473195650930400,4.421930419921875,-1.5531511306762695,3.8999526500701904,2.175957679748535
1774473195660950500,4.431950439453125,-1.5359735488891602,3.1418070793151855,2.180549144744873
1774473195670970400,4.441970458984375,-1.611596703529358,2.2156591415405273,2.1982593536376953
1774473195680990500,4.451990478515625,-1.6481471061706543,1.4697909355163574,2.201550006866455
1774473195691011300,4.46201123046875,-1.5637152194976807,0.7722625136375427,2.0902788639068604
1774473195701031400,4.472031494140625,-1.4421979188919067,0.28153565526008606,1.8767971992492676
1774473195711051500,4.482051513671875,-1.2070248126983643,0.03346485272049904,1.624611496925354
1774473195721071400,4.4920712890625,-0.9213807582855225,0.0709158182144165,1.3347249031066895
1774473195731091500,4.502091552734375,-0.6080575585365295,0.24016977846622467,0.9314368963241577
1774473195741111600,4.512111572265625,-0.35912975668907166,0.30965912342071533,0.5367210507392883
1774473195751131600,4.522131591796875,0.02075006440281868,0.06730939447879791,0.14088889956474304
1774473195761151500,4.5321513671875,0.2630457878112793,-0.40938207507133484,-0.2371249794960022
1774473195771172600,4.542172607421875,0.5047123432159424,-0.9092659950256348,-0.5325344204902649
1774473195781192400,4.5521923828125,0.7829011082649231,-1.5711227655410767,-0.727304995059967
1774473195791212500,4.562212646484375,1.0502432584762573,-2.25325608253479,-0.7775243520736694
1774473195801232600,4.572232666015625,1.262925148010254,-2.8399126529693604,-0.7751120328903198
1774473195811252500,4.58225244140625,1.4715886116027832,-3.228930950164795,-0.8106299638748169
1774473195821272600,4.5922724609375,1.6481906175613403,-3.3508713245391846,-0.8253723978996277
1774473195831292400,4.60229248046875,1.807637095451355,-3.265681743621826,-0.8254408836364746
1774473195841313500,4.6123134765625,1.9012365341186523,-3.1557505130767822,-0.8362634181976318
1774473195851333600,4.622333740234375,1.949912667274475,-2.974027633666992,-0.8315142393112183
1774473195861353500,4.632353515625,2.003324270248413,-2.786059856414795,-0.8074749708175659
1774473195871373300,4.642373291015625,1.9513859748840332,-2.5405380725860596,-0.7348303198814392
1774473195881393400,4.652393310546875,1.8188321590423584,-2.3007428646087646,-0.6125451326370239
1774473195891413500,4.66241357421875,1.6499155759811401,-2.0485494136810303,-0.48666396737098694
1774473195901433300,4.672433349609375,1.3284363746643066,-1.689742088317871,-0.38176682591438293
1774473195911454500,4.682454345703125,0.8643300533294678,-1.2750149965286255,-0.3454403281211853
1774473195921474600,4.692474609375,0.34044021368026733,-0.7982303500175476,-0.21957267820835114
1774473195931494400,4.702494384765625,-0.23304186761379242,-0.4007914066314697,-0.09408324956893921
1774473195941514500,4.712514404296875,-0.7865170836448669,-0.1590765118598938,0.08651422709226608
1774473195951534600,4.72253466796875,-1.3348464965820312,-0.0553264357149601,0.28601059317588806
1774473195961554400,4.732554443359375,-1.6874197721481323,-0.03950805962085724,0.41609883308410645
1774473195971574500,4.742574462890625,-1.8819068670272827,-0.2169351726770401,0.4663277864456177
1774473195981594600,4.7525947265625,-1.9960120916366577,-0.45490941405296326,0.5329529047012329
1774473195991615500,4.762615478515625,-2.114103317260742,-0.6801281571388245,0.5534589886665344
1774473196001635600,4.772635498046875,-2.1315526962280273,-0.911570131778717,0.5984120965003967
1774473196011655700,4.78265576171875,-2.022791862487793,-0.9472330212593079,0.7204931378364563
1774473196021675500,4.792675537109375,-1.8966275453567505,-0.7625910043716431,0.9501588344573975
1774473196031695600,4.802695556640625,-1.6838397979736328,-0.3113945722579956,1.193982481956482
1774473196041715700,4.8127158203125,-1.4786314964294434,0.06225491687655449,1.2527011632919312
1774473196051735300,4.8227353515625,-1.6505193710327148,0.1532377153635025,0.9298102855682373
1774473196061756700,4.832756591796875,-1.9618672132492065,-0.05007067322731018,0.36719197034835815
1774473196071776500,4.842776611328125,-2.056203603744507,0.6341880559921265,0.5604395270347595
1774473196081796400,4.85279638671875,-1.9994980096817017,1.2132500410079956,1.0144277811050415
1774473196091816400,4.86281640625,-1.901222825050354,1.694992184638977,1.268484354019165
1774473196101836500,4.87283642578125,-1.873146414756775,1.9441277980804443,1.0902503728866577
1774473196111856400,4.8828564453125,-1.8478182554244995,1.7803539037704468,0.5958922505378723
1774473196121876500,4.89287646484375,-1.7569737434387207,1.5795890092849731,0.12106343358755112
1774473196131897300,4.9028974609375,-1.5271074771881104,1.407729983329773,-0.17487695813179016
1774473196141917400,4.91291748046875,-1.3456207513809204,1.2444257736206055,-0.36683255434036255
1774473196151937500,4.9229375,-1.3546253442764282,0.9637930393218994,-0.6299306154251099
1774473196161957400,4.932957275390625,-1.544193148612976,0.5199578404426575,-1.1012011766433716
1774473196171977500,4.9429775390625,-1.8047608137130737,0.08151393383741379,-1.6893051862716675
1774473196181997600,4.95299755859375,-1.662716031074524,-0.8508206605911255,-1.9484694004058838
1774473196192017700,4.963017578125,-1.0738115310668945,-1.5734893083572388,-1.7922619581222534
1774473196202038500,4.97303857421875,-0.235547736287117,-1.6487417221069336,-1.5901250839233398
1774473196212058600,4.98305859375,0.5957996249198914,-1.7142939567565918,-1.4834741353988647
1774473196222078500,4.993078369140625,1.1432548761367798,-1.7650567293167114,-1.4365193843841553
1774473196232098600,5.0030986328125,1.4491983652114868,-1.7377413511276245,-1.3482575416564941
1774473196242118700,5.01311865234375,1.504253625869751,-1.484631061553955,-1.206897497177124
1774473196252138500,5.023138427734375,1.3100756406784058,-1.0955915451049805,-0.9937998652458191
1774473196262158300,5.033158447265625,1.0522654056549072,-0.6836399435997009,-0.8952720165252686
1774473196272179700,5.0431796875,0.7064236402511597,-0.1946403682231903,-0.9294644594192505
1774473196282199600,5.053199462890625,0.476383239030838,-0.14217369258403778,-0.8944718241691589
1774473196292219400,5.063219482421875,0.31148695945739746,-0.2877599000930786,-0.7425835132598877
1774473196302239500,5.073239501953125,0.23308616876602173,-0.8085780739784241,-0.33811643719673157
1774473196312259300,5.08325927734375,0.12334754317998886,-1.4975978136062622,0.2307194471359253
1774473196322279400,5.093279541015625,-0.049314241856336594,-1.536475658416748,0.48459407687187195
1774473196332300500,5.103300537109375,-0.11097738146781921,-1.193479061126709,0.5570046901702881
1774473196342320400,5.1133203125,-0.1315969079732895,-0.812335193157196,0.3151981830596924
1774473196352340500,5.123340576171875,-0.17889563739299774,-0.6736630797386169,0.04863835126161575
1774473196362360600,5.133360595703125,-0.2640233337879181,-0.7131180763244629,-0.14951041340827942
1774473196372380400,5.14338037109375,-0.3169054090976715,-0.9338907599449158,-0.25932246446609497
1774473196382400500,5.153400390625,-0.34163686633110046,-1.2369071245193481,-0.30254900455474854
1774473196392420600,5.163420654296875,-0.32611745595932007,-1.7393739223480225,-0.33438533544540405
1774473196402441500,5.17344140625,-0.3285670578479767,-2.2810750007629395,-0.48695382475852966
1774473196412461600,5.183461669921875,-0.20639891922473907,-2.684814691543579,-0.7854722142219543
1774473196422481700,5.193481689453125,-0.002607716014608741,-3.1160802841186523,-1.0630481243133545
1774473196432501500,5.20350146484375,0.20547285676002502,-3.4813032150268555,-1.2506718635559082
1774473196442521600,5.213521484375,0.41894492506980896,-3.5217950344085693,-1.448764681816101
1774473196452541700,5.223541748046875,0.6530716419219971,-3.888448476791382,-1.6535011529922485
1774473196462561500,5.2335615234375,0.866396963596344,-3.8891918659210205,-1.7852036952972412
1774473196472582400,5.24358251953125,1.063044548034668,-3.851731538772583,-1.7396636009216309
1774473196482602200,5.253602294921875,1.1241251230239868,-3.73447322845459,-1.60360848903656
1774473196492622300,5.263622314453125,1.1138453483581543,-3.1973092555999756,-1.376192569732666
1774473196502642400,5.273642333984375,1.0780987739562988,-2.3916401863098145,-1.1169638633728027
1774473196512662500,5.28366259765625,0.9501174688339233,-1.58966064453125,-0.8197956681251526
1774473196522682400,5.293682373046875,0.7873120903968811,-1.0467199087142944,-0.44537919759750366
1774473196532703500,5.303703369140625,0.6129025816917419,-0.8470010161399841,-0.05078084394335747
1774473196542723300,5.313723388671875,0.4264732599258423,-0.6213425993919373,0.3539043366909027
1774473196552743400,5.323743408203125,0.26541176438331604,-0.5708402991294861,0.5331045985221863
1774473196562763500,5.333763427734375,0.19746068120002747,-0.4130825996398926,0.5835760235786438
1774473196572783000,5.343783203125,0.2756858468055725,-0.32092341780662537,0.4932827353477478
1774473196582803200,5.35380322265625,0.42473286390304565,-0.48079192638397217,0.3419345021247864
1774473196592823300,5.3638232421875,0.5164210200309753,-0.5787855386734009,0.19546163082122803
1774473196602844200,5.37384423828125,0.590564489364624,-0.5120278596878052,-0.034703388810157776
1774473196612864300,5.3838642578125,0.5918518304824829,-0.588690459728241,-0.3077750504016876
1774473196622884400,5.39388427734375,0.44871753454208374,-0.8001635670661926,-0.50025874376297
1774473196632904200,5.403904296875,0.23274283111095428,-0.9719803929328918,-0.6190282106399536
1774473196642924300,5.41392431640625,0.15834449231624603,-1.031956672668457,-0.627744197845459
1774473196652944400,5.4239443359375,0.24401508271694183,-0.9536371827125549,-0.48885250091552734
1774473196662965200,5.43396533203125,0.2299695760011673,-0.581307053565979,-0.351880818605423
1774473196672985300,5.4439853515625,0.21847575902938843,-0.34598714113235474,-0.3316318392753601
1774473196683005400,5.45400537109375,0.21859027445316315,-0.31546837091445923,-0.345132976770401
1774473196693025300,5.464025390625,0.2197989970445633,-0.43324270844459534,-0.35028213262557983
1774473196703045400,5.47404541015625,0.17783556878566742,-0.61627197265625,-0.2733505964279175
1774473196713065500,5.4840654296875,0.15530209243297577,-0.8380807042121887,-0.06711145490407944
1774473196723085300,5.494085205078125,0.12284721434116364,-0.5515802502632141,-0.06947128474712372
1774473196733106400,5.5041064453125,0.09796525537967682,-0.3407226502895355,-0.12129317224025726
1774473196743126300,5.514126220703125,0.1579233855009079,-0.37209147214889526,-0.2794415354728699
1774473196753146400,5.524146484375,0.26966214179992676,-0.40443161129951477,-0.48009389638900757
1774473196763166500,5.53416650390625,0.3474043309688568,-0.328538715839386,-0.6253410577774048
1774473196773186600,5.5441865234375,0.3146461248397827,-0.20385482907295227,-0.7152842879295349
1774473196783206100,5.5542060546875,0.17281201481819153,-0.08680863678455353,-0.76540607213974
1774473196793227500,5.5642275390625,0.06305883079767227,-0.0996411144733429,-0.7492337226867676
1774473196803247400,5.574247314453125,-0.021408377215266228,-0.23406575620174408,-0.695173978805542
1774473196813267200,5.58426708984375,-0.10387319326400757,-0.4151608347892761,-0.6060535907745361
1774473196823287300,5.594287353515625,-0.22601188719272614,-0.314559668302536,-0.546520471572876
1774473196833307400,5.604307373046875,-0.24205322563648224,-0.27882060408592224,-0.5125867128372192
1774473196843327200,5.6143271484375,-0.20681454241275787,-0.322697252035141,-0.498229056596756
1774473196853347300,5.624347412109375,-0.2330431491136551,-0.2552677392959595,-0.47160446643829346
1774473196863368200,5.6343681640625,-0.31346315145492554,-0.27815309166908264,-0.4737626910209656
1774473196873388300,5.64438818359375,-0.3419206142425537,-0.29542553424835205,-0.4976651072502136
1774473196883408400,5.654408447265625,-0.34699898958206177,-0.1864313930273056,-0.4985567331314087
1774473196893428200,5.66442822265625,-0.3937617540359497,-0.044675201177597046,-0.4475097358226776
1774473196903448300,5.6744482421875,-0.4793195426464081,0.0838465541601181,-0.4060903787612915
1774473196913468400,5.684468505859375,-0.5006457567214966,-0.0221989918500185,-0.38409656286239624
1774473196923489300,5.6944892578125,-0.41992291808128357,-0.2567180097103119,-0.3321894407272339
1774473196933509400,5.70450927734375,-0.3673655688762665,-0.31120210886001587,-0.248219832777977
1774473196943529500,5.714529541015625,-0.387084424495697,-0.3822789490222931,-0.18151110410690308
1774473196953549300,5.72454931640625,-0.44471418857574463,-0.414040744304657,-0.16979579627513885
1774473196963569400,5.7345693359375,-0.560361921787262,-0.5573930740356445,-0.19416958093643188
1774473196973589500,5.744589599609375,-0.6124203205108643,-0.95030277967453,-0.2529338300228119
1774473196983610400,5.7546103515625,-0.5572627782821655,-1.0912405252456665,-0.227483868598938
1774473196993630500,5.76463037109375,-0.4540958106517792,-0.9647469520568848,-0.24064907431602478
1774473197003650300,5.774650390625,-0.4380982220172882,-0.7853047251701355,-0.38483792543411255
1774473197013670400,5.78467041015625,-0.49760901927948,-0.8525991439819336,-0.609874963760376
1774473197023690200,5.794690185546875,-0.5783566236495972,-0.8230804204940796,-0.7797476053237915
1774473197033710300,5.80471044921875,-0.6311715841293335,-0.6205549836158752,-0.9700480699539185
1774473197043731500,5.8147314453125,-0.7193976044654846,-0.2946551442146301,-1.1047645807266235
1774473197053751300,5.824751220703125,-0.8312925696372986,0.0032707855571061373,-1.1639212369918823
1774473197063771100,5.834771240234375,-0.9245716333389282,0.15341661870479584,-1.1865192651748657
1774473197073791200,5.844791259765625,-0.9845587015151978,0.32658201456069946,-1.1929908990859985
1774473197083811300,5.854811279296875,-1.055360198020935,0.5249714851379395,-1.130273461341858
1774473197093831400,5.86483154296875,-1.0975576639175415,0.6905912160873413,-0.9888330101966858
1774473197103852300,5.874852294921875,-1.0915309190750122,0.8198370337486267,-0.8747476935386658
1774473197113872400,5.884872314453125,-1.0423880815505981,0.8388028740882874,-0.7334388494491577
1774473197123892200,5.894892333984375,-0.9129711985588074,0.98930823802948,-0.7295844554901123
1774473197133912300,5.904912353515625,-0.6555193066596985,1.5034692287445068,-0.8212889432907104
1774473197143932400,5.914932373046875,-0.42784059047698975,1.8518599271774292,-0.7663639187812805
1774473197153952300,5.9249521484375,-0.24478588998317719,2.1559410095214844,-0.6991435289382935
1774473197163973400,5.934973388671875,-0.305488646030426,2.632035732269287,-0.7813361287117004
1774473197173993500,5.944993408203125,-0.42845359444618225,3.118581771850586,-0.9443387389183044
1774473197184013300,5.955013427734375,-0.40450406074523926,3.7660787105560303,-1.0664886236190796
1774473197194033400,5.965033447265625,0.22388461232185364,3.807408332824707,-1.3287211656570435
1774473197204053500,5.975053466796875,0.8729294538497925,3.7006566524505615,-1.3360522985458374
1774473197214073300,5.9850732421875,1.4908617734909058,3.358203649520874,-1.0502814054489136
1774473197224094500,5.995094482421875,1.7572380304336548,2.9951231479644775,-0.7198496460914612
1774473197234114300,6.0051142578125,1.7039859294891357,2.565061569213867,-0.510424017906189
1774473197244134400,6.015134521484375,1.455515742301941,2.0160272121429443,-0.4371623396873474
1774473197254154500,6.025154541015625,1.1473333835601807,1.3819323778152466,-0.41441482305526733
1774473197264174300,6.03517431640625,0.8613764643669128,0.7412720322608948,-0.24479332566261292
1774473197274194200,6.045194091796875,0.7881138920783997,0.4741859436035156,-0.06615721434354782
1774473197284215600,6.055215576171875,0.6709475517272949,0.4711363613605499,0.1763118952512741
1774473197294235100,6.065235107421875,0.2662181854248047,0.23328886926174164,0.20602640509605408
1774473197304255200,6.075255126953125,0.0733773410320282,0.05557374283671379,0.13299641013145447
1774473197314275300,6.085275390625,0.11923491209745407,0.206108957529068,0.051237840205430984
1774473197324295200,6.095295166015625,-0.1159437820315361,0.34796783328056335,-0.1438794583082199
1774473197334315300,6.105315185546875,-0.3967030942440033,0.5355164408683777,-0.47642141580581665
1774473197344336400,6.11533642578125,-0.5291969180107117,0.49646708369255066,-0.5495281219482422
1774473197354356200,6.125356201171875,-0.5700057148933411,0.2138615846633911,-0.6710730791091919
1774473197364376300,6.135376220703125,-0.6014422178268433,-0.1629386842250824,-0.9173027873039246
1774473197374396400,6.145396484375,-0.6771734356880188,-0.36269864439964294,-1.2109270095825195
1774473197384416300,6.155416259765625,-0.7333179116249084,-0.21718645095825195,-1.3613122701644897
1774473197394436400,6.165436279296875,-0.5654557943344116,-0.04795975610613823,-1.3523898124694824
1774473197404457200,6.175457275390625,-0.27294212579727173,0.06480780243873596,-1.3163412809371948
1774473197414477300,6.185477294921875,0.02386193908751011,-0.08424197882413864,-1.334182858467102
1774473197424497400,6.195497314453125,0.25969603657722473,-0.20883184671401978,-1.3464443683624268
1774473197434517500,6.205517578125,0.4835502803325653,-0.30368372797966003,-1.2995115518569946
1774473197444537300,6.215537353515625,0.45829471945762634,-0.2831997573375702,-1.167910099029541
1774473197454557400,6.225557373046875,0.4633384943008423,-0.26120710372924805,-1.0840191841125488
1774473197464578300,6.235578369140625,0.41953909397125244,-0.09080127626657486,-1.02692449092865
1774473197474598400,6.245598388671875,0.482153981924057,0.2353038638830185,-1.1105527877807617
1774473197484618500,6.255618408203125,0.4072893261909485,0.6024030447006226,-1.1622051000595093
1774473197494638300,6.265638427734375,0.2993955612182617,0.8571207523345947,-1.1724894046783447
1774473197504658400,6.275658447265625,0.23995113372802734,1.0074352025985718,-1.09498929977417
1774473197514679600,6.285679443359375,0.16299845278263092,0.9716618061065674,-1.0081181526184082
1774473197524699400,6.295699462890625,0.06704369187355042,0.9287719130516052,-0.9779949188232422
1774473197534719200,6.30571923828125,0.017522025853395462,0.9777650833129883,-0.9130649566650391
1774473197544739300,6.3157392578125,0.006952737458050251,1.0469350814819336,-0.8399295210838318
1774473197554759200,6.32575927734375,0.10322132706642151,1.1998581886291504,-0.7909287810325623
1774473197564779300,6.335779296875,0.36414188146591187,1.508698582649231,-0.631938636302948
1774473197574800100,6.345800048828125,0.34419041872024536,1.6803090572357178,-0.5363091826438904
1774473197584820200,6.3558203125,0.3098931610584259,1.541610598564148,-0.519599437713623
1774473197594840300,6.36584033203125,0.2660057842731476,1.0885016918182373,-0.40131986141204834
1774473197604860400,6.3758603515625,0.24962972104549408,0.9407250285148621,-0.2932703495025635
1774473197614880300,6.38588037109375,0.04804950952529907,0.68813157081604,-0.21985578536987305
1774473197624900400,6.395900390625,-0.19906574487686157,0.2837311029434204,-0.17184005677700043
1774473197634921200,6.405921142578125,-0.24422776699066162,0.3562321066856384,-0.18139030039310455
1774473197644941300,6.41594140625,-0.24013501405715942,0.5731122493743896,-0.1523815542459488
1774473197654961400,6.42596142578125,-0.3591349422931671,0.5133960843086243,-0.1822482943534851
1774473197664981200,6.435981201171875,-0.5068836808204651,0.521870493888855,-0.3188985586166382
1774473197675001300,6.44600146484375,-0.4823380708694458,0.6306532025337219,-0.3840522766113281
1774473197685022500,6.4560224609375,-0.5109984874725342,0.4901362955570221,-0.37954115867614746
1774473197695042300,6.466042236328125,-0.5800232887268066,0.2036229372024536,-0.35674357414245605
1774473197705062400,6.4760625,-0.6143777966499329,-0.3351454436779022,-0.34874263405799866
1774473197715082500,6.48608251953125,-0.6695709824562073,-0.9630083441734314,-0.24833954870700836
1774473197725102300,6.496102294921875,-0.618845522403717,-1.3670756816864014,-0.10373655706644058
1774473197735122400,6.506122314453125,-0.46981531381607056,-2.0114920139312744,0.0016521784709766507
1774473197745143300,6.516143310546875,-0.16256561875343323,-2.5125765800476074,0.04922502115368843
1774473197755163400,6.526163330078125,-0.053013551980257034,-2.1738455295562744,-0.08958984911441803
1774473197765183500,6.53618359375,-0.161871999502182,-1.7791662216186523,-0.27614226937294006
1774473197775203300,6.546203369140625,-0.27571603655815125,-1.4582064151763916,-0.536586582660675
1774473197785223200,6.55622314453125,-0.1770627200603485,-0.6726675629615784,-0.7083855271339417
1774473197795244500,6.56624462890625,-0.13228808343410492,-0.34194913506507874,-0.8085338473320007
1774473197805264100,6.57626416015625,-0.16232454776763916,-0.369384765625,-0.9190678596496582
1774473197815284200,6.5862841796875,-0.20981831848621368,-0.14824803173542023,-0.9366655349731445
1774473197825304300,6.59630419921875,-0.20949368178844452,0.11386001855134964,-0.8305787444114685
1774473197835324200,6.60632421875,-0.21311619877815247,0.11726712435483932,-0.6137081384658813
1774473197845344300,6.61634423828125,-0.25013840198516846,0.08394964784383774,-0.40993526577949524
1774473197855365400,6.626365478515625,-0.3585430085659027,0.21311847865581512,-0.3135037124156952
1774473197865385200,6.63638525390625,-0.5500714182853699,0.05015166103839874,-0.19803600013256073
1774473197875405300,6.6464052734375,-0.6832091808319092,-0.16774976253509521,-0.09069383889436722
1774473197885425400,6.65642529296875,-0.7744219303131104,-0.2801141142845154,0.011060753837227821
1774473197895445200,6.6664453125,-0.819320559501648,-0.4900170862674713,0.18574315309524536
1774473197905466400,6.67646630859375,-0.825306236743927,-0.35748645663261414,0.3479885160923004
1774473197915486200,6.686486328125,-0.906598687171936,-0.17184759676456451,0.3891734778881073
1774473197925506300,6.69650634765625,-0.9626145362854004,0.12357285618782043,0.35665470361709595
1774473197935526400,6.7065263671875,-0.9170511960983276,0.46414914727211,0.3214811682701111
1774473197945546500,6.71654638671875,-0.8214298486709595,0.7674078345298767,0.3859717547893524
1774473197955566300,6.72656640625,-0.6385098695755005,0.8899326920509338,0.4460547864437103
1774473197965587500,6.73658740234375,-0.4225246012210846,1.0211354494094849,0.5095956921577454
1774473197975607300,6.746607177734375,-0.22928181290626526,0.8015896677970886,0.5235199332237244
1774473197985627400,6.75662744140625,-0.04969899356365204,0.7238717079162598,0.5658644437789917
1774473197995647500,6.7666474609375,0.010634191334247589,0.6156768202781677,0.553594172000885
1774473198005667300,6.776667236328125,0.08397632092237473,0.8404731750488281,0.625405490398407
1774473198015688400,6.7866884765625,0.15564222633838654,1.34229576587677,0.7295106053352356
1774473198025708500,6.79670849609375,0.27655908465385437,1.2059102058410645,0.8371630311012268
1774473198035728400,6.806728271484375,0.5023838877677917,1.0602227449417114,1.0191123485565186
1774473198045748200,6.816748291015625,0.7608524560928345,1.2009884119033813,1.1510717868804932
1774473198055768300,6.826768310546875,1.183282732963562,1.4591761827468872,1.292982816696167
1774473198065788200,6.8367880859375,1.4716449975967407,1.8411967754364014,1.4151337146759033
1774473198075809300,6.846809326171875,1.7097804546356201,1.9657087326049805,1.4585212469100952
1774473198085829400,6.856829345703125,1.8914629220962524,2.161435842514038,1.4676648378372192
1774473198095849200,6.86684912109375,2.0186052322387695,2.4446139335632324,1.427890419960022
1774473198105869300,6.876869384765625,2.3142919540405273,2.7404167652130127,1.4494234323501587
1774473198115889400,6.886889404296875,2.519476890563965,3.2920334339141846,1.4203301668167114
1774473198125910300,6.89691015625,2.696126699447632,3.461394786834717,1.286864995956421
1774473198135930400,6.906930419921875,2.8415253162384033,3.3872671127319336,1.1729154586791992
1774473198145950200,6.9169501953125,2.9110639095306396,3.068979501724243,1.2171331644058228
1774473198155970300,6.92697021484375,2.9695725440979004,2.5590660572052,1.3250362873077393
1774473198165990400,6.936990478515625,2.998255729675293,2.1040914058685303,1.4086757898330688
1774473198176011300,6.94701123046875,2.9524312019348145,1.8905596733093262,1.3726983070373535
1774473198186031400,6.95703125,2.813103437423706,1.8412472009658813,1.1050101518630981
1774473198196051500,6.967051513671875,2.6465373039245605,1.3573821783065796,0.8324156999588013
1774473198206071300,6.9770712890625,2.54459285736084,0.8325868844985962,0.5611581206321716
1774473198216091400,6.98709130859375,2.4408555030822754,0.4539893865585327,0.2919256389141083
1774473198226112300,6.9971123046875,2.300807476043701,0.2678906321525574,0.03624381870031357
1774473198236132400,7.00713232421875,2.1001710891723633,-0.05334435775876045,-0.12218419462442398
1774473198246152400,7.01715234375,1.8756273984909058,-0.3781759738922119,-0.21751391887664795
1774473198256172500,7.027172607421875,1.7287665605545044,-0.6175214052200317,-0.2786653935909271
1774473198266192400,7.0371923828125,1.5355206727981567,-0.768200695514679,-0.3072105050086975
1774473198276213500,7.047213623046875,1.3405687808990479,-0.763933539390564,-0.37364012002944946
1774473198286233300,7.0572333984375,1.1174196004867554,-0.7777087092399597,-0.4689706265926361
1774473198296253400,7.06725341796875,0.8548305630683899,-0.703548789024353,-0.6059737205505371
1774473198306273500,7.0772734375,0.5848389863967896,-0.6840839982032776,-0.7917318344116211
1774473198316293000,7.087293212890625,0.346885085105896,-0.8347839713096619,-0.9841495752334595
1774473198326314500,7.097314453125,0.17362037301063538,-0.9652943015098572,-1.1702136993408203
1774473198336334300,7.107334228515625,0.010482010431587696,-1.0794126987457275,-1.425162672996521
1774473198346354200,7.117354248046875,-0.037740644067525864,-1.1469253301620483,-1.701047420501709
1774473198356374300,7.127374267578125,-0.0968913659453392,-1.096169352531433,-1.9585061073303223
1774473198366394400,7.137394287109375,-0.13464540243148804,-1.1387386322021484,-2.115812063217163
1774473198376415200,7.147415283203125,-0.17296409606933594,-1.0223678350448608,-2.310274124145508
1774473198386435300,7.157435302734375,-0.23953433334827423,-1.09580397605896,-2.5781891345977783
1774473198396455200,7.167455078125,-0.2963211238384247,-1.4508907794952393,-2.787571668624878
1774473198406475300,7.177475341796875,-0.3465781807899475,-1.593320369720459,-2.835292339324951
1774473198416496400,7.187496337890625,-0.35142382979393005,-1.5496686697006226,-2.7884769439697266
1774473198426516200,7.19751611328125,-0.325685977935791,-1.3811182975769043,-2.6305651664733887
1774473198436536300,7.207536376953125,-0.282875120639801,-1.0654748678207397,-2.5312628746032715
1774473198446556400,7.217556396484375,-0.2268691062927246,-0.8615177869796753,-2.257171392440796
1774473198456576300,7.227576171875,-0.15402813255786896,-0.4965405762195587,-2.0972282886505127
1774473198466597400,7.237597412109375,-0.07552161067724228,-0.4726773202419281,-1.9632987976074219
1774473198476617500,7.247617431640625,-0.009360636584460735,-0.5917706489562988,-1.7948384284973145
1774473198486637300,7.25763720703125,0.06560947746038437,-0.48964643478393555,-1.4727658033370972
1774473198496657400,7.267657470703125,0.10617207735776901,-0.10786896198987961,-1.2266650199890137
1774473198506677500,7.277677490234375,0.21490921080112457,-0.23755665123462677,-1.0330595970153809
1774473198516698400,7.287698486328125,0.2373732030391693,-0.05909798666834831,-0.7783688902854919
1774473198526718500,7.297718505859375,0.26947280764579773,-0.2842104732990265,-0.4379526972770691
1774473198536738300,7.30773828125,0.28154581785202026,-1.0235928297042847,-0.11123012006282806
1774473198546758400,7.31775830078125,0.3140784800052643,-0.1648799031972885,0.10363823920488358
1774473198556779300,7.327779296875,0.36030617356300354,0.16400228440761566,0.29918351769447327
1774473198566799400,7.33779931640625,0.4009998142719269,0.24416236579418182,0.3986792266368866
1774473198576819500,7.3478193359375,0.3675210177898407,0.12575003504753113,0.44346901774406433
1774473198586839600,7.357839599609375,0.29983943700790405,0.08750437200069427,0.43829289078712463
1774473198596859400,7.367859375,0.23933802545070648,0.14200569689273834,0.4490579068660736
1774473198606880500,7.377880615234375,0.1786150187253952,0.2683841586112976,0.49895143508911133
1774473198616900400,7.387900390625,0.1040765643119812,0.32716140151023865,0.5751426219940186
1774473198626920400,7.39792041015625,0.0079284543171525,0.3475697338581085,0.6757451295852661
1774473198636940500,7.4079404296875,-0.1312185823917389,0.3778499960899353,0.8090553879737854
1774473198646961400,7.41796142578125,-0.3495844602584839,0.47369876503944397,0.9657885432243347
1774473198656981500,7.4279814453125,-0.6387385725975037,0.5644208788871765,1.0828895568847656
1774473198667001600,7.438001708984375,-0.8915513753890991,0.5585345029830933,1.1700916290283203
1774473198677021400,7.448021484375,-1.0104811191558838,0.4150436818599701,1.2002571821212769
1774473198687042600,7.45804248046875,-0.984052300453186,0.13154461979866028,1.1363139152526855
1774473198697062400,7.4680625,-0.7931763529777527,0.15796341001987457,1.0288615226745605
1774473198707082500,7.47808251953125,-0.4479561150074005,0.4057122468948364,0.8618595600128174
1774473198717102600,7.4881025390625,0.07874560356140137,0.5551105737686157,0.6578589081764221
1774473198727123500,7.49812353515625,0.7451038956642151,0.5349944233894348,0.43051281571388245
1774473198737143600,7.5081435546875,1.2533166408538818,0.42726707458496094,0.23917622864246368
1774473198747163600,7.51816357421875,1.5531233549118042,0.2978323698043823,0.013210747390985489
1774473198757183500,7.52818359375,1.677347183227539,-0.011875650845468044,-0.22095413506031036
1774473198767203600,7.53820361328125,1.643897294998169,-0.40540164709091187,-0.4422854483127594
1774473198777224400,7.548224365234375,1.4720044136047363,-0.6130349636077881,-0.6461829543113708
1774473198787244500,7.55824462890625,1.2522611618041992,-0.5596066117286682,-0.8535736799240112
1774473198797264600,7.5682646484375,1.0488042831420898,-0.3814758360385895,-1.0459073781967163
1774473198807284500,7.578284423828125,0.9659014940261841,-0.3058713376522064,-1.1037158966064453
1774473198817305600,7.5883056640625,0.9597345590591431,-0.09688685089349747,-1.166909098625183
1774473198827325700,7.59832568359375,0.9864268898963928,0.2275162637233734,-1.2506479024887085
1774473198837345300,7.60834521484375,0.9852527379989624,0.4765167832374573,-1.272669792175293
1774473198847365400,7.618365478515625,0.9623969793319702,0.4954366683959961,-1.2623274326324463
1774473198857386200,7.62838623046875,0.8926780819892883,0.3313620090484619,-1.288609266281128
1774473198867406300,7.63840625,0.8208342790603638,0.11435486376285553,-1.3359304666519165
1774473198877426400,7.648426513671875,0.7455940246582031,-0.0653185248374939,-1.3930950164794922
1774473198887446500,7.658446533203125,0.6686334609985352,-0.23077085614204407,-1.408325433731079
1774473198897467400,7.66846728515625,0.5911929607391357,-0.4278554916381836,-1.3231606483459473
1774473198907487500,7.678487548828125,0.5246725082397461,-0.3848733901977539,-1.1570137739181519
1774473198917507300,7.68850732421875,0.4513136148452759,-0.18271975219249725,-0.9810382723808289
1774473198927527400,7.69852734375,0.4412204921245575,-0.17510710656642914,-0.8855926990509033
1774473198937548300,7.70854833984375,0.42097416520118713,-0.17967943847179413,-0.7048432230949402
1774473198947568400,7.718568359375,0.25498494505882263,-0.030899016186594963,-0.447047621011734
1774473198957588500,7.72858837890625,-0.06962057203054428,0.1701376736164093,-0.2503092586994171
1774473198967608600,7.738608642578125,-0.271764874458313,0.36761799454689026,-0.05893129110336304
1774473198977629400,7.74862939453125,-0.32866373658180237,0.6840513944625854,0.17481321096420288
1774473198987649500,7.7586494140625,-0.3550593852996826,1.086337685585022,0.44201746582984924
1774473198997669400,7.76866943359375,-0.399314284324646,1.2808231115341187,0.6467776298522949
1774473199007689500,7.778689453125,-0.4265640079975128,1.1335116624832153,0.6664413213729858
1774473199017710300,7.78871044921875,-0.43580666184425354,0.8097094297409058,0.6709358096122742
1774473199027730400,7.79873046875,-0.38503164052963257,0.5694281458854675,0.7095159888267517
1774473199037750500,7.80875048828125,-0.2814173698425293,0.3927202522754669,0.7183864116668701
1774473199047770600,7.8187705078125,-0.19239559769630432,0.25174766778945923,0.7352005839347839
1774473199057791500,7.82879150390625,-0.08247843384742737,0.1405543088912964,0.7549574971199036
1774473199067811600,7.8388115234375,-0.03849047049880028,-0.03705136105418205,0.7493443489074707
1774473199077831400,7.84883154296875,-0.04975372552871704,-0.38547348976135254,0.7125623226165771
1774473199087851500,7.8588515625,-0.024569010362029076,-0.7824240326881409,0.6656419634819031
1774473199097872400,7.868872314453125,-0.026272475719451904,-1.0797549486160278,0.6346404552459717
1774473199107892500,7.878892578125,-0.07503975182771683,-1.2536921501159668,0.5959393978118896
1774473199117912600,7.88891259765625,-0.06714869290590286,-1.2876198291778564,0.5379718542098999
1774473199127932700,7.8989326171875,-0.04877820611000061,-1.261284589767456,0.46203237771987915
1774473199137953500,7.90895361328125,0.005193162243813276,-1.0031249523162842,0.39575454592704773
1774473199147973600,7.9189736328125,0.07904767990112305,-0.8516933917999268,0.349782258272171
1774473199157993500,7.928993408203125,0.174157977104187,-0.793566107749939,0.3235112428665161
1774473199168014600,7.9390146484375,0.2976125478744507,-0.7307906150817871,0.2849758267402649
1774473199178034400,7.949034423828125,0.3603246212005615,-0.6840391755104065,0.2437058985233307
1774473199188054500,7.959054443359375,0.43613576889038086,-0.771053671836853,0.1857086420059204
1774473199198074600,7.96907470703125,0.5545755624771118,-0.8610613346099854,0.08873442560434341
1774473199208095500,7.979095458984375,0.5579870939254761,-0.8111854195594788,-0.006444292142987251
1774473199218115600,7.989115478515625,0.49134504795074463,-0.6258253455162048,0.012860890477895737
1774473199228135700,7.9991357421875,0.4200671315193176,-0.5480914115905762,0.0900651291012764
1774473199238155300,8.0091552734375,0.3053929805755615,-0.5179350972175598,0.12103531509637833
1774473199248176600,8.0191767578125,0.22782975435256958,-0.5674850344657898,0.06577765196561813
1774473199258196500,8.029196533203125,0.14386393129825592,-0.34928861260414124,0.19799408316612244
1774473199268216300,8.03921630859375,-0.012622350826859474,-0.0353357307612896,0.2940705418586731
1774473199278237700,8.04923779296875,-0.08074770867824554,0.20056797564029694,0.3767003118991852
1774473199288257300,8.05925732421875,-0.03812035173177719,0.4710082709789276,0.3950923681259155
1774473199298277400,8.06927734375,0.020508278161287308,0.8324984908103943,0.3864741623401642
1774473199308297500,8.07929736328125,-0.07996585965156555,1.3507905006408691,0.395566463470459
1774473199318318300,8.089318359375,-0.23285923898220062,1.9138638973236084,0.4208424985408783
1774473199328338400,8.09933837890625,-0.3945133686065674,2.4129550457000732,0.4393455982208252
1774473199338358500,8.109358642578124,-0.5608142614364624,2.7051422595977783,0.41761502623558044
1774473199348379400,8.11937939453125,-0.7196499705314636,2.8210160732269287,0.31484338641166687
1774473199358399500,8.1293994140625,-0.7971314191818237,2.7960190773010254,0.20946311950683594
1774473199368419300,8.13941943359375,-0.8361344337463379,2.729062795639038,0.13731862604618073
1774473199378439400,8.149439453125,-0.7974733710289001,2.7923524379730225,0.07597271353006363
1774473199388460300,8.159460205078124,-0.7213402390480042,2.8080129623413086,0.09420178085565567
1774473199398480400,8.16948046875,-0.6814391016960144,2.5840940475463867,0.13043083250522614
1774473199408500500,8.17950048828125,-0.706358015537262,2.5227062702178955,0.16464099287986755
1774473199418521300,8.189521240234376,-0.7127275466918945,2.4735138416290283,0.27898815274238586
1774473199428541400,8.19954150390625,-0.7356784343719482,2.2854583263397217,0.48927879333496094
1774473199438561500,8.2095615234375,-0.7127261161804199,1.739501953125,0.6807101964950562
1774473199448581400,8.219581298828125,-0.6729044318199158,1.1739603281021118,0.8714135885238647
1774473199458602500,8.2296025390625,-0.5785230994224548,0.806944727897644,1.0402745008468628
1774473199468622300,8.239622314453126,-0.4043324291706085,0.4588128626346588,1.1619656085968018
1774473199478642000,8.249641845703126,-0.3111313283443451,0.1196523979306221,1.23613703250885
1774473199488662000,8.259662109375,-0.3338598310947418,-0.09761521220207214,1.2987226247787476
1774473199498683000,8.269682861328125,-0.3656105697154999,-0.14454729855060577,1.1910533905029297
1774473199508703000,8.279702880859375,-0.415105402469635,-0.13338786363601685,0.9600473642349243
1774473199518723000,8.28972314453125,-0.45133236050605774,-0.0909101590514183,0.7448585629463196
1774473199528744000,8.299743896484374,-0.4894472658634186,0.027885466814041138,0.5483750700950623
1774473199538764000,8.309763916015624,-0.49410298466682434,0.11973470449447632,0.3874588906764984
1774473199548784000,8.3197841796875,-0.43002814054489136,0.21234241127967834,0.32811886072158813
1774473199558804000,8.329803955078125,-0.2705641984939575,0.16379587352275848,0.32254621386528015
1774473199568825000,8.3398251953125,-0.42554473876953125,0.4191397428512573,0.43287086486816406
1774473199578845000,8.349844970703124,-0.6382530927658081,0.8802176117897034,0.49575531482696533
1774473199588865000,8.359864990234374,-0.6731202602386475,1.0981518030166626,0.42109838128089905
1774473199598886000,8.369885986328125,-0.659431517124176,1.021986961364746,0.3095337748527527
1774473199608906000,8.379906005859375,-0.7298902273178101,0.8657611608505249,0.22921761870384216
1774473199618926000,8.389926025390626,-0.7364887595176697,0.8243786096572876,0.22944051027297974
1774473199628947000,8.399947021484374,-0.6174513101577759,0.5898909568786621,0.20466671884059906
1774473199638967000,8.409967041015625,-0.6744061708450317,0.24182838201522827,0.207811638712883
1774473199648987100,8.419987060546875,-0.7105860114097595,0.1462070494890213,0.2961566746234894
1774473199659007000,8.430007080078125,-0.728562593460083,-0.01322252582758665,0.45577770471572876
1774473199669028000,8.440028076171876,-0.7134597897529602,0.010202638804912567,0.6831475496292114
1774473199679048000,8.4500478515625,-0.5658535957336426,0.2831912934780121,0.8832289576530457
1774473199689068000,8.460068115234375,-0.13909372687339783,0.10572223365306854,1.1508760452270508
1774473199699089200,8.470089111328125,0.33410918712615967,0.3814411461353302,1.4929403066635132
1774473199709109000,8.48010888671875,0.7268540859222412,0.8515010476112366,1.8249506950378418
1774473199719129000,8.490129150390626,1.0526857376098633,0.5615164041519165,1.9434328079223633
1774473199729149200,8.500149169921874,1.2351977825164795,-0.16195181012153625,1.9142173528671265
1774473199739170000,8.510170166015625,1.2453974485397339,-0.4771776497364044,1.9579198360443115
1774473199749190100,8.520190185546875,1.1777422428131104,-0.5343853235244751,1.9603291749954224
1774473199759210000,8.5302099609375,1.0779199600219727,-0.5817373991012573,1.8923184871673584
1774473199769231000,8.540231201171874,1.0168750286102295,-0.8792744874954224,1.7458155155181885
1774473199779251200,8.550251220703124,0.9705264568328857,-1.0029140710830688,1.6257588863372803
1774473199789271000,8.56027099609375,0.9793004989624023,-0.753092885017395,1.5862005949020386
1774473199799292200,8.570292236328125,1.0639299154281616,-0.10745049268007278,1.3309550285339355
1774473199809312000,8.58031201171875,1.1322746276855469,-0.2580477297306061,0.7104393243789673
1774473199819332000,8.59033203125,1.162933111190796,-0.4534246325492859,0.06023142486810684
1774473199829353200,8.600353271484375,1.0823835134506226,-0.31511417031288147,-0.4645226299762726
1774473199839373000,8.610373046875,1.0529189109802246,-0.18569011986255646,-0.6551234722137451
1774473199849393200,8.62039306640625,1.062990665435791,-0.06104273349046707,-0.6904004812240601
1774473199859413200,8.630413330078126,1.0404895544052124,-0.16236458718776703,-0.5682482123374939
1774473199869434000,8.64043408203125,1.0522420406341553,-0.3540530800819397,-0.46180084347724915
1774473199879454200,8.6504541015625,1.0760650634765625,-0.5189517736434937,-0.4683186411857605
1774473199889474000,8.66047412109375,1.0984593629837036,-0.6118366718292236,-0.45773017406463623
1774473199899495200,8.6704951171875,1.0700938701629639,-0.6524760723114014,-0.33986103534698486
1774473199909515300,8.680515380859376,0.949680745601654,-0.6462839245796204,-0.08757418394088745
1774473199919535000,8.69053515625,0.7568156719207764,-0.6675745844841003,0.28514984250068665
1774473199929556200,8.70055615234375,0.5881448984146118,-0.7350825071334839,0.6120198965072632
1774473199939576000,8.710576171875,0.4720620810985565,-0.9739741086959839,0.8395208120346069
1774473199949596200,8.72059619140625,0.31762242317199707,-1.1318633556365967,0.8534973859786987
1774473199959616300,8.7306162109375,0.174131840467453,-1.2684701681137085,0.8772796392440796
1774473199969637000,8.74063720703125,0.09033467620611191,-1.350092887878418,0.9045307040214539
1774473199979657200,8.7506572265625,0.13203124701976776,-1.384315848350525,0.8439715504646301
1774473199989677300,8.76067724609375,0.31809353828430176,-1.4434640407562256,0.4518386423587799
1774473199999698200,8.7706982421875,0.5860219597816467,-1.3705443143844604,0.3796168863773346
1774473200009718300,8.78071826171875,0.6845237612724304,-1.0879679918289185,0.5465094447135925
1774473200019738000,8.790738037109374,0.7041214108467102,-0.895375669002533,0.6448176503181458
1774473200029759200,8.80075927734375,0.6011828184127808,-0.8406237363815308,0.766963541507721
1774473200039779000,8.810779052734375,0.42957353591918945,-0.8060782551765442,0.8600170016288757
1774473200049799200,8.820799072265626,0.3079264461994171,-0.7110119462013245,0.8793675303459167
1774473200059819000,8.830819091796876,0.26801547408103943,-0.645125150680542,0.8530704379081726
1774473200069840100,8.840840087890625,0.25853514671325684,-0.5683320760726929,0.8025798201560974
1774473200079860200,8.850860107421875,0.2507922947406769,-0.3175709545612335,0.7412778735160828
1774473200089880000,8.860880126953125,0.3321598470211029,-0.07414522767066956,0.7308899760246277
1774473200099901200,8.870901123046876,0.615360677242279,-0.12055854499340057,0.7969086170196533
1774473200109921000,8.880921142578124,0.9137780070304871,-0.10125728696584702,0.8567637205123901
1774473200119941000,8.890941162109375,1.1947020292282104,-0.13848161697387695,0.8818797469139099
1774473200129962200,8.900962158203125,1.454156756401062,-0.05410361662507057,0.8873530626296997
1774473200139982000,8.910982177734375,1.6614190340042114,0.029973184689879417,0.8346810340881348
1774473200150002000,8.921001953125,1.7867449522018433,0.06051325052976608,0.7657882571220398
1774473200160022000,8.93102197265625,1.8083523511886597,0.06856076419353485,0.7088797092437744
1774473200170043000,8.94104296875,1.7300628423690796,0.08742287009954453,0.667728841304779
1774473200180063000,8.95106298828125,1.6221923828125,0.10662108659744263,0.6561781764030457
1774473200190083000,8.9610830078125,1.5461313724517822,0.14269520342350006,0.6375669240951538
1774473200200104000,8.97110400390625,1.4624946117401123,0.2519979774951935,0.5942633748054504
1774473200210124000,8.9811240234375,1.3594558238983154,0.37074461579322815,0.5605185031890869
1774473200220144000,8.99114404296875,1.2632315158843994,0.48486053943634033,0.538250744342804
1774473200230165000,9.0011650390625,1.1847699880599976,0.7069048285484314,0.5538517832756042
1774473200240185000,9.01118505859375,1.18742835521698,0.6950749754905701,0.6333295702934265
1774473200250205000,9.021204833984376,1.2393089532852173,0.39147305488586426,0.7327256798744202
1774473200260226000,9.03122607421875,1.302242636680603,-0.16770102083683014,0.7439413070678711
1774473200270246100,9.04124609375,1.3330241441726685,-0.7320056557655334,0.6865110397338867
1774473200280266000,9.051265869140625,1.305985927581787,-1.0184718370437622,0.6333490610122681
1774473200290286000,9.0612861328125,1.2522704601287842,-0.9184426665306091,0.6112238168716431
1774473200300307000,9.071306884765624,1.2265403270721436,-0.6701686978340149,0.6030936241149902
1774473200310327000,9.0813271484375,1.2309499979019165,-0.540377140045166,0.5909733176231384
1774473200320347100,9.09134716796875,1.2595634460449219,-0.387062668800354,0.5494855642318726
1774473200330368000,9.101367919921875,1.3206698894500732,-0.35534706711769104,0.4227249324321747
1774473200340388000,9.11138818359375,1.3597677946090698,-0.5046912431716919,0.21626095473766327
1774473200350408200,9.121408203125,1.3284873962402344,-0.6224820613861084,0.01930847391486168
1774473200360429000,9.131428955078125,1.232283353805542,-0.7488522529602051,-0.15308140218257904
1774473200370449200,9.14144921875,1.1017428636550903,-0.8016369342803955,-0.2753545939922333
1774473200380469000,9.151468994140625,0.9738243222236633,-0.678989589214325,-0.2861981987953186
1774473200390489000,9.161489013671876,0.9241833090782166,-0.45239555835723877,-0.24490909278392792
1774473200400510000,9.171510009765624,0.9746472239494324,-0.24807120859622955,-0.13384805619716644
1774473200410530000,9.181530029296875,1.139278531074524,-0.3054666221141815,-0.012029476463794708
1774473200420550100,9.191550048828125,1.3714213371276855,-0.4464373290538788,0.08393411338329315
1774473200430571000,9.201571044921875,1.609045386314392,-0.7258524894714355,0.15047399699687958
1774473200440591000,9.211591064453126,1.8128912448883057,-1.0181939601898193,0.2172956019639969
1774473200450611200,9.221611083984374,1.9767488241195679,-1.2317779064178467,0.3209303915500641
1774473200460632000,9.231632080078125,2.0502195358276367,-1.1576746702194214,0.42142635583877563
1774473200470652200,9.241652099609375,2.0333714485168457,-0.7275499105453491,0.5011957883834839
1774473200480672800,9.2516728515625,1.9860141277313232,-0.36788469552993774,0.5462319254875183
1774473200490694000,9.26169384765625,1.8886384963989258,-0.056110821664333344,0.5548195838928223
1774473200500713700,9.271713623046875,1.718416690826416,0.18069960176944733,0.5560504198074341
1774473200510733800,9.28173388671875,1.4923961162567139,0.29331615567207336,0.54933100938797
1774473200520754000,9.29175390625,1.0251595973968506,0.26479101181030273,0.6087622046470642
1774473200530774800,9.30177490234375,0.4571094810962677,0.167304128408432,0.6076777577400208
1774473200540795000,9.311794921875,0.11368588358163834,0.15423443913459778,0.5155139565467834
1774473200550815000,9.32181494140625,-0.14655955135822296,0.363086462020874,0.4985349774360657
1774473200560835800,9.3318359375,-0.4216481149196625,0.8116067051887512,0.6934123039245605
1774473200570856000,9.34185595703125,-0.45720183849334717,1.1427795886993408,0.9048824310302734
1774473200580875800,9.351875732421876,-0.16728058457374573,1.3658339977264404,1.0139578580856323
1774473200590897000,9.36189697265625,0.2832642197608948,1.4237254858016968,1.0016114711761475
1774473200600916700,9.371916748046875,0.7183719873428345,1.1882916688919067,0.859387993812561
1774473200610936800,9.381936767578125,1.0858187675476074,0.9213982224464417,0.6289574503898621
1774473200620957000,9.39195703125,1.3415977954864502,0.619373083114624,0.42482081055641174
1774473200630977800,9.401977783203124,1.3915404081344604,0.02528364211320877,0.2415332794189453
1774473200640998000,9.411997802734374,1.259027361869812,-0.7842022776603699,0.021604908630251884
1774473200651018000,9.42201806640625,1.0453238487243652,-1.1191072463989258,0.05372822284698486
1774473200661038800,9.432038818359375,1.0207479000091553,-1.2640477418899536,-0.3075476884841919
1774473200671059000,9.442058837890626,1.0597853660583496,-1.115795373916626,-0.4593183100223541
1774473200681078800,9.452078857421874,1.1048556566238403,-1.1353672742843628,-0.6732659935951233
1774473200691100000,9.462099853515625,1.1734602451324463,-1.1542314291000366,-0.8530237674713135
1774473200701120000,9.4721201171875,1.2672985792160034,-1.0178216695785522,-0.8993750810623169
1774473200711139800,9.482139892578125,1.2722848653793335,-0.8279377818107605,-0.8028362989425659
1774473200721161000,9.492160888671876,1.190151572227478,-0.7036853432655334,-0.7185078263282776
1774473200731180800,9.502180908203124,1.0195233821868896,-0.6036359667778015,-0.6061586737632751
1774473200741201000,9.512200927734375,0.9272674322128296,-0.4719253182411194,-0.5525773763656616
1774473200751221000,9.522220947265625,0.9878732562065125,-0.24538087844848633,-0.5097678899765015
1774473200761241900,9.532241943359375,1.173796534538269,-0.06886576861143112,-0.5178958177566528
1774473200771262000,9.542261962890626,1.323676347732544,-0.09040036052465439,-0.6653955578804016
1774473200781282000,9.552281982421874,1.3428401947021484,-0.2275046706199646,-0.5917554497718811
1774473200791303000,9.562302978515625,1.250586748123169,-0.32977616786956787,-0.39674466848373413
1774473200801323000,9.572322998046875,1.1065945625305176,-0.34644731879234314,-0.1824216991662979
1774473200811342800,9.5823427734375,0.9429896473884583,-0.3459154963493347,-0.029823895543813705
1774473200821364000,9.592364013671874,0.7899295687675476,-0.16748689115047455,0.00045728537952527404
1774473200831384000,9.602384033203125,0.630016028881073,0.050261419266462326,0.006232882849872112
1774473200841404000,9.61240380859375,0.428489089012146,0.048942890018224716,0.062105461955070496
1774473200851425000,9.622425048828125,0.18745382130146027,-0.11955423653125763,0.15041188895702362
1774473200861444900,9.63244482421875,-0.05684056505560875,-0.300695538520813,0.22018827497959137
1774473200871464700,9.642464599609376,-0.20569075644016266,-0.394510954618454,0.25516995787620544
1774473200881484800,9.65248486328125,-0.2747039496898651,-0.400336891412735,0.26238206028938293
1774473200891506000,9.662505859375,-0.34015992283821106,-0.38359761238098145,0.27471810579299927
1774473200901525800,9.67252587890625,-0.4227572977542877,-0.29723817110061646,0.31628817319869995
1774473200911545900,9.6825458984375,-0.5336297750473022,-0.16400103271007538,0.37454667687416077
1774473200921566700,9.692566650390624,-0.6566666960716248,-0.07794979959726334,0.42493584752082825
1774473200931586800,9.7025869140625,-0.8165658712387085,0.026827218011021614,0.4802531599998474
1774473200941606700,9.712606689453125,-1.0392996072769165,0.25609925389289856,0.6162331700325012
1774473200951627800,9.722627685546875,-1.312503695487976,0.5840566754341125,0.7968910932540894
1774473200961647900,9.73264794921875,-1.5345388650894165,1.0171167850494385,1.0104819536209106
1774473200971667700,9.742667724609374,-1.496376633644104,1.3132634162902832,1.2029064893722534
1774473200981688800,9.752688720703125,-1.3108477592468262,1.3726506233215332,1.3612724542617798
1774473200991708700,9.762708740234375,-1.1412233114242554,1.3602432012557983,1.5107777118682861
1774473201001728800,9.772728759765625,-1.0765204429626465,1.3387908935546875,1.6216914653778076
1774473201011749600,9.78274951171875,-1.130852460861206,1.3102679252624512,1.637778878211975
1774473201021769700,9.792769775390624,-1.3003791570663452,1.3110010623931885,1.55257248878479
1774473201031789800,9.802789794921875,-1.558394193649292,1.2964143753051758,1.4138950109481812
1774473201041810000,9.812809814453125,-1.8521027565002441,1.256864070892334,1.2606052160263062
1774473201051830800,9.822830810546876,-2.1042866706848145,1.2780539989471436,1.1831763982772827
1774473201061851000,9.832850830078126,-2.120070219039917,1.0603877305984497,1.1274811029434204
1774473201071870700,9.84287060546875,-1.8965942859649658,0.5209266543388367,0.9360669851303101
1774473201081891800,9.852891845703125,-1.6367992162704468,-0.04807392880320549,0.635172426700592
1774473201091911700,9.86291162109375,-1.5922660827636719,-0.32721608877182007,0.40744128823280334
1774473201101931800,9.872931884765626,-1.3631738424301147,-0.6899548768997192,0.2025996893644333
1774473201111953000,9.882952880859374,-1.2141669988632202,-0.728826105594635,-0.020813148468732834
1774473201121972700,9.89297265625,-1.1950119733810425,-0.20971259474754333,-0.1086823120713234
1774473201131992800,9.902992919921875,-0.4863349199295044,1.4642434120178223,-0.5360695719718933
1774473201142013700,9.913013671875,-0.07215029746294022,0.39617568254470825,-0.7020159363746643
1774473201152033800,9.92303369140625,0.3020493984222412,0.38157570362091064,-0.7085233926773071
1774473201162054000,9.933053955078124,0.4883495569229126,0.5560977458953857,-0.6936080455780029
1774473201172074800,9.94307470703125,0.4813121557235718,0.6602523326873779,-0.7554320096969604
1774473201182094800,9.9530947265625,0.25395938754081726,0.6100722551345825,-0.7626566290855408
1774473201192115000,9.963114990234375,-0.1485542505979538,0.42826759815216064,-0.5882406234741211
1774473201202135800,9.9731357421875,-0.5770808458328247,0.2744482159614563,-0.3346233069896698
1774473201212156000,9.983156005859374,-0.8110703825950623,0.1460617631673813,-0.15995827317237854
1774473201222175700,9.99317578125,-0.8014710545539856,0.1589442640542984,-0.0475558340549469
1774473201232196900,10.00319677734375,-0.6249745488166809,0.2811332941055298,0.059516821056604385
1774473201242216700,10.013216796875,-0.38919639587402344,0.4572182893753052,0.18949082493782043
1774473201252236800,10.02323681640625,-0.23992517590522766,0.6066402792930603,0.37746044993400574
1774473201262257000,10.0332568359375,-0.24618412554264069,0.6900349855422974,0.595134973526001
1774473201272277800,10.04327783203125,-0.3530825972557068,0.7873319983482361,0.7100871205329895
1774473201282297900,10.0532978515625,-0.48203521966934204,0.8202639222145081,0.7395675182342529
1774473201292318000,10.06331787109375,-0.4972173869609833,0.7508329153060913,0.8151869177818298
1774473201302338800,10.0733388671875,-0.5447473526000977,0.6801174283027649,0.8685140609741211
1774473201312359000,10.08335888671875,-0.6206786036491394,0.7697780728340149,0.9028395414352417
1774473201322378800,10.093378662109375,-0.601430356502533,0.9821345210075378,0.8847218155860901
1774473201332399900,10.10339990234375,-0.4271291196346283,1.2323569059371948,0.7635537981987
1774473201342420000,10.113419921875,-0.3569662868976593,1.3057384490966797,0.6227892637252808
1774473201352439800,10.123439697265624,-0.39256611466407776,1.4116225242614746,0.5541737079620361
1774473201362461000,10.1334609375,-0.5250285267829895,1.5227024555206299,0.5682713985443115
1774473201372480800,10.143480712890625,-0.5737659931182861,1.9563961029052734,0.6059538125991821
1774473201382500900,10.1535009765625,-0.5402747988700867,2.3150722980499268,0.6018197536468506
1774473201392522000,10.16352197265625,-0.5313308238983154,2.381664991378784,0.5946401357650757
1774473201402541800,10.173541748046874,-0.5807109475135803,2.0884337425231934,0.5621280074119568
1774473201412562000,10.18356201171875,-0.6343480944633484,1.3983112573623657,0.42526471614837646
1774473201422582800,10.193582763671875,-0.7162919640541077,0.606139600276947,0.218314990401268
1774473201432603000,10.203602783203126,-0.8730666637420654,0.07915303111076355,0.009621700271964073
1774473201442623000,10.213623046875,-1.0279539823532104,-0.43938520550727844,-0.24204009771347046
1774473201452643800,10.223643798828125,-1.2313287258148193,-0.7230358719825745,-0.467724084854126
1774473201462664000,10.233663818359375,-1.460293173789978,-0.6035791635513306,-0.628960907459259
1774473201472684000,10.24368408203125,-1.600182294845581,-0.6249489188194275,-0.7661435008049011
1774473201482705000,10.253704833984376,-1.6221212148666382,-1.0110207796096802,-0.9140634536743164
1774473201492725000,10.26372509765625,-1.597578525543213,-1.0723483562469482,-0.968108057975769
1774473201502744800,10.273744873046875,-1.65031099319458,-1.1812870502471924,-0.9891233444213867
1774473201512765000,10.283764892578125,-1.8054777383804321,-1.7560672760009766,-1.1315934658050537
1774473201522785800,10.293785888671875,-1.923701524734497,-2.2285470962524414,-1.3106276988983154
1774473201532806000,10.303805908203126,-1.9289778470993042,-2.1720075607299805,-1.369259238243103
1774473201542826000,10.313825927734374,-1.8612661361694336,-2.036161422729492,-1.309564471244812
1774473201552846800,10.323846923828125,-1.7547093629837036,-2.0194954872131348,-1.20114004611969
1774473201562867000,10.333866943359375,-1.559391736984253,-2.4216411113739014,-0.9883340001106262
1774473201572887000,10.343886962890625,-1.330379843711853,-3.2526800632476807,-0.6073607802391052
1774473201582908000,10.353907958984376,-1.005422830581665,-3.6265792846679688,-0.1753539741039276
1774473201592928000,10.363927978515624,-0.2332422435283661,-2.959918737411499,0.17786027491092682
1774473201602947800,10.37394775390625,0.5570990443229675,-3.7104008197784424,0.4835551977157593
1774473201612969000,10.383968994140625,0.7865726947784424,-4.049815654754639,0.7861824631690979
1774473201622989000,10.393989013671876,0.7032240033149719,-4.113112926483154,0.7980929017066956
1774473201633009000,10.4040087890625,0.6683794856071472,-3.7641866207122803,0.7079232931137085
1774473201643030000,10.414030029296875,0.6228495240211487,-3.1594040393829346,0.6628797054290771
1774473201653049900,10.4240498046875,0.49659231305122375,-2.171814203262329,0.5594387650489807
1774473201663070000,10.434070068359375,0.3326643407344818,-1.3413326740264893,0.33630499243736267
1774473201673090800,10.4440908203125,0.15391884744167328,-0.7652386426925659,0.08860225230455399
1774473201683111000,10.45411083984375,-0.040541741997003555,-0.11938323825597763,-0.10049920529127121
1774473201693131000,10.464131103515625,-0.4240345358848572,0.6239041686058044,-0.1981908679008484
1774473201703151900,10.47415185546875,-1.160313367843628,1.6293936967849731,-0.27159586548805237
1774473201713172000,10.484171875,-2.1688714027404785,2.5518980026245117,-0.30880555510520935
1774473201723192000,10.494192138671876,-3.2392561435699463,2.9504854679107666,-0.39002475142478943
1774473201733213000,10.504212890625,-4.279479503631592,2.879261016845703,-0.3874734342098236
1774473201743233000,10.51423291015625,-5.124371528625488,2.475698471069336,-0.2453639656305313
1774473201753252900,10.5242529296875,-5.594629764556885,2.063793897628784,0.49786674976348877
1774473201763274000,10.53427392578125,-5.842062473297119,0.3145967125892639,1.6094896793365479
1774473201773294000,10.544294189453124,-5.897420406341553,-0.6270744204521179,2.583735942840576
1774473201783314000,10.55431396484375,-5.771366596221924,-1.6720905303955078,3.55708384513855
1774473201793334000,10.564333984375,-5.520191192626953,-3.03031063079834,4.240848541259766
1774473201803355000,10.57435498046875,-5.282774925231934,-3.4512062072753906,4.529663562774658
1774473201813375000,10.584375,-5.068835258483887,-3.604381799697876,4.520327091217041
1774473201823395000,10.59439501953125,-4.639231204986572,-2.843003511428833,3.829428195953369
1774473201833416000,10.604416015625,-3.327143669128418,-0.5554758906364441,2.3630876541137695
1774473201843436000,10.61443603515625,-2.0125741958618164,0.6111915707588196,1.3180668354034424
1774473201853456100,10.6244560546875,-1.0423246622085571,0.9189299941062927,0.719151496887207
1774473201863477000,10.63447705078125,-0.289812833070755,1.114073395729065,0.21502867341041565
1774473201873497000,10.6444970703125,0.28890007734298706,1.1032042503356934,-0.10188084095716476
1774473201883517000,10.654516845703125,0.7471534013748169,0.7435017228126526,-0.06501337885856628
1774473201893538000,10.6645380859375,0.9826319217681885,0.25901493430137634,0.14207401871681213
1774473201903558000,10.674557861328125,1.0415242910385132,-0.15023569762706757,0.6299326419830322
1774473201913578000,10.684577880859376,0.9996093511581421,-0.5097342133522034,1.3525705337524414
1774473201923599000,10.69459912109375,0.92908775806427,-0.5350169539451599,2.1449711322784424
1774473201933619000,10.704618896484375,0.82485431432724,-0.33863386511802673,2.780336618423462
1774473201943639000,10.71463916015625,0.7102577090263367,-0.23504488170146942,3.2415246963500977
1774473201953660000,10.724659912109376,0.6823325753211975,-0.2221871316432953,3.4567456245422363
1774473201963680000,10.734679931640626,0.7469914555549622,0.04675087332725525,3.3000681400299072
1774473201973700000,10.7447001953125,0.7872928380966187,0.5441068410873413,2.8817861080169678
1774473201983721000,10.754720947265625,0.6437638401985168,0.8567893505096436,2.220357656478882
1774473201993741000,10.764740966796875,0.43794918060302734,0.62153559923172,1.4055815935134888
1774473202003761200,10.77476123046875,0.2683151960372925,0.06228988990187645,0.4898053705692291
1774473202013781000,10.784781005859376,0.03924870491027832,-0.3164624869823456,-0.43362629413604736
1774473202023802000,10.794802001953125,-0.6925908923149109,-0.9177381992340088,-1.337235689163208
1774473202033822000,10.804822021484375,-1.4593427181243896,-0.9540879726409912,-1.967464804649353
1774473202043842000,10.814842041015625,-1.8511312007904053,-0.7754308581352234,-1.9844355583190918
1774473202053863200,10.82486328125,-1.9567878246307373,-0.34583237767219543,-1.668213129043579
1774473202063883000,10.834883056640624,-1.6704086065292358,0.455207884311676,-1.2344602346420288
1774473202073903000,10.844903076171875,-1.1814128160476685,1.0902119874954224,-0.9733150601387024
1774473202083924000,10.854924072265625,-0.6750358939170837,1.690089225769043,-1.1573131084442139
1774473202093944000,10.864944091796875,-0.08696836978197098,2.324798345565796,-1.5292863845825195
1774473202103964000,10.8749638671875,0.5343939661979675,2.61922287940979,-1.8171648979187012
1774473202113985000,10.884985107421874,0.9734501838684082,2.7490060329437256,-1.852226972579956
1774473202124005000,10.895005126953125,1.0497609376907349,2.8709864616394043,-1.5669914484024048
1774473202134025000,10.90502490234375,0.787787914276123,3.4057884216308594,-1.0490212440490723
1774473202144046000,10.915046142578126,0.3590970039367676,4.234777450561523,-0.4062303602695465
1774473202154066200,10.925066162109376,0.09204718470573425,5.203663349151611,0.039462439715862274
1774473202164085800,10.935085693359374,0.13715128600597382,6.020721912384033,0.1015431135892868
1774473202174107100,10.945107177734375,0.23134063184261322,6.525818347930908,-0.2668732702732086
1774473202184127000,10.955126953125,0.18466448783874512,6.5430498123168945,-0.7660124897956848
1774473202194146800,10.965146728515625,-0.036065760999917984,5.746628284454346,-1.1359951496124268
1774473202204168200,10.975168212890624,-0.3228759765625,4.815640449523926,-1.0974360704421997
1774473202214187800,10.985187744140624,-0.6791952252388,4.317209720611572,-0.7544578313827515
1774473202224208000,10.995207763671875,-0.9602566957473755,4.033277988433838,-0.3829346299171448
1774473202234228000,11.00522802734375,-0.9991971850395203,3.542508840560913,-0.19038541615009308
1774473202244248800,11.015248779296876,-0.8998184204101562,2.8493525981903076,-0.1927867829799652
1774473202254269000,11.02526904296875,-0.8125119805335999,1.9030036926269531,-0.23733587563037872
1774473202264289000,11.0352890625,-0.7480604648590088,0.6225132942199707,-0.16073806583881378
1774473202274310000,11.045309814453125,-0.7105706334114075,-0.8678044080734253,0.09646230936050415
1774473202284330000,11.055330078125,-0.6183632612228394,-2.6228532791137695,0.3882848620414734
1774473202294349800,11.065349853515626,-0.5455300807952881,-4.2896809577941895,0.5927724838256836
1774473202304371000,11.075370849609374,-0.5963842272758484,-5.744517803192139,0.7188547849655151
1774473202314390800,11.085390869140625,-0.6959304809570312,-7.081773281097412,0.739256739616394
1774473202324411000,11.095410888671875,-0.7804898619651794,-8.221633911132812,0.6745733618736267
1774473202334432000,11.105431884765625,-0.511307418346405,-5.138843059539795,-1.7463868856430054
1774473202344451800,11.115451904296876,-0.29537320137023926,-1.7585093975067139,-2.848952531814575
1774473202354472000,11.125471923828124,-0.6274321675300598,0.02180185541510582,-1.8978400230407715
1774473202364492800,11.135492919921875,-1.1124979257583618,0.22946369647979736,-0.8756297826766968
1774473202374513000,11.145512939453125,-1.3254064321517944,-0.3252631425857544,-0.49520576000213623
1774473202384533000,11.155532958984375,-1.2230817079544067,-1.086357593536377,-0.1926688253879547
1774473202394553900,11.165553955078124,-0.9966639280319214,-2.0798354148864746,0.3477363586425781
1774473202404574000,11.175573974609375,-0.8950082063674927,-3.4989356994628906,0.8273423910140991
1774473202414594000,11.185593994140625,-1.0034009218215942,-2.6106598377227783,0.08720090985298157
1774473202424615000,11.195614990234375,-0.7660613656044006,-1.4569529294967651,-0.3018916845321655
1774473202434635000,11.205635009765626,-0.6092627048492432,-1.029876708984375,-0.3821558952331543
1774473202444654800,11.21565478515625,-0.5159428715705872,-1.014707088470459,-0.24027496576309204
1774473202454676000,11.225676025390625,-0.4974330961704254,-1.1757274866104126,-0.085540771484375
1774473202464695800,11.23569580078125,-0.5135271549224854,-1.3571499586105347,0.09550118446350098
1774473202474716000,11.2457158203125,-0.3216748535633087,-1.4945839643478394,0.20894040167331696
1774473202484736300,11.255736328125,-0.08251740038394928,-1.4582626819610596,0.35868406295776367
1774473202494756000,11.265756103515624,-0.001497115707024932,-1.34682035446167,0.514805018901825
1774473202504776000,11.27577587890625,-0.007158198393881321,-0.9761748313903809,0.6254918575286865
1774473202514796000,11.285796142578125,0.004229212179780006,-0.703291118144989,0.8144021034240723
1774473202524817000,11.29581689453125,0.10735586285591125,-0.7715162634849548,1.0499738454818726
1774473202534837000,11.3058369140625,0.3190918266773224,-0.9732091426849365,1.1886941194534302
1774473202544857000,11.315857177734374,0.5875883102416992,-1.205588698387146,1.2006453275680542
1774473202554878000,11.3258779296875,0.6176391243934631,-1.3718886375427246,1.0563353300094604
1774473202564898000,11.33589794921875,0.5554884076118469,-1.3594818115234375,0.9732268452644348
1774473202574918100,11.345918212890625,0.5498981475830078,-1.3562569618225098,1.0293433666229248
1774473202584939000,11.35593896484375,0.5333409905433655,-1.5006014108657837,1.2308250665664673
1774473202594959000,11.365958984375,0.5001771450042725,-1.4145991802215576,1.312791109085083
1774473202604979000,11.37597900390625,0.5021684169769287,-0.9234887361526489,1.2308847904205322
1774473202615000000,11.386,0.4476034641265869,-0.4300127327442169,1.0879368782043457
1774473202625020000,11.39602001953125,0.3931601941585541,-0.16233786940574646,0.8623354434967041
1774473202635040000,11.4060400390625,0.3134171664714813,-0.10360878705978394,0.5981482863426208
1774473202645061000,11.41606103515625,0.23541982471942902,-0.18770554661750793,0.34268060326576233
1774473202655081000,11.4260810546875,0.25606173276901245,-0.24741202592849731,0.1633169800043106
1774473202665101000,11.43610107421875,0.37213581800460815,-0.396835595369339,0.1445416957139969
1774473202675122000,11.446121826171876,0.5320559740066528,-0.5929495096206665,0.30795514583587646
1774473202685142000,11.45614208984375,0.6631588935852051,-0.7746981978416443,0.6032515168190002
1774473202695162000,11.466162109375,0.7713644504547119,-0.9228674173355103,0.9282812476158142
1774473202705183000,11.476182861328125,0.8337016701698303,-0.9739428758621216,1.2010376453399658
1774473202715203000,11.486203125,0.7616016268730164,-0.8717222213745117,1.4208756685256958
1774473202725223200,11.49622314453125,0.6594054102897644,-0.7231013774871826,1.4689115285873413
1774473202735244000,11.506244140625,0.45579078793525696,-0.4469917416572571,1.2550530433654785
1774473202745264000,11.51626416015625,0.2381647378206253,-0.08546493202447891,0.989636242389679
1774473202755284000,11.526283935546875,0.09685023128986359,0.01942072995007038,0.7185980677604675
1774473202765305000,11.53630517578125,-0.03089173510670662,-0.1883082240819931,0.5093417167663574
1774473202775325200,11.5463251953125,-0.03194368630647659,-0.29783710837364197,0.18961727619171143
1774473202785345000,11.556344970703124,-0.07479368150234222,-0.29551881551742554,0.01523189339786768
1774473202795366100,11.5663662109375,-0.18712875247001648,-0.2506634593009949,0.04174898937344551
1774473202805386000,11.576385986328125,-0.34644731879234314,-0.21897079050540924,0.09076793491840363
1774473202815406000,11.586406005859375,-0.40323495864868164,-0.36289867758750916,0.2915066182613373
1774473202825427000,11.596427001953124,-0.2956587076187134,-0.9030444622039795,0.5575758814811707
1774473202835447000,11.606447021484374,-0.002492336556315422,-0.8924463987350464,0.6628567576408386
1774473202845467100,11.616467041015625,0.30789563059806824,-0.41928473114967346,0.6816956400871277
1774473202855488000,11.626488037109375,0.6484681367874146,-0.07711911201477051,0.6862347722053528
1774473202865508000,11.636508056640626,0.8799575567245483,-0.007813808508217335,0.6778857111930847
1774473202875528200,11.646528076171874,0.9600846171379089,-0.12203545868396759,0.6280662417411804
1774473202885549000,11.656549072265625,0.9792521595954895,-0.27889060974121094,0.5357115864753723
1774473202895569200,11.666569091796875,0.9229326844215393,-0.31726089119911194,0.3977377414703369
1774473202905589000,11.676589111328125,0.7162043452262878,-0.31580492854118347,0.2648811340332031
1774473202915610000,11.686610107421876,0.48814287781715393,-0.4054535925388336,0.2189815640449524
1774473202925630200,11.696630126953124,0.3713875412940979,-0.5132737755775452,0.2263060361146927
1774473202935650000,11.706650146484375,0.37187063694000244,-0.5370672345161438,0.24631251394748688
1774473202945671200,11.716671142578125,0.5011342763900757,-0.4544624090194702,0.27397823333740234
1774473202955691000,11.72669091796875,0.8406401872634888,-0.3153277039527893,0.21004745364189148
1774473202965711000,11.736711181640626,1.3611440658569336,-0.19423215091228485,-0.03367174044251442
1774473202975731200,11.746731201171874,1.9333133697509766,0.17473043501377106,-0.3284474313259125
1774473202985752000,11.756751953125,2.512953281402588,0.7774797081947327,-0.35885193943977356
1774473202995772200,11.766772216796875,2.9424641132354736,1.3098034858703613,-0.31280696392059326
1774473203005792300,11.776792236328125,3.1698970794677734,1.461353063583374,-0.1699315458536148
1774473203015813000,11.786813232421874,3.0784363746643066,1.7559170722961426,0.03169691190123558
1774473203025833200,11.796833251953124,2.5712502002716064,1.8839939832687378,0.23401270806789398
1774473203035853000,11.80685302734375,1.9680625200271606,1.353400468826294,0.2464640587568283
1774473203045874200,11.816874267578125,1.1047450304031372,0.9285908937454224,0.17962457239627838
1774473203055894000,11.82689404296875,0.4516994059085846,0.47605830430984497,0.13955998420715332
1774473203065914000,11.8369140625,0.11913824081420898,-0.1354854851961136,0.1681751161813736
1774473203075935200,11.846935302734375,-0.21632711589336395,-0.46515101194381714,0.04738663509488106
1774473203085955000,11.856955078125,-0.24169158935546875,-0.5153382420539856,-0.13346438109874725
1774473203095975200,11.86697509765625,-0.09545821696519852,-0.39521345496177673,-0.4075435996055603
1774473203105996000,11.87699609375,0.0394442118704319,-0.33710354566574097,-0.7113551497459412
1774473203116016000,11.88701611328125,0.18747708201408386,-0.33029356598854065,-1.0019776821136475
1774473203126036200,11.8970361328125,0.42042192816734314,-0.3120517134666443,-1.1678470373153687
1774473203136057000,11.90705712890625,0.7830866575241089,-0.22793152928352356,-1.2622007131576538
1774473203146077200,11.9170771484375,0.9917490482330322,-0.38539063930511475,-1.423403263092041
1774473203156097300,11.92709716796875,1.1334789991378784,-0.687673807144165,-1.4231997728347778
1774473203166118100,11.9371181640625,1.3750340938568115,-0.7677617073059082,-1.4123204946517944
1774473203176138200,11.94713818359375,1.392791986465454,-0.9481059312820435,-1.4085164070129395
1774473203186158000,11.957157958984375,1.433364987373352,-0.9877129793167114,-1.2358309030532837
1774473203196179200,11.96717919921875,1.1174951791763306,-1.13627290725708,-1.0445107221603394
1774473203206199300,11.97719921875,0.8484798073768616,-0.9789056777954102,-0.6123705506324768
1774473203216219100,11.98721923828125,0.5640730857849121,-0.7404509782791138,-0.36253881454467773
1774473203226240300,11.997240234375,0.2752929627895355,-0.7180452942848206,0.048548031598329544
1774473203236260000,12.007260009765625,-0.022660434246063232,-0.5664078593254089,0.23829559981822968
1774473203246280200,12.0172802734375,-0.34694743156433105,-0.6456645727157593,0.259138286113739
1774473203256301000,12.027301025390624,-0.5632328391075134,-0.66592937707901,0.21305228769779205
1774473203266321200,12.037321044921875,-0.6668782830238342,-0.4776412546634674,0.15250827372074127
1774473203276341200,12.04734130859375,-0.7835990190505981,0.004947257228195667,0.12222892791032791
1774473203286362000,12.057362060546875,-0.9151325821876526,0.8058021664619446,0.17371848225593567
1774473203296382200,12.06738232421875,-1.0654659271240234,1.4448236227035522,0.2230740487575531
1774473203306402300,12.07740234375,-1.2860609292984009,1.7077564001083374,0.12310748547315598
1774473203316423200,12.087423095703125,-1.674814224243164,1.9990348815917969,-0.07743280380964279
1774473203326443300,12.097443359375,-2.015660524368286,2.363431692123413,-0.13456745445728302
1774473203336462800,12.107462890625,-2.3169782161712646,2.939500093460083,-0.3786557614803314
1774473203346484200,12.117484130859374,-2.4166650772094727,3.7117748260498047,-0.8146176338195801
1774473203356504300,12.12750439453125,-2.3215062618255615,4.143162727355957,-1.4389020204544067
1774473203366524000,12.13752392578125,-2.1020402908325195,4.165430068969727,-1.8148620128631592
1774473203376545300,12.147545166015625,-1.8305343389511108,3.9837868213653564,-1.9652893543243408
1774473203386565000,12.157565185546876,-1.522979974746704,3.7470269203186035,-1.9234665632247925
1774473203396585000,12.1675849609375,-1.1730760335922241,3.481764554977417,-1.5698299407958984
1774473203406606000,12.177606201171875,-0.9188865423202515,2.454338788986206,-1.2734451293945312
1774473203416626000,12.1876259765625,-0.8686159253120422,1.5351418256759644,-0.893673300743103
1774473203426646000,12.19764599609375,-0.8956904411315918,0.9254662394523621,-0.4969826638698578
1774473203436666000,12.207666015625,-0.8752546906471252,0.4733312726020813,-0.21234534680843353
1774473203446687000,12.21768701171875,-1.0884157419204712,0.025333227589726448,-0.12897509336471558
1774473203456707000,12.22770703125,-1.431892991065979,-0.3183343708515167,-0.1737649291753769
1774473203466727000,12.237726806640625,-1.6798644065856934,-0.43186599016189575,-0.19270986318588257
1774473203476748000,12.247748046875,-1.662419319152832,-0.596228837966919,-0.14569175243377686
1774473203486768600,12.2577685546875,-1.4286372661590576,-0.9549555778503418,0.02939191646873951
1774473203496788700,12.267788818359374,-1.118249773979187,-1.4923980236053467,0.17683330178260803
1774473203506809600,12.2778095703125,-0.6631304025650024,-2.389406204223633,0.308040589094162
1774473203516829700,12.28782958984375,0.5240045189857483,-2.8782918453216553,0.31316933035850525
1774473203526849800,12.297849853515626,1.6915366649627686,-2.036130905151367,-0.5344719886779785
1774473203536870700,12.30787060546875,1.746785283088684,-1.8911817073822021,-1.255079984664917
1774473203546890800,12.317890869140625,0.9009379744529724,-1.5026354789733887,-1.3291288614273071
1774473203556910800,12.327910888671875,0.23264828324317932,-0.6942928433418274,-1.1910070180892944
1774473203566931700,12.337931640625,0.03854166716337204,-0.27227315306663513,-1.3209362030029297
1774473203576951800,12.347951904296876,0.09833842515945435,0.007893519476056099,-1.5120207071304321
1774473203586971600,12.3579716796875,0.2160184383392334,-0.843161940574646,-1.6781550645828247
1774473203596992800,12.36799267578125,0.03335489332675934,-1.4752854108810425,-1.5662274360656738
1774473203607012900,12.378012939453125,-0.05598216876387596,-2.3956151008605957,-1.3639599084854126
1774473203617032700,12.38803271484375,0.018381010740995407,-2.5866012573242188,-1.4241946935653687
1774473203627053800,12.3980537109375,0.11015646159648895,-2.8082878589630127,-1.664145827293396
1774473203637073700,12.40807373046875,0.14595040678977966,-3.123321294784546,-1.6300761699676514
1774473203647093800,12.41809375,0.15816980600357056,-2.9350874423980713,-1.5876518487930298
1774473203657114600,12.428114501953125,0.07358487695455551,-2.9110517501831055,-1.5196053981781006
1774473203667134700,12.438134765625,-0.0887552946805954,-2.3914060592651367,-1.3944748640060425
1774473203677154800,12.44815478515625,-0.061606768518686295,-2.0268914699554443,-1.1823368072509766
1774473203687175700,12.45817578125,0.0775844007730484,-1.3695794343948364,-0.9322928786277771
1774473203697195800,12.46819580078125,0.13189025223255157,-0.8270343542098999,-0.7354820966720581
1774473203707216000,12.4782158203125,0.15744008123874664,-0.5492362976074219,-0.5348400473594666
1774473203717236700,12.48823681640625,0.11261589825153351,-0.3448408246040344,-0.345325231552124
1774473203727256800,12.4982568359375,0.10204340517520905,-0.10620349645614624,-0.21222737431526184
1774473203737276700,12.508276611328125,0.2710212171077728,0.5088388919830322,-0.182183176279068
1774473203747297800,12.5182978515625,0.6325544118881226,1.6418354511260986,-0.2882920205593109
1774473203757318000,12.52831787109375,0.9155848026275635,2.472743272781372,-0.454233855009079
1774473203767337700,12.538337646484376,0.988927960395813,2.7539448738098145,-0.5352373719215393
