time,seconds_elapsed,z,y,x
1774471241922543600,0.053543701171875,0.1302059441804886,-0.09011604636907578,-0.09425512701272964
1774471241932559600,0.0635595703125,0.08222190290689468,-0.005654689855873585,0.019887421280145645
1774471241942576400,0.073576416015625,0.057431600987911224,0.06404822319746017,0.09009340405464172
1774471241952592600,0.083592529296875,0.05639483407139778,0.09718514233827591,0.10506143420934677
1774471241962609400,0.093609375,0.0725434422492981,0.1209927350282669,0.06606770306825638
1774471241972625400,0.10362548828125,0.10581032186746597,0.12271367013454437,0.001621066126972437
1774471241982641400,0.113641357421875,0.13821406662464142,0.0883658155798912,-0.057803910225629807
1774471241992658700,0.12365869140625,0.1736879050731659,0.034077808260917664,-0.09233898669481277
1774471242002674700,0.1336748046875,0.20233792066574097,0.0022397185675799847,-0.08432846516370773
1774471242012691500,0.14369140625,0.2028455287218094,0.019697004929184914,-0.02911447547376156
1774471242022707500,0.15370751953125,0.19677218794822693,0.08579639345407486,0.05444806069135666
1774471242032724700,0.163724853515625,0.18779785931110382,0.1533767729997635,0.1326933354139328
1774471242042740500,0.173740478515625,0.18131493031978607,0.23769298195838928,0.19760069251060486
1774471242052756500,0.183756591796875,0.18815499544143677,0.33352842926979065,0.2220863252878189
1774471242062773800,0.193773681640625,0.18374772369861603,0.40987059473991394,0.18661968410015106
1774471242072789800,0.203789794921875,0.1824694126844406,0.4801162779331207,0.10898427665233612
1774471242082806500,0.213806640625,0.21177616715431213,0.5490931868553162,0.0007850998663343489
1774471242092822500,0.223822509765625,0.18203957378864288,0.5618875622749329,-0.11636655777692795
1774471242102838500,0.233838623046875,0.11596895009279251,0.5326676368713379,-0.19485923647880554
1774471242112855600,0.24385546875,0.05974056199193001,0.4670366942882538,-0.22002317011356354
1774471242122871600,0.25387158203125,0.03502163290977478,0.41307759284973145,-0.20749619603157043
1774471242132888600,0.263888671875,0.009077916853129864,0.3952423930168152,-0.19893786311149597
1774471242142904600,0.273904541015625,-0.0314500667154789,0.38489043712615967,-0.20467564463615417
1774471242152920600,0.283920654296875,-0.07875686138868332,0.33356785774230957,-0.1904173493385315
1774471242162937600,0.2939375,-0.15270859003067017,0.14479953050613403,-0.06071341410279274
1774471242172953600,0.30395361328125,-0.17202848196029663,0.11496680229902267,0.09182499349117279
1774471242182970600,0.313970703125,-0.14782966673374176,0.1526622474193573,0.18916726112365723
1774471242192986400,0.323986328125,-0.12119460105895996,0.20724639296531677,0.2274555265903473
1774471242203002600,0.334002685546875,-0.08125384151935577,0.21896244585514069,0.2272384762763977
1774471242213019600,0.34401953125,-0.01763438805937767,0.22287994623184204,0.20355018973350525
1774471242223035600,0.35403564453125,0.05955201014876366,0.22985902428627014,0.15702317655086517
1774471242233052400,0.364052490234375,0.1215333566069603,0.22400672733783722,0.08757805079221725
1774471242243068700,0.374068603515625,0.14942464232444763,0.21765881776809692,0.010481136851012707
1774471242253084700,0.384084716796875,0.1310453712940216,0.2401750534772873,-0.05915173515677452
1774471242263101700,0.394101806640625,0.08086555451154709,0.27096304297447205,-0.11491726338863373
1774471242273117400,0.404117431640625,0.02370639517903328,0.28845521807670593,-0.14289191365242004
1774471242283134700,0.414134765625,-0.01852281764149666,0.3009057641029358,-0.13021180033683777
1774471242293150700,0.424150634765625,-0.05851151421666145,0.3029497563838959,-0.09294165670871735
1774471242303166700,0.434166748046875,-0.10131330788135529,0.2958095371723175,-0.04839522764086723
1774471242313183500,0.44418359375,-0.14932531118392944,0.2803400456905365,0.0016231966437771916
1774471242323199500,0.454199462890625,-0.19499479234218597,0.28408417105674744,0.04825621098279953
1774471242333216800,0.464216796875,-0.23450171947479248,0.29621514678001404,0.08763797581195831
1774471242343232500,0.474232421875,-0.2561044692993164,0.30404138565063477,0.11840121448040009
1774471242353249500,0.48424951171875,-0.2572179436683655,0.3194293975830078,0.1456669270992279
1774471242363265500,0.494265625,-0.2671981453895569,0.3447035849094391,0.156329944729805
1774471242373281500,0.504281494140625,-0.2979310154914856,0.38903483748435974,0.1436154842376709
1774471242383298600,0.514298583984375,-0.372426301240921,0.469857782125473,0.11208739131689072
1774471242393314600,0.524314453125,-0.46077534556388855,0.5408512353897095,0.0792122632265091
1774471242403331600,0.53433154296875,-0.5056964755058289,0.5531518459320068,0.06133925914764404
1774471242413347600,0.54434765625,0.09019753336906433,-0.41605713963508606,0.6043764352798462
1774471242423363600,0.554363525390625,-0.4304802715778351,0.6095216870307922,0.3378038704395294
1774471242433380600,0.564380615234375,-0.10941996425390244,1.061068058013916,0.05657033622264862
1774471242443396600,0.574396728515625,-0.22164584696292877,0.7167735695838928,-0.13685771822929382
1774471242453413400,0.584413330078125,-0.29164624214172363,0.3435629606246948,-0.2143503725528717
1774471242463429600,0.5944296875,-0.42052751779556274,0.2476353645324707,-0.24554452300071716
1774471242473445600,0.604445556640625,-0.6187846660614014,0.1686321645975113,-0.2222762107849121
1774471242483462700,0.614462646484375,-0.6438929438591003,0.12098927050828934,-0.168378084897995
1774471242493478700,0.624478759765625,-0.565239667892456,0.16592185199260712,-0.11412949860095978
1774471242503495700,0.63449560546875,-0.4335929751396179,0.24880768358707428,-0.06929704546928406
1774471242513511700,0.64451171875,-0.3014719784259796,0.3045031726360321,-0.04103611782193184
1774471242523527700,0.654527587890625,-0.19306106865406036,0.2931232154369354,-0.0286398995667696
1774471242533544400,0.66454443359375,-0.10283263772726059,0.23562024533748627,-0.006604905705899
1774471242543560400,0.674560546875,-0.020861871540546417,0.18058495223522186,0.03984248638153076
1774471242553577700,0.68457763671875,0.02227095142006874,0.18385931849479675,0.08941270411014557
1774471242563593700,0.69459375,0.016043681651353836,0.24003949761390686,0.1393807977437973
1774471242573609500,0.704609375,-0.039023298770189285,0.28805896639823914,0.2046298384666443
1774471242583626500,0.71462646484375,-0.11563711613416672,0.2883596122264862,0.27338120341300964
1774471242593642800,0.724642822265625,-0.19005408883094788,0.29560980200767517,0.362302303314209
1774471242603659500,0.734659423828125,-0.276902437210083,0.3856571614742279,0.4760080873966217
1774471242613675500,0.744675537109375,-0.3899408280849457,0.5658208131790161,0.6265197992324829
1774471242623691500,0.75469140625,-0.6817750930786133,0.7456400990486145,0.7758070230484009
1774471242633708800,0.764708740234375,-1.07973313331604,0.9452594518661499,0.9679839611053467
1774471242643724800,0.774724853515625,-1.4375383853912354,1.150057077407837,1.2241954803466797
1774471242653741600,0.784741455078125,-1.6806037425994873,1.3354564905166626,1.5075702667236328
1774471242663757600,0.794757568359375,-1.7791777849197388,1.4479707479476929,1.6866848468780518
1774471242673774600,0.804774658203125,-1.71380615234375,1.34769606590271,1.6081101894378662
1774471242683790600,0.81479052734375,-1.5855363607406616,1.0341451168060303,1.2672697305679321
1774471242693806600,0.824806640625,-1.4774620532989502,0.7786686420440674,0.8116313815116882
1774471242703823600,0.83482373046875,-1.4132131338119507,0.685684084892273,0.36224183440208435
1774471242713839600,0.844839599609375,-1.3745895624160767,0.7351163625717163,0.04598613455891609
1774471242723856600,0.854856689453125,-1.3305445909500122,0.9088359475135803,-0.04334001615643501
1774471242733872600,0.86487255859375,-1.1211847066879272,0.7276318073272705,0.09280876815319061
1774471242743888600,0.874888671875,-1.2366337776184082,0.4748370945453644,0.12339543551206589
1774471242753905400,0.884905517578125,-1.5255299806594849,0.44146767258644104,0.1761539876461029
1774471242763921400,0.89492138671875,-1.731587290763855,0.5145543813705444,0.32501643896102905
1774471242773938700,0.904938720703125,-1.6594347953796387,0.8268281817436218,0.3752865195274353
1774471242783954700,0.91495458984375,-1.227666974067688,1.1216528415679932,0.15087313950061798
1774471242793970700,0.924970703125,-0.6108439564704895,1.1528102159500122,-0.2847542464733124
1774471242803987500,0.934987548828125,-0.1901606172323227,0.9772347211837769,-0.6545666456222534
1774471242814003700,0.945003662109375,-0.0959576889872551,0.6407304406166077,-0.8020602464675903
1774471242824020700,0.955020751953125,-0.12808552384376526,0.2625266909599304,-0.682695209980011
1774471242834036500,0.965036376953125,-0.17198215425014496,0.23384419083595276,-0.3536054790019989
1774471242844053500,0.975053466796875,-0.291879802942276,0.43092527985572815,0.06084603816270828
1774471242854069800,0.98506982421875,-0.43357887864112854,0.2521105408668518,0.3456870913505554
1774471242864085800,0.995085693359375,-0.4830643832683563,-0.14472736418247223,0.4766528308391571
1774471242874102500,1.0051025390625,-0.4341658353805542,-0.4144531190395355,0.5358959436416626
1774471242884118500,1.015118408203125,-0.33920416235923767,-0.5205593109130859,0.5748925805091858
1774471242894135800,1.0251357421875,-0.2306276112794876,-0.6832717657089233,0.602367639541626
1774471242904151600,1.035151611328125,-0.15859417617321014,-1.0627738237380981,0.5656412839889526
1774471242914167600,1.04516748046875,-0.11148045212030411,-1.5391347408294678,0.45339545607566833
1774471242924184600,1.0551845703125,-0.18079455196857452,-1.5247036218643188,0.08019869774580002
1774471242934200600,1.06520068359375,-0.16132737696170807,-1.4369655847549438,-0.3456748425960541
1774471242944217600,1.075217529296875,-0.014766429550945759,-1.1468138694763184,-0.7676172852516174
1774471242954233600,1.085233642578125,0.14440058171749115,-0.9420799016952515,-1.0746126174926758
1774471242964249600,1.09524951171875,0.3595035672187805,-0.6799865365028381,-1.162841558456421
1774471242974266600,1.1052666015625,0.5153751969337463,-0.45055678486824036,-1.0723146200180054
1774471242984282400,1.115282470703125,0.5639416575431824,-0.28780966997146606,-0.870602548122406
1774471242994299600,1.125299560546875,0.525478720664978,-0.3032698631286621,-0.6661220788955688
1774471243004315600,1.135315673828125,0.4484957754611969,-0.18900160491466522,-0.5439682006835938
1774471243014332400,1.14533251953125,0.32615041732788086,-0.06580884009599686,-0.46690991520881653
1774471243024348400,1.155348388671875,0.1448381394147873,0.05928489565849304,-0.32517915964126587
1774471243034364700,1.16536474609375,-0.0140183474868536,0.09976334869861603,-0.10873366892337799
1774471243044381700,1.175381591796875,-0.026699254289269447,0.09047557413578033,0.11772556602954865
1774471243054397700,1.185397705078125,0.055813997983932495,0.09683173894882202,0.3079615533351898
1774471243064414700,1.195414794921875,0.17668582499027252,0.1655077338218689,0.43639543652534485
1774471243074431000,1.205430908203125,0.27343952655792236,0.1341295689344406,0.5345044136047363
1774471243084447000,1.215447021484375,0.3304828405380249,0.06153686344623566,0.6065740585327148
1774471243094463700,1.225463623046875,0.34736010432243347,-0.004196343012154102,0.6222297549247742
1774471243104479700,1.235479736328125,0.35492879152297974,-0.1082196831703186,0.5758550763130188
1774471243114497000,1.2454970703125,0.36374518275260925,-0.20312568545341492,0.46786466240882874
1774471243124513000,1.255512939453125,0.4283798336982727,-0.20027263462543488,0.2766385078430176
1774471243134528800,1.26552880859375,0.5868864059448242,-0.2081547975540161,0.022232867777347565
1774471243144545800,1.2755458984375,0.7851893901824951,-0.1220255047082901,-0.2194862812757492
1774471243154561800,1.285561767578125,0.7609436511993408,0.011210043914616108,-0.40732914209365845
1774471243164578800,1.295578857421875,0.6565802693367004,0.07256262004375458,-0.5083662867546082
1774471243174594800,1.3055947265625,0.5670660734176636,0.13622228801250458,-0.4481453001499176
1774471243184611800,1.31561181640625,0.4441145956516266,0.17306604981422424,-0.263227641582489
1774471243194627800,1.3256279296875,0.33904677629470825,0.12992577254772186,-0.0644650086760521
1774471243204643800,1.335643798828125,0.2854897975921631,0.1510622203350067,0.09335871040821075
1774471243214660900,1.345660888671875,0.20950795710086823,0.23042282462120056,0.14703045785427094
1774471243224676900,1.3556767578125,0.14512576162815094,0.29111039638519287,0.12449159473180771
1774471243234694000,1.36569384765625,0.11730265617370605,0.29928523302078247,0.0898132398724556
1774471243244709600,1.375709716796875,0.0813494473695755,0.2314252406358719,0.08044717460870743
1774471243254726000,1.385725830078125,0.04531901329755783,0.1552519053220749,0.09556993097066879
1774471243264743000,1.395742919921875,0.03171958029270172,0.031150728464126587,0.11497771739959717
1774471243274759000,1.405759033203125,0.03435983881354332,-0.08079471439123154,0.12561491131782532
1774471243284775700,1.415775634765625,0.05975201353430748,-0.1487593799829483,0.1135161742568016
1774471243294792000,1.4257919921875,0.08395402133464813,-0.24464116990566254,0.08979273587465286
1774471243304808000,1.435807861328125,0.06178294122219086,-0.35966843366622925,0.08304189145565033
1774471243314824700,1.44582470703125,0.024827850982546806,-0.40243667364120483,0.09592147171497345
1774471243324840700,1.4558408203125,-0.004454935900866985,-0.4032436013221741,0.10494159907102585
1774471243334858000,1.46585791015625,-0.03139547258615494,-0.3829910457134247,0.08801907300949097
1774471243344874000,1.4758740234375,-0.03696068003773689,-0.34390437602996826,0.046496663242578506
1774471243354890800,1.485890869140625,-0.0359867624938488,-0.28886669874191284,0.0001054611784638837
1774471243364906800,1.49590673828125,-0.018435733392834663,-0.2198178470134735,-0.03913382068276405
1774471243374922800,1.5059228515625,0.014230601489543915,-0.17574040591716766,-0.056051816791296005
1774471243384940000,1.51593994140625,0.03620700538158417,-0.15195012092590332,-0.03381655365228653
1774471243394955800,1.525955810546875,0.05078994482755661,-0.17618940770626068,0.012633237056434155
1774471243404972800,1.535972900390625,0.06585704535245895,-0.21360789239406586,0.06137308105826378
1774471243414988800,1.54598876953125,0.0639084056019783,-0.23250780999660492,0.10396741330623627
1774471243425005000,1.556005126953125,0.040650222450494766,-0.20555022358894348,0.10769051313400269
1774471243435021800,1.566021728515625,0.022225942462682724,-0.17397312819957733,0.07130986452102661
1774471243445037800,1.576037841796875,-0.00526533555239439,-0.16260436177253723,0.02460547722876072
1774471243455054800,1.586054931640625,0.026550650596618652,-0.24064083397388458,-0.003263703780248761
1774471243465070800,1.59607080078125,-0.022483738139271736,-0.21321800351142883,-0.0028754149097949266
1774471243475088000,1.606087890625,-0.10041102766990662,-0.1843959391117096,-0.04260258749127388
1774471243485103900,1.616103759765625,-0.08545204997062683,-0.19624274969100952,-0.11770479381084442
1774471243495120000,1.626119873046875,-0.07388141751289368,-0.1999322921037674,-0.20993086695671082
1774471243505137000,1.636136962890625,-0.1017785593867302,-0.1840587854385376,-0.28186336159706116
1774471243515153000,1.64615283203125,-0.09089715033769608,-0.1131470575928688,-0.29835447669029236
1774471243525170000,1.656169921875,-0.026520291343331337,0.034804586321115494,-0.24734801054000854
1774471243535186000,1.66618603515625,0.1765662431716919,0.05168290063738823,-0.10748784244060516
1774471243545201700,1.67620166015625,0.004207261838018894,0.054853927344083786,0.008955944329500198
1774471243555219000,1.686218994140625,-0.11977673321962357,-0.053040847182273865,0.04625910893082619
1774471243565235000,1.69623486328125,-0.017712417989969254,-0.08988035470247269,0.03389431908726692
1774471243575251700,1.706251708984375,0.08889764547348022,-0.0831121951341629,-0.01236239355057478
1774471243585267700,1.716267822265625,0.10298310965299606,-0.09236428141593933,-0.04169018939137459
1774471243595285000,1.726284912109375,0.11587253957986832,-0.07828521728515625,-0.05319131538271904
1774471243605301000,1.736301025390625,0.1485399454832077,-0.03492229804396629,-0.08570132404565811
1774471243615317000,1.74631689453125,0.18632033467292786,0.017591776326298714,-0.15675978362560272
1774471243625333800,1.756333740234375,0.16413354873657227,-0.12806609272956848,-0.21630807220935822
1774471243635349800,1.766349853515625,0.2518918812274933,-0.34583649039268494,-0.17893965542316437
1774471243645366800,1.77636669921875,0.3739168643951416,-0.49570268392562866,-0.030299050733447075
1774471243655382800,1.7863828125,0.2213321179151535,-0.4065568447113037,0.11165942251682281
1774471243665398800,1.796398681640625,0.20820806920528412,-0.16171406209468842,0.17058639228343964
1774471243675415800,1.806415771484375,0.35640257596969604,0.1551421880722046,0.20392143726348877
1774471243685432000,1.81643212890625,0.5518298745155334,0.45817822217941284,0.22999484837055206
1774471243695448800,1.82644873046875,0.6746777892112732,0.6043511629104614,0.2889268696308136
1774471243705464800,1.83646484375,0.6786218881607056,0.5873916149139404,0.3588321805000305
1774471243715481900,1.84648193359375,0.6117510199546814,0.46311333775520325,0.34908315539360046
1774471243725497900,1.856497802734375,0.5315035581588745,0.28337737917900085,0.25798067450523376
1774471243735513900,1.866513916015625,0.5013123750686646,0.1667889803647995,0.13729260861873627
1774471243745531000,1.87653076171875,0.5053420066833496,0.12931351363658905,0.03994954749941826
1774471243755547000,1.886546875,0.5013392567634583,0.21340122818946838,-0.06268122047185898
1774471243765564000,1.89656396484375,0.5589860677719116,0.1762157827615738,-0.13162274658679962
1774471243775580000,1.906579833984375,0.7035900950431824,0.0986272394657135,-0.15469583868980408
1774471243785596000,1.916595947265625,0.8859503269195557,0.006315686274319887,-0.16459614038467407
1774471243795613000,1.926613037109375,0.8490069508552551,-0.08286931365728378,-0.03242158889770508
1774471243805628700,1.936628662109375,0.5918278694152832,0.06169265881180763,0.13036759197711945
1774471243815646000,1.94664599609375,0.4735502600669861,0.16720683872699738,0.25580087304115295
1774471243825662000,1.956661865234375,0.3495683968067169,-0.01804424822330475,0.4374851882457733
1774471243835678700,1.9666787109375,0.1436876654624939,-0.3504781126976013,0.61058109998703
1774471243845694700,1.97669482421875,-0.08013584464788437,-0.5555077195167542,0.7296856045722961
1774471243855710700,1.986710693359375,-0.28764110803604126,-0.3401179015636444,0.6945968866348267
1774471243865728000,1.99672802734375,-0.18976673483848572,-0.036487970501184464,0.4073227643966675
1774471243875743700,2.00674365234375,0.1251126378774643,0.21085764467716217,0.07378660887479782
1774471243885760800,2.0167607421875,0.28633907437324524,0.4258847236633301,-0.14027774333953857
1774471243895776800,2.02677685546875,0.26439571380615234,0.5161107778549194,-0.14434519410133362
1774471243905793000,2.03679296875,0.1850726455450058,0.42727649211883545,-0.04284573346376419
1774471243915809800,2.046809814453125,0.056835319846868515,0.24039502441883087,0.08694155514240265
1774471243925825800,2.05682568359375,-0.06791433691978455,0.009363674558699131,0.1691533327102661
1774471243935842800,2.0668427734375,-0.0916644036769867,-0.17766480147838593,0.17931196093559265
1774471243945859000,2.076859130859375,-0.09436458349227905,-0.1849038004875183,0.17646238207817078
1774471243955874800,2.086874755859375,-0.13539910316467285,0.011625230312347412,0.18980641663074493
1774471243965891800,2.096891845703125,-0.08769283443689346,0.05453168600797653,0.22532659769058228
1774471243975907800,2.106907958984375,-0.052200619131326675,0.06296271830797195,0.2869388163089752
1774471243985924900,2.1169248046875,-0.04489423707127571,0.014170147478580475,0.359504371881485
1774471243995940900,2.12694091796875,-0.036485571414232254,-0.019418705254793167,0.4012235999107361
1774471244005958000,2.1369580078125,0.0070672305300831795,0.02148904651403427,0.38594770431518555
1774471244015974000,2.146973876953125,0.053823284804821014,0.06852393597364426,0.3540928363800049
1774471244025990000,2.156989990234375,0.07095406949520111,0.06907068192958832,0.34471824765205383
1774471244036007000,2.1670068359375,0.0846933126449585,0.06250971555709839,0.3402355909347534
1774471244046023000,2.17702294921875,0.1419645994901657,0.00894076470285654,0.311605304479599
1774471244056040000,2.1870400390625,0.17243701219558716,-0.12849140167236328,0.27336016297340393
1774471244066056000,2.197055908203125,0.27656981348991394,-0.2945445477962494,0.2314838171005249
1774471244076073000,2.207072998046875,0.35774028301239014,-0.2890704274177551,0.18383987247943878
1774471244086089000,2.2170888671875,0.40789374709129333,-0.24577301740646362,0.15154504776000977
1774471244096105200,2.227105224609375,0.43759438395500183,-0.42212408781051636,0.11459315568208694
1774471244106122000,2.2371220703125,0.435303270816803,-0.5022284984588623,0.11823023855686188
1774471244116138000,2.247137939453125,0.38655170798301697,-0.3382403552532196,0.14843927323818207
1774471244126155000,2.257155029296875,0.3420284390449524,-0.27262166142463684,0.18296875059604645
1774471244136171000,2.2671708984375,0.38999196887016296,-0.2468332201242447,0.2001650482416153
1774471244146187000,2.27718701171875,0.44122639298439026,-0.16577325761318207,0.16123895347118378
1774471244156204000,2.2872041015625,0.3762545883655548,0.02725905179977417,0.13620497286319733
1774471244166220000,2.297219970703125,0.26370275020599365,0.07507877051830292,0.21665507555007935
1774471244176237000,2.307237060546875,0.15173760056495667,0.017705760896205902,0.2895708382129669
1774471244186253000,2.317253173828125,0.040496826171875,0.022599585354328156,0.35779330134391785
1774471244196270000,2.32727001953125,-0.046476688235998154,0.04165210574865341,0.39076268672943115
1774471244206286000,2.3372861328125,-0.10468246787786484,0.10593202710151672,0.38684678077697754
1774471244216301800,2.3473017578125,-0.13264645636081696,0.19386188685894012,0.3547905683517456
1774471244226319000,2.357319091796875,-0.13768436014652252,0.24926123023033142,0.31463465094566345
1774471244236335000,2.367335205078125,-0.11862412095069885,0.26625457406044006,0.2624337375164032
1774471244246352000,2.377351806640625,-0.08658549189567566,0.26222097873687744,0.2244645357131958
1774471244256367900,2.387367919921875,-0.05668777972459793,0.25555747747421265,0.19722065329551697
1774471244266384100,2.397384033203125,-0.0399109311401844,0.232387974858284,0.17265433073043823
1774471244276401200,2.407401123046875,-0.009138637222349644,0.15961149334907532,0.14011822640895844
1774471244286417000,2.4174169921875,-0.0008671252289786935,0.05849207192659378,0.1209714263677597
1774471244296434000,2.427433837890625,-0.015660718083381653,0.09870447218418121,0.1464107483625412
1774471244306450200,2.4374501953125,0.03741421550512314,0.05522943288087845,0.13594451546669006
1774471244316466200,2.447466064453125,0.06175151467323303,-0.006608634255826473,0.12840883433818817
1774471244326483000,2.45748291015625,0.06105669587850571,-0.009756490588188171,0.1393941044807434
1774471244336499000,2.4674990234375,0.05832855403423309,-0.04139164835214615,0.1522505283355713
1774471244346516200,2.47751611328125,0.05736289173364639,-0.16058647632598877,0.1704966425895691
1774471244356532200,2.4875322265625,0.05552957206964493,-0.2387707680463791,0.19840176403522491
1774471244366549000,2.497549072265625,0.05976905673742294,-0.26130324602127075,0.224788099527359
1774471244376565000,2.50756494140625,0.07333386689424515,-0.26535817980766296,0.2273508608341217
1774471244386581000,2.5175810546875,0.09923151135444641,-0.29377248883247375,0.19914212822914124
1774471244396598000,2.527597900390625,0.1399717479944229,-0.29563698172569275,0.17017999291419983
1774471244406614000,2.537614013671875,0.15390993654727936,-0.281870037317276,0.15688948333263397
1774471244416631000,2.547631103515625,0.16183523833751678,-0.28115150332450867,0.1465015560388565
1774471244426647000,2.55764697265625,0.17350095510482788,-0.2936427891254425,0.12029791623353958
1774471244436663000,2.5676630859375,0.17960810661315918,-0.2802814543247223,0.0859532579779625
1774471244446680000,2.57768017578125,0.17112141847610474,-0.2570054233074188,0.045337654650211334
1774471244456696000,2.587696044921875,0.15892307460308075,-0.2585340738296509,-0.003996605984866619
1774471244466712800,2.597712890625,0.15095649659633636,-0.2799895703792572,-0.05790005251765251
1774471244476728800,2.607728759765625,0.14831037819385529,-0.27885666489601135,-0.11863530427217484
1774471244486746000,2.61774609375,0.14914686977863312,-0.26848259568214417,-0.15918458998203278
1774471244496762000,2.62776220703125,0.1465071439743042,-0.2632313668727875,-0.18212346732616425
1774471244506778000,2.637778076171875,0.12921178340911865,-0.2559545338153839,-0.17162688076496124
1774471244516795000,2.647794921875,0.08431967347860336,-0.24768249690532684,-0.13649259507656097
1774471244526811100,2.65781103515625,0.03056882880628109,-0.22915036976337433,-0.08261631429195404
1774471244536828200,2.667828125,-0.0065258098766207695,-0.21922768652439117,-0.040517598390579224
1774471244546844000,2.677843994140625,-0.012946158647537231,-0.22936181724071503,-0.03886990249156952
1774471244556860000,2.68785986328125,-0.008664860390126705,-0.2342817485332489,-0.062255918979644775
1774471244566877200,2.697877197265625,0.0037582528311759233,-0.2873971462249756,-0.0771176889538765
1774471244576893200,2.70789306640625,-0.04850708320736885,-0.2797088921070099,-0.0481606051325798
1774471244586910000,2.717909912109375,-0.057126667350530624,-0.24944418668746948,-0.030536869540810585
1774471244596926000,2.727926025390625,-0.057800449430942535,-0.23884239792823792,-0.03527729585766792
1774471244606943200,2.737943115234375,-0.048287104815244675,-0.21507342159748077,-0.04928605630993843
1774471244616959000,2.747958984375,-0.03206099569797516,-0.1715046465396881,-0.06693216413259506
1774471244626975000,2.75797509765625,-0.01122069638222456,-0.12954334914684296,-0.08987049758434296
1774471244636992000,2.767991943359375,0.017530256882309914,-0.11167006939649582,-0.11066233366727829
1774471244647008000,2.778008056640625,0.04873478412628174,-0.08263096213340759,-0.12509506940841675
1774471244657025000,2.78802490234375,0.07319991290569305,-0.05933203175663948,-0.1293441355228424
1774471244667041000,2.798041015625,0.08692291378974915,-0.05319424718618393,-0.12304709851741791
1774471244677057000,2.80805712890625,0.09762163460254669,-0.06089610606431961,-0.09747542440891266
1774471244687074000,2.818073974609375,0.09409214556217194,-0.10698610544204712,-0.05685848742723465
1774471244697089800,2.82808984375,0.0863114520907402,-0.16958637535572052,-0.0032674323301762342
1774471244707107000,2.838107177734375,0.06907680630683899,-0.27448800206184387,0.05902257189154625
1774471244717123000,2.848123046875,0.050095658749341965,-0.3424878418445587,0.12073706835508347
1774471244727139000,2.85813916015625,0.03725256398320198,-0.3466077446937561,0.1607542634010315
1774471244737155800,2.86815576171875,0.06004762277007103,-0.387631893157959,0.16104161739349365
1774471244747172000,2.878172119140625,0.02617914043366909,-0.34444552659988403,0.15277516841888428
1774471244757189000,2.888189208984375,0.02383076399564743,-0.20053789019584656,0.1249145045876503
1774471244767205000,2.898205078125,0.037146568298339844,-0.13849583268165588,0.07136312872171402
1774471244777222000,2.908221923828125,0.0253442395478487,-0.1555216759443283,0.030841002240777016
1774471244787238100,2.918238037109375,0.0004956142511218786,-0.1264471560716629,-0.00040533312130719423
1774471244797254100,2.928254150390625,-0.034565966576337814,-0.08185518532991409,-0.029937125742435455
1774471244807271000,2.93827099609375,-0.052627258002758026,-0.09873776137828827,-0.075558140873909
1774471244817287000,2.948286865234375,-0.03159787505865097,-0.14830131828784943,-0.1246737539768219
1774471244827304200,2.95830419921875,0.00689199473708868,-0.15546229481697083,-0.13099956512451172
1774471244837320200,2.9683203125,0.023480558767914772,-0.10005149990320206,-0.062240470200777054
1774471244847336000,2.9783359375,0.08596550673246384,0.0011909656459465623,0.014199708588421345
1774471244857353000,2.98835302734375,0.10821515321731567,0.015025821514427662,0.1140512079000473
1774471244867369000,2.998368896484375,0.15657629072666168,-0.04770014435052872,0.18236954510211945
1774471244877386000,3.008385986328125,0.22173532843589783,-0.07934834808111191,0.2036018669605255
1774471244887402000,3.018402099609375,0.2489728033542633,-0.09153790771961212,0.18608544766902924
1774471244897418000,3.02841796875,0.17422719299793243,-0.12337572872638702,0.10391095280647278
1774471244907435000,3.03843505859375,0.05071377754211426,-0.0933869406580925,-0.13181981444358826
1774471244917451000,3.048450927734375,-0.008533833548426628,0.13085602223873138,-0.5293975472450256
1774471244927468000,3.058468017578125,0.03191132843494415,0.3815036714076996,-0.9504504799842834
1774471244937484000,3.068484130859375,0.09164070338010788,0.5431287884712219,-1.1712331771850586
1774471244947501000,3.0785009765625,0.20690152049064636,0.5717990398406982,-1.1198911666870117
1774471244957516800,3.088516845703125,0.2827502191066742,0.40808841586112976,-0.8939030766487122
1774471244967533000,3.098532958984375,0.3406667709350586,0.17623041570186615,-0.6509724259376526
1774471244977550000,3.108550048828125,0.39511963725090027,-0.028654014691710472,-0.5349425077438354
1774471244987566000,3.118566162109375,0.4311428666114807,-0.22354814410209656,-0.5629571080207825
1774471244997582800,3.128582763671875,0.48242178559303284,-0.33176276087760925,-0.6825703382492065
1774471245007599000,3.13859912109375,0.49820366501808167,-0.2704858183860779,-0.7902371287345886
1774471245017615000,3.148614990234375,0.5118438601493835,-0.1779385805130005,-0.808447003364563
1774471245027631900,3.1586318359375,0.5421623587608337,-0.007996140979230404,-0.705935537815094
1774471245037648000,3.16864794921875,0.4713001549243927,0.11238912492990494,-0.5669931173324585
1774471245047665200,3.1786650390625,0.49043601751327515,0.17005029320716858,-0.3974485695362091
1774471245057681200,3.18868115234375,0.5132191181182861,0.2257537692785263,-0.25561845302581787
1774471245067697400,3.198697509765625,0.503372848033905,0.2041075974702835,-0.1887696534395218
1774471245077714400,3.20871435546875,0.4436277747154236,0.12819765508174896,-0.18374133110046387
1774471245087730400,3.21873046875,0.3610024154186249,0.10874352604150772,-0.21103979647159576
1774471245097747500,3.22874755859375,0.2934902012348175,0.09012296795845032,-0.2455088347196579
1774471245107763500,3.238763427734375,0.2442837804555893,0.10705588012933731,-0.2711241841316223
1774471245117780500,3.248780517578125,0.20724906027317047,0.116737000644207,-0.2733803987503052
1774471245127796500,3.25879638671875,0.18824979662895203,0.11709412932395935,-0.25253185629844666
1774471245137812700,3.268812744140625,0.17978627979755402,0.08896476030349731,-0.23682692646980286
1774471245147829500,3.27882958984375,0.18317461013793945,0.06527461111545563,-0.22085994482040405
1774471245157845500,3.288845458984375,0.20163831114768982,0.051778510212898254,-0.20885653793811798
1774471245167862500,3.298862548828125,0.23631933331489563,0.01973668672144413,-0.19638283550739288
1774471245177878500,3.30887841796875,0.29032182693481445,-0.038360971957445145,-0.17362664639949799
1774471245187894500,3.31889453125,0.33100375533103943,-0.08761906623840332,-0.1305505484342575
1774471245197911600,3.32891162109375,0.3517971932888031,-0.10293543338775635,-0.07913503050804138
1774471245207927600,3.338927490234375,0.36648958921432495,-0.1070801168680191,-0.03232038766145706
1774471245217944600,3.348944580078125,0.3745805323123932,-0.11311909556388855,-0.0023931164760142565
1774471245227960600,3.358960693359375,0.3429009020328522,-0.06479097902774811,0.011829229071736336
1774471245237976600,3.3689765625,0.31537926197052,-0.016762735322117805,0.010675014927983284
1774471245247993300,3.378993408203125,0.32243528962135315,0.017376061528921127,-0.016580574214458466
1774471245258009300,3.38900927734375,0.33535295724868774,0.05218543857336044,-0.05832509323954582
1774471245268026600,3.399026611328125,0.3380270302295685,0.06836067885160446,-0.08471702039241791
1774471245278042600,3.409042724609375,0.3198903799057007,0.052802227437496185,-0.09456485509872437
1774471245288058600,3.41905859375,0.269391804933548,0.0380065031349659,-0.0870337039232254
1774471245298075400,3.429075439453125,0.2208535522222519,0.035836558789014816,-0.06521575152873993
1774471245308091400,3.43909130859375,0.19040483236312866,0.05433434620499611,-0.03323518484830856
1774471245318108700,3.449108642578125,0.17106495797634125,0.05739058926701546,0.002665824256837368
1774471245328124400,3.45912451171875,0.15085209906101227,0.047272440046072006,0.04619226232171059
1774471245338141400,3.469141357421875,0.13870461285114288,0.05005757510662079,0.09518697112798691
1774471245348157400,3.479157470703125,0.12834438681602478,0.029315810650587082,0.13035081326961517
1774471245358173700,3.489173583984375,0.08616364747285843,-0.016708672046661377,0.14559555053710938
1774471245368190500,3.4991904296875,0.037879738956689835,-0.04505562409758568,0.1674281358718872
1774471245378206500,3.50920654296875,-0.005802495405077934,-0.09351982921361923,0.17093846201896667
1774471245388223500,3.519223388671875,-0.08580172061920166,-0.1427379697561264,0.15147314965724945
1774471245398239500,3.529239501953125,-0.15980564057826996,-0.12034957855939865,0.12640348076820374
1774471245408255500,3.53925537109375,-0.22050841152668,-0.06160876899957657,0.10155751556158066
1774471245418272500,3.5492724609375,-0.2553745210170746,-0.024684840813279152,0.07497037947177887
1774471245428288500,3.55928857421875,-0.2650652229785919,-0.021748971194028854,0.04814489185810089
1774471245438305500,3.569305419921875,-0.2510412931442261,-0.05631120875477791,0.02851233445107937
1774471245448321500,3.579321533203125,-0.24240784347057343,-0.11763129383325577,0.00370072852820158
1774471245458337500,3.589337646484375,-0.25112757086753845,-0.13804762065410614,-0.01474805362522602
1774471245468354600,3.5993544921875,-0.26158127188682556,-0.13422171771526337,-0.02972673624753952
1774471245478370300,3.609370361328125,-0.2715425491333008,-0.11928484588861465,-0.0495089627802372
1774471245488387600,3.6193876953125,-0.2702413499355316,-0.07700636982917786,-0.0568249337375164
1774471245498403600,3.629403564453125,-0.2461639642715454,-0.020368654280900955,-0.0487225316464901
1774471245508419600,3.639419677734375,-0.225568950176239,-0.012823387049138546,-0.028599154204130173
1774471245518436400,3.649436279296875,-0.2134249359369278,-0.006403304636478424,0.01895824447274208
1774471245528452400,3.659452392578125,-0.1943439096212387,0.015052186325192451,0.07631155103445053
1774471245538469600,3.6694697265625,-0.17255978286266327,0.007988683879375458,0.11594737321138382
1774471245548485600,3.679485595703125,-0.1562814861536026,-0.04897712916135788,0.14010624587535858
1774471245558502400,3.68950244140625,-0.13335645198822021,-0.0969955250620842,0.1435030996799469
1774471245568518400,3.699518310546875,-0.09867597371339798,-0.14359977841377258,0.12345375865697861
1774471245578534700,3.70953466796875,-0.0896902084350586,-0.1772134006023407,0.07646255195140839
1774471245588551400,3.719551513671875,-0.10147175937891006,-0.16046051681041718,0.04154345020651817
1774471245598567400,3.7295673828125,-0.115260548889637,-0.13062511384487152,0.027872378006577492
1774471245608584400,3.73958447265625,-0.12005210667848587,-0.105146124958992,0.025721607729792595
1774471245618600700,3.7496005859375,-0.09678620100021362,-0.09205828607082367,0.023667246103286743
1774471245628616400,3.759616455078125,-0.062315572053194046,-0.09850766509771347,0.03153635561466217
1774471245638633500,3.769633544921875,-0.04043637216091156,-0.12179487943649292,0.053153231739997864
1774471245648649500,3.7796494140625,-0.03519820049405098,-0.16295163333415985,0.08379635959863663
1774471245658666500,3.78966650390625,-0.027608191594481468,-0.1833442598581314,0.11547200381755829
1774471245668682500,3.7996826171875,-0.029272668063640594,-0.17911702394485474,0.13204644620418549
1774471245678698500,3.809698486328125,-0.02713974192738533,-0.17343942821025848,0.13597674667835236
1774471245688715500,3.819715576171875,-0.025856098160147667,-0.2129570096731186,0.125467911362648
1774471245698731500,3.8297314453125,-0.047450073063373566,-0.26664474606513977,0.10287072509527206
1774471245708748500,3.83974853515625,-0.06814443320035934,-0.2811847925186157,0.07700449973344803
1774471245718764500,3.8497646484375,-0.086729034781456,-0.2671680450439453,0.048641838133335114
1774471245728781600,3.859781494140625,-0.11048150062561035,-0.2468920797109604,0.030705181881785393
1774471245738797300,3.86979736328125,-0.13248880207538605,-0.24676769971847534,0.024449948221445084
1774471245748813600,3.8798134765625,-0.16381743550300598,-0.23663944005966187,0.004609931726008654
1774471245758830600,3.88983056640625,-0.2145588994026184,-0.19221605360507965,-0.02634958177804947
1774471245768846600,3.8998466796875,-0.2776326835155487,-0.15821734070777893,-0.0688813328742981
1774471245778863400,3.90986328125,-0.35275697708129883,-0.1340416967868805,-0.13791099190711975
1774471245788879600,3.919879638671875,-0.43997499346733093,-0.06959958374500275,-0.21761780977249146
1774471245798895600,3.9298955078125,-0.5150657296180725,0.0020506340079009533,-0.28396326303482056
1774471245808912600,3.93991259765625,-0.5494844317436218,0.057431068271398544,-0.3502277731895447
1774471245818928400,3.949928466796875,-0.5350322723388672,0.09353633970022202,-0.3987250030040741
1774471245828945400,3.9599453125,-0.4861600399017334,0.03886430710554123,-0.4256567656993866
1774471245838961700,3.969961669921875,-0.4021975100040436,-0.046297989785671234,-0.43360069394111633
1774471245848977700,3.979977783203125,-0.30390262603759766,-0.12937051057815552,-0.42515742778778076
1774471245858994400,3.989994384765625,-0.1966286450624466,-0.2298736721277237,-0.39446741342544556
1774471245869010400,4.000010498046875,-0.09257307648658752,-0.27665263414382935,-0.31429508328437805
1774471245879027700,4.01002783203125,-0.0005113269435241818,-0.26729774475097656,-0.17304182052612305
1774471245889043500,4.02004345703125,0.11533724516630173,-0.25818201899528503,-0.011717376299202442
1774471245899060500,4.030060546875,0.2552139163017273,-0.2892989218235016,0.1219826340675354
1774471245909076500,4.040076416015625,0.39940279722213745,-0.3367287516593933,0.20907092094421387
1774471245919092500,4.050092529296875,0.517712414264679,-0.4027802050113678,0.2797408401966095
1774471245929109500,4.060109619140625,0.5392301678657532,-0.4885750114917755,0.3572569191455841
1774471245939125500,4.07012548828125,0.4970150887966156,-0.47555267810821533,0.464597225189209
1774471245949142500,4.080142578125,0.44668853282928467,-0.38071590662002563,0.5699105858802795
1774471245959158500,4.090158447265625,0.4228029251098633,-0.3021276295185089,0.6170352697372437
1774471245969174500,4.100174560546875,0.3936240077018738,-0.2917490303516388,0.5731990933418274
1774471245979191600,4.110191650390625,0.3365367352962494,-0.31940755248069763,0.4787199795246124
1774471245989207600,4.12020751953125,0.291766881942749,-0.32451337575912476,0.35560762882232666
1774471245999224300,4.130224365234375,0.2718280553817749,-0.33051133155822754,0.21801994740962982
1774471246009240600,4.140240478515625,0.246958926320076,-0.31881633400917053,0.08914798498153687
1774471246019256600,4.150256591796875,0.21653683483600616,-0.297745943069458,0.006056561134755611
1774471246029273600,4.160273681640625,0.16517004370689392,-0.2660900056362152,-0.0472298301756382
1774471246039289600,4.17028955078125,0.10219667851924896,-0.23779764771461487,-0.10020250082015991
1774471246049306600,4.180306640625,0.03074832446873188,-0.2154388129711151,-0.17654414474964142
1774471246059322600,4.190322509765625,-0.028154406696558,-0.19501742720603943,-0.27389758825302124
1774471246069339400,4.20033935546875,-0.05187331885099411,-0.17214646935462952,-0.39201411604881287
1774471246079355100,4.210355224609375,-0.028062794357538223,-0.13175776600837708,-0.4912565350532532
1774471246089371100,4.22037109375,0.010388192720711231,-0.12881070375442505,-0.5518612861633301
1774471246099388200,4.23038818359375,0.03497263044118881,-0.2131918966770172,-0.5946425795555115
1774471246109404400,4.240404296875,0.04578293487429619,-0.2940366864204407,-0.6006080508232117
1774471246119421200,4.250421142578125,0.07516159862279892,-0.2938454747200012,-0.5435551404953003
1774471246129437200,4.260437255859375,0.09297521412372589,-0.3271360397338867,-0.4608001112937927
1774471246139453200,4.270453125,0.09096745401620865,-0.3831809461116791,-0.3790666162967682
1774471246149470200,4.28047021484375,0.11163358390331268,-0.40567559003829956,-0.29431605339050293
1774471246159486200,4.290486328125,0.1454581320285797,-0.43664735555648804,-0.22346584498882294
1774471246169503200,4.300503173828125,0.18298685550689697,-0.49985241889953613,-0.19200192391872406
1774471246179519200,4.310519287109375,0.21057908236980438,-0.5987334847450256,-0.20023483037948608
1774471246189536300,4.320536376953125,0.22547893226146698,-0.6738132834434509,-0.2277812361717224
1774471246199552300,4.33055224609375,0.23990367352962494,-0.6889472603797913,-0.2575228810310364
1774471246209568300,4.340568359375,0.2571508288383484,-0.636224627494812,-0.2689760625362396
1774471246219585300,4.350585205078125,0.2690546214580536,-0.5217787623405457,-0.23823148012161255
1774471246229601000,4.36060107421875,0.2704615890979767,-0.39784857630729675,-0.160697802901268
1774471246239618300,4.370618408203125,0.2577148973941803,-0.3117770552635193,-0.052866142243146896
1774471246249634300,4.38063427734375,0.2360474169254303,-0.2868959605693817,0.03581206128001213
1774471246259651000,4.390651123046875,0.19634288549423218,-0.28767094016075134,0.08365548402070999
1774471246269667000,4.4006669921875,0.15343189239501953,-0.2607996463775635,0.09611481428146362
1774471246279683000,4.41068310546875,0.1366310864686966,-0.26795634627342224,0.06976895779371262
1774471246289700400,4.420700439453125,0.152836412191391,-0.3026224374771118,0.011609517969191074
1774471246299716400,4.43071630859375,0.19065916538238525,-0.3118053078651428,-0.05067675933241844
1774471246309733000,4.440733154296875,0.2254653424024582,-0.253667414188385,-0.09347669035196304
1774471246319749000,4.4507490234375,0.23619602620601654,-0.14222319424152374,-0.10061822086572647
1774471246329765400,4.460765380859375,0.23522663116455078,-0.004273840691894293,-0.07582099735736847
1774471246339782100,4.4707822265625,0.25145140290260315,0.15263108909130096,-0.03910345956683159
1774471246349798100,4.480798095703125,0.2846572995185852,0.30018964409828186,-0.021108213812112808
1774471246359815200,4.490815185546875,0.3291126489639282,0.41602039337158203,-0.02936800941824913
1774471246369831400,4.50083154296875,0.37130165100097656,0.4676281809806824,-0.03538675233721733
1774471246379848200,4.51084814453125,0.4003532826900482,0.4125311076641083,-0.027284085750579834
1774471246389864200,4.5208642578125,0.40654751658439636,0.30711254477500916,0.0029880667570978403
1774471246399880200,4.530880126953125,0.41475483775138855,0.20806531608104706,0.055607870221138
1774471246409897200,4.540897216796875,0.43722233176231384,0.15531235933303833,0.10752832144498825
1774471246419913200,4.550913330078125,0.4192739725112915,0.11446186155080795,0.13838984072208405
1774471246429930200,4.56093017578125,0.34851643443107605,0.13477805256843567,0.16617485880851746
1774471246439946200,4.5709462890625,0.2771162986755371,0.1597830057144165,0.1892639398574829
1774471246449963300,4.58096337890625,0.24476154148578644,0.1507439762353897,0.2045331597328186
1774471246459979300,4.590979248046875,0.2562706768512726,0.10148853808641434,0.20252060890197754
1774471246469995300,4.600995361328125,0.29389846324920654,0.014435132034122944,0.17831674218177795
1774471246480012300,4.61101220703125,0.3313249349594116,-0.09585835039615631,0.11986781656742096
1774471246490028000,4.621028076171875,0.3660437762737274,-0.18074475228786469,0.04992867633700371
1774471246500045300,4.63104541015625,0.3911919891834259,-0.20656995475292206,-0.016472449526190758
1774471246510061300,4.641061279296875,0.3829713463783264,-0.18104888498783112,-0.0616721510887146
1774471246520078000,4.651078125,0.34828633069992065,-0.11124316602945328,-0.07385238260030746
1774471246530094000,4.661093994140625,0.30917036533355713,-0.027122963219881058,-0.06291824579238892
1774471246540110000,4.671110107421875,0.2709689140319824,0.02479829080402851,-0.04608280584216118
1774471246550127400,4.68112744140625,0.21220147609710693,0.0572797991335392,-0.03488447889685631
1774471246560143400,4.691143310546875,0.15204626321792603,0.09463515877723694,-0.029089175164699554
1774471246570160000,4.70116015625,0.11861639469861984,0.12610307335853577,-0.04701012000441551
1774471246580176100,4.711176025390625,0.1083376556634903,0.11222853511571884,-0.08936955779790878
1774471246590193200,4.721193115234375,0.11697003245353699,0.044247888028621674,-0.16264431178569794
1774471246600209200,4.731209228515625,0.12998250126838684,-0.02570349909365177,-0.2425500601530075
1774471246610225200,4.74122509765625,0.12553368508815765,-0.06846774369478226,-0.30135610699653625
1774471246620242200,4.7512421875,0.1060558632016182,-0.06614120304584503,-0.33347225189208984
1774471246630258400,4.761258544921875,0.10229867696762085,-0.049970224499702454,-0.34139007329940796
1774471246640275200,4.771275146484375,0.10009517520666122,-0.02009914256632328,-0.33074650168418884
1774471246650291200,4.781291259765625,0.09983045607805252,0.007859786972403526,-0.29766711592674255
1774471246660308200,4.79130810546875,0.10468992590904236,0.006561496295034885,-0.2567601501941681
1774471246670324200,4.80132421875,0.11953944712877274,-0.01269981637597084,-0.22419261932373047
1774471246680340200,4.81134033203125,0.13956987857818604,-0.03901237994432449,-0.21527981758117676
1774471246690357200,4.821357177734375,0.1565006673336029,-0.053528737276792526,-0.23448067903518677
1774471246700373200,4.831373291015625,0.18062223494052887,-0.04573419690132141,-0.26856300234794617
1774471246710390300,4.841390380859375,0.19746540486812592,-0.02683214657008648,-0.2943200469017029
1774471246720406300,4.85140625,0.1906844675540924,-0.027633225545287132,-0.3020373582839966
1774471246730422300,4.86142236328125,0.17087534070014954,-0.03370097279548645,-0.2874419093132019
1774471246740439300,4.871439208984375,0.16607286036014557,-0.033315613865852356,-0.26180151104927063
1774471246750455000,4.881455078125,0.17663735151290894,-0.01716007851064205,-0.2364407628774643
1774471246760472300,4.891472412109375,0.2013099491596222,-0.009614277631044388,-0.21141476929187775
1774471246770488300,4.90148828125,0.23007553815841675,-0.004577973857522011,-0.1970347762107849
1774471246780505000,4.911505126953125,0.24169784784317017,-0.004202201962471008,-0.17689354717731476
1774471246790521000,4.92152099609375,0.23033307492733002,-0.007925833575427532,-0.1489250361919403
1774471246800537000,4.931537109375,0.2169022113084793,0.019507920369505882,-0.11905155330896378
1774471246810554400,4.941554443359375,0.2109423279762268,0.05355031043291092,-0.09706156700849533
1774471246820570000,4.951570068359375,0.21956218779087067,0.05895999073982239,-0.09793375432491302
1774471246830587100,4.961587158203125,0.23562157154083252,0.03754151612520218,-0.12883760035037994
1774471246840603100,4.97160302734375,0.23838700354099274,0.011170629411935806,-0.17712923884391785
1774471246850620200,4.9816201171875,0.22805926203727722,-0.003008306724950671,-0.2184029072523117
1774471246860636200,4.99163623046875,0.2161504030227661,0.015398929826915264,-0.2471591830253601
1774471246870652200,5.001652099609375,0.19879138469696045,0.0361659936606884,-0.276977002620697
1774471246880669200,5.011669189453125,0.18547825515270233,0.0515204481780529,-0.3181537389755249
1774471246890685400,5.021685546875,0.16799326241016388,0.06980092078447342,-0.35683295130729675
1774471246900702200,5.0317021484375,0.14682964980602264,0.07743220776319504,-0.39284661412239075
1774471246910718200,5.04171826171875,0.1221887618303299,0.06316671520471573,-0.4149588346481323
1774471246920735200,5.0517353515625,0.09700058400630951,0.04382391273975372,-0.42172354459762573
1774471246930751200,5.061751220703125,0.0869641900062561,0.011265171691775322,-0.41884997487068176
1774471246940767200,5.071767333984375,0.08207755535840988,-0.020604876801371574,-0.41028234362602234
1774471246950784300,5.0817841796875,0.07881039381027222,-0.0555516742169857,-0.39807572960853577
1774471246960800300,5.09180029296875,0.084543377161026,-0.11308500915765762,-0.37315306067466736
1774471246970817300,5.1018173828125,0.09747036546468735,-0.16728566586971283,-0.3434889316558838
1774471246980833300,5.111833251953125,0.1206798106431961,-0.19902335107326508,-0.3075421154499054
1774471246990850300,5.121850341796875,0.1368955373764038,-0.20221860706806183,-0.26663756370544434
1774471247000866000,5.131865966796875,0.13565796613693237,-0.1709003746509552,-0.21994620561599731
1774471247010882000,5.141882080078125,0.12703119218349457,-0.1501314491033554,-0.17642003297805786
1774471247020899300,5.1518994140625,0.135068878531456,-0.10900850594043732,-0.13768009841442108
1774471247030915300,5.161915283203125,0.15683116018772125,-0.08636391907930374,-0.10735522210597992
1774471247040932000,5.17193212890625,0.1774887591600418,-0.09580908715724945,-0.09771005064249039
1774471247050948000,5.181947998046875,0.1882556527853012,-0.08384083956480026,-0.08115850389003754
1774471247060964000,5.191964111328125,0.19303789734840393,-0.05414685979485512,-0.04445561394095421
1774471247070980600,5.201980712890625,0.180648073554039,-0.031012510880827904,-0.008888832293450832
1774471247080996600,5.21199658203125,0.1645524650812149,-0.040168456733226776,0.011542405933141708
1774471247091013400,5.222013427734375,0.14473694562911987,-0.06287509948015213,0.015410115011036396
1774471247101029400,5.232029296875,0.11724353581666946,-0.06757637858390808,0.012206599116325378
1774471247111046700,5.242046630859375,0.09325245022773743,-0.07722634822130203,-0.0008783105295151472
1774471247121062400,5.2520625,0.07305823266506195,-0.07921119779348373,-0.02485261857509613
1774471247131078400,5.262078369140625,0.05955254286527634,-0.07920720428228378,-0.04728655517101288
1774471247141095400,5.272095458984375,0.043014045804739,-0.06626983731985092,-0.060559485107660294
1774471247151111700,5.282111572265625,0.02088690549135208,-0.02829049341380596,-0.054555121809244156
1774471247161128400,5.29212841796875,-0.003739877138286829,0.011315771378576756,-0.03471377119421959
1774471247171144400,5.30214453125,-0.02183818630874157,0.05657246708869934,-0.008977515622973442
1774471247181160400,5.312160400390625,-0.028871329501271248,0.07696402072906494,-0.00031558459158986807
1774471247191177700,5.322177734375,-0.029645243659615517,0.05609522759914398,-0.018881812691688538
1774471247201193500,5.332193359375,-0.027475565671920776,0.032950226217508316,-0.05649736523628235
1774471247211210500,5.34221044921875,-0.016821857541799545,0.03546345233917236,-0.08989686518907547
1774471247221226500,5.3522265625,-0.003780623432248831,0.046616505831480026,-0.1104934886097908
1774471247231243500,5.362243408203125,0.0002814961189869791,0.03152330592274666,-0.12117010354995728
1774471247241259500,5.372259521484375,0.0008743157959543169,0.019757991656661034,-0.11871226876974106
1774471247251275500,5.382275634765625,0.009429721161723137,0.027656128630042076,-0.0998549610376358
1774471247261292500,5.39229248046875,0.01853826455771923,0.038736741989851,-0.08591251075267792
1774471247271308500,5.40230859375,0.03182850405573845,0.04743196442723274,-0.07642872631549835
1774471247281325600,5.41232568359375,0.04934411495923996,0.02990010753273964,-0.08180245757102966
1774471247291341600,5.422341552734375,0.06813538074493408,0.008760468102991581,-0.09898543357849121
1774471247301358300,5.4323583984375,0.09039141237735748,-0.0016966998809948564,-0.11965689063072205
1774471247311374300,5.442374267578125,0.11445840448141098,-0.005511145573109388,-0.1334294229745865
1774471247321390600,5.452390625,0.13775892555713654,-0.0014096111990511417,-0.1261155903339386
1774471247331407600,5.46240771484375,0.15218660235404968,-0.012585033662617207,-0.09867943823337555
1774471247341423600,5.472423583984375,0.15819735825061798,-0.04849962517619133,-0.06703602522611618
1774471247351440400,5.4824404296875,0.1554766744375229,-0.07325450330972672,-0.051241084933280945
1774471247361456600,5.49245654296875,0.15258261561393738,-0.05868568271398544,-0.04933745414018631
1774471247371472600,5.50247265625,0.15598347783088684,-0.020022444427013397,-0.06372305005788803
1774471247381489400,5.512489501953125,0.16719084978103638,-0.005953496787697077,-0.0858382061123848
1774471247391505400,5.52250537109375,0.17637689411640167,-0.01762426644563675,-0.11588532477617264
1774471247401522400,5.5325224609375,0.18753980100154877,-0.022723421454429626,-0.15174345672130585
1774471247411538700,5.54253857421875,0.20271582901477814,-0.02016492374241352,-0.18998858332633972
1774471247421554700,5.5525546875,0.21271014213562012,-0.0327499583363533,-0.22936475276947021
1774471247431571500,5.562571533203125,0.21879945695400238,-0.059185825288295746,-0.2599727213382721
1774471247441587500,5.57258740234375,0.22444535791873932,-0.0632127895951271,-0.2734363377094269
1774471247451604500,5.5826044921875,0.24418523907661438,-0.049732670187950134,-0.270626962184906
1774471247461620500,5.592620361328125,0.2663126587867737,-0.05926758423447609,-0.2709481418132782
1774471247471637500,5.602637451171875,0.27620816230773926,-0.0749562680721283,-0.26445749402046204
1774471247481653500,5.612653564453125,0.2732536494731903,-0.0731586292386055,-0.26333630084991455
1774471247491669500,5.62266943359375,0.27001631259918213,-0.07284411042928696,-0.2772483825683594
1774471247501686500,5.6326865234375,0.27483421564102173,-0.07586999982595444,-0.3090558350086212
1774471247511702500,5.64270263671875,0.28664615750312805,-0.0984666496515274,-0.3524179756641388
1774471247521719600,5.652719482421875,0.2964705526828766,-0.10936857014894485,-0.38924896717071533
1774471247531735300,5.6627353515625,0.3038474917411804,-0.08997969329357147,-0.4036864936351776
1774471247541751600,5.67275146484375,0.3090406656265259,-0.04964851215481758,-0.3880214989185333
1774471247551768600,5.6827685546875,0.31150275468826294,-0.02666596509516239,-0.35478711128234863
1774471247561784600,5.69278466796875,0.30490556359291077,-0.006586796138435602,-0.3122183382511139
1774471247571801300,5.70280126953125,0.3191457688808441,0.02184377983212471,-0.2748105227947235
1774471247581817600,5.712817626953125,0.35408511757850647,0.0062818643637001514,-0.2682380974292755
1774471247591834600,5.722834716796875,0.3932567536830902,-0.06145297363400459,-0.30737805366516113
1774471247601850600,5.7328505859375,0.4399627447128296,-0.11525548249483109,-0.3636024594306946
1774471247611866400,5.742866455078125,0.48787087202072144,-0.13420680165290833,-0.3928537964820862
1774471247621883600,5.752883544921875,0.5197454690933228,-0.13110901415348053,-0.36532044410705566
1774471247631899600,5.762899658203125,0.531173586845398,-0.1285875290632248,-0.2852189540863037
1774471247641916400,5.77291650390625,0.5384770631790161,-0.12540292739868164,-0.18362069129943848
1774471247651932400,5.782932373046875,0.5467339158058167,-0.08824490755796432,-0.08177422732114792
1774471247661948400,5.792948486328125,0.564197301864624,-0.025852369144558907,0.0016405072528868914
1774471247671965700,5.802965576171875,0.579362154006958,0.02377723529934883,0.0514107272028923
1774471247681981400,5.8129814453125,0.5896300077438354,0.05706621706485748,0.08107034862041473
1774471247691998500,5.82299853515625,0.5913381576538086,0.061707839369773865,0.08234627544879913
1774471247702014500,5.833014404296875,0.5861271023750305,0.02298201434314251,0.03236832469701767
1774471247712031500,5.843031494140625,0.5718027949333191,-0.038365498185157776,-0.03809545561671257
1774471247722047500,5.853047607421875,0.5606603622436523,-0.06542561203241348,-0.10219161212444305
1774471247732063500,5.8630634765625,0.54551762342453,-0.033178459852933884,-0.10264142602682114
1774471247742080500,5.87308056640625,0.4959953725337982,-0.009946906939148903,-0.056534916162490845
1774471247752096500,5.883096435546875,0.434066504240036,-0.0006838997360318899,0.007819839753210545
1774471247762113500,5.893113525390625,0.38710111379623413,-0.0006886934279464185,0.06205431744456291
1774471247772129500,5.903129638671875,0.3580082058906555,0.009119195863604546,0.08696606010198593
1774471247782145500,5.9131455078125,0.3312128186225891,0.02088024839758873,0.08745448291301727
1774471247792162300,5.923162353515625,0.36841344833374023,0.11232281476259232,0.04724128171801567
1774471247802178600,5.933178466796875,0.35366272926330566,-0.014523549005389214,0.0673004761338234
1774471247812195600,5.943195556640625,0.21770302951335907,0.1266452968120575,0.10839491337537766
1774471247822211600,5.953211669921875,0.18453975021839142,0.08080350607633591,0.10435570031404495
1774471247832228400,5.963228271484375,0.13655199110507965,0.052026983350515366,0.04673687741160393
1774471247842244600,5.97324462890625,0.10608355700969696,0.0621054470539093,-0.0022240057587623596
1774471247852260600,5.983260498046875,0.08045223355293274,0.0713530108332634,-0.03455211967229843
1774471247862277600,5.993277587890625,0.03543122857809067,0.06840648502111435,-0.03537503629922867
1774471247872293400,6.00329345703125,-0.009500826708972454,0.05229063332080841,0.004303401801735163
1774471247882310700,6.013310546875,-0.04285638779401779,0.04440954327583313,0.0955430343747139
1774471247892326700,6.02332666015625,-0.07714617997407913,0.04368036985397339,0.20238293707370758
1774471247902342700,6.0333427734375,-0.11555216461420059,0.0432172454893589,0.2855055034160614
1774471247912359400,6.043359375,-0.13730032742023468,0.03200027719140053,0.32282784581184387
1774471247922375400,6.05337548828125,-0.15267795324325562,0.012677179649472237,0.31157758831977844
1774471247932392700,6.063392822265625,-0.1670560985803604,-0.020689832046628,0.2864629328250885
1774471247942408400,6.073408447265625,-0.18955262005329132,-0.06736253201961517,0.27602386474609375
1774471247952425500,6.083425537109375,-0.24713921546936035,-0.08279821276664734,0.2894675135612488
1774471247962441500,6.09344140625,-0.28283488750457764,-0.09013681858778,0.32457834482192993
1774471247972457500,6.10345751953125,-0.3219492733478546,-0.10013458877801895,0.34623757004737854
1774471247982474500,6.113474609375,-0.3640413284301758,-0.0946282371878624,0.35399696230888367
1774471247992490500,6.123490478515625,-0.40892118215560913,-0.0778905376791954,0.35301798582077026
1774471248002507500,6.133507568359375,-0.4522407054901123,-0.05818767100572586,0.33654341101646423
1774471248012523500,6.1435234375,-0.47985902428627014,-0.025527197867631912,0.314936101436615
1774471248022539500,6.15353955078125,-0.48576003313064575,-0.0008349010022357106,0.2905106544494629
1774471248032556500,6.163556640625,-0.4804057478904724,0.02804361842572689,0.26810920238494873
1774471248042572500,6.173572509765625,-0.47125354409217834,0.03712259978055954,0.26240259408950806
1774471248052589300,6.18358935546875,-0.4633764326572418,0.040156472474336624,0.2691989839076996
1774471248062605600,6.19360546875,-0.4426192343235016,0.05453221872448921,0.27977678179740906
1774471248072622800,6.203622802734375,-0.4031783640384674,0.07766763120889664,0.29194822907447815
1774471248082639600,6.2136396484375,-0.34702399373054504,0.07807748764753342,0.28910529613494873
1774471248092655600,6.223655517578125,-0.30487921833992004,0.07105313986539841,0.2681928277015686
1774471248102673000,6.2336728515625,-0.27877065539360046,0.10763538628816605,0.25390738248825073
1774471248112689000,6.24368896484375,-0.262106716632843,0.1253856122493744,0.2309115082025528
1774471248122705700,6.25370556640625,-0.2563769221305847,0.13107545673847198,0.17296352982521057
1774471248132721700,6.2637216796875,-0.22669918835163116,0.13242195546627045,0.08938900381326675
1774471248142737700,6.273737548828125,-0.17111316323280334,0.11849655210971832,-0.01731880195438862
1774471248152754700,6.283754638671875,-0.11526187509298325,0.118641696870327,-0.11562539637088776
1774471248162770700,6.293770751953125,-0.0692424550652504,0.13241876661777496,-0.171943798661232
1774471248172787700,6.30378759765625,-0.022178804501891136,0.13482625782489777,-0.1680542528629303
1774471248182803700,6.3138037109375,0.024693096056580544,0.13382330536842346,-0.14806483685970306
1774471248192819700,6.32381982421875,0.06547407805919647,0.12323218584060669,-0.11987420916557312
1774471248202836700,6.333836669921875,0.08004370331764221,0.11852957308292389,-0.12597258388996124
1774471248212852700,6.343852783203125,0.09451744705438614,0.12816302478313446,-0.15691983699798584
1774471248222869800,6.353869873046875,0.11549942940473557,0.12974387407302856,-0.19628775119781494
1774471248232885800,6.3638857421875,0.11639665067195892,0.12821203470230103,-0.24019822478294373
1774471248242901800,6.37390185546875,0.07718373090028763,0.13079503178596497,-0.27865079045295715
1774471248252918800,6.383918701171875,0.030162695795297623,0.12031549215316772,-0.3151491582393646
1774471248262934800,6.393934814453125,-0.01751454547047615,0.1161670833826065,-0.34208357334136963
1774471248272951800,6.403951904296875,-0.08239474147558212,0.11635670065879822,-0.3359319269657135
1774471248282967800,6.4139677734375,-0.1611502766609192,0.15487320721149445,-0.2800028920173645
1774471248292984800,6.42398486328125,-0.22773036360740662,0.16548404097557068,-0.20084814727306366
1774471248303000600,6.43400048828125,-0.2767319977283478,0.1668667495250702,-0.10651446133852005
1774471248313016600,6.4440166015625,-0.31395766139030457,0.20270784199237823,-0.016290290281176567
1774471248323033900,6.454033935546875,-0.345083087682724,0.24506674706935883,0.016402674838900566
1774471248333049900,6.4640498046875,-0.3951915204524994,0.29776617884635925,-0.033664219081401825
1774471248343066600,6.474066650390625,-0.4496012330055237,0.38614052534103394,-0.12942403554916382
1774471248353082600,6.48408251953125,-0.4831775724887848,0.46286776661872864,-0.2835763096809387
1774471248363098600,6.4940986328125,-0.49756690859794617,0.419577032327652,-0.5048839449882507
1774471248373116000,6.504115966796875,-0.49851393699645996,0.3491303026676178,-0.7450233101844788
1774471248383131600,6.514131591796875,-0.5368879437446594,0.3015044629573822,-0.9478000998497009
1774471248393148700,6.524148681640625,-0.673355758190155,0.3389889895915985,-1.0729255676269531
1774471248403164700,6.53416455078125,-0.8549569845199585,0.43323639035224915,-1.0950886011123657
1774471248413181000,6.544180908203125,-0.9951090216636658,0.45791083574295044,-1.0725265741348267
1774471248423197700,6.55419775390625,-1.0773245096206665,0.39992210268974304,-1.0433738231658936
1774471248433213700,6.564213623046875,-1.1083717346191406,0.32819411158561707,-1.0458600521087646
1774471248443230700,6.574230712890625,-1.118578553199768,0.19296012818813324,-1.0999939441680908
1774471248453246700,6.584246826171875,-1.1531527042388916,0.07864527404308319,-1.2351733446121216
1774471248463262700,6.5942626953125,-1.2163032293319702,-0.003343598684296012,-1.445936679840088
1774471248473279700,6.60427978515625,-1.2758078575134277,-0.12336933612823486,-1.6650769710540771
1774471248483295700,6.614295654296875,-1.290740966796875,-0.191650390625,-1.823256254196167
1774471248493312800,6.624312744140625,-1.2283494472503662,-0.257889062166214,-1.9240031242370605
1774471248503328800,6.634328857421875,-1.065396785736084,-0.3664799928665161,-2.0116491317749023
1774471248513345800,6.644345703125,-0.8281168341636658,-0.4988441467285156,-2.151287078857422
1774471248523361800,6.65436181640625,-0.5718661546707153,-0.6530574560165405,-2.3477818965911865
1774471248533377500,6.66437744140625,-0.33668747544288635,-0.8117626309394836,-2.5824835300445557
1774471248543394800,6.674394775390625,-0.21870411932468414,-0.9105457067489624,-2.8184001445770264
1774471248553410800,6.684410888671875,-0.20647087693214417,-0.8042956590652466,-2.8826403617858887
1774471248563427600,6.694427490234375,-0.059730175882577896,-1.3769192695617676,-1.5918861627578735
1774471248573443600,6.704443603515625,0.07596880197525024,-0.35160624980926514,-0.810234010219574
1774471248583459600,6.71445947265625,0.22063490748405457,-0.05910220369696617,-0.8998587131500244
1774471248593476900,6.724476806640625,0.30131351947784424,-0.21445797383785248,-0.7312850952148438
1774471248603492900,6.734492919921875,0.34407269954681396,-0.1933436244726181,-0.1840587854385376
1774471248613509600,6.744509521484375,0.49541613459587097,-0.20253951847553253,0.173679918050766
1774471248623525600,6.754525634765625,0.4897681176662445,0.06046148017048836,0.31369826197624207
1774471248633542000,6.7645419921875,0.3504674732685089,0.19174893200397491,0.3685189187526703
1774471248643558700,6.77455859375,0.02491919882595539,0.15570411086082458,0.2617245614528656
1774471248653574700,6.78457470703125,-0.5466843843460083,0.4376276731491089,0.1407182365655899
1774471248663591700,6.794591796875,-0.9405632615089417,0.5651070475578308,0.0015451660146936774
1774471248673608000,6.80460791015625,-1.2587915658950806,0.5285040736198425,-0.17047719657421112
1774471248683623700,6.814623779296875,-1.413939356803894,0.5029590129852295,-0.2920462489128113
1774471248693640700,6.824640625,-1.39595365524292,0.4249472916126251,-0.31388816237449646
1774471248703656700,6.83465673828125,-1.2095201015472412,0.39750581979751587,-0.2338750809431076
1774471248713673700,6.844673828125,-1.0092123746871948,0.4961106777191162,-0.10981438308954239
1774471248723689700,6.854689697265625,-0.9189394116401672,0.7682668566703796,0.102035291492939
1774471248733706800,6.864706787109375,-0.8360133767127991,0.9763702154159546,0.35356950759887695
1774471248743722800,6.87472265625,-0.7567537426948547,1.0078434944152832,0.6025015711784363
1774471248753738800,6.88473876953125,-0.7029203176498413,0.8247863054275513,0.8766084909439087
1774471248763755800,6.894755859375,-0.6150884628295898,0.784155547618866,0.9903433322906494
1774471248773771800,6.904771728515625,-0.5241876244544983,0.9424375891685486,0.8360898494720459
1774471248783788800,6.914788818359375,-0.43455785512924194,0.938974916934967,0.5565785765647888
1774471248793804500,6.924804443359375,-0.3315576910972595,0.6802448630332947,0.15200045704841614
1774471248803820500,6.934820556640625,-0.10489153116941452,0.3679540455341339,-0.23201139271259308
1774471248813837800,6.944837890625,0.1699935644865036,0.12619149684906006,-0.4602472186088562
1774471248823853800,6.954853759765625,0.3835013210773468,0.07812036573886871,-0.5109580755233765
1774471248833870600,6.96487060546875,0.4942840337753296,0.07969429343938828,-0.3633992373943329
1774471248843886600,6.974886474609375,0.5469024777412415,0.2326260507106781,0.2051486223936081
1774471248853902800,6.98490283203125,0.5266299843788147,0.24318549036979675,0.8096063137054443
1774471248863919600,6.994919677734375,0.468068391084671,0.24459323287010193,1.2158302068710327
1774471248873935600,7.004935546875,0.4299287497997284,0.4577012360095978,1.2695517539978027
1774471248883952600,7.01495263671875,0.5574390292167664,0.958925187587738,0.9444392323493958
1774471248893969000,7.024968994140625,0.8355164527893066,1.2854872941970825,0.5592014789581299
1774471248903985700,7.034985595703125,0.8482988476753235,1.1094915866851807,0.30265572667121887
1774471248914001700,7.045001708984375,0.42056238651275635,0.9311119318008423,0.15737177431583405
1774471248924017700,7.055017578125,0.10936004668474197,1.0627248287200928,0.08891868591308594
1774471248934035000,7.065034912109375,0.09926427155733109,0.8826267123222351,0.038662172853946686
1774471248944050700,7.07505078125,0.11156008392572403,0.6048004031181335,0.09988931566476822
1774471248954067700,7.085067626953125,0.12249715626239777,0.27266454696655273,0.1926565319299698
1774471248964083700,7.095083740234375,0.03461097553372383,-0.09913430362939835,0.11696843057870865
1774471248974099700,7.105099609375,-0.12840057909488678,-0.44576549530029297,-0.10717092454433441
1774471248984116700,7.11511669921875,-0.24583800137043,-0.8329070806503296,-0.36322081089019775
1774471248994132700,7.1251328125,-0.3112103343009949,-1.1603236198425293,-0.4867832362651825
1774471249004149800,7.135149658203125,-0.3194464445114136,-1.5507330894470215,-0.38125813007354736
1774471249014165800,7.145165771484375,-0.296549916267395,-2.1100895404815674,-0.04970976710319519
1774471249024181500,7.155181396484375,-0.27369439601898193,-2.3892710208892822,0.34840697050094604
1774471249034198800,7.16519873046875,-0.25164103507995605,-1.8421574831008911,0.5160458087921143
1774471249044214800,7.17521484375,-0.17967255413532257,-1.053221583366394,0.3430372476577759
1774471249054231600,7.1852314453125,0.002121740486472845,-0.3547636866569519,0.05739112198352814
1774471249064247600,7.19524755859375,0.24878264963626862,0.09596966952085495,-0.3885898292064667
1774471249074262500,7.205262451171875,0.43929240107536316,0.3301110565662384,-0.7113987803459167
1774471249084279800,7.21527978515625,0.5363816618919373,0.269390732049942,-0.9068161845207214
1774471249094295800,7.2252958984375,0.590412974357605,0.47920626401901245,-0.7738733291625977
1774471249104312600,7.2353125,0.6630786657333374,0.4754336476325989,-0.6479188799858093
1774471249114328600,7.24532861328125,0.7699022889137268,0.5005677342414856,-0.51629239320755
1774471249124344800,7.2553447265625,0.7870173454284668,0.459367573261261,-0.3593757450580597
1774471249134361900,7.26536181640625,0.7798601388931274,0.30083945393562317,-0.21976138651371002
1774471249144377600,7.275377685546875,0.7531222701072693,0.2577151656150818,-0.18641620874404907
1774471249154394600,7.28539453125,0.691883385181427,0.19464725255966187,-0.14329324662685394
1774471249164411000,7.295410888671875,0.6895847916603088,0.21495038270950317,-0.1415238380432129
1774471249174427600,7.305427734375,0.6995620727539062,0.3565373420715332,-0.2258637547492981
1774471249184443600,7.315443603515625,0.6175298094749451,0.5687976479530334,-0.3701295852661133
1774471249194459600,7.325459716796875,0.4545193016529083,0.8335462212562561,-0.5278222560882568
1774471249204477000,7.335476806640625,0.31714919209480286,0.9285758137702942,-0.6479260325431824
1774471249214492700,7.34549267578125,0.32689368724823,0.9423776268959045,-0.4888133704662323
1774471249224509700,7.355509765625,0.46973472833633423,1.0801656246185303,-0.19173294305801392
1774471249234525700,7.365525634765625,0.563593327999115,0.9166379570960999,-0.01321061048656702
1774471249244541700,7.375541748046875,0.4918917119503021,0.4453694820404053,0.14132143557071686
1774471249254558700,7.385558837890625,0.3755480647087097,-0.08742119371891022,0.1717989295721054
1774471249264574700,7.39557470703125,0.24317777156829834,-0.5078626871109009,0.12508521974086761
1774471249274591700,7.405591796875,0.19395828247070312,-0.6464653015136719,0.04755686596035957
1774471249284607700,7.415607666015625,0.18589316308498383,-0.6139880418777466,-0.04325985535979271
1774471249294624800,7.425624755859375,0.2145940512418747,-0.3698262572288513,-0.1012408658862114
1774471249304640800,7.435640869140625,0.18018068373203278,-0.1406513899564743,-0.17960384488105774
1774471249314656800,7.44565673828125,0.16852110624313354,0.023065904155373573,-0.2554655969142914
1774471249324673500,7.455673583984375,0.13709846138954163,0.07165127992630005,-0.2886568307876587
1774471249334689500,7.465689453125,0.07817789167165756,-0.003713245503604412,-0.2464851438999176
1774471249344706800,7.475706787109375,-0.02286004275083542,-0.24558712542057037,-0.23427614569664001
1774471249354722800,7.485722900390625,-0.19859512150287628,-0.39810290932655334,-0.39095205068588257
1774471249364738800,7.49573876953125,-0.2997685968875885,-0.5165754556655884,-0.6100907921791077
1774471249374755600,7.505755615234375,-0.2761074900627136,-0.5728272795677185,-0.7090602517127991
1774471249384771800,7.515771728515625,-0.2240818291902542,-0.47675296664237976,-0.6467971205711365
1774471249394788900,7.525788818359375,-0.1334989368915558,-0.3044043779373169,-0.5161922574043274
1774471249404804600,7.5358046875,-0.014244982041418552,-0.23526790738105774,-0.4020417034626007
1774471249414820600,7.545820556640625,0.13138411939144135,-0.33277449011802673,-0.24274447560310364
1774471249424838000,7.555837890625,0.2714429497718811,-0.4356590509414673,-0.01834358647465706
1774471249434854000,7.56585400390625,0.30375322699546814,-0.23912310600280762,0.0073564499616622925
1774471249444870700,7.57587060546875,0.22702382504940033,-0.07319191843271255,-0.03744591027498245
1774471249454886700,7.58588671875,0.09776091575622559,-0.06005721166729927,-0.0995742604136467
1774471249464902700,7.595902587890625,-0.008096808567643166,0.021766016259789467,-0.2617517113685608
1774471249474919700,7.605919677734375,-0.08745501190423965,-0.06084364280104637,-0.4452112913131714
1774471249484935700,7.615935791015625,-0.11121254414319992,-0.09728687256574631,-0.5251308679580688
1774471249494952700,7.62595263671875,-0.04249526187777519,0.10266619175672531,-0.5314716100692749
1774471249504968700,7.63596875,0.03820597380399704,0.2068897932767868,-0.474793404340744
1774471249514984700,7.645984619140625,0.09592333436012268,0.24277722835540771,-0.3608980178833008
1774471249525001700,7.656001708984375,0.14509646594524384,0.29321590065956116,-0.26025527715682983
1774471249535017700,7.666017822265625,0.16057449579238892,0.31794121861457825,-0.22340725362300873
1774471249545034800,7.67603466796875,0.17867253720760345,0.2643570899963379,-0.2537827491760254
1774471249555050500,7.686050537109375,0.24442172050476074,0.19452686607837677,-0.3128606975078583
1774471249565067800,7.69606787109375,0.36364611983299255,0.14880944788455963,-0.3578505516052246
1774471249575083800,7.706083740234375,0.5199121832847595,0.04935876280069351,-0.3616655170917511
1774471249585099800,7.716099853515625,0.6660693883895874,-0.05718312785029411,-0.3355364501476288
1774471249595116500,7.726116455078125,0.7499168515205383,-0.19061096012592316,-0.29573845863342285
1774471249605132800,7.7361328125,0.79969322681427,-0.40512779355049133,-0.23300369083881378
1774471249615149800,7.74614990234375,0.8556504845619202,-0.3901200592517853,-0.17391933500766754
1774471249625165800,7.756165771484375,0.8283482789993286,-0.24291464686393738,-0.17260318994522095
1774471249635181600,7.766181640625,0.7896807789802551,-0.06343463063240051,-0.24615544080734253
1774471249645198800,7.77619873046875,0.7190631031990051,0.11836845427751541,-0.35627129673957825
1774471249655214800,7.78621484375,0.6070321202278137,0.26569265127182007,-0.46340787410736084
1774471249665231600,7.796231689453125,0.5121375918388367,0.34079328179359436,-0.5579679012298584
1774471249675247600,7.80624755859375,0.43526437878608704,0.350803017616272,-0.6279571056365967
1774471249685263600,7.816263671875,0.38772615790367126,0.33178192377090454,-0.6781989932060242
1774471249695281000,7.826281005859375,0.36922863125801086,0.31342342495918274,-0.7267289757728577
1774471249705296600,7.836296630859375,0.40326598286628723,0.2666143774986267,-0.7633005976676941
1774471249715313700,7.846313720703125,0.4859504699707031,0.0486849807202816,-0.7993544340133667
1774471249725329700,7.85632958984375,0.598554253578186,-0.2505621910095215,-0.7829890847206116
1774471249735346000,7.866345947265625,0.7184601426124573,-0.25580939650535583,-0.7106504440307617
1774471249745362700,7.87636279296875,0.8270257711410522,-0.27851632237434387,-0.5986658334732056
1774471249755378700,7.886378662109375,0.9187325239181519,-0.4332592785358429,-0.45533716678619385
1774471249765395700,7.896395751953125,0.9971436858177185,-0.660359799861908,-0.2834825813770294
1774471249775411700,7.90641162109375,1.0742323398590088,-0.8227511048316956,-0.08154226094484329
1774471249785428700,7.9164287109375,1.1701711416244507,-0.8965228199958801,0.14652206003665924
1774471249795444700,7.92644482421875,1.2549011707305908,-0.9458136558532715,0.32800957560539246
1774471249805460700,7.936460693359375,1.305545687675476,-1.0377219915390015,0.4239342212677002
1774471249815477500,7.9464775390625,1.3354167938232422,-1.2067393064498901,0.4382612407207489
1774471249825493800,7.95649365234375,1.3527553081512451,-1.4016053676605225,0.37181535363197327
1774471249835510800,7.9665107421875,1.3582888841629028,-1.5757445096969604,0.25693219900131226
1774471249845526800,7.97652685546875,1.3335113525390625,-1.6942596435546875,0.1589457094669342
1774471249855542800,7.986542724609375,1.3107314109802246,-1.8318949937820435,0.08859511464834213
1774471249865559800,7.996559814453125,1.2727539539337158,-1.9400111436843872,0.05573543533682823
1774471249875575800,8.006575927734374,1.2149293422698975,-1.935573697090149,0.07495786249637604
1774471249885592600,8.016592529296876,1.1758716106414795,-1.803229570388794,0.16192898154258728
1774471249895608600,8.026608642578125,1.1907451152801514,-1.680606722831726,0.3349287211894989
1774471249905624600,8.03662451171875,1.2622288465499878,-1.6171432733535767,0.5521371960639954
1774471249915641900,8.046641845703125,1.3599640130996704,-1.5826977491378784,0.7106930017471313
1774471249925657900,8.056657958984376,1.4624682664871216,-1.6106308698654175,0.7685320973396301
1774471249935674600,8.066674560546875,1.56830894947052,-1.642661690711975,0.7320291996002197
1774471249945690600,8.076690673828125,1.6699599027633667,-1.6725267171859741,0.6110495328903198
1774471249955707000,8.086706787109375,1.7443276643753052,-1.6834890842437744,0.42994365096092224
1774471249965723600,8.0967236328125,1.7479090690612793,-1.6261237859725952,0.2304808795452118
1774471249975739600,8.10673974609375,1.6721434593200684,-1.5206506252288818,0.06686371564865112
1774471249985756700,8.116756591796875,1.5354702472686768,-1.3954952955245972,-0.04890362545847893
1774471249995773000,8.12677294921875,1.3512916564941406,-1.2814768552780151,-0.11947020143270493
1774471250005789000,8.136788818359374,1.1944149732589722,-1.2532402276992798,-0.14465652406215668
1774471250015805700,8.1468056640625,1.095346212387085,-1.2784233093261719,-0.15114611387252808
1774471250025821700,8.15682177734375,1.018990159034729,-1.3386921882629395,-0.1484382003545761
1774471250035838700,8.166838623046875,0.9237339496612549,-1.4171444177627563,-0.14880944788455963
1774471250045854700,8.176854736328124,0.7946662306785583,-1.4484453201293945,-0.17636731266975403
1774471250055871700,8.186871826171876,0.6701679825782776,-1.4428825378417969,-0.22165809571743011
1774471250065887700,8.1968876953125,0.5875841379165649,-1.3908989429473877,-0.2628241777420044
1774471250075904000,8.206904052734375,0.5486367344856262,-1.340117335319519,-0.270551860332489
1774471250085920800,8.216920654296874,0.5372336506843567,-1.3329273462295532,-0.2664918899536133
1774471250095936800,8.226936767578126,0.5221891403198242,-1.3143072128295898,-0.2751157283782959
1774471250105954000,8.2369541015625,0.5105569958686829,-1.2528634071350098,-0.26849564909935
1774471250115969800,8.2469697265625,0.5438611507415771,-1.1864025592803955,-0.24058730900287628
1774471250125985800,8.25698583984375,0.6325321793556213,-1.1130261421203613,-0.2366868406534195
1774471250136002800,8.2670029296875,0.699135959148407,-1.022199034690857,-0.2504093050956726
1774471250146019000,8.27701904296875,0.7136720418930054,-0.9193000197410583,-0.2805842459201813
1774471250156035800,8.287035888671875,0.6640626788139343,-0.7859811186790466,-0.30164214968681335
1774471250166051800,8.2970517578125,0.5653470158576965,-0.6189196705818176,-0.3054099678993225
1774471250176067800,8.30706787109375,0.4413241446018219,-0.435974657535553,-0.29472166299819946
1774471250186084900,8.3170849609375,0.29585695266723633,-0.2693454623222351,-0.272903710603714
1774471250196100900,8.327100830078125,0.1420639306306839,-0.09859208762645721,-0.23719604313373566
1774471250206118000,8.337117919921875,0.005155880004167557,0.0633305013179779,-0.19936583936214447
1774471250216134000,8.3471337890625,-0.053701575845479965,0.16392529010772705,-0.18122757971286774
1774471250226151000,8.35715087890625,-0.026750653982162476,0.21234048902988434,-0.18854381144046783
1774471250236167000,8.3671669921875,0.04495761916041374,0.2584283649921417,-0.19601450860500336
1774471250246183000,8.377182861328125,0.1451537311077118,0.31822270154953003,-0.1754586398601532
1774471250256200000,8.387199951171874,0.21502868831157684,0.37162867188453674,-0.13795706629753113
1774471250266215700,8.397215576171876,0.23736675083637238,0.4140253961086273,-0.08078805357217789
1774471250276233000,8.40723291015625,0.21662338078022003,0.4434778392314911,-0.0378967821598053
1774471250286249000,8.4172490234375,0.17851302027702332,0.44146448373794556,-0.01690574735403061
1774471250296265000,8.427264892578124,0.13889023661613464,0.4258913993835449,-0.0009299758239649236
1774471250306281700,8.43728173828125,0.08572155982255936,0.41692957282066345,0.026443058624863625
1774471250316298000,8.447298095703125,0.008638229221105576,0.4763367176055908,0.059297412633895874
1774471250326315000,8.45731494140625,-0.08582568913698196,0.585048258304596,0.09872071444988251
1774471250336331000,8.4673310546875,-0.20540854334831238,0.6948368549346924,0.14231640100479126
1774471250346346800,8.4773466796875,-0.32255008816719055,0.7873654365539551,0.15062439441680908
1774471250356363800,8.48736376953125,-0.4033583700656891,0.8429901003837585,0.1176115870475769
1774471250366380000,8.497380126953125,-0.44507095217704773,0.870604395866394,0.07315649837255478
1774471250376396800,8.507396728515625,-0.4641287922859192,0.9224497675895691,0.06908000260591507
1774471250386412800,8.517412841796874,-0.4937375485897064,1.0014889240264893,0.13017211854457855
1774471250396428800,8.5274287109375,-0.5215893983840942,1.0662604570388794,0.22809921205043793
1774471250406446000,8.537446044921875,-0.5339787006378174,1.086603045463562,0.33520808815956116
1774471250416461800,8.5474619140625,-0.5927152633666992,1.1213479042053223,0.43556931614875793
1774471250426478800,8.557478759765624,-0.7174550890922546,1.1854382753372192,0.5262933373451233
1774471250436494800,8.567494873046876,-0.8653992414474487,1.2148653268814087,0.5779573321342468
1774471250446510800,8.5775107421875,-0.991804301738739,1.1794812679290771,0.5691121816635132
1774471250456528000,8.58752783203125,-1.1097168922424316,1.1448990106582642,0.5499217510223389
1774471250466543900,8.5975439453125,-1.2585643529891968,1.1948034763336182,0.5368461608886719
1774471250476561000,8.607560791015626,-1.3953675031661987,1.2153843641281128,0.525567352771759
1774471250486577000,8.617576904296875,-1.4759308099746704,1.1581586599349976,0.4647889733314514
1774471250496593000,8.627593017578125,-1.5032215118408203,1.0727382898330688,0.3705037534236908
1774471250506610000,8.63760986328125,-1.5021517276763916,0.9464027285575867,0.27254605293273926
1774471250516626000,8.6476259765625,-1.452127456665039,0.7632510662078857,0.21287205815315247
1774471250526642700,8.657642578125,-1.3992905616760254,0.6506949663162231,0.23482875525951385
1774471250536659000,8.667658935546875,-1.402305006980896,0.5925205945968628,0.3600287437438965
1774471250546676000,8.677676025390625,-1.3844696283340454,0.37126490473747253,0.44255077838897705
1774471250556692000,8.68769189453125,-1.438171148300171,0.037105824798345566,0.5556922554969788
1774471250566708000,8.6977080078125,-1.516320824623108,-0.16388747096061707,0.6977985501289368
1774471250576725000,8.70772509765625,-1.6005808115005493,-0.5207603573799133,0.6959547996520996
1774471250586741000,8.717740966796875,-1.6866190433502197,-0.8658586740493774,0.6248095631599426
1774471250596758000,8.727758056640624,-1.5216047763824463,-1.0029107332229614,0.511953592300415
1774471250606773800,8.737773681640626,-0.8085287809371948,-0.07649929821491241,0.18895366787910461
1774471250616789800,8.747789794921875,-0.036430977284908295,0.3847591280937195,0.04869643226265907
1774471250626807000,8.75780712890625,0.49032869935035706,0.46166670322418213,0.22896021604537964
1774471250636823000,8.767822998046874,0.9037325382232666,0.4563502371311188,0.5929839611053467
1774471250646839800,8.77783984375,1.1575027704238892,0.4648585021495819,1.0163754224777222
1774471250656855800,8.787855712890625,1.1128228902816772,0.7527347803115845,1.4350675344467163
1774471250666871800,8.797871826171875,0.8128484487533569,1.093318223953247,1.8394101858139038
1774471250676888800,8.807888916015624,0.5602744817733765,1.0160521268844604,1.9283547401428223
1774471250686904800,8.81790478515625,0.4665490686893463,0.5917227268218994,1.8544996976852417
1774471250696921900,8.827921875,0.6269794702529907,0.20844721794128418,1.6657962799072266
1774471250706937900,8.837937744140625,0.7514415383338928,0.09119489043951035,1.442177653312683
1774471250716954000,8.8479541015625,0.5946524143218994,-0.019046129658818245,1.2768440246582031
1774471250726971000,8.857970947265626,0.28455209732055664,-0.26524898409843445,1.231721043586731
1774471250736987000,8.86798681640625,0.23150113224983215,-0.408702552318573,1.070754051208496
1774471250747004000,8.87800390625,0.24026133120059967,-0.46612030267715454,0.5054394602775574
1774471250757020000,8.88802001953125,0.0344913974404335,-0.3732180595397949,-0.16817834973335266
1774471250767037000,8.898036865234374,-0.17834630608558655,0.15424469113349915,-0.17944352328777313
1774471250777053000,8.908052978515625,-0.37791961431503296,0.4784563183784485,-0.16490612924098969
1774471250787069000,8.91806884765625,-0.7274869084358215,0.42197200655937195,-0.3511977195739746
1774471250797086000,8.9280859375,-0.9985833764076233,0.19690187275409698,-0.5971944332122803
1774471250807102000,8.93810205078125,-1.1893306970596313,0.01564340852200985,-0.8652839064598083
1774471250817119000,8.948118896484376,-1.2704346179962158,-0.08512821048498154,-1.02451491355896
1774471250827134700,8.958134765625,-1.3003180027008057,-0.03117576241493225,-1.1858004331588745
1774471250837150700,8.968150634765625,-1.3449029922485352,0.15906794369220734,-1.2475024461746216
1774471250847168000,8.97816796875,-1.3817260265350342,0.3713381290435791,-1.1749783754348755
1774471250857184000,8.98818408203125,-1.3775639533996582,0.6496065258979797,-1.070040225982666
1774471250867200800,8.99820068359375,-1.0781285762786865,1.1102752685546875,-1.1444029808044434
1774471250877216800,9.008216796875,-0.8689761161804199,1.404467225074768,-1.2546961307525635
1774471250887232800,9.018232666015624,-0.7216684222221375,1.3816026449203491,-1.2434885501861572
1774471250897250000,9.02825,-0.5504522323608398,1.398406744003296,-1.1736303567886353
1774471250907265800,9.038265869140625,-0.35640498995780945,1.4932506084442139,-1.0621967315673828
1774471250917282800,9.04828271484375,-0.1447659730911255,1.471934199333191,-0.8554560542106628
1774471250927298800,9.058298828125,0.014601313509047031,1.1873626708984375,-0.5385913252830505
1774471250937315000,9.068315185546876,0.12030776590108871,0.7531036138534546,-0.14297713339328766
1774471250947331800,9.078331787109375,0.1819351762533188,0.44322431087493896,0.30629175901412964
1774471250957347800,9.088347900390625,0.1988246738910675,0.43727347254753113,0.7643485069274902
1774471250967364900,9.09836474609375,0.27987611293792725,0.7118163704872131,1.1769582033157349
1774471250977380900,9.108380859375,0.40933024883270264,1.0726419687271118,1.5292011499404907
1774471250987396900,9.11839697265625,0.5164260864257812,1.361138105392456,1.8103634119033813
1774471250997414000,9.128413818359375,0.6007736921310425,1.4793082475662231,2.0178074836730957
1774471251007430000,9.138429931640625,0.6790791749954224,1.4844398498535156,2.1074182987213135
1774471251017447000,9.148447021484374,0.7716692686080933,1.457815170288086,2.039828300476074
1774471251027463000,9.158462890625,0.8075279593467712,1.3011445999145508,1.8736259937286377
1774471251037479000,9.16847900390625,0.7001160383224487,1.0097031593322754,1.6953015327453613
1774471251047496000,9.178495849609375,0.4976779520511627,0.7162473201751709,1.5275095701217651
1774471251057511700,9.18851171875,0.2487589567899704,0.510997474193573,1.3608111143112183
1774471251067529000,9.198529052734376,-0.047201067209243774,0.3977968990802765,1.2086164951324463
1774471251077545200,9.208545166015625,-0.3474210798740387,0.3426066040992737,1.0811065435409546
1774471251087561200,9.218561279296875,-0.6112031936645508,0.39154672622680664,0.9715009331703186
1774471251097578000,9.228577880859374,-0.8134644031524658,0.5463272333145142,0.8832405805587769
1774471251107594200,9.23859423828125,-0.9525591731071472,0.7045667171478271,0.8409727215766907
1774471251117611300,9.248611328125,-1.0115705728530884,0.8477704524993896,0.8661353588104248
1774471251127627000,9.258626953125,-0.93306964635849,1.0136510133743286,0.9398588538169861
1774471251137643000,9.26864306640625,-0.7101294994354248,1.1820213794708252,1.057911992073059
1774471251147660300,9.278660400390624,-0.38237667083740234,1.2977429628372192,1.2543222904205322
1774471251157676300,9.28867626953125,-0.03587517514824867,1.4228724241256714,1.4915268421173096
1774471251167693000,9.298693115234375,0.26508572697639465,1.4669638872146606,1.7131425142288208
1774471251177709000,9.308708984375,0.4713827073574066,1.2739981412887573,1.9037615060806274
1774471251187726000,9.31872607421875,0.6216902136802673,0.8119844794273376,2.021214008331299
1774471251197742300,9.328742431640626,0.7259697318077087,0.20609404146671295,2.0642902851104736
1774471251207758000,9.338758056640625,0.7782489061355591,-0.2952766418457031,2.077855348587036
1774471251217775000,9.348775146484375,0.8420785069465637,-0.45428013801574707,2.0471720695495605
1774471251227791000,9.358791015625,0.943761944770813,-0.22245784103870392,1.911336898803711
1774471251237808000,9.36880810546875,1.1070507764816284,0.2440241128206253,1.653565526008606
1774471251247824100,9.37882421875,1.2842758893966675,0.7972707748413086,1.3078736066818237
1774471251257840000,9.388840087890625,1.3870339393615723,1.1646556854248047,0.9530034065246582
1774471251267857200,9.398857177734374,1.4708929061889648,1.0078506469726562,0.6733110547065735
1774471251277873200,9.408873046875,1.5214426517486572,0.5506948232650757,0.4688465893268585
1774471251287890200,9.41889013671875,1.5166922807693481,0.20878782868385315,0.36728453636169434
1774471251297906200,9.42890625,1.452353835105896,0.035410188138484955,0.43495652079582214
1774471251307922200,9.438922119140624,1.3669965267181396,-0.01955559104681015,0.6287316083908081
1774471251317939000,9.44893896484375,1.3249444961547852,0.014218350872397423,0.854019820690155
1774471251327955200,9.458955078125,1.3034039735794067,0.04258394613862038,1.0456337928771973
1774471251337972200,9.46897216796875,1.2730213403701782,0.09273526072502136,1.1777281761169434
1774471251347988200,9.47898828125,1.296212911605835,0.12365403026342392,1.2487266063690186
1774471251358004000,9.48900390625,1.304794430732727,0.12276746332645416,1.2545528411865234
1774471251368021200,9.499021240234375,1.2771940231323242,0.17360134422779083,1.1690558195114136
1774471251378037200,9.509037353515625,1.2541685104370117,0.2485072761774063,0.9822065830230713
1774471251388054000,9.519053955078125,1.2126989364624023,0.2062690109014511,0.8371899724006653
1774471251398070000,9.529070068359376,1.1173853874206543,0.01960992068052292,0.7890589237213135
1774471251408087300,9.53908740234375,1.0276755094528198,-0.1857602745294571,0.8572806119918823
1774471251418103300,9.549103271484375,0.9775012731552124,-0.32485851645469666,1.0164313316345215
1774471251428119300,9.559119384765625,0.964440107345581,-0.39320454001426697,1.2131212949752808
1774471251438136000,9.569135986328124,0.9562718868255615,-0.3959902226924896,1.4053032398223877
1774471251448152000,9.579152099609376,0.9272261261940002,-0.23535925149917603,1.5085779428482056
1774471251458169300,9.58916943359375,0.8572960495948792,0.025523202493786812,1.4779186248779297
1774471251468185000,9.59918505859375,0.7650127410888672,0.22708562016487122,1.3208026885986328
1774471251478201000,9.609201171875,0.6697242856025696,0.2782105803489685,1.0997697114944458
1774471251488218000,9.619218017578126,0.5574430227279663,0.22855141758918762,0.8487411737442017
1774471251498234000,9.629234130859375,0.4471689760684967,0.11689306050539017,0.6424034237861633
1774471251508251100,9.639251220703125,0.35896721482276917,-0.06484664231538773,0.5197968482971191
1774471251518267100,9.64926708984375,0.28091928362846375,-0.23047928512096405,0.49275749921798706
1774471251528284200,9.6592841796875,0.2325458973646164,-0.30401527881622314,0.5406520366668701
1774471251538300200,9.669300048828125,0.21172823011875153,-0.30337825417518616,0.6243128776550293
1774471251548316200,9.679316162109375,0.2197432816028595,-0.29781490564346313,0.7196425795555115
1774471251558333200,9.689333251953125,0.2359432876110077,-0.2997574210166931,0.8155683279037476
1774471251568349200,9.69934912109375,0.23140951991081238,-0.27106958627700806,0.9032507538795471
1774471251578366000,9.709365966796875,0.1971852332353592,-0.24642229080200195,0.9538393616676331
1774471251588382200,9.71938232421875,0.18388621509075165,-0.33830907940864563,0.9435886144638062
1774471251598398200,9.729398193359375,0.18986155092716217,-0.5070440173149109,0.8946951031684875
1774471251608415200,9.739415283203124,0.20668713748455048,-0.580396294593811,0.820090115070343
1774471251618431000,9.749430908203125,0.22544243931770325,-0.5497331619262695,0.7351434826850891
1774471251628448300,9.7594482421875,0.22864489257335663,-0.48293444514274597,0.6530843377113342
1774471251638464300,9.76946435546875,0.20972074568271637,-0.3785286545753479,0.5637983679771423
1774471251648481000,9.77948095703125,0.16521532833576202,-0.2719191312789917,0.4618440568447113
1774471251658497000,9.7894970703125,0.12951672077178955,-0.24177055060863495,0.3366619050502777
1774471251668513000,9.799512939453125,0.12470464408397675,-0.3067053556442261,0.17513532936573029
1774471251678530300,9.8095302734375,0.15646204352378845,-0.37263989448547363,-0.013910222798585892
1774471251688546300,9.81954638671875,0.21653176844120026,-0.40438076853752136,-0.1875041127204895
1774471251698563000,9.82956298828125,0.3026528060436249,-0.4062971770763397,-0.29333654046058655
1774471251708579000,9.8395791015625,0.3918335437774658,-0.1830822080373764,-0.28237175941467285
1774471251718596000,9.84959619140625,0.46376392245292664,0.2561185956001282,-0.20232194662094116
1774471251728612000,9.859612060546874,0.500830888748169,0.6139339804649353,-0.11675724387168884
1774471251738628000,9.869628173828126,0.48095276951789856,0.6839253306388855,-0.08086182922124863
1774471251748645000,9.87964501953125,0.42060020565986633,0.5533731579780579,-0.12630094587802887
1774471251758661000,9.8896611328125,0.34325164556503296,0.388942688703537,-0.2752542197704315
1774471251768678100,9.89967822265625,0.2247907668352127,0.20719845592975616,-0.5027957558631897
1774471251778694100,9.909694091796876,0.05374632030725479,-0.07311122864484787,-0.7397811412811279
1774471251788711200,9.919711181640626,-0.2022244781255722,-0.39517635107040405,-0.9446613192558289
1774471251798727000,9.929726806640625,-0.49386855959892273,-0.8231348991394043,-1.158358097076416
1774471251808743200,9.9397431640625,-0.7648712992668152,-1.4326038360595703,-1.3658127784729004
1774471251818760200,9.94976025390625,-1.0137131214141846,-2.1973233222961426,-1.718413233757019
1774471251828776200,9.959776123046876,-1.1581826210021973,-2.3803229331970215,-2.0308151245117188
1774471251838793000,9.96979296875,-1.2996289730072021,-1.9934583902359009,-2.209237575531006
1774471251848809200,9.979809326171875,-1.4942642450332642,-1.5222047567367554,-2.2797727584838867
1774471251858826200,9.989826171875,-1.705742359161377,-1.2108237743377686,-2.296356201171875
1774471251868842200,9.99984228515625,-1.8697049617767334,-1.138541579246521,-2.2594850063323975
1774471251878859000,10.00985888671875,-2.0142648220062256,-1.289628505706787,-2.1925415992736816
1774471251888875300,10.019875244140625,-2.098301887512207,-1.5521658658981323,-2.0800373554229736
1774471251898891300,10.029891357421874,-2.0943868160247803,-1.8040130138397217,-1.8946902751922607
1774471251908908000,10.039907958984376,-2.0215699672698975,-1.9443137645721436,-1.6512813568115234
1774471251918924000,10.049924072265625,-1.9461678266525269,-2.0198068618774414,-1.397055983543396
1774471251928941300,10.05994140625,-1.9192512035369873,-2.0422163009643555,-1.129114031791687
1774471251938957300,10.069957275390625,-1.9768083095550537,-2.2730629444122314,-0.9713113307952881
1774471251948974000,10.07997412109375,-2.1842308044433594,-2.7802956104278564,-0.9068596363067627
1774471251958990000,10.089989990234375,-2.504300594329834,-3.084092140197754,-0.7599665522575378
1774471251969006000,10.100006103515625,-2.6579322814941406,-3.192564010620117,-0.5118656754493713
1774471251979023000,10.110023193359375,-1.8445988893508911,-1.9512858390808105,-0.7168737053871155
1774471251989039000,10.1200390625,-0.1537083387374878,-0.5769208669662476,-1.2700517177581787
1774471251999056100,10.13005615234375,0.005840844940394163,-1.741297721862793,-1.2386192083358765
1774471252009072000,10.140072021484375,-0.21403107047080994,-2.510460376739502,-1.2608366012573242
1774471252019089200,10.150089111328125,-0.17982302606105804,-2.536842107772827,-1.3702136278152466
1774471252029105200,10.160105224609374,-0.07475679367780685,-2.457829713821411,-1.4657801389694214
1774471252039122200,10.1701220703125,0.04092639312148094,-2.448133707046509,-1.5243662595748901
1774471252049138200,10.18013818359375,0.12460025399923325,-2.5780889987945557,-1.5692085027694702
1774471252059154000,10.19015380859375,0.00586721021682024,-2.6345598697662354,-1.3651877641677856
1774471252069171200,10.200171142578125,-0.27053987979888916,-2.39811110496521,-0.9345791339874268
1774471252079187200,10.210187255859376,-0.5879063606262207,-1.9109147787094116,-0.3975537419319153
1774471252089204000,10.220203857421875,-0.9351788759231567,-1.4137248992919922,0.08978927135467529
1774471252099220000,10.230219970703125,-1.1799046993255615,-1.0782740116119385,0.43324196338653564
1774471252109237200,10.2402373046875,-1.307835578918457,-0.9308586716651917,0.6958075761795044
1774471252119253200,10.250253173828124,-1.2595566511154175,-0.45464953780174255,0.9970486164093018
1774471252129270000,10.26027001953125,-0.9122474193572998,0.14612498879432678,1.1743475198745728
1774471252139286000,10.2702861328125,-0.14496038854122162,0.9095331430435181,1.1903406381607056
1774471252149303300,10.28030322265625,0.6529972553253174,1.1128284931182861,1.048200011253357
1774471252159319000,10.290319091796874,1.0753625631332397,0.8635600805282593,0.9026997685432434
1774471252169335000,10.3003349609375,1.226797342300415,0.5706626772880554,0.7877172231674194
1774471252179352000,10.31035205078125,1.2138874530792236,0.2521326541900635,0.6208840608596802
1774471252189368300,10.320368408203125,1.075873613357544,-0.20467963814735413,0.32350003719329834
1774471252199385000,10.330385009765624,0.8627358078956604,-0.5370149612426758,-0.03844299539923668
1774471252209401000,10.340401123046876,0.5753120183944702,-0.7357437610626221,-0.34438854455947876
1774471252219418000,10.350418212890625,0.41892215609550476,-0.6875852942466736,-0.7954055070877075
1774471252229434400,10.360434326171875,0.3948109745979309,-0.675968587398529,-1.16423761844635
1774471252239451100,10.370451171875,0.34361886978149414,-0.5662367939949036,-1.363882303237915
1774471252249467100,10.380467041015624,0.3047764003276825,-0.28145936131477356,-1.3689970970153809
1774471252259484200,10.390484130859376,0.2570890486240387,0.1570732444524765,-1.2192339897155762
1774471252269500200,10.400500244140625,0.23337572813034058,0.6440178751945496,-1.0065436363220215
1774471252279516200,10.41051611328125,0.2705758213996887,1.0614992380142212,-0.8217644095420837
1774471252289533200,10.420533203125,0.38040485978126526,1.363218903541565,-0.745379626750946
1774471252299549200,10.430549072265626,0.4569489061832428,1.5353916883468628,-0.6874172687530518
1774471252309566000,10.44056591796875,0.4894855320453644,1.505461573600769,-0.6514214277267456
1774471252319582200,10.450582275390625,0.5115476846694946,1.2057528495788574,-0.6296056509017944
1774471252329599200,10.46059912109375,0.48907169699668884,0.7638851404190063,-0.620151937007904
1774471252339615200,10.470615234375,0.5151839852333069,0.2771378755569458,-0.5705910325050354
1774471252349632000,10.480632080078125,0.5824729800224304,0.14622245728969574,-0.5708531141281128
1774471252359648300,10.490648193359375,0.643092930316925,0.21614214777946472,-0.6107786893844604
1774471252369665000,10.5006650390625,0.5818372964859009,0.3883613348007202,-0.69973224401474
1774471252379681000,10.510680908203126,0.41186636686325073,0.46126481890678406,-0.8748803734779358
1774471252389698000,10.520697998046876,0.28186631202697754,0.38201794028282166,-1.0548198223114014
1774471252399714300,10.53071435546875,0.18923836946487427,0.3395082950592041,-1.2433949708938599
1774471252409731000,10.54073095703125,0.15197888016700745,0.36930614709854126,-1.4342310428619385
1774471252419747000,10.5507470703125,0.11541394144296646,0.8079255819320679,-1.371495246887207
1774471252429763000,10.56076318359375,-0.005584382452070713,1.2734991312026978,-1.244554877281189
1774471252439780400,10.5707802734375,-0.1850697249174118,1.3079873323440552,-1.2333946228027344
1774471252449796000,10.580796142578125,-0.3111152648925781,0.585407555103302,-1.173302173614502
1774471252459813000,10.590813232421874,-0.15056847035884857,0.1933010220527649,-0.8111887574195862
1774471252469829000,10.6008291015625,0.1286812722682953,-0.017109211534261703,-0.35839489102363586
1774471252479846100,10.61084619140625,0.35259905457496643,-0.20894388854503632,0.09529323130846024
1774471252489862100,10.620862060546875,0.5348601937294006,-0.3539191782474518,0.43563535809516907
1774471252499879200,10.630879150390625,0.5573434233665466,-0.4518934190273285,0.6520366668701172
1774471252509895200,10.640895263671876,0.5592808723449707,-0.6572796106338501,0.7358817458152771
1774471252519912200,10.650912109375,0.6144453287124634,-0.861568033695221,0.6546359062194824
1774471252529928200,10.66092822265625,0.6855152249336243,-0.9419994950294495,0.3532384932041168
1774471252539945200,10.6709453125,0.6730005145072937,-0.8589762449264526,0.020540429279208183
1774471252549961200,10.680961181640624,0.662667453289032,-0.3448665738105774,-0.2915650010108948
1774471252559978200,10.690978271484376,0.7037248611450195,0.24937547743320465,-0.5505033731460571
1774471252569994200,10.700994140625,0.6749696731567383,0.5341222286224365,-0.6145771741867065
1774471252580011000,10.711010986328125,0.5672168135643005,-0.006844324059784412,-0.6956059336662292
1774471252590027000,10.721027099609374,0.6196145415306091,-0.6127172112464905,-0.8250361084938049
1774471252600044300,10.731044189453126,0.5844677090644836,-1.1798967123031616,-0.8282641172409058
1774471252610060300,10.741060302734375,0.646754801273346,-1.8099037408828735,-0.9010773301124573
1774471252620077000,10.7510771484375,1.066954255104065,-2.652675151824951,-0.887708306312561
1774471252630093000,10.761093017578125,1.4390486478805542,-3.234388589859009,-0.7566866278648376
1774471252640109000,10.771109130859376,1.714544653892517,-2.948948860168457,-0.7169983386993408
1774471252650126300,10.781126220703126,1.884882926940918,-2.170844316482544,-0.8144646883010864
1774471252660142000,10.79114208984375,1.8987678289413452,-1.3333930969238281,-0.9467582702636719
1774471252670159000,10.8011591796875,1.889227271080017,-0.36395877599716187,-1.1401602029800415
1774471252680175000,10.811175048828124,1.8288934230804443,0.6857091188430786,-1.495547890663147
1774471252690192100,10.821192138671876,1.6386609077453613,1.5035808086395264,-1.757723331451416
1774471252700208000,10.8312080078125,1.3965619802474976,1.8745248317718506,-1.8073254823684692
1774471252710225200,10.84122509765625,1.1764687299728394,1.950576663017273,-1.6147637367248535
1774471252720241200,10.8512412109375,0.9031354188919067,1.9126218557357788,-1.3297224044799805
1774471252730258200,10.861258056640626,0.5445610284805298,1.8867186307907104,-1.0658892393112183
1774471252740274200,10.871274169921875,0.19446136057376862,2.060128688812256,-0.7869678139686584
1774471252750291200,10.881291259765625,0.08969313651323318,2.1748077869415283,-0.3668088912963867
1774471252760307200,10.89130712890625,0.2790537476539612,2.5662665367126465,-0.20759554207324982
1774471252770324200,10.90132421875,0.39612042903900146,3.258748769760132,-0.2176188826560974
1774471252780340200,10.91134033203125,0.283102810382843,3.8929646015167236,-0.16884920001029968
1774471252790357000,10.92135693359375,0.10023392736911774,4.059707164764404,0.21698904037475586
1774471252800373000,10.931373046875,0.16074015200138092,3.7835841178894043,0.7298563122749329
1774471252810390300,10.941390380859374,0.5057023167610168,3.1673617362976074,1.467293620109558
1774471252820406300,10.95140625,0.804189145565033,2.917363166809082,1.8027360439300537
1774471252830423000,10.961423095703125,0.9392369985580444,3.2941486835479736,1.0742688179016113
1774471252840439000,10.97143896484375,1.096175193786621,2.901840925216675,-0.1630254089832306
1774471252850456300,10.981456298828125,1.2168283462524414,1.8447133302688599,-1.2278906106948853
1774471252860472300,10.991472412109376,1.37135648727417,1.076820969581604,-1.7297838926315308
1774471252870489000,11.001489013671875,1.7348315715789795,1.0628540515899658,-1.538655161857605
1774471252880505000,11.011505126953125,2.0169453620910645,1.8395806550979614,-0.9826286435127258
1774471252890522400,11.0215224609375,2.1601946353912354,2.7604050636291504,-0.3170871436595917
1774471252900538000,11.0315380859375,2.086259365081787,3.4627156257629395,0.26198288798332214
1774471252910555100,11.04155517578125,1.866376519203186,3.7523193359375,0.6072497367858887
1774471252920571100,11.051571044921875,1.6383497714996338,3.930744171142578,0.7068607211112976
1774471252930588200,11.061588134765625,1.542022705078125,4.048703670501709,0.7906491160392761
1774471252940604200,11.071604248046874,1.477099061012268,3.8857269287109375,0.8846397995948792
1774471252950621200,11.08162109375,1.5591074228286743,3.7953875064849854,0.9873557686805725
1774471252960637200,11.09163720703125,1.6883336305618286,4.130021095275879,1.0391223430633545
1774471252970654200,11.101654296875,1.8167887926101685,3.9723808765411377,1.247925043106079
1774471252980670200,11.111670166015625,2.060556411743164,3.877366065979004,1.0746113061904907
1774471252990687200,11.121687255859374,2.214613437652588,3.761216402053833,0.5481666922569275
1774471253000703000,11.131702880859375,2.1477432250976562,3.188706636428833,0.2773248255252838
1774471253010720300,11.14172021484375,1.9746543169021606,2.5556833744049072,0.15089283883571625
1774471253020736300,11.151736328125,1.8466609716415405,1.852410912513733,0.19048179686069489
1774471253030753000,11.1617529296875,1.6411311626434326,1.529767632484436,0.09409400820732117
1774471253040769000,11.17176904296875,1.301798701286316,1.6682307720184326,0.03087136335670948
1774471253050786300,11.181786376953125,1.046513319015503,1.9324229955673218,0.2781866192817688
1774471253060802300,11.19180224609375,0.9742980599403381,2.5135152339935303,0.6682251691818237
1774471253070819000,11.201819091796875,0.9168070554733276,2.747631311416626,0.8201079368591309
1774471253080834300,11.211834228515626,0.9830284118652344,2.635064125061035,0.6878726482391357
1774471253090851600,11.2218515625,1.04297935962677,2.242832660675049,0.6190861463546753
1774471253100867600,11.23186767578125,0.9199381470680237,1.6925402879714966,0.5242922306060791
1774471253110884400,11.24188427734375,0.827351450920105,1.3369954824447632,0.3908921182155609
1774471253120900400,11.251900390625,0.8596073985099792,1.0262504816055298,0.33912986516952515
1774471253130917600,11.261917724609376,0.9050963521003723,0.6242204308509827,0.419355183839798
1774471253140933600,11.27193359375,0.8559351563453674,0.30062639713287354,0.6074897050857544
1774471253150950400,11.281950439453125,0.6682845950126648,0.2421812117099762,0.8266595602035522
1774471253160966400,11.29196630859375,0.463358610868454,0.29862505197525024,0.968795657157898
1774471253170983700,11.301983642578126,0.2755761742591858,0.33941614627838135,1.045880913734436
1774471253180999400,11.31199951171875,0.24859516322612762,0.3656157851219177,1.0943069458007812
1774471253191016400,11.322016357421875,0.34946027398109436,0.14078348875045776,1.1254782676696777
1774471253201032400,11.332032470703124,0.43840292096138,-0.11556228250265121,1.1104638576507568
1774471253211049500,11.342049560546876,0.5308985114097595,-0.5795317888259888,0.9498696327209473
1774471253221065500,11.3520654296875,0.6147693991661072,-0.7801871299743652,0.7227646112442017
1774471253231082500,11.36208251953125,0.6883227229118347,-1.1780940294265747,0.6321864724159241
1774471253241098500,11.372098388671875,0.7733383178710938,-1.4178658723831177,0.5924995541572571
1774471253251115500,11.382115478515624,0.888386607170105,-1.6840035915374756,0.6717562675476074
1774471253261131500,11.392131591796876,1.0096254348754883,-2.23862624168396,0.9224183559417725
1774471253271148500,11.4021484375,1.0623245239257812,-3.222259044647217,1.3137320280075073
1774471253281164300,11.412164306640625,1.0063343048095703,-3.919579029083252,1.658204436302185
1774471253291181600,11.422181640625,0.8599682450294495,-4.429566383361816,2.0077850818634033
1774471253301197600,11.432197509765626,0.7306408882141113,-4.75189208984375,2.3385584354400635
1774471253311214300,11.44221435546875,0.44143518805503845,-5.801273822784424,2.6586151123046875
1774471253321230300,11.452230224609375,0.029494509100914,-6.863921642303467,2.9515974521636963
1774471253331247600,11.46224755859375,-0.25469034910202026,-7.165863513946533,2.6106245517730713
1774471253341263600,11.472263671875,-0.6905549764633179,-2.7278225421905518,0.6898916363716125
1774471253351280400,11.4822802734375,-0.5613522529602051,0.3374464809894562,-0.04616749659180641
1774471253361296400,11.49229638671875,-0.30642250180244446,1.1028804779052734,-0.5709593892097473
1774471253371313700,11.502313720703125,-0.12427374720573425,0.5011613965034485,-0.8841537833213806
1774471253381329700,11.51232958984375,-0.11139789968729019,-0.4170110821723938,-0.9051724672317505
1774471253391346400,11.522346435546876,-0.23492969572544098,-1.1101152896881104,-0.760985255241394
1774471253401362400,11.532362548828125,-0.3424156606197357,-1.3327211141586304,-0.6806919574737549
1774471253411379500,11.54237939453125,-0.46243181824684143,-1.3247567415237427,-0.7548602223396301
1774471253421395500,11.5523955078125,-0.5053638219833374,-1.4425104856491089,-0.9024206399917603
1774471253431412500,11.56241259765625,-0.4894711673259735,-1.5406900644302368,-1.040974497795105
1774471253441428500,11.572428466796875,-0.39324450492858887,-1.4539176225662231,-1.0182428359985352
1774471253451445500,11.582445556640625,-0.2162124663591385,-1.1769222021102905,-0.8233215808868408
1774471253461461500,11.59246142578125,-0.09572172909975052,-0.5428715348243713,-0.5218397378921509
1774471253471478500,11.602478515625,-0.010628676041960716,0.5156620144844055,-0.26680612564086914
1774471253481494500,11.61249462890625,0.0008844357798807323,1.1755092144012451,0.039311185479164124
1774471253491511600,11.622511474609375,0.0638146623969078,1.4787521362304688,0.3896889090538025
1774471253501527600,11.632527587890625,0.174747034907341,1.4708582162857056,0.6253187656402588
1774471253511544600,11.642544677734374,0.24833577871322632,1.2248045206069946,0.5936865210533142
1774471253521560300,11.652560302734376,0.3538169264793396,0.7966859936714172,0.355211079120636
1774471253531577600,11.66257763671875,0.4316036105155945,0.2040783017873764,-0.10647211223840714
1774471253541593600,11.672593505859375,0.4667802155017853,-0.3633318543434143,-0.7302310466766357
1774471253551610400,11.6826103515625,0.3792796730995178,-0.8343864679336548,-1.391229510307312
1774471253561626400,11.69262646484375,0.1610032618045807,-1.246750831604004,-1.957955002784729
1774471253571643600,11.7026435546875,-0.15648707747459412,-1.676574468612671,-2.2495787143707275
1774471253581659600,11.71265966796875,-0.4722764492034912,-1.819238305091858,-2.3624954223632812
1774471253591676400,11.722676513671875,-0.7719558477401733,-1.6615017652511597,-2.406982898712158
1774471253601692400,11.7326923828125,-1.1102627515792847,-0.9868476390838623,-2.3121745586395264
1774471253611709400,11.74270947265625,-1.2920584678649902,-0.12441196292638779,-2.1594796180725098
1774471253621725400,11.752725341796875,-1.286996603012085,0.620750904083252,-1.9246151447296143
1774471253631742500,11.762742431640625,-1.2125684022903442,1.2183581590652466,-1.7336366176605225
1774471253641758500,11.772758544921874,-1.0621474981307983,1.68965482711792,-1.598451852798462
1774471253651775500,11.782775390625,-0.8245482444763184,1.9056179523468018,-1.3742151260375977
1774471253661791500,11.79279150390625,-0.4348723590373993,1.7275763750076294,-1.1459741592407227
1774471253671808500,11.80280859375,-0.03972397744655609,1.4459116458892822,-0.9403608441352844
1774471253681824500,11.812824462890624,0.285756379365921,1.1704254150390625,-0.8661542534828186
1774471253691841300,11.82284130859375,0.5668714046478271,0.7116703987121582,-0.8769411444664001
1774471253701857500,11.832857421875,0.7696847319602966,0.4414770007133484,-0.9857749342918396
1774471253711874600,11.84287451171875,0.8693463206291199,0.07270349562168121,-1.1504511833190918
1774471253721890600,11.852890625,0.9951556324958801,-0.21699222922325134,-1.3207294940948486
1774471253731907300,11.8629072265625,1.1268726587295532,-0.5665808320045471,-1.4525226354599
1774471253741923600,11.872923583984376,1.2178376913070679,-0.7534157037734985,-1.5291754007339478
1774471253751940600,11.882940673828125,1.2409331798553467,-0.7589577436447144,-1.47342050075531
1774471253761956400,11.892956298828125,1.187640905380249,-0.844606876373291,-1.2753859758377075
1774471253771973400,11.902973388671874,1.1386520862579346,-0.6805607080459595,-0.9752780795097351
1774471253781989600,11.91298974609375,1.1293302774429321,-0.5478508472442627,-0.6302828788757324
1774471253792006400,11.92300634765625,1.2032103538513184,-0.2791581451892853,-0.32107415795326233
1774471253802022400,11.9330224609375,1.3757381439208984,0.2873723804950714,-0.13239532709121704
1774471253812039400,11.943039306640625,1.6008557081222534,0.6058209538459778,0.06138772517442703
1774471253822055700,11.9530556640625,1.8203009366989136,0.6102266311645508,0.16874533891677856
1774471253832072400,11.963072509765626,1.9233170747756958,0.7626286745071411,0.19302457571029663
1774471253842088400,11.97308837890625,1.818320631980896,1.282582402229309,0.4163319766521454
1774471253852105500,11.98310546875,1.5091427564620972,1.7547049522399902,0.6907776594161987
1774471253862121500,11.99312158203125,1.184770107269287,1.7214829921722412,0.645255982875824
1774471253872138500,12.003138427734376,1.10035240650177,1.3370250463485718,0.3965817093849182
1774471253882154500,12.013154541015625,1.0795965194702148,0.8521550893783569,0.1898980289697647
1774471253892171300,12.023171142578125,1.115980863571167,0.3340219259262085,-0.08860496431589127
1774471253902187500,12.0331875,1.2618664503097534,-0.1972781866788864,-0.49205389618873596
1774471253912204500,12.04320458984375,1.5150307416915894,-0.7604179978370667,-0.9944994449615479
1774471253922220500,12.053220458984375,1.7136567831039429,-1.3887405395507812,-1.6339094638824463
1774471253932237300,12.0632373046875,1.790592074394226,-2.286116600036621,-2.351778507232666
1774471253942253600,12.073253662109375,1.6849337816238403,-2.836693286895752,-2.7469325065612793
1774471253952270600,12.0832705078125,1.461533784866333,-2.8797030448913574,-2.6609184741973877
1774471253962286600,12.09328662109375,1.2579550743103027,-2.085993528366089,-2.070936918258667
1774471253972303400,12.103303466796875,1.0988646745681763,-1.436972737312317,-1.494796872138977
1774471253982319400,12.1133193359375,0.9146413803100586,-0.9726971983909607,-1.171769618988037
1774471253992336400,12.12333642578125,0.7251936793327332,-0.697272539138794,-0.9124730229377747
1774471254002352400,12.133352294921876,0.58892422914505,-0.7424099445343018,-0.8658426403999329
1774471254012369400,12.143369384765625,0.4375099539756775,-0.886673629283905,-0.8943182229995728
1774471254022385400,12.153385498046875,0.3876579701900482,-0.9136104583740234,-0.8652138710021973
1774471254032402400,12.16340234375,0.4094676673412323,-0.9276970028877258,-0.7753220796585083
1774471254042418400,12.17341845703125,0.4857507348060608,-0.999053955078125,-0.6681631207466125
1774471254052435500,12.183435546875,0.614632248878479,-1.1706739664077759,-0.6042539477348328
1774471254062451500,12.193451416015625,0.7859044075012207,-1.382852554321289,-0.6191779971122742
1774471254072468500,12.203468505859375,0.93658846616745,-1.477001667022705,-0.6879459023475647
1774471254082485500,12.213485595703125,1.071014404296875,-1.4707701206207275,-0.7419886589050293
1774471254092502500,12.22350244140625,1.1431245803833008,-1.3880845308303833,-0.762046754360199
1774471254102518500,12.2335185546875,1.159765362739563,-1.1666961908340454,-0.768531322479248
1774471254112535600,12.24353564453125,1.1320898532867432,-0.9627383351325989,-0.7629282474517822
1774471254122551600,12.253551513671875,1.074581265449524,-0.931960940361023,-0.7538793683052063
1774471254132568600,12.263568603515624,0.8689247369766235,-1.0227388143539429,-0.7519057393074036
1774471254142584600,12.27358447265625,0.4463103711605072,-1.0765466690063477,-0.8120816946029663
1774471254152601600,12.2836015625,0.10196498036384583,-1.0588639974594116,-0.8587128520011902
1774471254162617300,12.293617431640625,-0.13942207396030426,-1.2196595668792725,-0.8861974477767944
1774471254172634600,12.303634521484375,-0.12173149734735489,-1.4160897731781006,-0.895487368106842
1774471254182650600,12.313650634765626,0.19621478021144867,-1.507132649421692,-0.9235197901725769
1774471254192667400,12.32366748046875,0.762561023235321,-1.3375598192214966,-1.0013099908828735
1774471254202683400,12.333683349609375,1.323925495147705,-1.0232826471328735,-1.106253981590271
1774471254212700700,12.34370068359375,1.619810700416565,-0.6845402717590332,-1.1912378072738647
1774471254222716700,12.353716552734374,1.65036141872406,-0.40981948375701904,-1.2768192291259766
1774471254232733400,12.3637333984375,1.653499960899353,-0.1832963228225708,-1.4050164222717285
1774471254242749400,12.37374951171875,1.669647216796875,-0.15981736779212952,-1.374648094177246
1774471254252766700,12.3837666015625,1.6120977401733398,-0.3683694899082184,-1.374877691268921
1774471254262782500,12.393782470703124,1.4506632089614868,-0.5789938569068909,-1.3965193033218384
1774471254272799500,12.403799560546876,1.1448287963867188,-0.7856373190879822,-1.4340336322784424
1774471254282815500,12.4138154296875,0.8519332408905029,-0.9269859194755554,-1.5073518753051758
1774471254292832500,12.42383251953125,0.6645298004150391,-0.9673306941986084,-1.4709155559539795
1774471254302848500,12.4338486328125,0.5770516395568848,-0.7624180316925049,-1.275954246520996
1774471254312865500,12.443865478515624,0.5592385530471802,-0.39625146985054016,-1.0046793222427368
