time,seconds_elapsed,z,y,x
1774472311184578800,0.059578857421875,-0.854095458984375,-0.50372314453125,0.1637725830078125
1774472311194591700,0.069591796875,-0.8404083251953125,-0.512786865234375,0.1684112548828125
1774472311204605000,0.07960498046875,-0.8306884765625,-0.519195556640625,0.1889495849609375
1774472311214619000,0.089618896484375,-0.822998046875,-0.5167694091796875,0.2074127197265625
1774472311224631800,0.0996318359375,-0.82403564453125,-0.518646240234375,0.21484375
1774472311234645000,0.10964501953125,-0.83740234375,-0.524566650390625,0.2090606689453125
1774472311244657700,0.11965771484375,-0.85650634765625,-0.52069091796875,0.19580078125
1774472311254672000,0.129671875,-0.8628692626953125,-0.519866943359375,0.18780517578125
1774472311264684800,0.139684814453125,-0.84130859375,-0.5297698974609375,0.191497802734375
1774472311274697700,0.14969775390625,-0.80841064453125,-0.54400634765625,0.2117919921875
1774472311284711000,0.1597109375,-0.79779052734375,-0.54144287109375,0.223052978515625
1774472311294724900,0.169724853515625,-0.80413818359375,-0.532867431640625,0.2149505615234375
1774472311304737800,0.17973779296875,-0.8358917236328125,-0.5283203125,0.2114410400390625
1774472311314751000,0.1897509765625,-0.888275146484375,-0.5362091064453125,0.215850830078125
1774472311324763600,0.199763671875,-0.9018096923828125,-0.5254974365234375,0.1792755126953125
1774472311334777900,0.20977783203125,-0.9270477294921875,-0.534759521484375,0.1414794921875
1774472311344791000,0.219791015625,-0.9873809814453125,-0.5869598388671875,0.142364501953125
1774472311354803700,0.2298037109375,-0.96307373046875,-0.603973388671875,0.092987060546875
1774472311364818000,0.23981787109375,-0.941131591796875,-0.5942840576171875,0.064178466796875
1774472311374830800,0.249830810546875,-1.0363311767578125,-0.5839385986328125,0.0426788330078125
1774472311384843800,0.25984375,-1.00274658203125,-0.5253448486328125,-0.045654296875
1774472311394857000,0.26985693359375,-0.9312744140625,-0.415618896484375,-0.1088714599609375
1774472311404870700,0.27987060546875,-0.913421630859375,-0.21124267578125,-0.0708770751953125
1774472311414883800,0.2898837890625,-0.8973541259765625,-0.0679473876953125,0.0318145751953125
1774472311424897000,0.29989697265625,-0.9138641357421875,-0.075286865234375,0.0543060302734375
1774472311434909700,0.30990966796875,-0.7647247314453125,-0.1117401123046875,0.08831787109375
1774472311444924000,0.319923828125,-0.4972991943359375,-0.315338134765625,0.0936126708984375
1774472311454936800,0.329936767578125,-0.4113006591796875,-0.8180999755859375,0.0623016357421875
1774472311464949800,0.33994970703125,-0.3143768310546875,-1.06591796875,0.15313720703125
1774472311474963000,0.349962890625,-0.3220672607421875,-0.7874298095703125,0.1120452880859375
1774472311484977000,0.359976806640625,-0.4115753173828125,-0.6189422607421875,0.03326416015625
1774472311494989800,0.36998974609375,-0.3960723876953125,-0.472198486328125,0.0590362548828125
1774472311505003000,0.3800029296875,-0.3354949951171875,-0.27008056640625,0.04278564453125
1774472311515016000,0.390015869140625,-0.35418701171875,-0.262786865234375,0.0370330810546875
1774472311525030000,0.40002978515625,-0.471771240234375,-0.3236083984375,0.09808349609375
1774472311535042800,0.410042724609375,-0.7191619873046875,-0.694427490234375,0.150360107421875
1774472311545055700,0.4200556640625,-1.2842254638671875,-0.9120941162109375,0.113555908203125
1774472311555069000,0.43006884765625,-1.22491455078125,-0.4850616455078125,0.154327392578125
1774472311565083000,0.440082763671875,-1.2100067138671875,-0.445281982421875,0.094146728515625
1774472311575095800,0.450095703125,-1.0782012939453125,-0.4934844970703125,0.1282958984375
1774472311585108700,0.460108642578125,-0.8870849609375,-0.513885498046875,0.20245361328125
1774472311595122000,0.470121826171875,-0.7939300537109375,-0.5432891845703125,0.279449462890625
1774472311605136000,0.480135986328125,-0.8030242919921875,-0.34600830078125,0.28607177734375
1774472311615148800,0.490148681640625,-1.0316162109375,-0.2214508056640625,0.1993408203125
1774472311625162000,0.500161865234375,-1.2281036376953125,-0.3212127685546875,0.072906494140625
1774472311635174700,0.510174560546875,-1.102203369140625,-0.3869476318359375,-0.02423095703125
1774472311645188900,0.52018896484375,-1.2210845947265625,-0.4468231201171875,-0.1206207275390625
1774472311655201800,0.530201904296875,-1.2566680908203125,-0.4749298095703125,-0.1373443603515625
1774472311665214700,0.540214599609375,-1.2880401611328125,-0.4282684326171875,-0.1229095458984375
1774472311675229000,0.55022900390625,-1.217010498046875,-0.347320556640625,-0.0291900634765625
1774472311685241900,0.560241943359375,-1.1201324462890625,-0.3127288818359375,0.0490264892578125
1774472311695254800,0.5702548828125,-1.0317535400390625,-0.29718017578125,0.073822021484375
1774472311705268000,0.58026806640625,-0.9984130859375,-0.2992095947265625,0.0829010009765625
1774472311715282000,0.590281982421875,-1.0113677978515625,-0.304107666015625,0.0831146240234375
1774472311725294800,0.600294921875,-1.0503997802734375,-0.29998779296875,0.0494537353515625
1774472311735308000,0.61030810546875,-1.076171875,-0.3055572509765625,-0.00384521484375
1774472311745320700,0.62032080078125,-1.0760650634765625,-0.3221588134765625,-0.0428466796875
1774472311755335000,0.6303349609375,-1.0612335205078125,-0.3128662109375,-0.0750732421875
1774472311765347300,0.640347412109375,-1.030792236328125,-0.3189697265625,-0.0843048095703125
1774472311775360300,0.6503603515625,-0.9954681396484375,-0.3309173583984375,-0.0926361083984375
1774472311785373200,0.660373291015625,-0.9630126953125,-0.3450469970703125,-0.07257080078125
1774472311795387400,0.670387451171875,-0.9321746826171875,-0.3689727783203125,-0.0176849365234375
1774472311805400000,0.680400146484375,-0.9111328125,-0.3834381103515625,0.0298309326171875
1774472311815413200,0.690413330078125,-0.897552490234375,-0.371002197265625,0.0240631103515625
1774472311825427200,0.70042724609375,-0.8921051025390625,-0.3486480712890625,0.000396728515625
1774472311835440000,0.710440185546875,-0.89825439453125,-0.3300018310546875,-0.00482177734375
1774472311845453300,0.720453369140625,-0.8974761962890625,-0.3415374755859375,-0.0080718994140625
1774472311855466200,0.73046630859375,-0.8939971923828125,-0.35919189453125,-0.0272979736328125
1774472311865480200,0.740480224609375,-0.8746337890625,-0.3608551025390625,-0.08172607421875
1774472311875493400,0.750493408203125,-0.8432159423828125,-0.40570068359375,-0.1788787841796875
1774472311885506000,0.760506103515625,-0.82513427734375,-0.4415435791015625,-0.220062255859375
1774472311895519200,0.770519287109375,-0.8400115966796875,-0.468597412109375,-0.1551971435546875
1774472311905533400,0.780533447265625,-0.8736419677734375,-0.493865966796875,-0.0961151123046875
1774472311915546000,0.790546142578125,-0.886138916015625,-0.4842529296875,-0.0795440673828125
1774472311925559300,0.800559326171875,-0.87945556640625,-0.473602294921875,-0.057525634765625
1774472311935573200,0.8105732421875,-0.8576507568359375,-0.4627532958984375,-0.043792724609375
1774472311945586200,0.820586181640625,-0.8283538818359375,-0.44171142578125,-0.0398406982421875
1774472311955599400,0.830599365234375,-0.813812255859375,-0.436553955078125,-0.05694580078125
1774472311965612300,0.8406123046875,-0.83258056640625,-0.4339752197265625,-0.0956878662109375
1774472311975626200,0.850626220703125,-0.86474609375,-0.4269561767578125,-0.130859375
1774472311985639400,0.860639404296875,-0.87982177734375,-0.425811767578125,-0.177734375
1774472311995652000,0.870652099609375,-0.8892364501953125,-0.4186553955078125,-0.216217041015625
1774472312005665300,0.880665283203125,-0.899139404296875,-0.4245758056640625,-0.2135467529296875
1774472312015679200,0.89067919921875,-0.9219207763671875,-0.4642791748046875,-0.1878814697265625
1774472312025692200,0.900692138671875,-0.9141845703125,-0.48590087890625,-0.1623382568359375
1774472312035705300,0.910705322265625,-0.8928070068359375,-0.4777069091796875,-0.1534576416015625
1774472312045719000,0.920718994140625,-0.8902587890625,-0.4552459716796875,-0.1668853759765625
1774472312055732200,0.930732177734375,-0.899810791015625,-0.440032958984375,-0.1776275634765625
1774472312065745400,0.940745361328125,-0.8861236572265625,-0.435394287109375,-0.172576904296875
1774472312075758300,0.95075830078125,-0.85198974609375,-0.4265899658203125,-0.189605712890625
1774472312085772300,0.960772216796875,-0.8487548828125,-0.429901123046875,-0.2064666748046875
1774472312095785200,0.97078515625,-0.8632049560546875,-0.4322662353515625,-0.2123260498046875
1774472312105798100,0.980798095703125,-0.8495025634765625,-0.4509735107421875,-0.234283447265625
1774472312115811300,0.990811279296875,-0.8283843994140625,-0.4696044921875,-0.244140625
1774472312125825300,1.0008251953125,-0.8402557373046875,-0.477447509765625,-0.252166748046875
1774472312135838200,1.010838134765625,-0.8720245361328125,-0.4735870361328125,-0.256439208984375
1774472312145851100,1.02085107421875,-0.873748779296875,-0.459808349609375,-0.2498626708984375
1774472312155865000,1.030864990234375,-0.856842041015625,-0.4569091796875,-0.237030029296875
1774472312165878300,1.040878173828125,-0.8533477783203125,-0.45819091796875,-0.23345947265625
1774472312175891200,1.05089111328125,-0.8638458251953125,-0.449737548828125,-0.2326507568359375
1774472312185904400,1.060904296875,-0.85845947265625,-0.445587158203125,-0.240020751953125
1774472312195918300,1.07091845703125,-0.810028076171875,-0.4685821533203125,-0.2720489501953125
1774472312205931300,1.08093115234375,-0.7710723876953125,-0.4911041259765625,-0.29345703125
1774472312215944200,1.090944091796875,-0.775421142578125,-0.5037384033203125,-0.3023834228515625
1774472312225958400,1.10095849609375,-0.811767578125,-0.508758544921875,-0.3045806884765625
1774472312235971300,1.110971435546875,-0.836822509765625,-0.5012359619140625,-0.280853271484375
1774472312245984300,1.120984375,-0.85693359375,-0.4883575439453125,-0.2587432861328125
1774472312255997200,1.1309970703125,-0.8814239501953125,-0.4820556640625,-0.2593841552734375
1774472312266011100,1.14101123046875,-0.8841094970703125,-0.488555908203125,-0.2470703125
1774472312276024300,1.1510244140625,-0.8634033203125,-0.4846649169921875,-0.248443603515625
1774472312286037200,1.161037353515625,-0.8209381103515625,-0.4919891357421875,-0.2628936767578125
1774472312296050400,1.171050537109375,-0.800323486328125,-0.5091705322265625,-0.28466796875
1774472312306064100,1.181064208984375,-0.7961883544921875,-0.5031585693359375,-0.298095703125
1774472312316077300,1.191077392578125,-0.7874298095703125,-0.4988555908203125,-0.3025665283203125
1774472312326090200,1.20109033203125,-0.7837677001953125,-0.5032196044921875,-0.310150146484375
1774472312336104200,1.211104248046875,-0.798675537109375,-0.50396728515625,-0.3139495849609375
1774472312346117400,1.221117431640625,-0.808929443359375,-0.5079193115234375,-0.2952117919921875
1774472312356130000,1.231130126953125,-0.7616119384765625,-0.5218963623046875,-0.2943572998046875
1774472312366143200,1.241143310546875,-0.72674560546875,-0.5333404541015625,-0.3032073974609375
1774472312376157200,1.2511572265625,-0.742156982421875,-0.5200958251953125,-0.31121826171875
1774472312386170000,1.261170166015625,-0.7901611328125,-0.494964599609375,-0.31744384765625
1774472312396183300,1.271183349609375,-0.8365631103515625,-0.4939117431640625,-0.324615478515625
1774472312406197200,1.281197265625,-0.8513946533203125,-0.500732421875,-0.3502197265625
1774472312416210200,1.291210205078125,-0.8524322509765625,-0.4951171875,-0.3677978515625
1774472312426223400,1.301223388671875,-0.8474578857421875,-0.490203857421875,-0.3739166259765625
1774472312436236000,1.311236083984375,-0.835693359375,-0.486328125,-0.355499267578125
1774472312446250200,1.321250244140625,-0.825408935546875,-0.479949951171875,-0.331298828125
1774472312456263400,1.331263427734375,-0.7998809814453125,-0.4885406494140625,-0.3233489990234375
1774472312466276000,1.341276123046875,-0.775726318359375,-0.494171142578125,-0.3173370361328125
1774472312476289300,1.351289306640625,-0.7607269287109375,-0.4894256591796875,-0.3341827392578125
1774472312486303200,1.36130322265625,-0.7576904296875,-0.5031890869140625,-0.3416748046875
1774472312496316200,1.371316162109375,-0.75518798828125,-0.50164794921875,-0.3525390625
1774472312506329300,1.381329345703125,-0.7589874267578125,-0.5145416259765625,-0.33837890625
1774472312516343300,1.39134326171875,-0.76165771484375,-0.530364990234375,-0.319091796875
1774472312526356200,1.401356201171875,-0.7461090087890625,-0.5192108154296875,-0.34173583984375
1774472312536369400,1.411369384765625,-0.73468017578125,-0.5267181396484375,-0.3675537109375
1774472312546382000,1.421382080078125,-0.7353668212890625,-0.527191162109375,-0.40008544921875
1774472312556396300,1.431396240234375,-0.741668701171875,-0.5075836181640625,-0.420196533203125
1774472312566409500,1.441409423828125,-0.76788330078125,-0.525054931640625,-0.4292144775390625
1774472312576422100,1.451422119140625,-0.7941741943359375,-0.56182861328125,-0.426910400390625
1774472312586436400,1.461436279296875,-0.8140411376953125,-0.5536041259765625,-0.4310455322265625
1774472312596449000,1.471448974609375,-0.8290863037109375,-0.582183837890625,-0.4407196044921875
1774472312606462200,1.481462158203125,-0.7587890625,-0.5933685302734375,-0.4476318359375
1774472312616475400,1.491475341796875,-0.6681365966796875,-0.6112060546875,-0.457305908203125
1774472312626489000,1.501489013671875,-0.5955352783203125,-0.631439208984375,-0.5001373291015625
1774472312636502300,1.511502197265625,-0.5466156005859375,-0.64459228515625,-0.4755859375
1774472312646515200,1.52151513671875,-0.533721923828125,-0.64813232421875,-0.4784088134765625
1774472312656528100,1.531528076171875,-0.5799713134765625,-0.596893310546875,-0.517120361328125
1774472312666542300,1.541542236328125,-0.657257080078125,-0.588653564453125,-0.481048583984375
1774472312676555300,1.55155517578125,-0.7763671875,-0.5638885498046875,-0.473785400390625
1774472312686568200,1.561568115234375,-0.860626220703125,-0.573699951171875,-0.45721435546875
1774472312696582400,1.57158251953125,-0.813507080078125,-0.56195068359375,-0.4221954345703125
1774472312706595000,1.581594970703125,-0.7569580078125,-0.5321197509765625,-0.3716888427734375
1774472312716608300,1.591608154296875,-0.7596893310546875,-0.5464630126953125,-0.3629150390625
1774472312726621200,1.60162109375,-0.770538330078125,-0.5885772705078125,-0.4216156005859375
1774472312736635100,1.61163525390625,-0.7541961669921875,-0.6246185302734375,-0.438934326171875
1774472312746648300,1.6216484375,-0.7268829345703125,-0.60101318359375,-0.4158477783203125
1774472312756661200,1.6316611328125,-0.703521728515625,-0.568572998046875,-0.440887451171875
1774472312766674700,1.6416748046875,-0.6741790771484375,-0.5868988037109375,-0.4747314453125
1774472312776687900,1.65168798828125,-0.5435791015625,-0.6060638427734375,-0.534332275390625
1774472312786701000,1.661701171875,-0.3832550048828125,-0.573455810546875,-0.5872650146484375
1774472312796713700,1.671713623046875,-0.3591766357421875,-0.565093994140625,-0.60186767578125
1774472312806728000,1.68172802734375,-0.439605712890625,-0.6044921875,-0.617462158203125
1774472312816740900,1.691740966796875,-0.4810333251953125,-0.60711669921875,-0.6095428466796875
1774472312826753800,1.70175390625,-0.4700469970703125,-0.5776824951171875,-0.628326416015625
1774472312836767000,1.71176708984375,-0.48187255859375,-0.5088653564453125,-0.6165008544921875
1774472312846780700,1.72178076171875,-0.57012939453125,-0.5189361572265625,-0.5681610107421875
1774472312856793900,1.7317939453125,-0.677886962890625,-0.4175262451171875,-0.4642791748046875
1774472312866806800,1.741806884765625,-0.63909912109375,-0.388397216796875,-0.4393768310546875
1774472312876820700,1.75182080078125,-0.6009521484375,-0.4080352783203125,-0.2985076904296875
1774472312886834000,1.761833984375,-0.5872650146484375,-0.4264068603515625,-0.1270294189453125
1774472312896846800,1.771846923828125,-0.5056610107421875,-0.451263427734375,-0.050445556640625
1774472312906859800,1.78185986328125,-0.382354736328125,-0.4564361572265625,-0.0343170166015625
1774472312916874000,1.7918740234375,-0.2711181640625,-0.468841552734375,-0.0618896484375
1774472312926887000,1.801886962890625,-0.2255706787109375,-0.5324249267578125,-0.1617889404296875
1774472312936899800,1.81189990234375,-0.366241455078125,-0.558258056640625,-0.3442230224609375
1774472312946914000,1.8219140625,-0.4461822509765625,-0.552032470703125,-0.4114837646484375
1774472312956926700,1.8319267578125,-0.4997711181640625,-0.580657958984375,-0.3962249755859375
1774472312966940000,1.84193994140625,-0.4086456298828125,-0.7666778564453125,-0.3410491943359375
1774472312976952800,1.851952880859375,-0.1628875732421875,-0.93634033203125,-0.46490478515625
1774472312986966800,1.861966796875,-0.1333160400390625,-0.72991943359375,-0.686981201171875
1774472312996980000,1.87197998046875,-0.1673431396484375,-0.7894134521484375,-0.58465576171875
1774472313006993000,1.881992919921875,-0.0984344482421875,-0.7648773193359375,-0.6201629638671875
1774472313017005800,1.892005859375,-0.0737152099609375,-0.5850372314453125,-0.577606201171875
1774472313027020000,1.90202001953125,-0.10284423828125,-0.4900360107421875,-0.5329437255859375
1774472313037033000,1.912032958984375,-0.1658935546875,-0.548309326171875,-0.4979705810546875
1774472313047046000,1.9220458984375,-0.19873046875,-0.73944091796875,-0.391815185546875
1774472313057059800,1.932059814453125,-0.2069549560546875,-0.92578125,-0.2566680908203125
1774472313067072800,1.94207275390625,-0.1669921875,-1.107269287109375,-0.10205078125
1774472313077086000,1.9520859375,-0.1396331787109375,-1.1409759521484375,-0.2144317626953125
1774472313087099000,1.962098876953125,-0.21453857421875,-1.1041717529296875,-0.361541748046875
1774472313097112800,1.97211279296875,-0.1863250732421875,-1.0540313720703125,-0.435821533203125
1774472313107125800,1.982125732421875,-0.1450042724609375,-1.134765625,-0.5813140869140625
1774472313117139000,1.992138916015625,-0.1854705810546875,-1.212921142578125,-0.65142822265625
1774472313127151900,2.00215185546875,-0.26470947265625,-1.281646728515625,-0.50067138671875
1774472313137165800,2.012165771484375,-0.136016845703125,-1.3677825927734375,-0.516998291015625
1774472313147179000,2.022178955078125,-0.16375732421875,-1.3339996337890625,-0.4534149169921875
1774472313157191700,2.032191650390625,-0.1668701171875,-1.222625732421875,-0.4384002685546875
1774472313167206000,2.042205810546875,-0.2520751953125,-1.1837158203125,-0.55615234375
1774472313177218800,2.05221875,-0.3538970947265625,-1.13385009765625,-0.539520263671875
1774472313187231700,2.062231689453125,-0.35211181640625,-1.0177764892578125,-0.49267578125
1774472313197245000,2.072244873046875,-0.194244384765625,-0.9991455078125,-0.470550537109375
1774472313207259000,2.0822587890625,-0.2067413330078125,-0.9927978515625,-0.4552154541015625
1774472313217271800,2.092271728515625,-0.178375244140625,-0.9609527587890625,-0.5237274169921875
1774472313227285000,2.102284912109375,-0.1582183837890625,-0.947265625,-0.538543701171875
1774472313237297700,2.112297607421875,-0.174560546875,-0.9727630615234375,-0.5676116943359375
1774472313247312000,2.122311767578125,-0.254486083984375,-1.003021240234375,-0.5522918701171875
1774472313257325000,2.132324951171875,-0.300811767578125,-1.04150390625,-0.5274810791015625
1774472313267337700,2.142337646484375,-0.25384521484375,-1.065399169921875,-0.4923553466796875
1774472313277352000,2.15235205078125,-0.2667083740234375,-1.0039520263671875,-0.4326629638671875
1774472313287364900,2.16236474609375,-0.3012847900390625,-0.9054718017578125,-0.4500732421875
1774472313297377800,2.172377685546875,-0.283050537109375,-0.8635406494140625,-0.463592529296875
1774472313307391000,2.182390869140625,-0.2460479736328125,-0.862213134765625,-0.4830780029296875
1774472313317404700,2.19240478515625,-0.2129058837890625,-0.858367919921875,-0.52685546875
1774472313327417900,2.20241796875,-0.2257232666015625,-0.85369873046875,-0.53973388671875
1774472313337431000,2.21243115234375,-0.2180633544921875,-0.8432464599609375,-0.535308837890625
1774472313347444700,2.22244482421875,-0.196441650390625,-0.8487701416015625,-0.5298614501953125
1774472313357458000,2.2324580078125,-0.17034912109375,-0.8468475341796875,-0.52972412109375
1774472313367471000,2.24247119140625,-0.1392822265625,-0.84527587890625,-0.5535430908203125
1774472313377483800,2.25248388671875,-0.1148529052734375,-0.8365936279296875,-0.56805419921875
1774472313387498000,2.262498046875,-0.0800933837890625,-0.8392486572265625,-0.5269622802734375
1774472313397510700,2.2725107421875,-0.093597412109375,-0.85028076171875,-0.48956298828125
1774472313407523800,2.28252392578125,-0.1013336181640625,-0.8546600341796875,-0.466094970703125
1774472313417537000,2.292537109375,-0.112579345703125,-0.8434906005859375,-0.4588623046875
1774472313427550700,2.30255078125,-0.1248779296875,-0.84454345703125,-0.4953460693359375
1774472313437564000,2.31256396484375,-0.1326141357421875,-0.8278961181640625,-0.52435302734375
1774472313447576800,2.322576904296875,-0.2037811279296875,-0.7586517333984375,-0.6522064208984375
1774472313457590800,2.3325908203125,-0.179931640625,-0.7874603271484375,-0.5751190185546875
1774472313467604000,2.34260400390625,-0.1046600341796875,-0.805511474609375,-0.539703369140625
1774472313477617000,2.352616943359375,-0.139190673828125,-0.8141021728515625,-0.5426025390625
1774472313487629800,2.3626298828125,-0.148223876953125,-0.825927734375,-0.6039581298828125
1774472313497644000,2.37264404296875,-0.09869384765625,-0.8086090087890625,-0.6610565185546875
1774472313507656700,2.38265673828125,-0.093536376953125,-0.8282318115234375,-0.6890411376953125
1774472313517670000,2.392669921875,-0.145660400390625,-0.83721923828125,-0.66094970703125
1774472313527684000,2.40268408203125,-0.207183837890625,-0.80303955078125,-0.6615142822265625
1774472313537696800,2.41269677734375,-0.2429962158203125,-0.7861480712890625,-0.6598663330078125
1774472313547710000,2.4227099609375,-0.23504638671875,-0.780670166015625,-0.6450653076171875
1774472313557723000,2.432722900390625,-0.2175445556640625,-0.787139892578125,-0.665679931640625
1774472313567736800,2.44273681640625,-0.2400665283203125,-0.78582763671875,-0.688262939453125
1774472313577750000,2.45275,-0.2430877685546875,-0.7764434814453125,-0.6671905517578125
1774472313587763000,2.462762939453125,-0.2218017578125,-0.7696685791015625,-0.6504974365234375
1774472313597777000,2.47277685546875,-0.2115325927734375,-0.7576141357421875,-0.638885498046875
1774472313607789800,2.482789794921875,-0.151092529296875,-0.7054443359375,-0.6491241455078125
1774472313617802800,2.492802734375,-0.095733642578125,-0.6837158203125,-0.7071533203125
1774472313627817000,2.50281689453125,-0.236419677734375,-0.7749481201171875,-0.6447906494140625
1774472313637830000,2.512829833984375,-0.2515411376953125,-0.678131103515625,-0.66302490234375
1774472313647842800,2.5228427734375,-0.1740264892578125,-0.662445068359375,-0.7204437255859375
1774472313657855700,2.532855712890625,-0.13287353515625,-0.6758575439453125,-0.7296600341796875
1774472313667869700,2.54286962890625,-0.131072998046875,-0.6685333251953125,-0.710113525390625
1774472313677883000,2.5528828125,-0.18792724609375,-0.66192626953125,-0.6932373046875
1774472313687895800,2.562895751953125,-0.2568511962890625,-0.649688720703125,-0.712066650390625
1774472313697909800,2.57290966796875,-0.3547515869140625,-0.6816253662109375,-0.6954803466796875
1774472313707923000,2.5829228515625,-0.3492584228515625,-0.70281982421875,-0.6805267333984375
1774472313717935900,2.592935791015625,-0.29095458984375,-0.6819305419921875,-0.670379638671875
1774472313727949800,2.60294970703125,-0.2561492919921875,-0.6640777587890625,-0.670135498046875
1774472313737963000,2.612962890625,-0.2110595703125,-0.6827392578125,-0.6667327880859375
1774472313747976000,2.622975830078125,-0.13623046875,-0.6874237060546875,-0.68646240234375
1774472313757990000,2.632989990234375,-0.1617431640625,-0.7300262451171875,-0.7093658447265625
1774472313768002800,2.6430029296875,-0.2044830322265625,-0.730133056640625,-0.7021331787109375
1774472313778015500,2.653015380859375,-0.226043701171875,-0.679718017578125,-0.745758056640625
1774472313788029700,2.66302978515625,-0.2621307373046875,-0.6691436767578125,-0.778472900390625
1774472313798042600,2.673042724609375,-0.2295074462890625,-0.6795501708984375,-0.7283172607421875
1774472313808055600,2.6830556640625,-0.1407623291015625,-0.7531890869140625,-0.68023681640625
1774472313818069800,2.69306982421875,-0.1208953857421875,-0.820648193359375,-0.5925750732421875
1774472313828082700,2.703082763671875,-0.1416473388671875,-0.8366851806640625,-0.590087890625
1774472313838095600,2.713095703125,-0.1842498779296875,-0.8189239501953125,-0.60626220703125
1774472313848109800,2.72310986328125,-0.205474853515625,-0.7801513671875,-0.61651611328125
1774472313858122500,2.73312255859375,-0.1991729736328125,-0.7709808349609375,-0.6217498779296875
1774472313868135700,2.7431357421875,-0.0573272705078125,-0.81622314453125,-0.6421661376953125
1774472313878148600,2.753148681640625,-0.089141845703125,-0.8037109375,-0.6907806396484375
1774472313888162600,2.76316259765625,-0.1461029052734375,-0.773101806640625,-0.677276611328125
1774472313898175700,2.77317578125,-0.2056427001953125,-0.781280517578125,-0.6613616943359375
1774472313908189400,2.783189453125,-0.204833984375,-0.801605224609375,-0.655120849609375
1774472313918202600,2.79320263671875,-0.1944427490234375,-0.7798919677734375,-0.612548828125
1774472313928215800,2.8032158203125,-0.2193450927734375,-0.728973388671875,-0.6055908203125
1774472313938229500,2.8132294921875,-0.2486724853515625,-0.726165771484375,-0.6090240478515625
1774472313948242700,2.82324267578125,-0.243408203125,-0.746826171875,-0.580535888671875
1774472313958255900,2.833255859375,-0.1507415771484375,-0.757293701171875,-0.5659637451171875
1774472313968269600,2.84326953125,-0.1333770751953125,-0.7354278564453125,-0.5932159423828125
1774472313978282800,2.85328271484375,-0.186126708984375,-0.697998046875,-0.6447906494140625
1774472313988295700,2.863295654296875,-0.2677154541015625,-0.699371337890625,-0.684722900390625
1774472313998309600,2.8733095703125,-0.2270355224609375,-0.7098846435546875,-0.7044525146484375
1774472314008322800,2.88332275390625,0.04473876953125,-0.7510986328125,-0.8065185546875
1774472314018335500,2.89333544921875,-0.031341552734375,-0.7829742431640625,-0.6644744873046875
1774472314028349700,2.903349609375,-0.2592315673828125,-0.8012237548828125,-0.575286865234375
1774472314038362600,2.913362548828125,-0.320159912109375,-0.7437286376953125,-0.5353851318359375
1774472314048375600,2.92337548828125,-0.434417724609375,-0.6216888427734375,-0.5689239501953125
1774472314058389800,2.9333896484375,-0.5601043701171875,-0.516387939453125,-0.599609375
1774472314068402700,2.943402587890625,-0.6429290771484375,-0.500244140625,-0.5836944580078125
1774472314078415600,2.95341552734375,-0.718963623046875,-0.5309295654296875,-0.527008056640625
1774472314088429600,2.9634296875,-0.7830657958984375,-0.5440216064453125,-0.445526123046875
1774472314098442500,2.9734423828125,-0.8574066162109375,-0.543487548828125,-0.39959716796875
1774472314108455700,2.98345556640625,-0.926361083984375,-0.555755615234375,-0.386932373046875
1774472314118469600,2.9934697265625,-0.9590911865234375,-0.59173583984375,-0.3766937255859375
1774472314128482600,3.003482666015625,-0.98736572265625,-0.61505126953125,-0.3932647705078125
1774472314138496500,3.01349658203125,-1.040924072265625,-0.588348388671875,-0.4439697265625
1774472314148509700,3.023509765625,-1.072021484375,-0.558349609375,-0.4692230224609375
1774472314158522600,3.033522705078125,-1.113433837890625,-0.5450439453125,-0.4341278076171875
1774472314168536600,3.04353662109375,-1.1403045654296875,-0.539306640625,-0.362823486328125
1774472314178549800,3.0535498046875,-1.14422607421875,-0.5427703857421875,-0.2922515869140625
1774472314188562700,3.063562744140625,-1.1241302490234375,-0.5526123046875,-0.256683349609375
1774472314198576600,3.07357666015625,-1.0644378662109375,-0.58441162109375,-0.251434326171875
1774472314208589600,3.083589599609375,-0.9929656982421875,-0.5887298583984375,-0.2687225341796875
1774472314218603500,3.093603515625,-0.932586669921875,-0.585418701171875,-0.2734222412109375
1774472314228616700,3.10361669921875,-0.90789794921875,-0.6076812744140625,-0.2336578369140625
1774472314238629600,3.113629638671875,-0.9186859130859375,-0.626007080078125,-0.1820526123046875
1774472314248643600,3.1236435546875,-0.909912109375,-0.616180419921875,-0.146148681640625
1774472314258656800,3.13365673828125,-0.8882598876953125,-0.590667724609375,-0.11041259765625
1774472314268669700,3.143669677734375,-0.8687744140625,-0.583221435546875,-0.0677490234375
1774472314278683600,3.15368359375,-0.8691253662109375,-0.6019744873046875,-0.04034423828125
1774472314288696800,3.16369677734375,-0.8993377685546875,-0.609588623046875,-0.021148681640625
1774472314298709500,3.17370947265625,-0.9377593994140625,-0.6181488037109375,-0.0068359375
1774472314308723700,3.1837236328125,-0.9644927978515625,-0.61865234375,0.00640869140625
1774472314318736600,3.193736572265625,-0.9632415771484375,-0.6248931884765625,0.0267486572265625
1774472314328750600,3.20375048828125,-0.938751220703125,-0.64599609375,0.04443359375
1774472314338763800,3.213763671875,-0.91424560546875,-0.67230224609375,0.0561981201171875
1774472314348776700,3.223776611328125,-0.887359619140625,-0.69512939453125,0.06182861328125
1774472314358790700,3.233790771484375,-0.8421173095703125,-0.7010955810546875,0.0711822509765625
1774472314368803800,3.243803955078125,-0.76495361328125,-0.6536712646484375,0.1283416748046875
1774472314378816500,3.25381640625,-0.7283477783203125,-0.649139404296875,0.188934326171875
1774472314388830700,3.263830810546875,-0.7411651611328125,-0.6987152099609375,0.1717376708984375
1774472314398843600,3.27384375,-0.77001953125,-0.739410400390625,0.0653533935546875
1774472314408856600,3.283856689453125,-0.793060302734375,-0.67230224609375,0.03704833984375
1774472314418870800,3.293870849609375,-0.78265380859375,-0.6637725830078125,0.090484619140625
1774472314428883500,3.303883544921875,-0.7808380126953125,-0.700164794921875,0.0934295654296875
1774472314438897700,3.313897705078125,-0.7866363525390625,-0.672698974609375,0.0741119384765625
1774472314448910600,3.32391064453125,-0.78045654296875,-0.622039794921875,0.0533599853515625
1774472314458923500,3.333923583984375,-0.789703369140625,-0.5945587158203125,0.0612335205078125
1774472314468937700,3.343937744140625,-0.80181884765625,-0.6006317138671875,0.07958984375
1774472314478950700,3.35395068359375,-0.790863037109375,-0.61968994140625,0.0837860107421875
1774472314488963600,3.363963623046875,-0.7389984130859375,-0.6389007568359375,0.0618438720703125
1774472314498977500,3.3739775390625,-0.6630401611328125,-0.667327880859375,0.03021240234375
1774472314508990700,3.38399072265625,-0.614288330078125,-0.6927490234375,0.01373291015625
1774472314519004700,3.394004638671875,-0.623046875,-0.6984710693359375,0.027313232421875
1774472314529017600,3.404017578125,-0.652191162109375,-0.7032318115234375,0.046630859375
1774472314539030500,3.414030517578125,-0.6779022216796875,-0.6980133056640625,0.0596466064453125
1774472314549044700,3.424044677734375,-0.690032958984375,-0.6751861572265625,0.0609283447265625
1774472314559057700,3.4340576171875,-0.6904144287109375,-0.6483306884765625,0.0539703369140625
1774472314569070600,3.444070556640625,-0.689605712890625,-0.632171630859375,0.0542755126953125
1774472314579084500,3.45408447265625,-0.6885528564453125,-0.63555908203125,0.0562591552734375
1774472314589097700,3.46409765625,-0.6717071533203125,-0.6445770263671875,0.052764892578125
1774472314599111700,3.474111572265625,-0.634246826171875,-0.635223388671875,0.047943115234375
1774472314609124600,3.48412451171875,-0.5942535400390625,-0.6260986328125,0.05035400390625
1774472314619137800,3.4941376953125,-0.5775299072265625,-0.62493896484375,0.0579071044921875
1774472314629151500,3.5041513671875,-0.57257080078125,-0.604827880859375,0.0523223876953125
1774472314639164700,3.51416455078125,-0.5774383544921875,-0.5815582275390625,0.0399169921875
1774472314649177600,3.524177490234375,-0.5798797607421875,-0.5785980224609375,0.0246124267578125
1774472314659191600,3.534191650390625,-0.578948974609375,-0.596832275390625,0.005706787109375
1774472314669204700,3.544204833984375,-0.582550048828125,-0.617645263671875,-0.0078277587890625
1774472314679218700,3.55421875,-0.56707763671875,-0.64251708984375,-0.025482177734375
1774472314689231600,3.564231689453125,-0.5471649169921875,-0.660430908203125,-0.056488037109375
1774472314699244800,3.574244873046875,-0.550445556640625,-0.6622467041015625,-0.08746337890625
1774472314709258500,3.584258544921875,-0.576751708984375,-0.645599365234375,-0.116119384765625
1774472314719271700,3.594271728515625,-0.6042327880859375,-0.619110107421875,-0.129791259765625
1774472314729284900,3.604284912109375,-0.6095428466796875,-0.610260009765625,-0.1148223876953125
1774472314739298600,3.614298583984375,-0.5889892578125,-0.6114044189453125,-0.09820556640625
1774472314749311700,3.624311767578125,-0.5623016357421875,-0.6212158203125,-0.098724365234375
1774472314759325700,3.63432568359375,-0.535614013671875,-0.6269378662109375,-0.1057586669921875
1774472314769339600,3.644339599609375,-0.5204010009765625,-0.6048431396484375,-0.1131591796875
1774472314779352300,3.654352294921875,-0.5303802490234375,-0.58709716796875,-0.118804931640625
1774472314789366500,3.664366455078125,-0.57861328125,-0.5710601806640625,-0.1341094970703125
1774472314799379700,3.674379638671875,-0.6677093505859375,-0.5421295166015625,-0.13348388671875
1774472314809392400,3.684392333984375,-0.758026123046875,-0.534088134765625,-0.1309814453125
1774472314819406600,3.694406494140625,-0.809478759765625,-0.54107666015625,-0.157470703125
1774472314829419500,3.70441943359375,-0.84527587890625,-0.5457916259765625,-0.1938323974609375
1774472314839433500,3.71443359375,-0.8784942626953125,-0.5643310546875,-0.2267303466796875
1774472314849446700,3.72444677734375,-0.8955078125,-0.57659912109375,-0.27984619140625
1774472314859459600,3.73445947265625,-0.8884124755859375,-0.5801544189453125,-0.34002685546875
1774472314869473500,3.7444736328125,-0.8591156005859375,-0.5977630615234375,-0.3795318603515625
1774472314879486500,3.754486572265625,-0.800445556640625,-0.628753662109375,-0.4034881591796875
1774472314889499400,3.76449951171875,-0.7243499755859375,-0.650238037109375,-0.43170166015625
1774472314899513600,3.774513671875,-0.6761016845703125,-0.6419830322265625,-0.4621124267578125
1774472314909526500,3.784526611328125,-0.667694091796875,-0.613128662109375,-0.47723388671875
1774472314919540700,3.794540771484375,-0.69671630859375,-0.5868072509765625,-0.4295501708984375
1774472314929553400,3.804553466796875,-0.7341156005859375,-0.598052978515625,-0.3129119873046875
1774472314939566600,3.814566650390625,-0.7378692626953125,-0.603546142578125,-0.21856689453125
1774472314949580500,3.82458056640625,-0.708282470703125,-0.5888519287109375,-0.17889404296875
1774472314959593500,3.834593505859375,-0.67205810546875,-0.568939208984375,-0.1713104248046875
1774472314969606700,3.844606689453125,-0.6441650390625,-0.55731201171875,-0.1723480224609375
1774472314979620400,3.854620361328125,-0.641265869140625,-0.56689453125,-0.1776123046875
1774472314989633500,3.864633544921875,-0.6699371337890625,-0.5669403076171875,-0.1827850341796875
1774472314999647700,3.874647705078125,-0.71905517578125,-0.54718017578125,-0.1705780029296875
1774472315009660400,3.884660400390625,-0.746063232421875,-0.52850341796875,-0.135711669921875
1774472315019673600,3.894673583984375,-0.726470947265625,-0.5169677734375,-0.097381591796875
1774472315029687600,3.9046875,-0.6760101318359375,-0.509674072265625,-0.0590667724609375
1774472315039700500,3.914700439453125,-0.6488037109375,-0.5231781005859375,-0.0049591064453125
1774472315049713700,3.924713623046875,-0.656402587890625,-0.5392913818359375,0.0596160888671875
1774472315059727400,3.934727294921875,-0.6793670654296875,-0.5325927734375,0.1206512451171875
1774472315069740500,3.944740478515625,-0.7046356201171875,-0.518707275390625,0.165802001953125
1774472315079754500,3.95475439453125,-0.724212646484375,-0.5259246826171875,0.199371337890625
1774472315089767400,3.964767333984375,-0.75775146484375,-0.5447235107421875,0.215087890625
1774472315099780600,3.974780517578125,-0.7791748046875,-0.5690155029296875,0.2184600830078125
1774472315109794600,3.984794677734375,-0.80511474609375,-0.58978271484375,0.2055206298828125
1774472315119807500,3.994807373046875,-0.84161376953125,-0.6131591796875,0.1710662841796875
1774472315129820700,4.004820556640625,-0.8746490478515625,-0.62115478515625,0.13336181640625
1774472315139834600,4.014834716796875,-0.8933563232421875,-0.6248779296875,0.109832763671875
1774472315149847600,4.02484765625,-0.8912506103515625,-0.6397247314453125,0.0969390869140625
1774472315159860700,4.03486083984375,-0.880340576171875,-0.6621856689453125,0.0981903076171875
1774472315169874400,4.04487451171875,-0.8548583984375,-0.6727752685546875,0.0972442626953125
1774472315179887600,4.0548876953125,-0.8167266845703125,-0.6829376220703125,0.0627288818359375
1774472315189901600,4.064901611328125,-0.79510498046875,-0.6841888427734375,0.00128173828125
1774472315199914500,4.07491455078125,-0.7939910888671875,-0.6686248779296875,-0.0407562255859375
1774472315209927700,4.084927734375,-0.8057098388671875,-0.6484527587890625,-0.0258331298828125
1774472315219941600,4.094941650390625,-0.83837890625,-0.621978759765625,0.033416748046875
1774472315229954600,4.10495458984375,-0.879302978515625,-0.595611572265625,0.08941650390625
1774472315239967500,4.114967529296875,-0.9343414306640625,-0.5821990966796875,0.1385650634765625
1774472315249981700,4.124981689453125,-1.0085296630859375,-0.566314697265625,0.1706085205078125
1774472315259994600,4.13499462890625,-1.07147216796875,-0.540130615234375,0.1750030517578125
1774472315270008600,4.145008544921875,-1.0872802734375,-0.5150909423828125,0.1728363037109375
1774472315280021500,4.155021484375,-1.0377197265625,-0.511260986328125,0.174713134765625
1774472315290034400,4.165034423828125,-0.930511474609375,-0.5391693115234375,0.1706085205078125
1774472315300048600,4.175048583984375,-0.816131591796875,-0.57757568359375,0.169403076171875
1774472315310061600,4.1850615234375,-0.717254638671875,-0.61212158203125,0.16259765625
1774472315320074500,4.195074462890625,-0.63702392578125,-0.632904052734375,0.147918701171875
1774472315330088700,4.205088623046875,-0.59295654296875,-0.64447021484375,0.147491455078125
1774472315340101400,4.215101318359375,-0.589019775390625,-0.6405487060546875,0.1367645263671875
1774472315350114600,4.225114501953125,-0.6032867431640625,-0.6249542236328125,0.078857421875
1774472315360128800,4.235128662109375,-0.611053466796875,-0.613861083984375,-0.0026702880859375
1774472315370141400,4.245141357421875,-0.603851318359375,-0.60076904296875,-0.0805511474609375
1774472315380155600,4.25515576171875,-0.6285858154296875,-0.6031036376953125,-0.140838623046875
1774472315390168300,4.265168212890625,-0.6678619384765625,-0.594573974609375,-0.1774139404296875
1774472315400181500,4.275181396484375,-0.7241668701171875,-0.57110595703125,-0.1835479736328125
1774472315410195700,4.28519580078125,-0.793304443359375,-0.54486083984375,-0.152191162109375
1774472315420208400,4.29520849609375,-0.8847198486328125,-0.60614013671875,-0.1334381103515625
1774472315430221600,4.3052216796875,-0.9619140625,-0.6337890625,-0.1320953369140625
1774472315440235500,4.315235595703125,-0.9782257080078125,-0.61175537109375,-0.1373291015625
1774472315450248400,4.32524853515625,-0.943206787109375,-0.5742340087890625,-0.1256561279296875
1774472315460261600,4.33526171875,-0.921844482421875,-0.56103515625,-0.124420166015625
1774472315470275600,4.345275634765625,-0.9821014404296875,-0.5526123046875,-0.0987396240234375
1774472315480288500,4.35528857421875,-1.0327606201171875,-0.53753662109375,-0.091796875
1774472315490302500,4.365302490234375,-1.0538177490234375,-0.526031494140625,-0.09527587890625
1774472315500315400,4.3753154296875,-1.0916595458984375,-0.528228759765625,-0.1065673828125
1774472315510328600,4.38532861328125,-1.0856475830078125,-0.4852294921875,-0.10479736328125
1774472315520342500,4.395342529296875,-1.06951904296875,-0.4578399658203125,-0.0896453857421875
1774472315530355500,4.40535546875,-1.030609130859375,-0.45208740234375,-0.0807647705078125
1774472315540368600,4.41536865234375,-0.95806884765625,-0.45721435546875,-0.0800018310546875
1774472315550382600,4.425382568359375,-0.9002532958984375,-0.48138427734375,-0.0625152587890625
1774472315560395500,4.4353955078125,-0.8645782470703125,-0.48455810546875,-0.0399169921875
1774472315570408700,4.44540869140625,-0.8433380126953125,-0.5029296875,-0.0101165771484375
1774472315580422700,4.455422607421875,-0.8217010498046875,-0.53533935546875,0.0125732421875
1774472315590435600,4.465435546875,-0.796142578125,-0.532440185546875,0.002960205078125
1774472315600448500,4.475448486328125,-0.7796783447265625,-0.5091400146484375,-0.0121917724609375
1774472315610462500,4.48546240234375,-0.7891693115234375,-0.5,-0.0228271484375
1774472315620475600,4.4954755859375,-0.7964630126953125,-0.522308349609375,-0.0305633544921875
1774472315630489600,4.505489501953125,-0.787384033203125,-0.537353515625,-0.0513458251953125
1774472315640502500,4.51550244140625,-0.779632568359375,-0.51019287109375,-0.0507354736328125
1774472315650515500,4.525515380859375,-0.7186126708984375,-0.303375244140625,0.0856781005859375
1774472315660529700,4.53552978515625,-0.781524658203125,-0.38116455078125,0.05767822265625
1774472315670542600,4.54554248046875,-0.8389739990234375,-0.4950714111328125,-0.01190185546875
1774472315680555500,4.555555419921875,-0.794403076171875,-0.4935760498046875,-0.0765838623046875
1774472315690569700,4.56556982421875,-0.6981048583984375,-0.5147705078125,-0.148895263671875
1774472315700582400,4.57558251953125,-0.614654541015625,-0.4689483642578125,-0.2463226318359375
1774472315710595600,4.585595703125,-0.6981353759765625,-0.6614990234375,-0.338409423828125
1774472315720609500,4.595609619140625,-0.7005767822265625,-0.806610107421875,-0.298736572265625
1774472315730622500,4.60562255859375,-0.6352996826171875,-0.8788299560546875,-0.3057403564453125
1774472315740635600,4.6156357421875,-0.604949951171875,-0.9259033203125,-0.36260986328125
1774472315750649300,4.6256494140625,-0.626129150390625,-0.9301300048828125,-0.4039306640625
1774472315760662500,4.63566259765625,-0.5970611572265625,-0.825775146484375,-0.421630859375
1774472315770675200,4.64567529296875,-0.5739288330078125,-0.7603759765625,-0.460052490234375
1774472315780689200,4.655689208984375,-0.5247039794921875,-0.7119140625,-0.5087127685546875
1774472315790702300,4.665702392578125,-0.490386962890625,-0.6912384033203125,-0.53619384765625
1774472315800716300,4.67571630859375,-0.4775543212890625,-0.677886962890625,-0.5057220458984375
1774472315810729200,4.685729248046875,-0.4748992919921875,-0.712371826171875,-0.451934814453125
1774472315820742100,4.6957421875,-0.4746856689453125,-0.7421875,-0.41851806640625
1774472315830756000,4.705756103515625,-0.5298004150390625,-0.7599639892578125,-0.4629974365234375
1774472315840769300,4.715769287109375,-0.576080322265625,-0.7735443115234375,-0.558837890625
1774472315850782200,4.7257822265625,-0.569976806640625,-0.781494140625,-0.6556854248046875
1774472315860796200,4.735796142578125,-0.5515289306640625,-0.76202392578125,-0.7464752197265625
1774472315870809300,4.745809326171875,-0.5539398193359375,-0.728240966796875,-0.8094482421875
1774472315880822300,4.755822265625,-0.5405731201171875,-0.6782379150390625,-0.778717041015625
1774472315890836200,4.765836181640625,-0.555999755859375,-0.614471435546875,-0.707427978515625
1774472315900849400,4.775849365234375,-0.5868988037109375,-0.623809814453125,-0.622772216796875
1774472315910862000,4.785862060546875,-0.5926055908203125,-0.6991424560546875,-0.502044677734375
1774472315920876300,4.795876220703125,-0.6767425537109375,-0.7659149169921875,-0.4154205322265625
1774472315930889200,4.80588916015625,-0.687530517578125,-0.821990966796875,-0.40313720703125
1774472315940902100,4.815902099609375,-0.638885498046875,-0.8505706787109375,-0.4504852294921875
1774472315950916400,4.825916259765625,-0.5675201416015625,-0.8407135009765625,-0.527191162109375
1774472315960929300,4.83592919921875,-0.5236053466796875,-0.800323486328125,-0.6279449462890625
1774472315970942200,4.845942138671875,-0.470306396484375,-0.695831298828125,-0.6743011474609375
1774472315980956400,4.855956298828125,-0.3798675537109375,-0.5801849365234375,-0.6417999267578125
1774472315990969000,4.865968994140625,-0.3132781982421875,-0.5245819091796875,-0.599029541015625
1774472316000982300,4.875982177734375,-0.286834716796875,-0.5864715576171875,-0.5797576904296875
1774472316010996200,4.885996337890625,-0.2981719970703125,-0.657196044921875,-0.509033203125
1774472316021009200,4.896009033203125,-0.2997283935546875,-0.6775665283203125,-0.4241180419921875
1774472316031022300,4.906022216796875,-0.242279052734375,-0.7055816650390625,-0.3690643310546875
1774472316041036000,4.9160361328125,-0.2334747314453125,-0.7193145751953125,-0.318084716796875
1774472316051049200,4.92604931640625,-0.2191009521484375,-0.72955322265625,-0.2985382080078125
1774472316061062400,4.9360625,-0.1875,-0.729827880859375,-0.3129730224609375
1774472316071076000,4.946076171875,-0.1710357666015625,-0.7434234619140625,-0.3620758056640625
1774472316081089300,4.95608935546875,-0.18255615234375,-0.7450714111328125,-0.3804473876953125
1774472316091103200,4.966103271484375,-0.203277587890625,-0.738128662109375,-0.35797119140625
1774472316101116200,4.9761162109375,-0.1944427490234375,-0.736541748046875,-0.3325958251953125
1774472316111129300,4.98612939453125,-0.1314239501953125,-0.721588134765625,-0.3383636474609375
1774472316121143300,4.996143310546875,-0.0890960693359375,-0.7249755859375,-0.382904052734375
1774472316131156200,5.00615625,-0.092987060546875,-0.7518768310546875,-0.4489288330078125
1774472316141169400,5.01616943359375,-0.0875701904296875,-0.76409912109375,-0.486175537109375
1774472316151183000,5.02618310546875,-0.09417724609375,-0.7631378173828125,-0.501312255859375
1774472316161196300,5.0361962890625,-0.1179351806640625,-0.7591552734375,-0.541290283203125
1774472316171209200,5.046209228515625,-0.1473846435546875,-0.7389068603515625,-0.629180908203125
1774472316181223200,5.05622314453125,-0.193695068359375,-0.7365875244140625,-0.7110443115234375
1774472316191236400,5.066236328125,-0.253631591796875,-0.751617431640625,-0.7604827880859375
1774472316201249000,5.0762490234375,-0.314208984375,-0.768096923828125,-0.7629852294921875
1774472316211263200,5.08626318359375,-0.344573974609375,-0.775909423828125,-0.753936767578125
1774472316221276200,5.096276123046875,-0.3409423828125,-0.77484130859375,-0.771636962890625
1774472316231289000,5.1062890625,-0.3054962158203125,-0.7750244140625,-0.795379638671875
1774472316241303300,5.11630322265625,-0.252105712890625,-0.779296875,-0.794342041015625
1774472316251316200,5.126316162109375,-0.2256317138671875,-0.785369873046875,-0.7307586669921875
1774472316261329200,5.1363291015625,-0.225433349609375,-0.7877349853515625,-0.6708984375
1774472316271343000,5.146343017578125,-0.1859130859375,-0.780487060546875,-0.6505126953125
1774472316281356300,5.156356201171875,-0.1379241943359375,-0.7604217529296875,-0.6587677001953125
1774472316291369200,5.166369140625,-0.1585540771484375,-0.78009033203125,-0.6364288330078125
1774472316301383200,5.176383056640625,-0.183013916015625,-0.8003997802734375,-0.6031341552734375
1774472316311396000,5.18639599609375,-0.252410888671875,-0.8442230224609375,-0.58477783203125
1774472316321409300,5.1964091796875,-0.30194091796875,-0.8522491455078125,-0.622894287109375
1774472316331423200,5.20642333984375,-0.311187744140625,-0.8318328857421875,-0.7081298828125
1774472316341436200,5.216436279296875,-0.31298828125,-0.8198394775390625,-0.778472900390625
1774472316351449300,5.226449462890625,-0.3061981201171875,-0.8242950439453125,-0.8099517822265625
1774472316361463300,5.23646337890625,-0.32135009765625,-0.86175537109375,-0.803955078125
1774472316371476200,5.246476318359375,-0.356658935546875,-0.8836517333984375,-0.7696685791015625
1774472316381489200,5.2564892578125,-0.3905029296875,-0.8330230712890625,-0.739959716796875
1774472316391503400,5.26650341796875,-0.435150146484375,-0.775909423828125,-0.7169036865234375
1774472316401516300,5.276516357421875,-0.4864501953125,-0.783447265625,-0.6752471923828125
1774472316411529200,5.286529296875,-0.4071197509765625,-0.7687530517578125,-0.6450347900390625
1774472316421543200,5.296543212890625,-0.2890472412109375,-0.7564239501953125,-0.657379150390625
1774472316431556400,5.306556396484375,-0.20098876953125,-0.759429931640625,-0.6814727783203125
1774472316441569300,5.3165693359375,-0.1390533447265625,-0.7684326171875,-0.6985626220703125
1774472316451583200,5.326583251953125,-0.07745361328125,-0.7914886474609375,-0.709930419921875
1774472316461596200,5.33659619140625,-0.0461578369140625,-0.826904296875,-0.7252349853515625
1774472316471609300,5.346609375,-0.0677032470703125,-0.816497802734375,-0.733428955078125
1774472316481623300,5.356623291015625,-0.114837646484375,-0.7867431640625,-0.6850433349609375
1774472316491636200,5.36663623046875,-0.133148193359375,-0.7762451171875,-0.595977783203125
1774472316501649200,5.376649169921875,-0.1266632080078125,-0.7776641845703125,-0.506927490234375
1774472316511663000,5.3866630859375,-0.0769805908203125,-0.775726318359375,-0.483673095703125
1774472316521676300,5.39667626953125,-0.0692291259765625,-0.8248443603515625,-0.4975128173828125
1774472316531689200,5.406689208984375,-0.1397247314453125,-0.8594970703125,-0.511932373046875
1774472316541703200,5.416703125,-0.24285888671875,-0.8421630859375,-0.5548095703125
1774472316551716400,5.42671630859375,-0.304656982421875,-0.8102874755859375,-0.61505126953125
1774472316561729300,5.436729248046875,-0.308685302734375,-0.813812255859375,-0.6173553466796875
1774472316571743200,5.4467431640625,-0.226715087890625,-0.8549652099609375,-0.5229339599609375
1774472316581756400,5.45675634765625,-0.0764312744140625,-0.8190460205078125,-0.4767608642578125
1774472316591769300,5.466769287109375,0.02508544921875,-0.782440185546875,-0.4383087158203125
1774472316601783300,5.476783203125,0.122711181640625,-0.79156494140625,-0.3970947265625
1774472316611796200,5.486796142578125,0.25360107421875,-0.794525146484375,-0.351654052734375
1774472316621809200,5.49680908203125,0.150970458984375,-0.872772216796875,-0.2891387939453125
1774472316631823400,5.5068232421875,0.0457305908203125,-0.8742828369140625,-0.297515869140625
1774472316641836300,5.516836181640625,-0.0480499267578125,-0.850311279296875,-0.39349365234375
1774472316651849200,5.52684912109375,-0.06353759765625,-0.885772705078125,-0.373016357421875
1774472316661863400,5.536863525390625,0.0680999755859375,-0.7982025146484375,-0.2740936279296875
1774472316671876000,5.5468759765625,0.1217041015625,-0.700897216796875,-0.4314422607421875
1774472316681889300,5.55688916015625,0.07818603515625,-0.808441162109375,-0.606658935546875
1774472316691903200,5.5669033203125,0.0433197021484375,-0.8310394287109375,-0.7147369384765625
1774472316701916200,5.576916259765625,-0.10479736328125,-0.9261322021484375,-0.641998291015625
1774472316711929300,5.586929443359375,-0.257781982421875,-0.9380035400390625,-0.4553680419921875
1774472316721943000,5.596943115234375,0.0432891845703125,-0.81298828125,-0.260467529296875
1774472316731956200,5.606956298828125,0.388641357421875,-0.689483642578125,-0.1708526611328125
1774472316741969400,5.616969482421875,0.307830810546875,-0.81695556640625,-0.2912139892578125
1774472316751983000,5.626983154296875,0.12884521484375,-0.9069976806640625,-0.388458251953125
1774472316761996300,5.636996337890625,0.010955810546875,-0.8357391357421875,-0.471435546875
1774472316772009000,5.647009033203125,-0.1330108642578125,-0.7844085693359375,-0.54461669921875
1774472316782023000,5.65702294921875,-0.249664306640625,-0.788604736328125,-0.6275634765625
1774472316792035800,5.667035888671875,-0.3492431640625,-0.80511474609375,-0.720947265625
1774472316802049000,5.677049072265625,-0.4140625,-0.8794097900390625,-0.77117919921875
1774472316812063000,5.68706298828125,-0.465301513671875,-0.917205810546875,-0.7859954833984375
1774472316822076000,5.697075927734375,-0.4877471923828125,-0.8733978271484375,-0.8001251220703125
1774472316832088800,5.7070888671875,-0.420440673828125,-0.8901519775390625,-0.74078369140625
1774472316842102800,5.717102783203125,-0.23773193359375,-0.8728179931640625,-0.64007568359375
1774472316852116000,5.727115966796875,-0.087310791015625,-0.831878662109375,-0.550140380859375
1774472316862129000,5.73712890625,-0.0294189453125,-0.837615966796875,-0.5278167724609375
1774472316872142800,5.747142822265625,-0.11846923828125,-0.861175537109375,-0.5586700439453125
1774472316882155800,5.75715576171875,-0.219512939453125,-0.8468780517578125,-0.58538818359375
1774472316892168700,5.767168701171875,-0.240325927734375,-0.844818115234375,-0.5829925537109375
1774472316902182000,5.777181884765625,-0.1976776123046875,-0.8429412841796875,-0.5327911376953125
1774472316912195800,5.78719580078125,-0.1709136962890625,-0.8138275146484375,-0.4831695556640625
1774472316922208800,5.797208740234375,-0.15673828125,-0.802581787109375,-0.485076904296875
1774472316932222000,5.807221923828125,-0.178009033203125,-0.811309814453125,-0.5295562744140625
1774472316942236000,5.81723583984375,-0.191375732421875,-0.8032073974609375,-0.5561981201171875
1774472316952248800,5.827248779296875,-0.200897216796875,-0.792266845703125,-0.570556640625
1774472316962262000,5.837261962890625,-0.220489501953125,-0.7932281494140625,-0.5767364501953125
1774472316972276000,5.84727587890625,-0.2062225341796875,-0.7961883544921875,-0.570037841796875
1774472316982289000,5.857288818359375,-0.0904541015625,-0.7945098876953125,-0.5149383544921875
1774472316992301800,5.8673017578125,0.060943603515625,-0.7803955078125,-0.422607421875
1774472317002315800,5.877315673828125,-0.1283111572265625,-0.8538665771484375,-0.4887542724609375
1774472317012329000,5.887328857421875,-0.21234130859375,-0.8396453857421875,-0.555267333984375
1774472317022342000,5.897341796875,-0.009033203125,-0.70501708984375,-0.444244384765625
1774472317032355800,5.90735595703125,0.090362548828125,-0.734405517578125,-0.4477691650390625
1774472317042368800,5.91736865234375,-0.0709686279296875,-0.83880615234375,-0.51812744140625
1774472317052381700,5.927381591796875,0.1099853515625,-0.7855072021484375,-0.4564666748046875
1774472317062396000,5.93739599609375,0.06622314453125,-0.8359222412109375,-0.4759979248046875
1774472317072408800,5.947408935546875,-0.1221923828125,-0.8642425537109375,-0.586151123046875
1774472317082421800,5.957421875,-0.0628509521484375,-0.8044891357421875,-0.6016845703125
1774472317092435700,5.967435791015625,-0.048431396484375,-0.808929443359375,-0.629791259765625
1774472317102449000,5.977448974609375,-0.0623779296875,-0.8341217041015625,-0.6456451416015625
1774472317112461800,5.9874619140625,-0.074005126953125,-0.8455810546875,-0.6283721923828125
1774472317122475800,5.997475830078125,-0.081268310546875,-0.8457489013671875,-0.5902252197265625
1774472317132489000,6.007489013671875,-0.080047607421875,-0.8502044677734375,-0.5516510009765625
1774472317142502000,6.017501953125,-0.0656890869140625,-0.8555145263671875,-0.5030670166015625
1774472317152515800,6.027515869140625,-0.0617828369140625,-0.8595123291015625,-0.4778594970703125
1774472317162528800,6.03752880859375,-0.0870208740234375,-0.86248779296875,-0.4875640869140625
1774472317172542000,6.0475419921875,-0.1151123046875,-0.8529510498046875,-0.50372314453125
1774472317182556000,6.057555908203125,-0.1403961181640625,-0.8456268310546875,-0.51898193359375
1774472317192568800,6.06756884765625,-0.136627197265625,-0.8406524658203125,-0.533294677734375
1774472317202581800,6.077581787109375,-0.1124725341796875,-0.8470611572265625,-0.549407958984375
1774472317212594700,6.0875947265625,-0.0948333740234375,-0.8613433837890625,-0.5599517822265625
1774472317222609000,6.09760888671875,-0.0897216796875,-0.8642730712890625,-0.5601654052734375
1774472317232621800,6.107621826171875,-0.083984375,-0.8508758544921875,-0.553009033203125
1774472317242634800,6.117634765625,-0.0743865966796875,-0.832550048828125,-0.5435791015625
1774472317252648700,6.127648681640625,-0.0599365234375,-0.8240509033203125,-0.53155517578125
1774472317262662000,6.137661865234375,-0.047760009765625,-0.823333740234375,-0.523040771484375
1774472317272674800,6.1476748046875,-0.036163330078125,-0.8277435302734375,-0.520599365234375
1774472317282688800,6.157688720703125,-0.0167083740234375,-0.826934814453125,-0.51806640625
1774472317292702000,6.167701904296875,0.0023040771484375,-0.82373046875,-0.5163726806640625
1774472317302715000,6.17771484375,0.0173187255859375,-0.82208251953125,-0.5195159912109375
1774472317312728800,6.187728759765625,0.02490234375,-0.825714111328125,-0.54168701171875
1774472317322741800,6.19774169921875,0.021392822265625,-0.8282623291015625,-0.5795440673828125
1774472317332755000,6.2077548828125,0.0057830810546875,-0.820068359375,-0.6200408935546875
1774472317342769000,6.217768798828125,-0.0192718505859375,-0.8071136474609375,-0.6497955322265625
1774472317352781800,6.22778173828125,-0.046783447265625,-0.789886474609375,-0.6568145751953125
1774472317362794800,6.237794677734375,-0.062530517578125,-0.7840423583984375,-0.6531982421875
1774472317372809000,6.24780908203125,-0.07135009765625,-0.787689208984375,-0.645782470703125
1774472317382822000,6.25782177734375,-0.0714111328125,-0.7873077392578125,-0.62860107421875
1774472317392834800,6.267834716796875,-0.0724334716796875,-0.7892303466796875,-0.61444091796875
1774472317402849000,6.27784912109375,-0.0728607177734375,-0.7920989990234375,-0.602081298828125
1774472317412862000,6.287862060546875,-0.0806884765625,-0.7985382080078125,-0.59088134765625
1774472317422875000,6.297875,-0.0873260498046875,-0.8024444580078125,-0.5779266357421875
1774472317432887800,6.3078876953125,-0.09246826171875,-0.806121826171875,-0.5731353759765625
1774472317442901800,6.31790185546875,-0.0990142822265625,-0.813018798828125,-0.576202392578125
1774472317452915000,6.3279150390625,-0.1116485595703125,-0.8199615478515625,-0.584136962890625
1774472317462928000,6.337927978515625,-0.126251220703125,-0.8253021240234375,-0.5850982666015625
1774472317472941800,6.34794189453125,-0.1402587890625,-0.826080322265625,-0.5813751220703125
1774472317482955000,6.357955078125,-0.1492919921875,-0.82794189453125,-0.5769195556640625
1774472317492968000,6.367968017578125,-0.1522674560546875,-0.830291748046875,-0.574676513671875
1774472317502982000,6.37798193359375,-0.1414947509765625,-0.827362060546875,-0.5672760009765625
1774472317512994800,6.387994873046875,-0.127716064453125,-0.8256988525390625,-0.5568084716796875
1774472317523007700,6.3980078125,-0.1222381591796875,-0.8263397216796875,-0.546234130859375
1774472317533022000,6.40802197265625,-0.12115478515625,-0.829498291015625,-0.5370941162109375
1774472317543035000,6.418034912109375,-0.117706298828125,-0.8267059326171875,-0.5332794189453125
1774472317553047800,6.4280478515625,-0.1146087646484375,-0.82330322265625,-0.5357513427734375
1774472317563062000,6.43806201171875,-0.1121063232421875,-0.821868896484375,-0.5428314208984375
1774472317573075000,6.448074951171875,-0.1122283935546875,-0.8242950439453125,-0.5557708740234375
1774472317583087900,6.458087890625,-0.1148834228515625,-0.8245697021484375,-0.5682220458984375
1774472317593102000,6.46810205078125,-0.121734619140625,-0.823272705078125,-0.5767974853515625
1774472317603114800,6.47811474609375,-0.1252899169921875,-0.8208770751953125,-0.579742431640625
1774472317613128000,6.4881279296875,-0.1173095703125,-0.8158416748046875,-0.578857421875
1774472317623142000,6.498141845703125,-0.1087188720703125,-0.8170928955078125,-0.5755767822265625
1774472317633154800,6.50815478515625,-0.10394287109375,-0.824188232421875,-0.5804290771484375
1774472317643168000,6.51816796875,-0.1037750244140625,-0.8283843994140625,-0.587860107421875
1774472317653181000,6.528180908203125,-0.1042633056640625,-0.8235015869140625,-0.5950927734375
1774472317663195000,6.53819482421875,-0.105865478515625,-0.816314697265625,-0.6029052734375
1774472317673207800,6.548207763671875,-0.1013336181640625,-0.814849853515625,-0.6064300537109375
1774472317683220700,6.558220703125,-0.1032257080078125,-0.820465087890625,-0.604583740234375
1774472317693235000,6.56823486328125,-0.1171875,-0.8294525146484375,-0.5984039306640625
1774472317703248000,6.578247802734375,-0.13800048828125,-0.8311004638671875,-0.59100341796875
1774472317713260800,6.5882607421875,-0.151519775390625,-0.8246002197265625,-0.5823211669921875
1774472317723275000,6.59827490234375,-0.1541290283203125,-0.81964111328125,-0.577545166015625
1774472317733288000,6.608287841796875,-0.1410980224609375,-0.8162384033203125,-0.579315185546875
1774472317743300900,6.61830078125,-0.1218719482421875,-0.8166961669921875,-0.5821075439453125
1774472317753315000,6.628315185546875,-0.1104888916015625,-0.8194122314453125,-0.590789794921875
1774472317763327700,6.63832763671875,-0.1063385009765625,-0.82232666015625,-0.5985870361328125
1774472317773341000,6.6483408203125,-0.1109466552734375,-0.8247528076171875,-0.60833740234375
1774472317783355000,6.65835498046875,-0.125,-0.82354736328125,-0.6112823486328125
1774472317793367800,6.668367919921875,-0.133819580078125,-0.8132476806640625,-0.6065216064453125
1774472317803381000,6.678381103515625,-0.1367034912109375,-0.806549072265625,-0.594512939453125
1774472317813394700,6.688394775390625,-0.1375732421875,-0.806304931640625,-0.5823974609375
1774472317823407900,6.698407958984375,-0.1332244873046875,-0.8046875,-0.56890869140625
1774472317833420800,6.7084208984375,-0.1238861083984375,-0.802642822265625,-0.56097412109375
1774472317843434000,6.71843408203125,-0.1131134033203125,-0.8014068603515625,-0.5585479736328125
1774472317853448000,6.728447998046875,-0.1047821044921875,-0.80059814453125,-0.5594482421875
1774472317863460900,6.7384609375,-0.09674072265625,-0.8003082275390625,-0.5571441650390625
1774472317873473800,6.748473876953125,-0.090179443359375,-0.79913330078125,-0.5496673583984375
1774472317883488000,6.758488037109375,-0.0864715576171875,-0.7941741943359375,-0.54058837890625
1774472317893501000,6.7685009765625,-0.08526611328125,-0.793792724609375,-0.5380859375
1774472317903513900,6.778513916015625,-0.084686279296875,-0.7968597412109375,-0.5503997802734375
1774472317913528000,6.788528076171875,-0.099945068359375,-0.8030853271484375,-0.576416015625
1774472317923540700,6.798540771484375,-0.1061248779296875,-0.7977142333984375,-0.5947265625
1774472317933554000,6.808553955078125,-0.1100311279296875,-0.790008544921875,-0.5986785888671875
1774472317943568000,6.81856787109375,-0.1205596923828125,-0.7914886474609375,-0.599639892578125
1774472317953580800,6.828580810546875,-0.12554931640625,-0.799224853515625,-0.5995941162109375
1774472317963594000,6.838593994140625,-0.1305694580078125,-0.80487060546875,-0.59869384765625
1774472317973607700,6.848607666015625,-0.135406494140625,-0.804901123046875,-0.591949462890625
1774472317983620900,6.858620849609375,-0.1397247314453125,-0.805389404296875,-0.5867767333984375
1774472317993633800,6.8686337890625,-0.1468505859375,-0.8045654296875,-0.58538818359375
1774472318003647700,6.878647705078125,-0.1594390869140625,-0.8036956787109375,-0.5910186767578125
1774472318013661000,6.888660888671875,-0.168548583984375,-0.799102783203125,-0.592742919921875
1774472318023673900,6.898673828125,-0.1756134033203125,-0.7982635498046875,-0.5877838134765625
1774472318033686800,6.908686767578125,-0.1811981201171875,-0.8015899658203125,-0.5811309814453125
1774472318043701000,6.918700927734375,-0.18792724609375,-0.8045501708984375,-0.5742034912109375
1774472318053714000,6.9287138671875,-0.192108154296875,-0.805145263671875,-0.5730743408203125
1774472318063726800,6.938726806640625,-0.19122314453125,-0.801605224609375,-0.57049560546875
1774472318073741000,6.948740966796875,-0.1856231689453125,-0.7950897216796875,-0.573028564453125
1774472318083753700,6.958753662109375,-0.1745452880859375,-0.7921600341796875,-0.58648681640625
1774472318093767000,6.968766845703125,-0.1642608642578125,-0.7876739501953125,-0.5967254638671875
1774472318103780900,6.97878076171875,-0.156219482421875,-0.7804412841796875,-0.5961456298828125
1774472318113793800,6.988793701171875,-0.149383544921875,-0.781707763671875,-0.5866546630859375
1774472318123807000,6.998806884765625,-0.1446685791015625,-0.7860870361328125,-0.572357177734375
1774472318133820700,7.008820556640625,-0.1434326171875,-0.795501708984375,-0.5597381591796875
1774472318143833900,7.018833740234375,-0.14129638671875,-0.7964324951171875,-0.5474090576171875
1774472318153847000,7.028846923828125,-0.13909912109375,-0.793212890625,-0.538421630859375
1774472318163860700,7.03886083984375,-0.1364593505859375,-0.795074462890625,-0.536529541015625
1774472318173874000,7.0488740234375,-0.1390838623046875,-0.808197021484375,-0.545166015625
1774472318183886800,7.058886962890625,-0.150421142578125,-0.8155975341796875,-0.5608062744140625
1774472318193899800,7.068899658203125,-0.1653900146484375,-0.8122100830078125,-0.5760345458984375
1774472318203914000,7.0789140625,-0.1745758056640625,-0.8059539794921875,-0.5853271484375
1774472318213927000,7.088927001953125,-0.1776275634765625,-0.806304931640625,-0.594207763671875
1774472318223939800,7.09893994140625,-0.18408203125,-0.813873291015625,-0.6036224365234375
1774472318233954000,7.1089541015625,-0.1926422119140625,-0.81591796875,-0.605621337890625
1774472318243966700,7.118966796875,-0.2035369873046875,-0.81011962890625,-0.6030120849609375
1774472318253980000,7.12897998046875,-0.213623046875,-0.809478759765625,-0.604949951171875
1774472318263993900,7.138993896484375,-0.210418701171875,-0.8125152587890625,-0.6138916015625
1774472318274006800,7.1490068359375,-0.1984710693359375,-0.8079986572265625,-0.6173858642578125
1774472318284020000,7.15902001953125,-0.181976318359375,-0.8022003173828125,-0.609771728515625
1774472318294033700,7.16903369140625,-0.1740264892578125,-0.8039093017578125,-0.602996826171875
1774472318304046800,7.179046875,-0.17218017578125,-0.81109619140625,-0.6029510498046875
1774472318314060000,7.18906005859375,-0.1714935302734375,-0.8128662109375,-0.607757568359375
1774472318324073700,7.19907373046875,-0.167510986328125,-0.8040313720703125,-0.606689453125
1774472318334087000,7.2090869140625,-0.1653289794921875,-0.791534423828125,-0.598846435546875
1774472318344099800,7.219099853515625,-0.1571502685546875,-0.7822723388671875,-0.58514404296875
1774472318354112800,7.22911279296875,-0.1455535888671875,-0.7791748046875,-0.5665130615234375
1774472318364127000,7.239126953125,-0.1374359130859375,-0.786773681640625,-0.55645751953125
1774472318374140000,7.249139892578125,-0.1392059326171875,-0.7947998046875,-0.550689697265625
1774472318384152800,7.25915283203125,-0.1421966552734375,-0.7955169677734375,-0.550048828125
1774472318394167000,7.2691669921875,-0.1455535888671875,-0.7913818359375,-0.5581512451171875
1774472318404179700,7.2791796875,-0.142608642578125,-0.78826904296875,-0.5670928955078125
1774472318414193000,7.28919287109375,-0.1412200927734375,-0.7894744873046875,-0.574127197265625
1774472318424206800,7.299206787109375,-0.144744873046875,-0.7933502197265625,-0.5778656005859375
1774472318434219800,7.3092197265625,-0.1500396728515625,-0.7989044189453125,-0.5852508544921875
1774472318444233000,7.31923291015625,-0.1587371826171875,-0.801483154296875,-0.590667724609375
1774472318454246700,7.32924658203125,-0.16656494140625,-0.79888916015625,-0.5952911376953125
1774472318464259800,7.339259765625,-0.164581298828125,-0.7919158935546875,-0.591552734375
1774472318474273000,7.34927294921875,-0.15313720703125,-0.79205322265625,-0.5800018310546875
1774472318484286000,7.359285888671875,-0.1443023681640625,-0.7982177734375,-0.5682220458984375
1774472318494300000,7.3692998046875,-0.136749267578125,-0.8090667724609375,-0.5565948486328125
1774472318504312800,7.379312744140625,-0.1372222900390625,-0.8161773681640625,-0.5558319091796875
1774472318514325800,7.38932568359375,-0.1454620361328125,-0.815216064453125,-0.5641326904296875
1774472318524340000,7.399340087890625,-0.1527099609375,-0.8094482421875,-0.5784149169921875
1774472318534353000,7.409352783203125,-0.1470947265625,-0.802093505859375,-0.58819580078125
1774472318544365800,7.41936572265625,-0.141021728515625,-0.8058319091796875,-0.5908660888671875
1774472318554380000,7.429380126953125,-0.1422271728515625,-0.8169403076171875,-0.5935211181640625
1774472318564392700,7.439392822265625,-0.1503143310546875,-0.822052001953125,-0.5913543701171875
1774472318574406000,7.449406005859375,-0.158203125,-0.8177490234375,-0.5818023681640625
1774472318584419800,7.459419921875,-0.1615447998046875,-0.815643310546875,-0.5760650634765625
1774472318594432800,7.469432861328125,-0.156768798828125,-0.819091796875,-0.5849609375
1774472318604446000,7.479446044921875,-0.141815185546875,-0.8176422119140625,-0.5970306396484375
1774472318614459600,7.489459716796875,-0.1325531005859375,-0.81793212890625,-0.6009674072265625
1774472318624472800,7.499472900390625,-0.1293487548828125,-0.8151092529296875,-0.593475341796875
1774472318634486000,7.509486083984375,-0.1248626708984375,-0.8115234375,-0.58087158203125
1774472318644499000,7.5194990234375,-0.1215057373046875,-0.8189544677734375,-0.575439453125
1774472318654513000,7.529512939453125,-0.1287994384765625,-0.8231048583984375,-0.580169677734375
1774472318664525800,7.53952587890625,-0.130584716796875,-0.8112335205078125,-0.5889434814453125
1774472318674538800,7.549538818359375,-0.1226043701171875,-0.7949066162109375,-0.591278076171875
1774472318684553000,7.559552978515625,-0.113800048828125,-0.7979736328125,-0.58721923828125
1774472318694566000,7.56956591796875,-0.11614990234375,-0.8132781982421875,-0.590118408203125
1774472318704578800,7.579578857421875,-0.12066650390625,-0.815277099609375,-0.59368896484375
1774472318714593000,7.589593017578125,-0.132354736328125,-0.8058929443359375,-0.595428466796875
1774472318724605700,7.599605712890625,-0.1412506103515625,-0.797760009765625,-0.5921630859375
1774472318734619000,7.609618896484375,-0.1448516845703125,-0.7953338623046875,-0.589324951171875
1774472318744632800,7.6196328125,-0.1429595947265625,-0.793701171875,-0.580322265625
1774472318754645800,7.629645751953125,-0.1444549560546875,-0.795501708984375,-0.57464599609375
1774472318764659000,7.639658935546875,-0.1496124267578125,-0.7947540283203125,-0.5697479248046875
1774472318774672100,7.649672119140625,-0.1566162109375,-0.795013427734375,-0.569915771484375
1774472318784686000,7.65968603515625,-0.1676177978515625,-0.7948760986328125,-0.572296142578125
1774472318794699300,7.66969921875,-0.1761322021484375,-0.7981109619140625,-0.5733184814453125
1774472318804712000,7.6797119140625,-0.179779052734375,-0.7979736328125,-0.5665740966796875
1774472318814726100,7.68972607421875,-0.1791534423828125,-0.799652099609375,-0.560882568359375
1774472318824739300,7.6997392578125,-0.1723480224609375,-0.8035430908203125,-0.5627899169921875
1774472318834752000,7.709751953125,-0.1640777587890625,-0.8051300048828125,-0.5677490234375
1774472318844766200,7.71976611328125,-0.16326904296875,-0.805816650390625,-0.571197509765625
1774472318854779000,7.72977880859375,-0.166717529296875,-0.8056488037109375,-0.574859619140625
1774472318864792000,7.7397919921875,-0.166748046875,-0.80364990234375,-0.579925537109375
1774472318874806300,7.74980615234375,-0.159637451171875,-0.798004150390625,-0.5872802734375
1774472318884819000,7.75981884765625,-0.1541900634765625,-0.7977142333984375,-0.5899658203125
1774472318894832000,7.76983203125,-0.150390625,-0.807403564453125,-0.5923614501953125
1774472318904845000,7.779844970703125,-0.1469573974609375,-0.8083648681640625,-0.59613037109375
1774472318914859000,7.78985888671875,-0.1408233642578125,-0.8000335693359375,-0.5930938720703125
1774472318924872200,7.7998720703125,-0.1346893310546875,-0.798248291015625,-0.58587646484375
1774472318934885000,7.809885009765625,-0.1311492919921875,-0.8042144775390625,-0.5788421630859375
1774472318944899000,7.819899169921875,-0.1331787109375,-0.81134033203125,-0.5737457275390625
1774472318954912300,7.829912353515625,-0.13726806640625,-0.812408447265625,-0.569549560546875
1774472318964925000,7.839925048828125,-0.1404876708984375,-0.8092041015625,-0.5683441162109375
1774472318974939100,7.849939208984375,-0.14617919921875,-0.8108062744140625,-0.5721435546875
1774472318984952300,7.859952392578125,-0.15106201171875,-0.811737060546875,-0.5797271728515625
1774472318994965000,7.869965087890625,-0.1583404541015625,-0.810791015625,-0.58746337890625
1774472319004979200,7.879979248046875,-0.162078857421875,-0.8035888671875,-0.592315673828125
1774472319014992000,7.889991943359375,-0.1641387939453125,-0.8015594482421875,-0.5938262939453125
1774472319025005000,7.900005126953125,-0.1616363525390625,-0.8017120361328125,-0.5944366455078125
1774472319035018200,7.910018310546875,-0.1602630615234375,-0.8040618896484375,-0.5918121337890625
1774472319045032000,7.920031982421875,-0.160980224609375,-0.805572509765625,-0.58673095703125
1774472319055045000,7.930045166015625,-0.1587677001953125,-0.806671142578125,-0.5786895751953125
1774472319065058000,7.94005810546875,-0.153564453125,-0.8061981201171875,-0.5731201171875
1774472319075072000,7.950072021484375,-0.150390625,-0.8062896728515625,-0.5682830810546875
1774472319085085200,7.960085205078125,-0.1527862548828125,-0.80810546875,-0.5662689208984375
1774472319095098000,7.97009814453125,-0.1534881591796875,-0.806243896484375,-0.5673980712890625
1774472319105112000,7.980112060546875,-0.1532745361328125,-0.8041839599609375,-0.5742340087890625
1774472319115125200,7.990125244140625,-0.157470703125,-0.80560302734375,-0.5829925537109375
1774472319125138000,8.000137939453126,-0.1615753173828125,-0.8025665283203125,-0.588134765625
1774472319135152000,8.010152099609375,-0.1612091064453125,-0.7990875244140625,-0.58953857421875
1774472319145165300,8.020165283203125,-0.1565399169921875,-0.79486083984375,-0.588775634765625
1774472319155178000,8.030177978515624,-0.1500091552734375,-0.7972869873046875,-0.5909576416015625
1774472319165191200,8.040191162109375,-0.1628265380859375,-0.804412841796875,-0.5994720458984375
1774472319175205000,8.050205078125,-0.156707763671875,-0.800201416015625,-0.59344482421875
1774472319185218000,8.060218017578125,-0.152313232421875,-0.7954559326171875,-0.5847320556640625
1774472319195231200,8.070231201171875,-0.1434783935546875,-0.7960205078125,-0.5723419189453125
1774472319205245000,8.080244873046874,-0.13897705078125,-0.7985076904296875,-0.5648956298828125
1774472319215258000,8.090258056640625,-0.1384429931640625,-0.8048858642578125,-0.564178466796875
1774472319225271300,8.100271240234376,-0.14361572265625,-0.805389404296875,-0.56561279296875
1774472319235285000,8.110284912109375,-0.1502227783203125,-0.805328369140625,-0.5694580078125
1774472319245298200,8.120298095703125,-0.150543212890625,-0.8044281005859375,-0.570648193359375
1774472319255311000,8.13031103515625,-0.1442718505859375,-0.800323486328125,-0.56732177734375
1774472319265325000,8.140324951171875,-0.136932373046875,-0.8025054931640625,-0.5658416748046875
1774472319275338200,8.150338134765626,-0.137237548828125,-0.8104248046875,-0.567840576171875
1774472319285351000,8.160350830078125,-0.140899658203125,-0.8104095458984375,-0.5729827880859375
1774472319295364000,8.170364013671875,-0.1460723876953125,-0.8081207275390625,-0.577880859375
1774472319305378300,8.18037841796875,-0.14471435546875,-0.8031463623046875,-0.58099365234375
1774472319315391000,8.190390869140625,-0.14105224609375,-0.8018035888671875,-0.583526611328125
1774472319325404200,8.200404052734376,-0.1384735107421875,-0.8023529052734375,-0.5810699462890625
1774472319335418000,8.210418212890625,-0.139007568359375,-0.80401611328125,-0.579498291015625
1774472319345431000,8.22043115234375,-0.13800048828125,-0.8053436279296875,-0.5801239013671875
1774472319355444200,8.2304443359375,-0.13916015625,-0.8091278076171875,-0.5855560302734375
1774472319365458000,8.2404580078125,-0.1390380859375,-0.8096466064453125,-0.5926971435546875
1774472319375471000,8.25047119140625,-0.13665771484375,-0.8071136474609375,-0.5980377197265625
1774472319385484300,8.260484375,-0.13409423828125,-0.8059234619140625,-0.6011505126953125
1774472319395498000,8.270498046875,-0.13128662109375,-0.8051300048828125,-0.606353759765625
1774472319405511200,8.28051123046875,-0.1316680908203125,-0.7966461181640625,-0.6060791015625
1774472319415524000,8.290524169921875,-0.13623046875,-0.7965850830078125,-0.602203369140625
1774472319425537000,8.300537109375,-0.1425933837890625,-0.7995758056640625,-0.5972137451171875
1774472319435551200,8.31055126953125,-0.1469879150390625,-0.801788330078125,-0.59161376953125
1774472319445564000,8.32056396484375,-0.1423187255859375,-0.8004913330078125,-0.584625244140625
1774472319455577000,8.3305771484375,-0.1367645263671875,-0.7996063232421875,-0.58038330078125
1774472319465591300,8.34059130859375,-0.1346435546875,-0.8025360107421875,-0.5821533203125
1774472319475604000,8.35060400390625,-0.1301422119140625,-0.8026885986328125,-0.584625244140625
1774472319485617200,8.3606171875,-0.128326416015625,-0.8023529052734375,-0.5831146240234375
1774472319495631000,8.370631103515626,-0.1311798095703125,-0.8076171875,-0.5799713134765625
1774472319505644000,8.38064404296875,-0.134857177734375,-0.809234619140625,-0.5804290771484375
1774472319515657200,8.3906572265625,-0.1403656005859375,-0.806060791015625,-0.5767974853515625
1774472319525670100,8.400670166015624,-0.1443939208984375,-0.803741455078125,-0.5760650634765625
1774472319535684000,8.41068408203125,-0.1505279541015625,-0.804168701171875,-0.57843017578125
1774472319545697300,8.420697265625,-0.15386962890625,-0.804718017578125,-0.5826568603515625
1774472319555710000,8.4307099609375,-0.157745361328125,-0.8044586181640625,-0.5914154052734375
1774472319565724200,8.44072412109375,-0.161590576171875,-0.7994232177734375,-0.5987396240234375
1774472319575737000,8.450737060546874,-0.1641998291015625,-0.794464111328125,-0.598968505859375
1774472319585750000,8.46075,-0.1673126220703125,-0.7916259765625,-0.59619140625
1774472319595764200,8.47076416015625,-0.1634674072265625,-0.7936248779296875,-0.5922088623046875
1774472319605777200,8.480777099609375,-0.157623291015625,-0.7975921630859375,-0.5853424072265625
1774472319615790000,8.4907900390625,-0.1468505859375,-0.798919677734375,-0.583221435546875
1774472319625804300,8.50080419921875,-0.1406707763671875,-0.799957275390625,-0.5875701904296875
1774472319635817000,8.51081689453125,-0.137359619140625,-0.796600341796875,-0.5991668701171875
1774472319645830100,8.520830078125,-0.1381683349609375,-0.792083740234375,-0.60772705078125
1774472319655843000,8.530843017578125,-0.142059326171875,-0.789276123046875,-0.6115264892578125
1774472319665857000,8.54085693359375,-0.141357421875,-0.7875213623046875,-0.609954833984375
1774472319675870200,8.5508701171875,-0.142608642578125,-0.78985595703125,-0.6036834716796875
1774472319685883100,8.560883056640625,-0.1463623046875,-0.79522705078125,-0.59735107421875
1774472319695897000,8.57089697265625,-0.1489715576171875,-0.800933837890625,-0.589599609375
1774472319705910300,8.58091015625,-0.1556396484375,-0.8019866943359375,-0.5819854736328125
1774472319715923000,8.5909228515625,-0.15875244140625,-0.80072021484375,-0.575897216796875
1774472319725937200,8.600937255859375,-0.160003662109375,-0.8016815185546875,-0.572601318359375
1774472319735950000,8.6109501953125,-0.1567535400390625,-0.8036956787109375,-0.5723876953125
1774472319745963000,8.620962890625,-0.1537933349609375,-0.8014678955078125,-0.569366455078125
1774472319755977200,8.630977294921875,-0.1522369384765625,-0.7997894287109375,-0.563507080078125
1774472319765990100,8.640990234375,-0.1499176025390625,-0.8011932373046875,-0.5655975341796875
1774472319776003000,8.651003173828125,-0.1528472900390625,-0.80413818359375,-0.57635498046875
1774472319786016300,8.661016357421875,-0.157501220703125,-0.8011474609375,-0.589752197265625
1774472319796030200,8.6710302734375,-0.16546630859375,-0.801116943359375,-0.6040191650390625
1774472319806043100,8.681043212890625,-0.1727142333984375,-0.8000640869140625,-0.6125335693359375
1774472319816056300,8.691056396484376,-0.17730712890625,-0.7982635498046875,-0.6112060546875
1774472319826070300,8.7010703125,-0.1743621826171875,-0.7965850830078125,-0.6001129150390625
1774472319836083200,8.711083251953125,-0.1695098876953125,-0.7945556640625,-0.5887908935546875
1774472319846096400,8.721096435546874,-0.16241455078125,-0.7952423095703125,-0.584869384765625
1774472319856110300,8.7311103515625,-0.1611175537109375,-0.796295166015625,-0.5845947265625
1774472319866123300,8.741123291015626,-0.16278076171875,-0.7944488525390625,-0.59124755859375
1774472319876136200,8.75113623046875,-0.1721343994140625,-0.793975830078125,-0.6010894775390625
1774472319886150100,8.761150146484376,-0.1756744384765625,-0.789703369140625,-0.6056365966796875
1774472319896163300,8.771163330078124,-0.1760711669921875,-0.786956787109375,-0.6065521240234375
1774472319906176300,8.78117626953125,-0.1756439208984375,-0.7862396240234375,-0.6064910888671875
1774472319916189200,8.791189208984376,-0.1761474609375,-0.7888946533203125,-0.6075439453125
1774472319926203100,8.801203125,-0.17877197265625,-0.78863525390625,-0.611724853515625
1774472319936216300,8.81121630859375,-0.1806640625,-0.787811279296875,-0.6155853271484375
1774472319946229200,8.821229248046874,-0.184051513671875,-0.7844085693359375,-0.6155548095703125
1774472319956243200,8.8312431640625,-0.1823883056640625,-0.7808380126953125,-0.6073455810546875
1774472319966256000,8.841256103515626,-0.17877197265625,-0.7832794189453125,-0.5970001220703125
1774472319976269300,8.851269287109375,-0.1790618896484375,-0.7894439697265625,-0.584197998046875
1774472319986283300,8.861283203125,-0.178985595703125,-0.792938232421875,-0.5723876953125
1774472319996296200,8.871296142578124,-0.176025390625,-0.790679931640625,-0.5682220458984375
1774472320006309400,8.881309326171875,-0.1664886474609375,-0.7858123779296875,-0.57171630859375
1774472320016322000,8.891322021484376,-0.15826416015625,-0.7882537841796875,-0.5792388916015625
1774472320026336300,8.901336181640625,-0.165740966796875,-0.79132080078125,-0.585540771484375
1774472320036349200,8.91134912109375,-0.173614501953125,-0.7879486083984375,-0.5852203369140625
1774472320046362000,8.921362060546874,-0.17816162109375,-0.7859954833984375,-0.580322265625
1774472320056376300,8.931376220703125,-0.18341064453125,-0.79205322265625,-0.5754852294921875
1774472320066389200,8.94138916015625,-0.1829681396484375,-0.7965545654296875,-0.572296142578125
1774472320076402200,8.951402099609375,-0.18157958984375,-0.7949371337890625,-0.5734710693359375
1774472320086416100,8.961416015625,-0.179107666015625,-0.7901763916015625,-0.5740966796875
1774472320096429300,8.97142919921875,-0.1772613525390625,-0.7898101806640625,-0.5771942138671875
1774472320106442200,8.981442138671875,-0.1764373779296875,-0.788665771484375,-0.5792999267578125
1774472320116456200,8.991456298828124,-0.17529296875,-0.788726806640625,-0.5800628662109375
1774472320126469000,9.00146923828125,-0.172332763671875,-0.7901611328125,-0.5832672119140625
1774472320136482300,9.011482421875,-0.16680908203125,-0.786407470703125,-0.578399658203125
1774472320146495200,9.0214951171875,-0.1639556884765625,-0.786468505859375,-0.572296142578125
1774472320156509200,9.03150927734375,-0.1621856689453125,-0.7886962890625,-0.5703582763671875
1774472320166522400,9.0415224609375,-0.1656341552734375,-0.79180908203125,-0.5755157470703125
1774472320176535000,9.05153515625,-0.170989990234375,-0.7877044677734375,-0.58306884765625
1774472320186549200,9.06154931640625,-0.1714019775390625,-0.787445068359375,-0.590789794921875
1774472320196562200,9.071562255859375,-0.17315673828125,-0.7870330810546875,-0.5952911376953125
1774472320206575000,9.0815751953125,-0.1745147705078125,-0.7878265380859375,-0.59820556640625
1774472320216589300,9.09158935546875,-0.174713134765625,-0.785614013671875,-0.6018218994140625
1774472320226602200,9.101602294921875,-0.1726226806640625,-0.7837982177734375,-0.60357666015625
1774472320236615200,9.111615234375,-0.1702728271484375,-0.7870635986328125,-0.6046295166015625
1774472320246628400,9.12162841796875,-0.1665496826171875,-0.7846527099609375,-0.6051788330078125
1774472320256642300,9.131642333984376,-0.1592864990234375,-0.782806396484375,-0.6053314208984375
1774472320266655200,9.1416552734375,-0.154327392578125,-0.786163330078125,-0.6099090576171875
1774472320276668400,9.15166845703125,-0.1552886962890625,-0.789215087890625,-0.6102447509765625
1774472320286682000,9.16168212890625,-0.1614990234375,-0.788543701171875,-0.6061553955078125
1774472320296695300,9.1716953125,-0.166961669921875,-0.7878875732421875,-0.6024322509765625
1774472320306708200,9.181708251953125,-0.1707611083984375,-0.786895751953125,-0.6002960205078125
1774472320316722200,9.19172216796875,-0.175201416015625,-0.7878265380859375,-0.59820556640625
1774472320326735400,9.2017353515625,-0.176910400390625,-0.786163330078125,-0.5958251953125
1774472320336748000,9.211748046875,-0.174530029296875,-0.7871246337890625,-0.593719482421875
1774472320346762200,9.22176220703125,-0.173095703125,-0.7918243408203125,-0.5909881591796875
1774472320356775200,9.231775146484376,-0.171966552734375,-0.7920379638671875,-0.591461181640625
1774472320366788000,9.2417880859375,-0.170074462890625,-0.78961181640625,-0.592559814453125
1774472320376801300,9.25180126953125,-0.1647186279296875,-0.78997802734375,-0.5972442626953125
1774472320386815200,9.261815185546874,-0.16131591796875,-0.789794921875,-0.5987091064453125
1774472320396828200,9.271828125,-0.1569671630859375,-0.7925872802734375,-0.5984649658203125
1774472320406841300,9.28184130859375,-0.157684326171875,-0.794464111328125,-0.5970458984375
1774472320416855300,9.291855224609375,-0.1605072021484375,-0.7936248779296875,-0.5935516357421875
1774472320426868200,9.3018681640625,-0.165740966796875,-0.793731689453125,-0.5914154052734375
1774472320436881400,9.31188134765625,-0.1722869873046875,-0.7936859130859375,-0.59307861328125
1774472320446895000,9.32189501953125,-0.1776885986328125,-0.7923583984375,-0.5993804931640625
1774472320456908300,9.331908203125,-0.1751861572265625,-0.790374755859375,-0.606658935546875
1774472320466921200,9.341921142578125,-0.1729278564453125,-0.7875518798828125,-0.6127166748046875
1774472320476934100,9.35193408203125,-0.169647216796875,-0.7862396240234375,-0.61285400390625
1774472320486948400,9.3619482421875,-0.166259765625,-0.790130615234375,-0.6111602783203125
1774472320496961300,9.371961181640625,-0.166778564453125,-0.79095458984375,-0.6126251220703125
1774472320506974200,9.38197412109375,-0.1705474853515625,-0.784820556640625,-0.6111602783203125
1774472320516988200,9.39198828125,-0.1670074462890625,-0.7813873291015625,-0.6042327880859375
1774472320527001000,9.4020009765625,-0.1672515869140625,-0.788299560546875,-0.6003265380859375
1774472320537014300,9.41201416015625,-0.1700286865234375,-0.791473388671875,-0.592498779296875
1774472320547028200,9.4220283203125,-0.1689300537109375,-0.7909698486328125,-0.58746337890625
1774472320557041200,9.432041259765626,-0.1690673828125,-0.7901611328125,-0.5884857177734375
1774472320567054300,9.442054443359375,-0.1693115234375,-0.788818359375,-0.58978271484375
1774472320577068300,9.452068359375,-0.1697235107421875,-0.78759765625,-0.5915069580078125
1774472320587081200,9.462081298828124,-0.167755126953125,-0.7863616943359375,-0.5978851318359375
1774472320597094400,9.472094482421875,-0.1657867431640625,-0.7848663330078125,-0.6039886474609375
1774472320607107000,9.482107177734376,-0.1694183349609375,-0.785491943359375,-0.6042022705078125
1774472320617121300,9.492121337890625,-0.1713409423828125,-0.7872467041015625,-0.6001434326171875
1774472320627134200,9.50213427734375,-0.170562744140625,-0.7875823974609375,-0.5984039306640625
1774472320637147100,9.512147216796874,-0.166778564453125,-0.784820556640625,-0.5955352783203125
1774472320647161300,9.522161376953125,-0.1654052734375,-0.7854766845703125,-0.59490966796875
1774472320657174300,9.53217431640625,-0.1649932861328125,-0.7871551513671875,-0.5934906005859375
1774472320667187200,9.542187255859375,-0.1644744873046875,-0.7889862060546875,-0.5978240966796875
1774472320677201200,9.552201171875,-0.1654510498046875,-0.7864532470703125,-0.5983123779296875
1774472320687214000,9.562214111328124,-0.166656494140625,-0.7840118408203125,-0.598785400390625
1774472320697227300,9.572227294921875,-0.1707916259765625,-0.78582763671875,-0.5987396240234375
1774472320707240400,9.582240478515626,-0.172119140625,-0.7873992919921875,-0.6022796630859375
1774472320717254100,9.592254150390625,-0.1701812744140625,-0.7873992919921875,-0.606292724609375
1774472320727267300,9.602267333984376,-0.168701171875,-0.78814697265625,-0.61016845703125
1774472320737280300,9.6122802734375,-0.1680755615234375,-0.784271240234375,-0.607391357421875
1774472320747294200,9.622294189453125,-0.1677398681640625,-0.78271484375,-0.602325439453125
1774472320757307400,9.632307373046874,-0.169403076171875,-0.7838134765625,-0.5989990234375
1774472320767320300,9.6423203125,-0.1693267822265625,-0.7831268310546875,-0.59600830078125
1774472320777334500,9.65233447265625,-0.166717529296875,-0.78424072265625,-0.596527099609375
1774472320787347500,9.662347412109375,-0.1670989990234375,-0.78497314453125,-0.59906005859375
1774472320797360400,9.6723603515625,-0.16595458984375,-0.7842559814453125,-0.6008148193359375
1774472320807374600,9.68237451171875,-0.163665771484375,-0.783935546875,-0.598175048828125
1774472320817387500,9.692387451171875,-0.1600189208984375,-0.7857818603515625,-0.5922088623046875
1774472320827400400,9.702400390625,-0.1584014892578125,-0.788787841796875,-0.5889739990234375
1774472320837413600,9.71241357421875,-0.1564788818359375,-0.7918243408203125,-0.590789794921875
1774472320847427300,9.72242724609375,-0.1566314697265625,-0.792755126953125,-0.5978240966796875
1774472320857440500,9.7324404296875,-0.16168212890625,-0.7917327880859375,-0.606048583984375
1774472320867453700,9.74245361328125,-0.1654205322265625,-0.79156494140625,-0.615966796875
1774472320877467400,9.75246728515625,-0.1722412109375,-0.786651611328125,-0.62213134765625
1774472320887480600,9.76248046875,-0.1728363037109375,-0.78485107421875,-0.6233673095703125
1774472320897493500,9.772493408203125,-0.1666717529296875,-0.7833404541015625,-0.6202239990234375
1774472320907507500,9.782507568359375,-0.1561737060546875,-0.7836456298828125,-0.6151885986328125
1774472320917520600,9.792520751953125,-0.1514434814453125,-0.7871856689453125,-0.61151123046875
1774472320927533300,9.802533203125,-0.15155029296875,-0.7873687744140625,-0.6111907958984375
1774472320937546500,9.81254638671875,-0.1542816162109375,-0.7873992919921875,-0.609893798828125
1774472320947560400,9.822560546875,-0.1555938720703125,-0.78472900390625,-0.6060333251953125
1774472320957573400,9.832573486328124,-0.1529541015625,-0.783905029296875,-0.601715087890625
1774472320967586600,9.842586669921875,-0.147552490234375,-0.7841949462890625,-0.599395751953125
1774472320977600500,9.8526005859375,-0.1471405029296875,-0.7868194580078125,-0.5996246337890625
1774472320987613400,9.862613525390625,-0.15234375,-0.788055419921875,-0.6059417724609375
1774472320997626600,9.872626708984376,-0.1595458984375,-0.785369873046875,-0.6112823486328125
1774472321007640600,9.882640625,-0.16485595703125,-0.7823486328125,-0.6115875244140625
1774472321017653500,9.892653564453125,-0.165191650390625,-0.78277587890625,-0.6072998046875
1774472321027666700,9.902666748046874,-0.163177490234375,-0.785980224609375,-0.60107421875
1774472321037680400,9.912680419921875,-0.1598052978515625,-0.7875518798828125,-0.596466064453125
1774472321047693600,9.922693603515626,-0.1613006591796875,-0.790771484375,-0.5959320068359375
1774472321057706500,9.93270654296875,-0.161163330078125,-0.7881317138671875,-0.5960540771484375
1774472321067719400,9.942719482421875,-0.1592559814453125,-0.7868194580078125,-0.59326171875
1774472321077733600,9.952733642578124,-0.1534576416015625,-0.787750244140625,-0.594024658203125
1774472321087746300,9.962746337890625,-0.1483154296875,-0.7884063720703125,-0.5943756103515625
1774472321097759500,9.972759521484376,-0.1479644775390625,-0.79034423828125,-0.597747802734375
1774472321107773400,9.9827734375,-0.15191650390625,-0.7862091064453125,-0.600006103515625
1774472321117786400,9.992786376953125,-0.1570281982421875,-0.7838592529296875,-0.6050567626953125
1774472321127799600,10.002799560546874,-0.160308837890625,-0.784271240234375,-0.6102752685546875
1774472321137813500,10.0128134765625,-0.1632843017578125,-0.78619384765625,-0.6140289306640625
1774472321147826400,10.022826416015626,-0.1614227294921875,-0.7847747802734375,-0.6167449951171875
1774472321157839600,10.032839599609375,-0.15313720703125,-0.78582763671875,-0.615447998046875
1774472321167852300,10.042852294921875,-0.147064208984375,-0.78631591796875,-0.613677978515625
1774472321177866500,10.052866455078124,-0.14190673828125,-0.78619384765625,-0.6093292236328125
1774472321187879700,10.062879638671875,-0.14154052734375,-0.789337158203125,-0.6062774658203125
1774472321197892400,10.072892333984376,-0.1445159912109375,-0.7888641357421875,-0.6053314208984375
1774472321207906600,10.082906494140625,-0.1451263427734375,-0.7895050048828125,-0.60711669921875
1774472321217919500,10.09291943359375,-0.1450958251953125,-0.788299560546875,-0.6116485595703125
1774472321227932400,10.102932373046874,-0.1452484130859375,-0.7896575927734375,-0.6126861572265625
1774472321237946600,10.112946533203125,-0.1461181640625,-0.788360595703125,-0.61065673828125
1774472321247959300,10.122959228515626,-0.149078369140625,-0.78741455078125,-0.6089324951171875
1774472321257972500,10.132972412109375,-0.1544647216796875,-0.788116455078125,-0.608795166015625
1774472321267985700,10.142985595703125,-0.1561279296875,-0.786956787109375,-0.6080322265625
1774472321277999400,10.152999267578124,-0.15850830078125,-0.78466796875,-0.6080780029296875
1774472321288012500,10.163012451171875,-0.1568603515625,-0.78350830078125,-0.6081085205078125
1774472321298025500,10.173025390625,-0.1472625732421875,-0.782989501953125,-0.6066131591796875
1774472321308039400,10.183039306640625,-0.13934326171875,-0.7845611572265625,-0.6067657470703125
1774472321318052600,10.193052490234376,-0.1355743408203125,-0.786407470703125,-0.60986328125
1774472321328065300,10.203065185546874,-0.133392333984375,-0.78466796875,-0.6123504638671875
1774472321338079500,10.21307958984375,-0.1324310302734375,-0.7803802490234375,-0.60821533203125
1774472321348092700,10.2230927734375,-0.1324615478515625,-0.781768798828125,-0.60565185546875
1774472321358105300,10.233105224609375,-0.1328125,-0.78680419921875,-0.602813720703125
1774472321368118500,10.243118408203125,-0.1340179443359375,-0.7864837646484375,-0.601959228515625
1774472321378132500,10.253132568359375,-0.13592529296875,-0.787994384765625,-0.6027984619140625
1774472321388145400,10.2631455078125,-0.1402587890625,-0.78936767578125,-0.605499267578125
1774472321398158600,10.27315869140625,-0.141845703125,-0.7905120849609375,-0.605987548828125
1774472321408172300,10.28317236328125,-0.1388397216796875,-0.7879638671875,-0.6022186279296875
1774472321418185500,10.293185546875,-0.1397705078125,-0.786956787109375,-0.597808837890625
1774472321428198700,10.30319873046875,-0.1406402587890625,-0.7877044677734375,-0.5980987548828125
1774472321438212400,10.31321240234375,-0.1456451416015625,-0.7911376953125,-0.6011810302734375
1774472321448225500,10.3232255859375,-0.15216064453125,-0.7906646728515625,-0.603790283203125
1774472321458238700,10.33323876953125,-0.15533447265625,-0.78887939453125,-0.6063079833984375
1774472321468252400,10.34325244140625,-0.1531524658203125,-0.7908782958984375,-0.6050872802734375
1774472321478265600,10.353265625,-0.1452789306640625,-0.790557861328125,-0.6009979248046875
1774472321488278300,10.3632783203125,-0.132049560546875,-0.7904510498046875,-0.594940185546875
1774472321498291500,10.37329150390625,-0.127288818359375,-0.7932281494140625,-0.5950469970703125
1774472321508305700,10.3833056640625,-0.1270904541015625,-0.79461669921875,-0.5999603271484375
1774472321518318300,10.393318359375,-0.1272735595703125,-0.7937469482421875,-0.6111602783203125
1774472321528331500,10.40333154296875,-0.1306304931640625,-0.7913665771484375,-0.62158203125
1774472321538345500,10.413345458984375,-0.139129638671875,-0.7935943603515625,-0.631744384765625
1774472321548358400,10.4233583984375,-0.14703369140625,-0.7923736572265625,-0.6381378173828125
1774472321558371600,10.43337158203125,-0.145751953125,-0.7911376953125,-0.6461029052734375
1774472321568385500,10.443385498046876,-0.147857666015625,-0.7867889404296875,-0.64361572265625
1774472321578398500,10.4533984375,-0.14599609375,-0.7835540771484375,-0.635528564453125
1774472321588411600,10.46341162109375,-0.1363677978515625,-0.78472900390625,-0.624359130859375
1774472321598424300,10.47342431640625,-0.1270294189453125,-0.7861328125,-0.6159515380859375
1774472321608438500,10.4834384765625,-0.1258544921875,-0.7861175537109375,-0.6066131591796875
1774472321618451700,10.49345166015625,-0.1238555908203125,-0.7872772216796875,-0.6032562255859375
1774472321628464400,10.50346435546875,-0.12353515625,-0.785125732421875,-0.6045379638671875
1774472321638478600,10.513478515625,-0.12640380859375,-0.7835540771484375,-0.6075439453125
1774472321648491300,10.5234912109375,-0.1313934326171875,-0.7811126708984375,-0.61004638671875
1774472321658504400,10.53350439453125,-0.13787841796875,-0.781890869140625,-0.6105194091796875
1774472321668518700,10.5435185546875,-0.1470489501953125,-0.7831878662109375,-0.609771728515625
1774472321678531300,10.55353125,-0.14862060546875,-0.7830963134765625,-0.6028594970703125
1774472321688544500,10.56354443359375,-0.1482696533203125,-0.7863922119140625,-0.59808349609375
1774472321698557400,10.573557373046874,-0.1480255126953125,-0.789794921875,-0.5932464599609375
1774472321708571400,10.5835712890625,-0.1495819091796875,-0.7930145263671875,-0.589019775390625
1774472321718584600,10.59358447265625,-0.150146484375,-0.79217529296875,-0.58966064453125
1774472321728597500,10.603597412109375,-0.152313232421875,-0.791656494140625,-0.5902252197265625
1774472321738611500,10.613611572265626,-0.1533660888671875,-0.790374755859375,-0.5908966064453125
1774472321748624600,10.623624755859375,-0.154510498046875,-0.790618896484375,-0.590911865234375
1774472321758637300,10.63363720703125,-0.15667724609375,-0.7899169921875,-0.5914764404296875
1774472321768651000,10.643651123046874,-0.1545562744140625,-0.7877044677734375,-0.5927581787109375
1774472321778664000,10.653663818359375,-0.15484619140625,-0.787384033203125,-0.5962371826171875
1774472321788676900,10.6636767578125,-0.1534271240234375,-0.7863311767578125,-0.5980072021484375
1774472321798690800,10.67369091796875,-0.15325927734375,-0.785491943359375,-0.5974273681640625
1774472321808704000,10.6837041015625,-0.146697998046875,-0.782257080078125,-0.5962066650390625
1774472321818717000,10.693717041015624,-0.13861083984375,-0.780609130859375,-0.5919647216796875
1774472321828729900,10.703729736328125,-0.1347198486328125,-0.784637451171875,-0.589141845703125
1774472321838743800,10.713743896484376,-0.1323089599609375,-0.786041259765625,-0.58807373046875
1774472321848756700,10.7237568359375,-0.135345458984375,-0.7897491455078125,-0.5946502685546875
1774472321858770000,10.73377001953125,-0.1413421630859375,-0.79290771484375,-0.6034088134765625
1774472321868783900,10.743783935546874,-0.1474151611328125,-0.7933349609375,-0.6134033203125
1774472321878796800,10.753796875,-0.1526641845703125,-0.7913055419921875,-0.6219482421875
1774472321888810000,10.76381005859375,-0.1536102294921875,-0.7900543212890625,-0.6228790283203125
1774472321898824000,10.773823974609375,-0.153961181640625,-0.78839111328125,-0.6152191162109375
1774472321908836900,10.7838369140625,-0.1468505859375,-0.79266357421875,-0.6095428466796875
1774472321918850000,10.79385009765625,-0.13873291015625,-0.7927093505859375,-0.602447509765625
1774472321928862700,10.80386279296875,-0.134674072265625,-0.79095458984375,-0.598114013671875
1774472321938877000,10.813876953125,-0.13519287109375,-0.79052734375,-0.597930908203125
1774472321948889900,10.823889892578125,-0.136749267578125,-0.7918243408203125,-0.600738525390625
1774472321958902800,10.83390283203125,-0.1392822265625,-0.786773681640625,-0.6008758544921875
1774472321968917000,10.8439169921875,-0.1415252685546875,-0.786529541015625,-0.59759521484375
1774472321978930000,10.853929931640625,-0.14208984375,-0.788360595703125,-0.592803955078125
1774472321988942800,10.86394287109375,-0.1386566162109375,-0.7887115478515625,-0.58721923828125
1774472321998956800,10.873956787109375,-0.1385345458984375,-0.7915802001953125,-0.5859222412109375
1774472322008969700,10.8839697265625,-0.1419830322265625,-0.7958526611328125,-0.5904541015625
1774472322018983000,10.89398291015625,-0.1466064453125,-0.7965240478515625,-0.5935211181640625
1774472322028996000,10.90399609375,-0.150299072265625,-0.7936553955078125,-0.593658447265625
1774472322039009800,10.914009765625,-0.1505584716796875,-0.793670654296875,-0.5943450927734375
1774472322049023000,10.92402294921875,-0.1501617431640625,-0.7971038818359375,-0.6000823974609375
1774472322059036000,10.934035888671875,-0.152587890625,-0.792999267578125,-0.6009368896484375
1774472322069049900,10.9440498046875,-0.155364990234375,-0.7906341552734375,-0.5972900390625
1774472322079063000,10.95406298828125,-0.155853271484375,-0.792266845703125,-0.594757080078125
1774472322089075700,10.96407568359375,-0.1544036865234375,-0.7939453125,-0.5926055908203125
1774472322099090000,10.97408984375,-0.1532440185546875,-0.7923583984375,-0.5899810791015625
1774472322109102800,10.984102783203125,-0.1507110595703125,-0.7885589599609375,-0.5872955322265625
1774472322119115800,10.99411572265625,-0.1487884521484375,-0.7866363525390625,-0.585479736328125
1774472322129130000,11.0041298828125,-0.14874267578125,-0.7869720458984375,-0.584625244140625
1774472322139143000,11.014142822265624,-0.1475982666015625,-0.78570556640625,-0.5839691162109375
1774472322149155800,11.02415576171875,-0.147674560546875,-0.7847442626953125,-0.5866546630859375
1774472322159169000,11.0341689453125,-0.147430419921875,-0.7860870361328125,-0.5882568359375
1774472322169183000,11.044182861328125,-0.1488494873046875,-0.7894287109375,-0.59283447265625
1774472322179196000,11.05419580078125,-0.148590087890625,-0.7908935546875,-0.5991058349609375
1774472322189209000,11.064208984375,-0.14990234375,-0.792755126953125,-0.601959228515625
1774472322199222800,11.074222900390625,-0.152618408203125,-0.790252685546875,-0.6006011962890625
1774472322209236000,11.084236083984376,-0.1504974365234375,-0.7881011962890625,-0.5971221923828125
1774472322219249000,11.094248779296874,-0.1470184326171875,-0.788330078125,-0.5919036865234375
1774472322229262800,11.104262939453125,-0.143341064453125,-0.78717041015625,-0.587646484375
1774472322239276000,11.114276123046874,-0.13818359375,-0.787078857421875,-0.587738037109375
1774472322249288700,11.124288818359375,-0.1420135498046875,-0.786468505859375,-0.5889434814453125
1774472322259302000,11.134302001953126,-0.1494293212890625,-0.7885589599609375,-0.588775634765625
1774472322269315800,11.14431591796875,-0.1568756103515625,-0.7875518798828125,-0.585113525390625
1774472322279328800,11.154328857421875,-0.1603546142578125,-0.790435791015625,-0.58673095703125
1774472322289342000,11.164342041015624,-0.1611328125,-0.7899017333984375,-0.5920867919921875
1774472322299356000,11.17435595703125,-0.15380859375,-0.7817230224609375,-0.5914154052734375
1774472322309368800,11.184368896484376,-0.145172119140625,-0.7836456298828125,-0.594207763671875
1774472322319382000,11.194382080078125,-0.1433258056640625,-0.7893524169921875,-0.5973663330078125
1774472322329396000,11.20439599609375,-0.1448822021484375,-0.790740966796875,-0.599456787109375
1774472322339409000,11.214408935546874,-0.14849853515625,-0.7875213623046875,-0.60107421875
1774472322349422000,11.224422119140625,-0.150115966796875,-0.78704833984375,-0.603485107421875
1774472322359434800,11.234434814453126,-0.1473388671875,-0.78826904296875,-0.6038360595703125
1774472322369449000,11.244448974609375,-0.1456298828125,-0.786865234375,-0.60076904296875
1774472322379462000,11.2544619140625,-0.1450042724609375,-0.78692626953125,-0.59637451171875
1774472322389474800,11.264474853515624,-0.1461334228515625,-0.7881317138671875,-0.5914306640625
1774472322399489000,11.274489013671875,-0.150665283203125,-0.7947540283203125,-0.5899505615234375
1774472322409501700,11.284501708984376,-0.1568603515625,-0.7972564697265625,-0.5898895263671875
1774472322419515000,11.294514892578125,-0.15692138671875,-0.794097900390625,-0.593994140625
1774472322429528800,11.30452880859375,-0.15411376953125,-0.7966461181640625,-0.5975189208984375
1774472322439541800,11.314541748046874,-0.15484619140625,-0.800262451171875,-0.6042938232421875
1774472322449555000,11.324554931640625,-0.15692138671875,-0.7978363037109375,-0.609100341796875
1774472322459567900,11.33456787109375,-0.1552734375,-0.793426513671875,-0.6096343994140625
1774472322469581800,11.344581787109375,-0.1541748046875,-0.7937469482421875,-0.6087646484375
1774472322479595000,11.354594970703126,-0.1535491943359375,-0.794921875,-0.6055908203125
1774472322489608000,11.36460791015625,-0.146820068359375,-0.7928924560546875,-0.6024627685546875
1774472322499622000,11.374621826171875,-0.1414642333984375,-0.7931671142578125,-0.600921630859375
1774472322509635000,11.384635009765624,-0.13909912109375,-0.79473876953125,-0.6001434326171875
1774472322519647700,11.394647705078125,-0.1367645263671875,-0.7948150634765625,-0.5992431640625
1774472322529662000,11.404661865234376,-0.1396636962890625,-0.7948455810546875,-0.598663330078125
1774472322539675000,11.4146748046875,-0.1410980224609375,-0.79217529296875,-0.598236083984375
1774472322549687800,11.424687744140625,-0.138519287109375,-0.79150390625,-0.5991973876953125
1774472322559701000,11.434700927734376,-0.1374053955078125,-0.7894439697265625,-0.598876953125
1774472322569714700,11.444714599609375,-0.1324310302734375,-0.787017822265625,-0.59661865234375
1774472322579728000,11.454727783203126,-0.1316375732421875,-0.787841796875,-0.5952911376953125
1774472322589741000,11.464740966796874,-0.1348114013671875,-0.7873992919921875,-0.5961151123046875
1774472322599754800,11.474754638671875,-0.136444091796875,-0.785736083984375,-0.59637451171875
1774472322609768000,11.484767822265624,-0.1395111083984375,-0.7846832275390625,-0.5972900390625
1774472322619781000,11.494781005859375,-0.142913818359375,-0.784881591796875,-0.5977630615234375
1774472322629794800,11.504794921875,-0.140960693359375,-0.7853546142578125,-0.5999755859375
1774472322639808000,11.51480810546875,-0.1390380859375,-0.7850799560546875,-0.5997314453125
1774472322649821000,11.524821044921875,-0.1380767822265625,-0.7843475341796875,-0.6033477783203125
1774472322659833900,11.534833740234374,-0.134674072265625,-0.7847137451171875,-0.6049346923828125
1774472322669848000,11.54484814453125,-0.134613037109375,-0.78411865234375,-0.6027984619140625
1774472322679860700,11.55486083984375,-0.1369781494140625,-0.787109375,-0.603179931640625
1774472322689874000,11.5648740234375,-0.1405029296875,-0.7888336181640625,-0.6071929931640625
1774472322699887900,11.574887939453125,-0.14093017578125,-0.78558349609375,-0.6078948974609375
1774472322709900800,11.58490087890625,-0.1430511474609375,-0.792999267578125,-0.61529541015625
1774472322719914000,11.5949140625,-0.143646240234375,-0.7906494140625,-0.619110107421875
1774472322729928000,11.604927978515626,-0.14678955078125,-0.7921600341796875,-0.6237945556640625
1774472322739940900,11.61494091796875,-0.148590087890625,-0.7903594970703125,-0.62030029296875
1774472322749954000,11.6249541015625,-0.149871826171875,-0.7886505126953125,-0.6150665283203125
1774472322759967700,11.6349677734375,-0.1465301513671875,-0.792144775390625,-0.6087799072265625
1774472322769981700,11.644981689453125,-0.1404571533203125,-0.7924957275390625,-0.6024322509765625
1774472322779994400,11.654994384765626,-0.137603759765625,-0.7947235107421875,-0.601898193359375
1774472322790007600,11.665007568359375,-0.1382293701171875,-0.796417236328125,-0.6065521240234375
1774472322800021500,11.675021484375,-0.1381988525390625,-0.7947540283203125,-0.614898681640625
1774472322810034400,11.685034423828125,-0.1422119140625,-0.7920684814453125,-0.61798095703125
1774472322820047600,11.695047607421875,-0.1430511474609375,-0.7921905517578125,-0.6161041259765625
1774472322830061300,11.705061279296874,-0.1426849365234375,-0.7922821044921875,-0.6129608154296875
1774472322840074500,11.715074462890625,-0.1424560546875,-0.7916107177734375,-0.609100341796875
1774472322850087700,11.725087646484376,-0.1400604248046875,-0.7884063720703125,-0.6118927001953125
1774472322860101400,11.735101318359375,-0.1383819580078125,-0.787078857421875,-0.6131591796875
1774472322870114600,11.745114501953125,-0.139892578125,-0.784149169921875,-0.610687255859375
1774472322880127500,11.75512744140625,-0.143035888671875,-0.7885589599609375,-0.607513427734375
1774472322890140400,11.765140380859375,-0.1444244384765625,-0.7912139892578125,-0.6030120849609375
1774472322900154600,11.775154541015626,-0.14349365234375,-0.79132080078125,-0.5988922119140625
1774472322910167600,11.78516748046875,-0.143463134765625,-0.7914581298828125,-0.5965423583984375
1774472322920180500,11.795180419921875,-0.1398773193359375,-0.7909393310546875,-0.5953216552734375
1774472322930194700,11.805194580078124,-0.1352996826171875,-0.790008544921875,-0.599822998046875
1774472322940207400,11.815207275390625,-0.1325225830078125,-0.7875213623046875,-0.6095123291015625
1774472322950220500,11.825220458984376,-0.1348876953125,-0.7847442626953125,-0.6194305419921875
1774472322960234800,11.83523486328125,-0.1369171142578125,-0.7815704345703125,-0.6269989013671875
1774472322970247400,11.845247314453125,-0.1414642333984375,-0.781402587890625,-0.6314697265625
1774472322980260600,11.855260498046874,-0.143218994140625,-0.781158447265625,-0.627685546875
1774472322990273500,11.8652734375,-0.1395263671875,-0.7805328369140625,-0.620269775390625
1774472323000287500,11.87528759765625,-0.135528564453125,-0.7823028564453125,-0.6106109619140625
1774472323010300700,11.88530078125,-0.1300201416015625,-0.7817840576171875,-0.6034393310546875
1774472323020313600,11.895313720703125,-0.1262054443359375,-0.7812957763671875,-0.596099853515625
1774472323030327600,11.90532763671875,-0.1246795654296875,-0.784881591796875,-0.5941619873046875
1774472323040340500,11.915340576171875,-0.1273956298828125,-0.785430908203125,-0.597564697265625
1774472323050353400,11.925353515625,-0.12799072265625,-0.78546142578125,-0.601043701171875
1774472323060367600,11.93536767578125,-0.128021240234375,-0.784515380859375,-0.6058502197265625
1774472323070380500,11.945380615234376,-0.13031005859375,-0.783447265625,-0.608001708984375
1774472323080393500,11.9553935546875,-0.1348114013671875,-0.783416748046875,-0.605865478515625
1774472323090406400,11.965406494140625,-0.137542724609375,-0.7845916748046875,-0.5997314453125
1774472323100420400,11.97542041015625,-0.1382904052734375,-0.786865234375,-0.5964202880859375
1774472323110433500,11.98543359375,-0.1351165771484375,-0.7889251708984375,-0.597412109375
1774472323120446500,11.995446533203125,-0.132904052734375,-0.7890625,-0.5994110107421875
1774472323130460400,12.00546044921875,-0.1355438232421875,-0.78741455078125,-0.599151611328125
1774472323140473600,12.0154736328125,-0.1361236572265625,-0.784393310546875,-0.59796142578125
1774472323150486500,12.025486572265624,-0.131072998046875,-0.7821044921875,-0.5940093994140625
1774472323160500500,12.03550048828125,-0.127197265625,-0.7831573486328125,-0.58758544921875
1774472323170513700,12.045513671875,-0.1244659423828125,-0.78216552734375,-0.580108642578125
1774472323180526600,12.055526611328125,-0.123321533203125,-0.781402587890625,-0.581207275390625
1774472323190539500,12.06553955078125,-0.1263885498046875,-0.785675048828125,-0.5854034423828125
1774472323200553500,12.075553466796874,-0.1410980224609375,-0.7874908447265625,-0.584075927734375
1774472323210566400,12.08556640625,-0.1547088623046875,-0.78265380859375,-0.57574462890625
1774472323220579600,12.09557958984375,-0.1519317626953125,-0.7779998779296875,-0.5656585693359375
1774472323230593500,12.105593505859375,-0.140960693359375,-0.7783660888671875,-0.55584716796875
1774472323240606500,12.1156064453125,-0.13018798828125,-0.777069091796875,-0.543243408203125
1774472323250619400,12.125619384765624,-0.1157379150390625,-0.7745513916015625,-0.541229248046875
1774472323260633300,12.13563330078125,-0.104705810546875,-0.7654876708984375,-0.544403076171875
1774472323270646500,12.145646484375,-0.098358154296875,-0.759002685546875,-0.5417938232421875
1774472323280659500,12.155659423828125,-0.093231201171875,-0.751434326171875,-0.532257080078125
1774472323290672600,12.165672607421875,-0.0875396728515625,-0.7545623779296875,-0.53497314453125
1774472323300686600,12.1756865234375,-0.073974609375,-0.7607421875,-0.54534912109375
1774472323310699500,12.185699462890625,-0.0719451904296875,-0.76043701171875,-0.5477142333984375
1774472323320712400,12.19571240234375,-0.0714263916015625,-0.7631683349609375,-0.5493621826171875
1774472323330726700,12.2057265625,-0.078582763671875,-0.7724456787109375,-0.5503387451171875
1774472323340739600,12.215739501953125,-0.093231201171875,-0.7891693115234375,-0.5576171875
1774472323350752500,12.22575244140625,-0.10577392578125,-0.79119873046875,-0.567047119140625
1774472323360766500,12.235766357421875,-0.1107635498046875,-0.786712646484375,-0.616455078125
1774472323370779400,12.245779296875,-0.10791015625,-0.787933349609375,-0.704742431640625
1774472323380792600,12.25579248046875,-0.119232177734375,-0.749420166015625,-0.760955810546875
1774472323390805500,12.265805419921875,-0.127532958984375,-0.702789306640625,-0.766510009765625
1774472323400819500,12.2758193359375,-0.1353302001953125,-0.6856231689453125,-0.7474212646484375
1774472323410832600,12.28583251953125,-0.153961181640625,-0.694061279296875,-0.728179931640625
1774472323420845600,12.295845458984376,-0.1651458740234375,-0.71905517578125,-0.7120513916015625
1774472323430859500,12.305859619140625,-0.1668853759765625,-0.7314453125,-0.6944732666015625
1774472323440872400,12.31587255859375,-0.1708526611328125,-0.7486572265625,-0.7049102783203125
1774472323450885600,12.3258857421875,-0.176483154296875,-0.7465667724609375,-0.7323150634765625
1774472323460899600,12.335899658203125,-0.1812744140625,-0.7142791748046875,-0.74114990234375
1774472323470912500,12.34591259765625,-0.1741485595703125,-0.701080322265625,-0.742828369140625
1774472323480925400,12.355925537109375,-0.177734375,-0.714752197265625,-0.75421142578125
1774472323490938400,12.3659384765625,-0.1725921630859375,-0.72119140625,-0.7660369873046875
1774472323500952600,12.37595263671875,-0.166961669921875,-0.7152099609375,-0.7723846435546875
1774472323510965500,12.385965576171875,-0.171051025390625,-0.7119293212890625,-0.7749786376953125
1774472323520978400,12.395978515625,-0.181854248046875,-0.71405029296875,-0.769927978515625
1774472323530992400,12.405992431640625,-0.19427490234375,-0.69744873046875,-0.7407379150390625
1774472323541005600,12.416005615234376,-0.190032958984375,-0.69073486328125,-0.7100372314453125
1774472323551018500,12.4260185546875,-0.160797119140625,-0.6936798095703125,-0.6928558349609375
1774472323561032400,12.436032470703125,-0.129852294921875,-0.69403076171875,-0.6866302490234375
1774472323571045600,12.446045654296874,-0.118408203125,-0.702484130859375,-0.7032623291015625
1774472323581058600,12.45605859375,-0.1077880859375,-0.71282958984375,-0.7403411865234375
1774472323591071500,12.466071533203126,-0.10693359375,-0.6988525390625,-0.7537689208984375
1774472323601085400,12.47608544921875,-0.113006591796875,-0.68328857421875,-0.747100830078125
1774472323611098600,12.4860986328125,-0.10369873046875,-0.702239990234375,-0.73773193359375
1774472323621111600,12.496111572265624,-0.1026611328125,-0.691131591796875,-0.7204742431640625
1774472323631125500,12.50612548828125,-0.1019134521484375,-0.676544189453125,-0.6847991943359375
1774472323641138400,12.516138427734376,-0.08502197265625,-0.6605072021484375,-0.629058837890625
1774472323651151400,12.5261513671875,-0.058868408203125,-0.6319122314453125,-0.5693359375
1774472323661165600,12.53616552734375,-0.0434417724609375,-0.6358489990234375,-0.576141357421875
1774472323671178500,12.546178466796874,-0.0562286376953125,-0.6262054443359375,-0.616912841796875
1774472323681191400,12.55619140625,-0.0840911865234375,-0.6288604736328125,-0.6470947265625
1774472323691205400,12.566205322265626,-0.102813720703125,-0.66583251953125,-0.6927490234375
1774472323701218600,12.576218505859375,-0.108306884765625,-0.659088134765625,-0.69622802734375
1774472323711231500,12.5862314453125,-0.108154296875,-0.6350555419921875,-0.6854400634765625
1774472323721244700,12.59624462890625,-0.10797119140625,-0.640594482421875,-0.6877899169921875
1774472323731258600,12.606258544921875,-0.1078033447265625,-0.6567840576171875,-0.6957244873046875
1774472323741271600,12.616271484375,-0.0961456298828125,-0.6585235595703125,-0.6892242431640625
1774472323751284500,12.626284423828125,-0.0883331298828125,-0.6707763671875,-0.6541748046875
1774472323761298400,12.63629833984375,-0.1110687255859375,-0.6904296875,-0.5927886962890625
1774472323771311900,12.646311767578124,-0.158416748046875,-0.7282867431640625,-0.5717010498046875
1774472323781324500,12.656324462890625,-0.2099761962890625,-0.747772216796875,-0.584228515625
1774472323791338800,12.6663388671875,-0.2353515625,-0.745849609375,-0.61041259765625
1774472323801351400,12.676351318359375,-0.252227783203125,-0.73773193359375,-0.6600189208984375
1774472323811364600,12.686364501953125,-0.2838592529296875,-0.7404022216796875,-0.718658447265625
1774472323821377800,12.696377685546874,-0.31854248046875,-0.726806640625,-0.7556915283203125
1774472323831391500,12.7063916015625,-0.349639892578125,-0.7097930908203125,-0.7672882080078125
1774472323841404700,12.71640478515625,-0.37200927734375,-0.698333740234375,-0.763458251953125
1774472323851417600,12.72641748046875,-0.384735107421875,-0.696502685546875,-0.7622222900390625
1774472323861431600,12.736431640625,-0.3859405517578125,-0.695465087890625,-0.748992919921875
1774472323871444700,12.74644482421875,-0.366851806640625,-0.7048492431640625,-0.7362213134765625
1774472323881457700,12.756457763671875,-0.3459320068359375,-0.7221221923828125,-0.7568817138671875
1774472323891471600,12.7664716796875,-0.335174560546875,-0.7279815673828125,-0.77789306640625
1774472323901484800,12.77648486328125,-0.3314361572265625,-0.718505859375,-0.77789306640625
1774472323911497500,12.78649755859375,-0.3272247314453125,-0.6977996826171875,-0.7671051025390625
1774472323921510700,12.7965107421875,-0.3160400390625,-0.6844940185546875,-0.762542724609375
1774472323931524900,12.80652490234375,-0.3068695068359375,-0.680816650390625,-0.7617950439453125
1774472323941537500,12.81653759765625,-0.306182861328125,-0.68365478515625,-0.76348876953125
