time,seconds_elapsed,z,y,x
1774472311184578800,0.059578857421875,-0.06298455595970154,0.004554804414510727,-0.10789503902196884
1774472311194591700,0.069591796875,-0.11122745275497437,-0.06474597007036209,-0.0984240397810936
1774472311204605000,0.07960498046875,-0.12240607291460037,-0.15087740123271942,-0.08700733631849289
1774472311214619000,0.089618896484375,-0.1089741513133049,-0.2561553418636322,-0.07350244373083115
1774472311224631800,0.0996318359375,-0.09667674452066422,-0.37314561009407043,-0.046424224972724915
1774472311234645000,0.10964501953125,-0.09834147989749908,-0.46933606266975403,0.0002801645314320922
1774472311244657700,0.11965771484375,-0.11371937394142151,-0.5043920278549194,0.05880659073591232
1774472311254672000,0.129671875,-0.13172607123851776,-0.5261447429656982,0.09779153764247894
1774472311264684800,0.139684814453125,-0.14867016673088074,-0.6044097542762756,0.06815481930971146
1774472311274697700,0.14969775390625,-0.14536811411380768,-0.77967369556427,-0.012629775330424309
1774472311284711000,0.1597109375,-0.11860094964504242,-0.9353245496749878,-0.0952780470252037
1774472311294724900,0.169724853515625,-0.06717956811189651,-1.0172785520553589,-0.1806105226278305
1774472311304737800,0.17973779296875,0.04279513284564018,-1.0180598497390747,-0.2377915233373642
1774472311314751000,0.1897509765625,0.18529503047466278,-0.8946998715400696,-0.2700895369052887
1774472311324763600,0.199763671875,0.2746693789958954,-0.6772333383560181,-0.2929762005805969
1774472311334777900,0.20977783203125,0.3222763240337372,-0.6349815130233765,-0.224898099899292
1774472311344791000,0.219791015625,0.3343777060508728,-0.8370184898376465,-0.08593940734863281
1774472311354803700,0.2298037109375,0.3966946303844452,-1.374711275100708,-0.07947911322116852
1774472311364818000,0.23981787109375,0.5649725794792175,-1.4711573123931885,0.02052951045334339
1774472311374830800,0.249830810546875,0.909391462802887,-1.0865622758865356,0.20516939461231232
1774472311384843800,0.25984375,1.2474485635757446,-0.27246081829071045,0.4198675751686096
1774472311394857000,0.26985693359375,1.5506609678268433,0.7882407903671265,0.6955103278160095
1774472311404870700,0.27987060546875,1.953774333000183,1.9402449131011963,0.9512411952018738
1774472311414883800,0.2898837890625,2.461653709411621,3.106471061706543,1.222675085067749
1774472311424897000,0.29989697265625,2.813486337661743,3.801541805267334,1.4953728914260864
1774472311434909700,0.30990966796875,2.651982069015503,3.1061580181121826,1.4337931871414185
1774472311444924000,0.319923828125,1.8496527671813965,1.9109901189804077,1.0134214162826538
1774472311454936800,0.329936767578125,0.648622989654541,0.8678099513053894,0.5352106690406799
1774472311464949800,0.33994970703125,-0.3467875123023987,0.2934931218624115,0.1956443339586258
1774472311474963000,0.349962890625,-1.0563145875930786,0.36573004722595215,-0.08654581010341644
1774472311484977000,0.359976806640625,-1.5380644798278809,0.07903250306844711,-0.35482653975486755
1774472311494989800,0.36998974609375,-1.6932071447372437,-1.1582926511764526,-0.5428292155265808
1774472311505003000,0.3800029296875,-1.7110570669174194,-2.782912015914917,-0.6763345003128052
1774472311515016000,0.390015869140625,-1.6883583068847656,-4.492800712585449,-0.7984508275985718
1774472311525030000,0.40002978515625,-1.475598692893982,-6.375177383422852,-1.1633518934249878
1774472311535042800,0.410042724609375,-1.537622332572937,-3.6218130588531494,-2.9513657093048096
1774472311545055700,0.4200556640625,-1.4962464570999146,-2.0468556880950928,-2.624056816101074
1774472311555069000,0.43006884765625,-1.263245701789856,-0.455175518989563,-2.2626571655273438
1774472311565083000,0.440082763671875,-0.9302930235862732,1.244032621383667,-2.000730037689209
1774472311575095800,0.450095703125,-0.5823483467102051,2.1645421981811523,-1.8729716539382935
1774472311585108700,0.460108642578125,-0.3106774389743805,1.418649673461914,-2.036426305770874
1774472311595122000,0.470121826171875,-0.14092782139778137,-0.2708360254764557,-2.2983510494232178
1774472311605136000,0.480135986328125,0.1334185153245926,-0.8743924498558044,-2.398682117462158
1774472311615148800,0.490148681640625,0.2778755724430084,0.1544332504272461,-2.1450517177581787
1774472311625162000,0.500161865234375,0.3006919324398041,0.016463395208120346,-1.8846255540847778
1774472311635174700,0.510174560546875,0.09228332340717316,-0.04950416833162308,-1.4539341926574707
1774472311645188900,0.52018896484375,-0.24923299252986908,-0.21990706026554108,-0.9482911825180054
1774472311655201800,0.530201904296875,-0.6584537625312805,-0.4165918827056885,-0.39508312940597534
1774472311665214700,0.540214599609375,-0.9382489323616028,-0.4506553113460541,0.11909603327512741
1774472311675229000,0.55022900390625,-0.9589619636535645,-0.6195253133773804,0.45239970088005066
1774472311685241900,0.560241943359375,-0.8518256545066833,-0.9179010987281799,0.5753154754638672
1774472311695254800,0.5702548828125,-0.7647786140441895,-1.142203688621521,0.5514035224914551
1774472311705268000,0.58026806640625,-0.7179341912269592,-1.340799331665039,0.4931034445762634
1774472311715282000,0.590281982421875,-0.6935169696807861,-1.6082923412322998,0.5289554595947266
1774472311725294800,0.600294921875,-0.6923989653587341,-1.8494881391525269,0.6738324761390686
1774472311735308000,0.61030810546875,-0.7224146723747253,-1.940401554107666,0.8404414057731628
1774472311745320700,0.62032080078125,-0.7865097522735596,-1.9075636863708496,0.9492190480232239
1774472311755335000,0.6303349609375,-0.8644186854362488,-1.8224048614501953,1.0069688558578491
1774472311765347300,0.640347412109375,-0.9464698433876038,-1.7184512615203857,1.0265953540802002
1774472311775360300,0.6503603515625,-1.0251457691192627,-1.5129764080047607,0.9935052990913391
1774472311785373200,0.660373291015625,-1.0179661512374878,-1.2299457788467407,0.8777986764907837
1774472311795387400,0.670387451171875,-0.8635728359222412,-0.960199236869812,0.72072434425354
1774472311805400000,0.680400146484375,-0.6440857648849487,-0.7113628387451172,0.5717937350273132
1774472311815413200,0.690413330078125,-0.46210426092147827,-0.4594131410121918,0.43065524101257324
1774472311825427200,0.70042724609375,-0.3400920629501343,-0.2786087393760681,0.3232147991657257
1774472311835440000,0.710440185546875,-0.2579319477081299,-0.24950329959392548,0.2875734567642212
1774472311845453300,0.720453369140625,-0.19093027710914612,-0.3703343868255615,0.31165963411331177
1774472311855466200,0.73046630859375,-0.15222442150115967,-0.5312047600746155,0.34703996777534485
1774472311865480200,0.740480224609375,-0.2247215211391449,-0.7506875991821289,0.3627243936061859
1774472311875493400,0.750493408203125,-0.4118919372558594,-0.9873571395874023,0.3580401539802551
1774472311885506000,0.760506103515625,-0.5834594368934631,-1.0576437711715698,0.3321355879306793
1774472311895519200,0.770519287109375,-0.6354947090148926,-0.9702979922294617,0.31783682107925415
1774472311905533400,0.780533447265625,-0.5839555859565735,-0.8601837158203125,0.333310067653656
1774472311915546000,0.790546142578125,-0.4692939817905426,-0.6819274425506592,0.32429152727127075
1774472311925559300,0.800559326171875,-0.3203335404396057,-0.4583952724933624,0.2578198313713074
1774472311935573200,0.8105732421875,-0.18833209574222565,-0.34256958961486816,0.14891543984413147
1774472311945586200,0.820586181640625,-0.10544653236865997,-0.42604079842567444,0.01942935772240162
1774472311955599400,0.830599365234375,-0.07994010299444199,-0.6626088619232178,-0.07542099058628082
1774472311965612300,0.8406123046875,-0.11054541915655136,-0.929261326789856,-0.12951858341693878
1774472311975626200,0.850626220703125,-0.1758011281490326,-1.113655686378479,-0.15595923364162445
1774472311985639400,0.860639404296875,-0.286312997341156,-1.1631758213043213,-0.1522049754858017
1774472311995652000,0.870652099609375,-0.43002620339393616,-1.1145979166030884,-0.13477352261543274
1774472312005665300,0.880665283203125,-0.508299708366394,-1.0121948719024658,-0.09473849087953568
1774472312015679200,0.89067919921875,-0.5145376324653625,-0.9351466298103333,-0.02599644660949707
1774472312025692200,0.900692138671875,-0.4545464813709259,-0.9660733938217163,0.051367051899433136
1774472312035705300,0.910705322265625,-0.37355148792266846,-1.019295334815979,0.12228463590145111
1774472312045719000,0.920718994140625,-0.31327295303344727,-0.9982073903083801,0.18817603588104248
1774472312055732200,0.930732177734375,-0.27989983558654785,-0.8794556856155396,0.24808304011821747
1774472312065745400,0.940745361328125,-0.26012906432151794,-0.7436070442199707,0.2833890914916992
1774472312075758300,0.95075830078125,-0.2468436062335968,-0.5964457988739014,0.2784617245197296
1774472312085772300,0.960772216796875,-0.22998233139514923,-0.4351690411567688,0.22423097491264343
1774472312095785200,0.97078515625,-0.21102195978164673,-0.3299699127674103,0.14176246523857117
1774472312105798100,0.980798095703125,-0.20606687664985657,-0.3842083811759949,0.0746593251824379
1774472312115811300,0.990811279296875,-0.23303166031837463,-0.4809170961380005,0.02648087590932846
1774472312125825300,1.0008251953125,-0.28334835171699524,-0.5921802520751953,0.026807645335793495
1774472312135838200,1.010838134765625,-0.33622807264328003,-0.7123644351959229,0.07897444069385529
1774472312145851100,1.02085107421875,-0.3722262978553772,-0.8264390826225281,0.14360643923282623
1774472312155865000,1.030864990234375,-0.3871370553970337,-0.8964969515800476,0.19319209456443787
1774472312165878300,1.040878173828125,-0.37181350588798523,-0.8718664646148682,0.2266658991575241
1774472312175891200,1.05089111328125,-0.34840166568756104,-0.753151535987854,0.25207725167274475
1774472312185904400,1.060904296875,-0.34271207451820374,-0.5995047092437744,0.2545177638530731
1774472312195918300,1.07091845703125,-0.34586232900619507,-0.5194061398506165,0.21029996871948242
1774472312205931300,1.08093115234375,-0.3529103994369507,-0.4784667193889618,0.11353801190853119
1774472312215944200,1.090944091796875,-0.3680850863456726,-0.4283106029033661,-0.016921991482377052
1774472312225958400,1.10095849609375,-0.3614064157009125,-0.408031702041626,-0.10980665683746338
1774472312235971300,1.110971435546875,-0.33788084983825684,-0.4336710274219513,-0.12640081346035004
1774472312245984300,1.120984375,-0.33756232261657715,-0.47517451643943787,-0.06710473448038101
1774472312255997200,1.1309970703125,-0.35753709077835083,-0.5431846976280212,0.047030091285705566
1774472312266011100,1.14101123046875,-0.3661462962627411,-0.6052656769752502,0.16448481380939484
1774472312276024300,1.1510244140625,-0.3717370629310608,-0.6615345478057861,0.23836755752563477
1774472312286037200,1.161037353515625,-0.38805267214775085,-0.7144603133201599,0.2448377162218094
1774472312296050400,1.171050537109375,-0.4076833426952362,-0.7943064570426941,0.2140323966741562
1774472312306064100,1.181064208984375,-0.4372151494026184,-0.8957254886627197,0.1710902601480484
1774472312316077300,1.191077392578125,-0.44890695810317993,-0.9973000288009644,0.12369264662265778
1774472312326090200,1.20109033203125,-0.46742525696754456,-1.0326646566390991,0.07910573482513428
1774472312336104200,1.211104248046875,-0.45466604828834534,-0.9720996022224426,0.06106468662619591
1774472312346117400,1.221117431640625,-0.40989911556243896,-0.8820828795433044,0.029193837195634842
1774472312356130000,1.231130126953125,-0.3674728274345398,-0.8680570721626282,-0.042400721460580826
1774472312366143200,1.241143310546875,-0.35883378982543945,-0.9265467524528503,-0.138899564743042
1774472312376157200,1.2511572265625,-0.38474634289741516,-0.975658655166626,-0.20956334471702576
1774472312386170000,1.261170166015625,-0.4164470136165619,-1.0095561742782593,-0.20438748598098755
1774472312396183300,1.271183349609375,-0.43262892961502075,-1.0620853900909424,-0.13495755195617676
1774472312406197200,1.281197265625,-0.4709278345108032,-1.0691885948181152,-0.03515239432454109
1774472312416210200,1.291210205078125,-0.5267783403396606,-1.0202423334121704,0.07785458117723465
1774472312426223400,1.301223388671875,-0.5663411617279053,-0.9763023257255554,0.19246718287467957
1774472312436236000,1.311236083984375,-0.5710635185241699,-0.9734479784965515,0.2908632755279541
1774472312446250200,1.321250244140625,-0.5412611365318298,-0.938007116317749,0.3357228636741638
1774472312456263400,1.331263427734375,-0.48580318689346313,-0.816209077835083,0.330777645111084
1774472312466276000,1.341276123046875,-0.43818721175193787,-0.6821562051773071,0.30199235677719116
1774472312476289300,1.351289306640625,-0.3809073865413666,-0.5872405767440796,0.27730509638786316
1774472312486303200,1.36130322265625,-0.34154215455055237,-0.46799275279045105,0.2571873366832733
1774472312496316200,1.371316162109375,-0.2938033938407898,-0.32185953855514526,0.24372237920761108
1774472312506329300,1.381329345703125,-0.19629760086536407,-0.3244001865386963,0.25206393003463745
1774472312516343300,1.39134326171875,-0.1408737599849701,-0.45047876238822937,0.26181483268737793
1774472312526356200,1.401356201171875,-0.13468004763126373,-0.5732755064964294,0.26254987716674805
1774472312536369400,1.411369384765625,-0.1832321435213089,-0.7494511008262634,0.28920331597328186
1774472312546382000,1.421382080078125,-0.28174060583114624,-0.9624232649803162,0.331820547580719
1774472312556396300,1.431396240234375,-0.36846962571144104,-1.1045193672180176,0.34991753101348877
1774472312566409500,1.441409423828125,-0.3862574100494385,-1.1894811391830444,0.39767199754714966
1774472312576422100,1.451422119140625,-0.42803362011909485,-1.1310293674468994,0.4265265464782715
1774472312586436400,1.461436279296875,-0.43438392877578735,-1.0525121688842773,0.4543997347354889
1774472312596449000,1.471448974609375,-0.4519791901111603,-1.1311696767807007,0.5018618106842041
1774472312606462200,1.481462158203125,-0.5098504424095154,-1.333860993385315,0.5045822262763977
1774472312616475400,1.491475341796875,-0.6224251985549927,-1.474687933921814,0.41852375864982605
1774472312626489000,1.501489013671875,-0.7236120104789734,-1.4737496376037598,0.2597721815109253
1774472312636502300,1.511502197265625,-0.7768757939338684,-1.4253240823745728,0.04532114416360855
1774472312646515200,1.52151513671875,-0.8268252015113831,-1.4812698364257812,-0.1441422551870346
1774472312656528100,1.531528076171875,-0.7614965438842773,-1.4353969097137451,-0.23811349272727966
1774472312666542300,1.541542236328125,-0.6806906461715698,-0.9182209372520447,-0.20963259041309357
1774472312676555300,1.55155517578125,-0.5141810178756714,-0.31544530391693115,0.018033595755696297
1774472312686568200,1.561568115234375,-0.3603736162185669,-0.03593989089131355,0.33311590552330017
1774472312696582400,1.57158251953125,-0.227532759308815,-0.01372113823890686,0.628225564956665
1774472312706595000,1.581594970703125,-0.12324869632720947,-0.015865249559283257,0.8848595023155212
1774472312716608300,1.591608154296875,-0.06435821950435638,-0.01883440837264061,1.1323223114013672
1774472312726621200,1.60162109375,-0.015430888161063194,-0.16722574830055237,1.3138763904571533
1774472312736635100,1.61163525390625,0.046368829905986786,-0.5033126473426819,1.3324064016342163
1774472312746648300,1.6216484375,0.047376036643981934,-0.7905406951904297,1.1771725416183472
1774472312756661200,1.6316611328125,0.05754398554563522,-1.111337423324585,1.0141314268112183
1774472312766674700,1.6416748046875,0.006921821739524603,-1.3902339935302734,0.9010041356086731
1774472312776687900,1.65168798828125,-0.15020841360092163,-1.3389790058135986,0.795150637626648
1774472312786701000,1.661701171875,-0.32668542861938477,-1.1359918117523193,0.6898705959320068
1774472312796713700,1.671713623046875,-0.545291543006897,-0.940845787525177,0.6354307532310486
1774472312806728000,1.68172802734375,-0.8294463157653809,-0.8819827437400818,0.6251221895217896
1774472312816740900,1.691740966796875,-1.1799633502960205,-0.924552321434021,0.5718938708305359
1774472312826753800,1.70175390625,-1.49637770652771,-1.1360112428665161,0.4794448912143707
1774472312836767000,1.71176708984375,-1.7433505058288574,-1.3789517879486084,0.4523935616016388
1774472312846780700,1.72178076171875,-1.9627315998077393,-1.3181248903274536,0.48817873001098633
1774472312856793900,1.7317939453125,-2.051596164703369,-1.1843676567077637,0.5128992795944214
1774472312866806800,1.741806884765625,-2.0211117267608643,-0.9305862188339233,0.5745453238487244
1774472312876820700,1.75182080078125,-1.811660647392273,-0.44871920347213745,0.7886466979980469
1774472312886834000,1.761833984375,-1.3907511234283447,-0.13889050483703613,1.148417592048645
1774472312896846800,1.771846923828125,-0.8967494368553162,-0.13573838770389557,1.5303130149841309
1774472312906859800,1.78185986328125,-0.4111340045928955,-0.0832914263010025,1.7536671161651611
1774472312916874000,1.7918740234375,0.08063679188489914,0.10616877675056458,1.7597185373306274
1774472312926887000,1.801886962890625,0.434037983417511,0.3563961982727051,1.688765287399292
1774472312936899800,1.81189990234375,0.673651933670044,0.5828613042831421,1.6126649379730225
1774472312946914000,1.8219140625,0.7580610513687134,0.6221503615379333,1.6124111413955688
1774472312956926700,1.8319267578125,0.7532442212104797,0.9096444845199585,1.674657940864563
1774472312966940000,1.84193994140625,0.9851616024971008,0.9940546751022339,1.4470181465148926
1774472312976952800,1.851952880859375,0.6016868948936462,0.8767107725143433,1.3411221504211426
1774472312986966800,1.861966796875,0.07364173233509064,-0.2274097204208374,1.6362913846969604
1774472312996980000,1.87197998046875,-0.10778958350419998,-1.273869514465332,1.729336142539978
1774472313006993000,1.881992919921875,-0.28950080275535583,-1.7024742364883423,1.4651402235031128
1774472313017005800,1.892005859375,-0.3983630836009979,-1.491371512413025,1.1184104681015015
1774472313027020000,1.90202001953125,-0.3057689666748047,-0.8335273265838623,0.7589865326881409
1774472313037033000,1.912032958984375,-0.35859090089797974,-0.29150187969207764,0.5527380108833313
1774472313047046000,1.9220458984375,-0.33149752020835876,0.013726997189223766,0.5611075162887573
1774472313057059800,1.932059814453125,-0.14120346307754517,0.11282854527235031,0.6825016140937805
1774472313067072800,1.94207275390625,0.16894668340682983,-0.11207593977451324,0.7230886816978455
1774472313077086000,1.9520859375,0.40862637758255005,0.11981801688671112,0.6907760500907898
1774472313087099000,1.962098876953125,0.677394449710846,0.38283100724220276,0.530648946762085
1774472313097112800,1.97211279296875,0.7094618678092957,0.14222052693367004,0.37905943393707275
1774472313107125800,1.982125732421875,0.4410109519958496,-0.12323085218667984,0.20737315714359283
1774472313117139000,1.992138916015625,0.36084821820259094,-0.054612644016742706,0.24371784925460815
1774472313127151900,2.00215185546875,0.343472421169281,-0.05955414101481438,0.3079325258731842
1774472313137165800,2.012165771484375,0.3887290954589844,0.024982847273349762,0.29786258935928345
1774472313147179000,2.022178955078125,0.5548371076583862,0.09567992389202118,0.22982680797576904
1774472313157191700,2.032191650390625,0.5880627036094666,-0.016199743375182152,0.18947911262512207
1774472313167206000,2.042205810546875,0.5517100095748901,-0.12274083495140076,0.3011702299118042
1774472313177218800,2.05221875,0.5567442178726196,-0.09765998274087906,0.4906141757965088
1774472313187231700,2.062231689453125,0.6053737998008728,-0.20626555383205414,0.5206732749938965
1774472313197245000,2.072244873046875,0.6561315059661865,-0.2083667814731598,0.4705946743488312
1774472313207259000,2.0822587890625,0.643905758857727,-0.047327566891908646,0.39753592014312744
1774472313217271800,2.092271728515625,0.5894742012023926,0.1459721177816391,0.29527533054351807
1774472313227285000,2.102284912109375,0.4722956418991089,0.2372402399778366,0.1797226220369339
1774472313237297700,2.112297607421875,0.3400731384754181,0.34358346462249756,0.11587067693471909
1774472313247312000,2.122311767578125,0.2858504056930542,0.4802108108997345,0.1353980451822281
1774472313257325000,2.132324951171875,0.3167393207550049,0.49200621247291565,0.15911242365837097
1774472313267337700,2.142337646484375,0.4392463266849518,0.4527243375778198,0.15881787240505219
1774472313277352000,2.15235205078125,0.5439631938934326,0.48006781935691833,0.23195654153823853
1774472313287364900,2.16236474609375,0.586311399936676,0.5933051705360413,0.3118950426578522
1774472313297377800,2.172377685546875,0.5661084055900574,0.7208612561225891,0.35115668177604675
1774472313307391000,2.182390869140625,0.5311709642410278,0.6955897212028503,0.32339349389076233
1774472313317404700,2.19240478515625,0.5018399357795715,0.5469182133674622,0.2688295841217041
1774472313327417900,2.20241796875,0.5071399211883545,0.4226764142513275,0.23693637549877167
1774472313337431000,2.21243115234375,0.5015155673027039,0.356547474861145,0.21658477187156677
1774472313347444700,2.22244482421875,0.4688045084476471,0.3765358328819275,0.20167160034179688
1774472313357458000,2.2324580078125,0.39527568221092224,0.4214199483394623,0.16852855682373047
1774472313367471000,2.24247119140625,0.2847401201725006,0.4622272849082947,0.12120205909013748
1774472313377483800,2.25248388671875,0.20657101273536682,0.4997562766075134,0.05648830905556679
1774472313387498000,2.262498046875,0.19484831392765045,0.6454287767410278,-0.020365726202726364
1774472313397510700,2.2725107421875,0.21494798362255096,0.8321560621261597,-0.09050992876291275
1774472313407523800,2.28252392578125,0.2635576128959656,0.9828129410743713,-0.13924629986286163
1774472313417537000,2.292537109375,0.3095322847366333,1.0618960857391357,-0.15075676143169403
1774472313427550700,2.30255078125,0.3465001583099365,1.0304851531982422,-0.13591095805168152
1774472313437564000,2.31256396484375,0.265207439661026,0.7483687400817871,-0.07162225246429443
1774472313447576800,2.322576904296875,0.15143533051013947,0.37487879395484924,0.08868912607431412
1774472313457590800,2.3325908203125,0.19845344126224518,0.33621448278427124,0.1455518752336502
1774472313467604000,2.34260400390625,0.2780417501926422,0.2638806402683258,0.16991420090198517
1774472313477617000,2.352616943359375,0.3509710729122162,0.12403566390275955,0.18088509142398834
1774472313487629800,2.3626298828125,0.38102084398269653,0.04797951132059097,0.11154650151729584
1774472313497644000,2.37264404296875,0.351917564868927,-0.02508671022951603,-0.07694111764431
1774472313507656700,2.38265673828125,0.32254689931869507,-0.09959743171930313,-0.22389860451221466
1774472313517670000,2.392669921875,0.2954942286014557,-0.1813064068555832,-0.31470975279808044
1774472313527684000,2.40268408203125,0.24364808201789856,-0.23184840381145477,-0.3122553825378418
1774472313537696800,2.41269677734375,0.21146857738494873,-0.21750248968601227,-0.2613719403743744
1774472313547710000,2.4227099609375,0.2121567279100418,-0.22870561480522156,-0.2161506712436676
1774472313557723000,2.432722900390625,0.20503011345863342,-0.3555549085140228,-0.17042286694049835
1774472313567736800,2.44273681640625,0.25186845660209656,-0.5756909847259521,-0.11432843655347824
1774472313577750000,2.45275,0.35171303153038025,-0.7846421003341675,-0.06473319232463837
1774472313587763000,2.462762939453125,0.4663269519805908,-0.9368281364440918,-0.012328837998211384
1774472313597777000,2.47277685546875,0.56561678647995,-1.0052902698516846,0.023547137156128883
1774472313607789800,2.482789794921875,0.520634114742279,-1.0227081775665283,-0.22774101793766022
1774472313617802800,2.492802734375,0.47554442286491394,-1.1022621393203735,-0.36726856231689453
1774472313627817000,2.50281689453125,0.5643326044082642,-1.1294516324996948,-0.2832657992839813
1774472313637830000,2.512829833984375,0.5724669694900513,-1.170307993888855,-0.3444995880126953
1774472313647842800,2.5228427734375,0.48524579405784607,-1.2228668928146362,-0.5916667580604553
1774472313657855700,2.532855712890625,0.30919674038887024,-0.8452686667442322,-0.9079285860061646
1774472313667869700,2.54286962890625,0.20393554866313934,-0.5070541501045227,-1.1088377237319946
1774472313677883000,2.5528828125,0.12694169580936432,-0.4333663582801819,-1.1964621543884277
1774472313687895800,2.562895751953125,0.14181704819202423,-0.5112230777740479,-1.0997252464294434
1774472313697909800,2.57290966796875,0.21459992229938507,-0.6178683042526245,-0.833393394947052
1774472313707923000,2.5829228515625,0.27338334918022156,-0.6936168670654297,-0.5183571577072144
1774472313717935900,2.592935791015625,0.28171342611312866,-0.7611687183380127,-0.2854783535003662
1774472313727949800,2.60294970703125,0.2531108260154724,-0.8157219886779785,-0.16530346870422363
1774472313737963000,2.612962890625,0.22726431488990784,-0.7608550190925598,-0.1814321130514145
1774472313747976000,2.622975830078125,0.13707023859024048,-0.8152127861976624,-0.2626398801803589
1774472313757990000,2.632989990234375,-0.3565594553947449,-0.8639054894447327,-0.10880743712186813
1774472313768002800,2.6430029296875,-0.7249252200126648,-1.0259279012680054,-0.09464368224143982
1774472313778015500,2.653015380859375,-1.049337387084961,-0.9948096871376038,-0.07779146730899811
1774472313788029700,2.66302978515625,-1.249282717704773,-0.9336960315704346,-0.11405359953641891
1774472313798042600,2.673042724609375,-1.4152612686157227,-0.8978280425071716,-0.32233676314353943
1774472313808055600,2.6830556640625,-1.4206547737121582,-0.6624216437339783,-0.5371305346488953
1774472313818069800,2.69306982421875,-1.2019072771072388,-0.47015073895454407,-0.6260223388671875
1774472313828082700,2.703082763671875,-0.9229746460914612,-0.4898003339767456,-0.6333258152008057
1774472313838095600,2.713095703125,-0.6192067861557007,-0.5666570067405701,-0.5243836045265198
1774472313848109800,2.72310986328125,-0.3724188506603241,-0.6808043718338013,-0.2460166960954666
1774472313858122500,2.73312255859375,-0.30318865180015564,-0.6982978582382202,-0.3751640319824219
1774472313868135700,2.7431357421875,-0.3519236743450165,-0.4009506106376648,-0.777960479259491
1774472313878148600,2.753148681640625,-0.5997984409332275,-0.06963340938091278,-1.0613266229629517
1774472313888162600,2.76316259765625,-0.8274955153465271,0.20737342536449432,-1.2225621938705444
1774472313898175700,2.77317578125,-0.9079999923706055,0.24880902469158173,-1.3035012483596802
1774472313908189400,2.783189453125,-0.8597573637962341,0.06764376163482666,-1.416634440422058
1774472313918202600,2.79320263671875,-0.7375717759132385,-0.047810133546590805,-1.5282707214355469
1774472313928215800,2.8032158203125,-0.5755852460861206,0.06298961490392685,-1.5065441131591797
1774472313938229500,2.8132294921875,-0.38644757866859436,0.21556025743484497,-1.4327460527420044
1774472313948242700,2.82324267578125,-0.19017259776592255,0.24011939764022827,-1.3700757026672363
1774472313958255900,2.833255859375,-0.0385226234793663,0.2080695778131485,-1.3999824523925781
1774472313968269600,2.84326953125,0.04694673418998718,0.3170309364795685,-1.481661319732666
1774472313978282800,2.85328271484375,-0.006155896931886673,0.4921463131904602,-1.5197893381118774
1774472313988295700,2.863295654296875,-0.053090646862983704,0.8285384178161621,-1.5614097118377686
1774472313998309600,2.8733095703125,-0.14077070355415344,2.0948312282562256,-2.0535926818847656
1774472314008322800,2.88332275390625,-0.19510796666145325,3.362811803817749,-2.7099850177764893
1774472314018335500,2.89333544921875,-0.16527551412582397,4.164933204650879,-3.098003387451172
1774472314028349700,2.903349609375,-0.1859658807516098,4.218299388885498,-3.2703373432159424
1774472314038362600,2.913362548828125,-0.1897217333316803,3.942708969116211,-3.3151042461395264
1774472314048375600,2.92337548828125,-0.2547236382961273,3.868694543838501,-3.3241851329803467
1774472314058389800,2.9333896484375,-0.35706570744514465,3.773472547531128,-3.344919443130493
1774472314068402700,2.943402587890625,-0.44753196835517883,3.8071205615997314,-3.387223243713379
1774472314078415600,2.95341552734375,-0.5048852562904358,3.573965072631836,-3.3630051612854004
1774472314088429600,2.9634296875,-0.4955839216709137,3.118515968322754,-3.255826711654663
1774472314098442500,2.9734423828125,-0.4962502419948578,2.7903859615325928,-3.056302070617676
1774472314108455700,2.98345556640625,-0.5373819470405579,2.4884448051452637,-2.8061726093292236
1774472314118469600,2.9934697265625,-0.6193010807037354,1.936154842376709,-2.4878756999969482
1774472314128482600,3.003482666015625,-0.7944225668907166,1.2674204111099243,-2.126509666442871
1774472314138496500,3.01349658203125,-1.0421864986419678,0.6949462890625,-1.7490414381027222
1774472314148509700,3.023509765625,-1.2935290336608887,0.3394230604171753,-1.336857557296753
1774472314158522600,3.033522705078125,-1.4406700134277344,0.1629500389099121,-0.9259321093559265
1774472314168536600,3.04353662109375,-1.4605095386505127,0.17074191570281982,-0.5581008195877075
1774472314178549800,3.0535498046875,-1.4129880666732788,0.26941442489624023,-0.2537742257118225
1774472314188562700,3.063562744140625,-1.3340364694595337,0.33327117562294006,-0.05278198793530464
1774472314198576600,3.07357666015625,-1.2867395877838135,0.38379985094070435,0.02286270447075367
1774472314208589600,3.083589599609375,-1.2618515491485596,0.5069910287857056,0.017243701964616776
1774472314218603500,3.093603515625,-1.258252501487732,0.6784937977790833,-0.013791712000966072
1774472314228616700,3.10361669921875,-1.2641605138778687,0.758465588092804,0.008169779554009438
1774472314238629600,3.113629638671875,-1.2479239702224731,0.7050748467445374,0.08773038536310196
1774472314248643600,3.1236435546875,-1.2398253679275513,0.5902600884437561,0.20278507471084595
1774472314258656800,3.13365673828125,-1.2123998403549194,0.4153846800327301,0.33920708298683167
1774472314268669700,3.143669677734375,-1.1683732271194458,0.19647923111915588,0.44666537642478943
1774472314278683600,3.15368359375,-1.109318494796753,0.0014327806420624256,0.543040931224823
1774472314288696800,3.16369677734375,-1.0296369791030884,-0.1427110731601715,0.661840558052063
1774472314298709500,3.17370947265625,-0.9668664932250977,-0.2209813892841339,0.8264294862747192
1774472314308723700,3.1837236328125,-0.9209005832672119,-0.2865164577960968,1.0280054807662964
1774472314318736600,3.193736572265625,-0.860219419002533,-0.3431837260723114,1.2017219066619873
1774472314328750600,3.20375048828125,-0.804194986820221,-0.35155004262924194,1.3168047666549683
1774472314338763800,3.213763671875,-0.7360255718231201,-0.31504422426223755,1.3947014808654785
1774472314348776700,3.223776611328125,-0.6826744675636292,-0.2822412848472595,1.4313324689865112
1774472314358790700,3.233790771484375,-0.5539636015892029,-0.3915430009365082,1.4180283546447754
1774472314368803800,3.243803955078125,-0.3771853744983673,-0.5764933824539185,1.3447376489639282
1774472314378816500,3.25381640625,-0.18496719002723694,-0.5297059416770935,1.2118713855743408
1774472314388830700,3.263830810546875,-0.18092824518680573,-0.42425087094306946,1.1322671175003052
1774472314398843600,3.27384375,-0.28357231616973877,-0.20232540369033813,1.083242416381836
1774472314408856600,3.283856689453125,-0.09327881783246994,-0.2809634804725647,1.1346075534820557
1774472314418870800,3.293870849609375,-0.0615730844438076,-0.2963656187057495,1.115153431892395
1774472314428883500,3.303883544921875,-0.029084648936986923,-0.21346648037433624,1.1349657773971558
1774472314438897700,3.313897705078125,0.007492803502827883,-0.1297987401485443,1.148841381072998
1774472314448910600,3.32391064453125,0.085915707051754,-0.009044094942510128,1.136612892150879
1774472314458923500,3.333923583984375,0.20592306554317474,0.17225512862205505,1.1374187469482422
1774472314468937700,3.343937744140625,0.3238331973552704,0.3559440076351166,1.179496169090271
1774472314478950700,3.35395068359375,0.4040614664554596,0.44378358125686646,1.229994535446167
1774472314488963600,3.363963623046875,0.4240838885307312,0.4443180561065674,1.2123219966888428
1774472314498977500,3.3739775390625,0.40077298879623413,0.4044273793697357,1.0860533714294434
1774472314508990700,3.38399072265625,0.36396437883377075,0.2980346083641052,0.9251360893249512
1774472314519004700,3.394004638671875,0.3415496051311493,0.20518697798252106,0.8032623529434204
1774472314529017600,3.404017578125,0.32502281665802,0.1658443659543991,0.7224556803703308
1774472314539030500,3.414030517578125,0.3109288513660431,0.1356630176305771,0.685373842716217
1774472314549044700,3.424044677734375,0.2898925244808197,0.0986727774143219,0.6574838757514954
1774472314559057700,3.4340576171875,0.2732941210269928,0.09244924038648605,0.63143390417099
1774472314569070600,3.444070556640625,0.27250877022743225,0.11305864155292511,0.5976256132125854
1774472314579084500,3.45408447265625,0.2746584713459015,0.20810607075691223,0.5479059815406799
1774472314589097700,3.46409765625,0.2698032557964325,0.33419501781463623,0.47774046659469604
1774472314599111700,3.474111572265625,0.27011191844940186,0.40862077474594116,0.3801446855068207
1774472314609124600,3.48412451171875,0.26990896463394165,0.4419686198234558,0.2754121422767639
1774472314619137800,3.4941376953125,0.2634446918964386,0.4179418385028839,0.19550558924674988
1774472314629151500,3.5041513671875,0.25290149450302124,0.3267677426338196,0.13455195724964142
1774472314639164700,3.51416455078125,0.25170013308525085,0.23753079771995544,0.09638379514217377
1774472314649177600,3.524177490234375,0.24285738170146942,0.13751685619354248,0.0707910805940628
1774472314659191600,3.534191650390625,0.221294566988945,0.010264622047543526,0.05693412199616432
1774472314669204700,3.544204833984375,0.20511692762374878,-0.09467803686857224,0.007691741921007633
1774472314679218700,3.55421875,0.18064993619918823,-0.08467360585927963,-0.12007208168506622
1774472314689231600,3.564231689453125,0.15475575625896454,0.03846723213791847,-0.3147105276584625
1774472314699244800,3.574244873046875,0.1260404884815216,0.1859445720911026,-0.5009331107139587
1774472314709258500,3.584258544921875,0.0719415694475174,0.331443190574646,-0.6430103778839111
1774472314719271700,3.594271728515625,0.028791168704628944,0.5457549691200256,-0.723644495010376
1774472314729284900,3.604284912109375,0.0226746853441,0.7045256495475769,-0.794241189956665
1774472314739298600,3.614298583984375,0.02864416129887104,0.7167173624038696,-0.8724172115325928
1774472314749311700,3.624311767578125,0.020493824034929276,0.7026236653327942,-0.9801207780838013
1774472314759325700,3.63432568359375,0.021560685709118843,0.6930655837059021,-1.1334480047225952
1774472314769339600,3.644339599609375,0.061467356979846954,0.6342693567276001,-1.2978638410568237
1774472314779352300,3.654352294921875,0.11033210158348083,0.5241167545318604,-1.4509730339050293
1774472314789366500,3.664366455078125,0.1540343016386032,0.34438881278038025,-1.5313676595687866
1774472314799379700,3.674379638671875,0.23151391744613647,0.19338729977607727,-1.493615984916687
1774472314809392400,3.684392333984375,0.3118114173412323,0.1268540918827057,-1.3650060892105103
1774472314819406600,3.694406494140625,0.36170655488967896,0.1120743378996849,-1.2011932134628296
1774472314829419500,3.70441943359375,0.3878744840621948,0.1619015485048294,-1.0176734924316406
1774472314839433500,3.71443359375,0.38599351048469543,0.3040275275707245,-0.8057737350463867
1774472314849446700,3.72444677734375,0.3234851062297821,0.43650567531585693,-0.5518708825111389
1774472314859459600,3.73445947265625,0.19467520713806152,0.5037715435028076,-0.2930704951286316
1774472314869473500,3.7444736328125,0.05115719512104988,0.5499784350395203,-0.09882991015911102
1774472314879486500,3.754486572265625,-0.08758151531219482,0.585639476776123,-0.03930186480283737
1774472314889499400,3.76449951171875,-0.24323102831840515,0.5772673487663269,-0.11132173240184784
1774472314899513600,3.774513671875,-0.4377709627151489,0.5598020553588867,-0.22573699057102203
1774472314909526500,3.784526611328125,-0.6396891474723816,0.5602403879165649,-0.3178485333919525
1774472314919540700,3.794540771484375,-0.7572442889213562,0.6864966154098511,-0.3415847718715668
1774472314929553400,3.804553466796875,-0.7685443162918091,0.7976289987564087,-0.35720473527908325
1774472314939566600,3.814566650390625,-0.7315500974655151,0.8444678783416748,-0.37919577956199646
1774472314949580500,3.82458056640625,-0.7046428322792053,0.8264731764793396,-0.3956157863140106
1774472314959593500,3.834593505859375,-0.7152441143989563,0.7172092199325562,-0.3911171555519104
1774472314969606700,3.844606689453125,-0.7458850741386414,0.5139703750610352,-0.35952380299568176
1774472314979620400,3.854620361328125,-0.8394331336021423,0.26594778895378113,-0.28975191712379456
1774472314989633500,3.864633544921875,-0.9894255995750427,-0.06821926683187485,-0.14936286211013794
1774472314999647700,3.874647705078125,-1.143484354019165,-0.37130430340766907,0.061052966862916946
1774472315009660400,3.884660400390625,-1.2619729042053223,-0.5135189890861511,0.21754510700702667
1774472315019673600,3.894673583984375,-1.3152897357940674,-0.478418231010437,0.21286380290985107
1774472315029687600,3.9046875,-1.304879903793335,-0.30716368556022644,0.04620557650923729
1774472315039700500,3.914700439453125,-1.2565017938613892,-0.0688624233007431,-0.18023687601089478
1774472315049713700,3.924713623046875,-1.1611427068710327,0.1158783957362175,-0.3609089255332947
1774472315059727400,3.934727294921875,-1.0530487298965454,0.1434551626443863,-0.4677506983280182
1774472315069740500,3.944740478515625,-0.9335386157035828,0.08748697489500046,-0.496686726808548
1774472315079754500,3.95475439453125,-0.8301805257797241,-0.012356534600257874,-0.45242393016815186
1774472315089767400,3.964767333984375,-0.7396051287651062,-0.18516825139522552,-0.36213716864585876
1774472315099780600,3.974780517578125,-0.6783862113952637,-0.4808204174041748,-0.25787389278411865
1774472315109794600,3.984794677734375,-0.6665726900100708,-0.8396302461624146,-0.16091112792491913
1774472315119807500,3.994807373046875,-0.6793689131736755,-1.098949670791626,-0.10025336593389511
1774472315129820700,4.004820556640625,-0.6540771722793579,-1.1700776815414429,-0.08704089373350143
1774472315139834600,4.014834716796875,-0.5836136341094971,-1.0701385736465454,-0.15670226514339447
1774472315149847600,4.02484765625,-0.4711243808269501,-0.7427188754081726,-0.29879921674728394
1774472315159860700,4.03486083984375,-0.3041039705276489,-0.26730307936668396,-0.46982982754707336
1774472315169874400,4.04487451171875,-0.11885607987642288,0.15732170641422272,-0.6365807056427002
1774472315179887600,4.0548876953125,-0.02376924455165863,0.333987832069397,-0.7834500670433044
1774472315189901600,4.064901611328125,-0.07117298245429993,0.3360171616077423,-0.8835745453834534
1774472315199914500,4.07491455078125,-0.21201665699481964,0.35917654633522034,-0.937700629234314
1774472315209927700,4.084927734375,-0.3516477942466736,0.3818006217479706,-0.9273526072502136
1774472315219941600,4.094941650390625,-0.4519307017326355,0.22077791392803192,-0.8155906796455383
1774472315229954600,4.10495458984375,-0.510697066783905,-0.09882857650518417,-0.6088258028030396
1774472315239967500,4.114967529296875,-0.5210908651351929,-0.46723243594169617,-0.3386150598526001
1774472315249981700,4.124981689453125,-0.47492843866348267,-0.7337059378623962,-0.015239672735333443
1774472315259994600,4.13499462890625,-0.4073163568973541,-0.7549494504928589,0.3727935552597046
1774472315270008600,4.145008544921875,-0.30692824721336365,-0.5497483611106873,0.7501205801963806
1774472315280021500,4.155021484375,-0.22258220613002777,-0.31425780057907104,1.0392333269119263
1774472315290034400,4.165034423828125,-0.14165273308753967,-0.2936427891254425,1.2389962673187256
1774472315300048600,4.175048583984375,-0.05174282193183899,-0.47870638966560364,1.3587602376937866
1774472315310061600,4.1850615234375,0.017359549179673195,-0.7300872206687927,1.316292405128479
1774472315320074500,4.195074462890625,0.11502592265605927,-1.0058375597000122,1.124061107635498
1774472315330088700,4.205088623046875,0.2867489457130432,-1.2886523008346558,0.8151049017906189
1774472315340101400,4.215101318359375,0.5102262496948242,-1.4632458686828613,0.42202234268188477
1774472315350114600,4.225114501953125,0.7281553745269775,-1.454299807548523,0.013601030223071575
1774472315360128800,4.235128662109375,0.9033766984939575,-1.2741808891296387,-0.406910240650177
1774472315370141400,4.245141357421875,1.0070477724075317,-1.0111215114593506,-0.8172194957733154
1774472315380155600,4.25515576171875,1.0028681755065918,-0.7036372423171997,-1.2087105512619019
1774472315390168300,4.265168212890625,0.8913168907165527,-0.3787366449832916,-1.5419853925704956
1774472315400181500,4.275181396484375,0.8555647134780884,-0.23382927477359772,-1.687049150466919
1774472315410195700,4.28519580078125,0.8492048382759094,-0.2160598635673523,-1.655950665473938
1774472315420208400,4.29520849609375,0.7455497980117798,-0.22289566695690155,-1.51602303981781
1774472315430221600,4.3052216796875,0.524293065071106,-0.13814322650432587,-1.319058895111084
1774472315440235500,4.315235595703125,0.3515966534614563,-0.08335214853286743,-1.0847885608673096
1774472315450248400,4.32524853515625,0.2580139636993408,-0.2760409116744995,-0.8723788857460022
1774472315460261600,4.33526171875,0.1777534782886505,-0.6416391134262085,-0.6749909520149231
1774472315470275600,4.345275634765625,0.09364952892065048,-0.9574120044708252,-0.4120163321495056
1774472315480288500,4.35528857421875,-0.007650729268789291,-0.937025249004364,-0.14938469231128693
1774472315490302500,4.365302490234375,-0.12113414704799652,-0.7572069764137268,0.15778963267803192
1774472315500315400,4.3753154296875,-0.2489677369594574,-0.6047852635383606,0.4598386883735657
1774472315510328600,4.38532861328125,-0.3393024206161499,-0.5358548760414124,0.743213951587677
1774472315520342500,4.395342529296875,-0.4059203565120697,-0.5732678174972534,1.0173022747039795
1774472315530355500,4.40535546875,-0.48273444175720215,-0.6328227519989014,1.212350606918335
1774472315540368600,4.41536865234375,-0.5502769947052002,-0.6690603494644165,1.3015563488006592
1774472315550382600,4.425382568359375,-0.5697545409202576,-0.7112419009208679,1.3052818775177002
1774472315560395500,4.4353955078125,-0.5553766489028931,-0.7046037316322327,1.2501142024993896
1774472315570408700,4.44540869140625,-0.5027198791503906,-0.6908010840415955,1.1802008152008057
1774472315580422700,4.455422607421875,-0.46429815888404846,-0.762785792350769,1.1185531616210938
1774472315590435600,4.465435546875,-0.4558165371417999,-0.8911679983139038,1.0255728960037231
1774472315600448500,4.475448486328125,-0.4129508137702942,-0.9671674370765686,0.9323130249977112
1774472315610462500,4.48546240234375,-0.33924224972724915,-0.9051482677459717,0.8629955053329468
1774472315620475600,4.4954755859375,-0.276266485452652,-0.8492005467414856,0.8037137985229492
1774472315630489600,4.505489501953125,-0.24919570982456207,-0.9632283449172974,0.7417697310447693
1774472315640502500,4.51550244140625,0.06421946734189987,-1.6848137378692627,0.853723406791687
1774472315650515500,4.525515380859375,0.3824150264263153,-1.9766242504119873,0.8059551119804382
1774472315660529700,4.53552978515625,0.47175127267837524,-1.5297991037368774,0.8067138195037842
1774472315670542600,4.54554248046875,0.6784695982933044,-1.4085544347763062,0.9282088279724121
1774472315680555500,4.555555419921875,0.771155834197998,-1.4204851388931274,0.9568982720375061
1774472315690569700,4.56556982421875,0.8549016118049622,-1.5546149015426636,0.9044675827026367
1774472315700582400,4.57558251953125,0.8745943307876587,-1.3084485530853271,0.7377156019210815
1774472315710595600,4.585595703125,0.8974812626838684,-0.7705504894256592,0.7148800492286682
1774472315720609500,4.595609619140625,0.9038395881652832,-0.5170378088951111,0.7696924209594727
1774472315730622500,4.60562255859375,0.8356764912605286,-0.7742781043052673,0.7905713319778442
1774472315740635600,4.6156357421875,0.6555171012878418,-1.0601325035095215,0.8119743466377258
1774472315750649300,4.6256494140625,0.45741015672683716,-1.3411955833435059,0.9133108258247375
1774472315760662500,4.63566259765625,0.3129517734050751,-1.545303225517273,0.9663021564483643
1774472315770675200,4.64567529296875,0.26257917284965515,-1.772363543510437,0.907291829586029
1774472315780689200,4.655689208984375,0.18674218654632568,-2.0980935096740723,0.6943425536155701
1774472315790702300,4.665702392578125,0.1279347985982895,-2.5039479732513428,0.40137699246406555
1774472315800716300,4.67571630859375,0.10018306225538254,-2.8550631999969482,0.1633939892053604
1774472315810729200,4.685729248046875,0.1183900237083435,-3.1095521450042725,-0.07143557071685791
1774472315820742100,4.6957421875,0.13710938394069672,-3.060497522354126,-0.20933137834072113
1774472315830756000,4.705756103515625,0.08949579298496246,-2.6383516788482666,-0.24601510167121887
1774472315840769300,4.715769287109375,-0.09489588439464569,-2.1533377170562744,-0.2775881886482239
1774472315850782200,4.7257822265625,-0.38328319787979126,-1.8193235397338867,-0.3599640429019928
1774472315860796200,4.735796142578125,-0.6871170997619629,-1.7263184785842896,-0.41641053557395935
1774472315870809300,4.745809326171875,-0.930539608001709,-1.7943780422210693,-0.45433926582336426
1774472315880822300,4.755822265625,-1.0817129611968994,-1.8952378034591675,-0.4738623797893524
1774472315890836200,4.765836181640625,-1.1329172849655151,-1.8731745481491089,-0.45466604828834534
1774472315900849400,4.775849365234375,-1.0512663125991821,-1.942284345626831,-0.47635936737060547
1774472315910862000,4.785862060546875,-0.8205676078796387,-2.090456485748291,-0.4452911913394928
1774472315920876300,4.795876220703125,-0.5325499176979065,-2.12152099609375,-0.24501188099384308
1774472315930889200,4.80588916015625,-0.322592169046402,-2.1357157230377197,-0.015793610364198685
1774472315940902100,4.815902099609375,-0.1736636608839035,-2.1693952083587646,0.20775452256202698
1774472315950916400,4.825916259765625,-0.12310461699962616,-2.3328657150268555,0.4178904592990875
1774472315960929300,4.83592919921875,-0.23591585457324982,-2.419733762741089,0.5906603336334229
1774472315970942200,4.845942138671875,-0.38852405548095703,-2.226102590560913,0.6813527345657349
1774472315980956400,4.855956298828125,-0.5506991147994995,-1.7450919151306152,0.6672105193138123
1774472315990969000,4.865968994140625,-0.7507852911949158,-1.3895753622055054,0.5956665873527527
1774472316000982300,4.875982177734375,-0.8862331509590149,-1.0803837776184082,0.5509856343269348
1774472316010996200,4.885996337890625,-0.9069107174873352,-0.7082080245018005,0.6007888913154602
1774472316021009200,4.896009033203125,-0.8502730131149292,-0.21764390170574188,0.6978904008865356
1774472316031022300,4.906022216796875,-0.7442837357521057,0.1820334494113922,0.8126558661460876
1774472316041036000,4.9160361328125,-0.534599244594574,0.6315276622772217,0.9555760025978088
1774472316051049200,4.92604931640625,-0.3109496235847473,0.8723613023757935,1.11038076877594
1774472316061062400,4.9360625,-0.12661466002464294,0.8554177284240723,1.2152595520019531
1774472316071076000,4.946076171875,0.03796389326453209,0.6601569056510925,1.26810622215271
1774472316081089300,4.95608935546875,0.231210857629776,0.44292229413986206,1.300601840019226
1774472316091103200,4.966103271484375,0.4588645100593567,0.24659566581249237,1.3412083387374878
1774472316101116200,4.9761162109375,0.6615888476371765,-0.05824386700987816,1.284092664718628
1774472316111129300,4.98612939453125,0.7764379382133484,-0.48487693071365356,1.0990301370620728
1774472316121143300,4.996143310546875,0.831976592540741,-0.7232876420021057,0.9101773500442505
1774472316131156200,5.00615625,0.8750582933425903,-0.8058562874794006,0.736266016960144
1774472316141169400,5.01616943359375,0.9507942795753479,-0.7791104316711426,0.5516636967658997
1774472316151183000,5.02618310546875,1.057999610900879,-0.7909809350967407,0.4236319661140442
1774472316161196300,5.0361962890625,1.1074174642562866,-1.0280449390411377,0.31424739956855774
1774472316171209200,5.046209228515625,1.107677936553955,-1.411022663116455,0.1773819774389267
1774472316181223200,5.05622314453125,1.0382388830184937,-1.7710380554199219,0.03750263527035713
1774472316191236400,5.066236328125,0.9006283283233643,-1.9913212060928345,-0.06041913479566574
1774472316201249000,5.0762490234375,0.6659852266311646,-2.059943675994873,-0.13672855496406555
1774472316211263200,5.08626318359375,0.3934820592403412,-1.9942400455474854,-0.20597846806049347
1774472316221276200,5.096276123046875,0.1419382244348526,-1.9140794277191162,-0.2739551067352295
1774472316231289000,5.1062890625,-0.08158780634403229,-1.738076090812683,-0.35692882537841797
1774472316241303300,5.11630322265625,-0.21264062821865082,-1.5272290706634521,-0.46375754475593567
1774472316251316200,5.126316162109375,-0.23072375357151031,-1.354623794555664,-0.5180303454399109
1774472316261329200,5.1363291015625,-0.20463329553604126,-1.1282436847686768,-0.5240778923034668
1774472316271343000,5.146343017578125,-0.20283247530460358,-0.9052183032035828,-0.5158385634422302
1774472316281356300,5.156356201171875,-0.1864340603351593,-0.7236959338188171,-0.46941009163856506
1774472316291369200,5.166369140625,-0.13125842809677124,-0.5606305599212646,-0.3953417241573334
1774472316301383200,5.176383056640625,-0.07803621143102646,-0.29797229170799255,-0.323677122592926
1774472316311396000,5.18639599609375,-0.04627668485045433,-0.21235300600528717,-0.22542619705200195
1774472316321409300,5.1964091796875,-0.03394971042871475,-0.37212589383125305,-0.16624650359153748
1774472316331423200,5.20642333984375,-0.07151998579502106,-0.5533393621444702,-0.11870428174734116
1774472316341436200,5.216436279296875,-0.15674246847629547,-0.6397495865821838,-0.09494542330503464
1774472316351449300,5.226449462890625,-0.2502777576446533,-0.5650215744972229,-0.12930525839328766
1774472316361463300,5.23646337890625,-0.3410385549068451,-0.38048821687698364,-0.17448684573173523
1774472316371476200,5.246476318359375,-0.4423324167728424,-0.2583412826061249,-0.1693594604730606
1774472316381489200,5.2564892578125,-0.5168522000312805,-0.1752202808856964,-0.1113174706697464
1774472316391503400,5.26650341796875,-0.5698224306106567,0.030721161514520645,0.09605755656957626
1774472316401516300,5.276516357421875,-0.5766316056251526,0.3439064919948578,0.3655529320240021
1774472316411529200,5.286529296875,-0.5577314496040344,0.7197182178497314,0.5529366731643677
1774472316421543200,5.296543212890625,-0.5888510346412659,0.6926005482673645,0.5870174169540405
1774472316431556400,5.306556396484375,-0.6272894740104675,0.688748836517334,0.592130184173584
1774472316441569300,5.3165693359375,-0.6316874027252197,0.6624927520751953,0.5554163455963135
1774472316451583200,5.326583251953125,-0.6513724327087402,0.5042764544487,0.41284269094467163
1774472316461596200,5.33659619140625,-0.7371898889541626,0.16443075239658356,0.2483493536710739
1774472316471609300,5.346609375,-0.8320189118385315,-0.07669930160045624,0.18843941390514374
1774472316481623300,5.356623291015625,-0.843334972858429,-0.1839866191148758,0.20398882031440735
1774472316491636200,5.36663623046875,-0.7939682006835938,-0.2110922634601593,0.22794155776500702
1774472316501649200,5.376649169921875,-0.7215174436569214,-0.18945647776126862,0.2374088317155838
1774472316511663000,5.3866630859375,-0.6513769626617432,-0.1499447524547577,0.15085263550281525
1774472316521676300,5.39667626953125,-0.5834008455276489,-0.16818581521511078,0.09026411920785904
1774472316531689200,5.406689208984375,-0.5393505692481995,-0.2529526352882385,0.17857693135738373
1774472316541703200,5.416703125,-0.5440470576286316,-0.4360814392566681,0.35101714730262756
1774472316551716400,5.42671630859375,-0.5974370241165161,-0.7152597904205322,0.5713164806365967
1774472316561729300,5.436729248046875,-0.6099117994308472,-0.9145841002464294,0.788335919380188
1774472316571743200,5.4467431640625,-0.5494149327278137,-1.0729089975357056,0.9023386240005493
1774472316581756400,5.45675634765625,-0.46261292695999146,-1.4784213304519653,0.8568902015686035
1774472316591769300,5.466769287109375,-0.32236605882644653,-1.6602872610092163,0.755013644695282
1774472316601783300,5.476783203125,-0.243337020277977,-1.6011134386062622,0.4868934750556946
1774472316611796200,5.486796142578125,-0.12560613453388214,-1.3021384477615356,0.2809174060821533
1774472316621809200,5.49680908203125,0.04161801561713219,-0.9138461351394653,0.17593134939670563
1774472316631823400,5.5068232421875,0.1547834575176239,-0.6905810832977295,0.11549916863441467
1774472316641836300,5.516836181640625,0.19219820201396942,-0.6997383832931519,0.17348869144916534
1774472316651849200,5.52684912109375,0.31735533475875854,-0.572266697883606,0.2285277098417282
1774472316661863400,5.536863525390625,0.36360591650009155,-0.5556842684745789,0.030119553208351135
1774472316671876000,5.5468759765625,0.24877093732357025,-0.6019622683525085,-0.15693901479244232
1774472316681889300,5.55688916015625,0.026642262935638428,-0.4221198260784149,-0.28507301211357117
1774472316691903200,5.5669033203125,-0.21173807978630066,-0.1553855985403061,-0.40357089042663574
1774472316701916200,5.576916259765625,-0.23456376791000366,0.11396252363920212,-0.17668236792087555
1774472316711929300,5.586929443359375,-0.11846619099378586,0.48764076828956604,-0.07278046011924744
1774472316721943000,5.596943115234375,0.03935379907488823,0.45222604274749756,-0.3820562958717346
1774472316731956200,5.606956298828125,0.2057664841413498,0.4874785840511322,-0.8399268984794617
1774472316741969400,5.616969482421875,0.31703492999076843,0.6949170231819153,-1.027271032333374
1774472316751983000,5.626983154296875,0.3222443461418152,0.8414760828018188,-1.1838959455490112
1774472316761996300,5.636996337890625,0.2978665828704834,0.8606489896774292,-1.2246184349060059
1774472316772009000,5.647009033203125,0.238422691822052,0.7712514400482178,-1.1597819328308105
1774472316782023000,5.65702294921875,0.1806507408618927,0.7506588101387024,-1.04110848903656
1774472316792035800,5.667035888671875,0.126307874917984,0.5916699767112732,-0.8894292116165161
1774472316802049000,5.677049072265625,0.01756860688328743,0.3838978707790375,-0.635330080986023
1774472316812063000,5.68706298828125,-0.06749701499938965,0.1814853698015213,-0.3426963686943054
1774472316822076000,5.697075927734375,-0.11050840467214584,0.042765308171510696,-0.02273940108716488
1774472316832088800,5.7070888671875,-0.18824979662895203,0.06154032424092293,0.20354247093200684
1774472316842102800,5.717102783203125,-0.21616318821907043,0.0811835378408432,0.2638276517391205
1774472316852116000,5.727115966796875,-0.12390037626028061,-0.09335710853338242,0.1850428283214569
1774472316862129000,5.73712890625,-0.07178311049938202,-0.32473307847976685,0.092303566634655
1774472316872142800,5.747142822265625,-0.05198730155825615,-0.4772259593009949,0.09214510768651962
1774472316882155800,5.75715576171875,-0.06013444438576698,-0.38273167610168457,0.15830469131469727
1774472316892168700,5.767168701171875,-0.08424670249223709,-0.4509783685207367,0.20956015586853027
1774472316902182000,5.777181884765625,-0.0897517204284668,-0.397981733083725,0.257704496383667
1774472316912195800,5.78719580078125,-0.04268035292625427,-0.1523013859987259,0.2680855095386505
1774472316922208800,5.797208740234375,-0.05983057618141174,0.046052444726228714,0.248566672205925
1774472316932222000,5.807221923828125,-0.0929749459028244,0.18678852915763855,0.2451956421136856
1774472316942236000,5.81723583984375,-0.13603906333446503,0.32118335366249084,0.27789899706840515
1774472316952248800,5.827248779296875,-0.16662760078907013,0.4024696946144104,0.31834548711776733
1774472316962262000,5.837261962890625,-0.2083556056022644,0.4500747621059418,0.3650200366973877
1774472316972276000,5.84727587890625,-0.194041907787323,0.28793805837631226,0.3627411723136902
1774472316982289000,5.857288818359375,-0.08891735225915909,-0.18356797099113464,0.25957778096199036
1774472316992301800,5.8673017578125,0.017736652866005898,-0.26279327273368835,0.21825909614562988
1774472317002315800,5.877315673828125,-0.06648368388414383,-0.11814794689416885,0.4165855050086975
1774472317012329000,5.887328857421875,-0.01660800538957119,-0.2946566641330719,0.40326330065727234
1774472317022342000,5.897341796875,0.11773515492677689,-0.638823926448822,0.295767217874527
1774472317032355800,5.90735595703125,0.09689965099096298,-0.5807248950004578,0.37958115339279175
1774472317042368800,5.91736865234375,0.23855158686637878,-0.5846900939941406,0.2857673168182373
1774472317052381700,5.927381591796875,0.31975963711738586,-0.6163188815116882,0.08667390793561935
1774472317062396000,5.93739599609375,0.24891634285449982,-0.09481918811798096,0.07661008834838867
1774472317072408800,5.947408935546875,0.1899275928735733,0.30610108375549316,0.0647723376750946
1774472317082421800,5.957421875,0.11985795944929123,0.41339635848999023,-0.01654302328824997
1774472317092435700,5.967435791015625,0.027946146205067635,0.4568663537502289,-0.05590827390551567
1774472317102449000,5.977448974609375,-0.04066034406423569,0.43012288212776184,-0.059000734239816666
1774472317112461800,5.9874619140625,-0.07597359269857407,0.3473377227783203,-0.0538690909743309
1774472317122475800,5.997475830078125,-0.07386650145053864,0.25890132784843445,-0.043115247040987015
1774472317132489000,6.007489013671875,-0.03762167692184448,0.15738455951213837,-0.04441620036959648
1774472317142502000,6.017501953125,0.03267911821603775,0.07556693255901337,-0.06818704307079315
1774472317152515800,6.027515869140625,0.1043839305639267,0.03429991751909256,-0.07721249759197235
1774472317162528800,6.03752880859375,0.14203757047653198,0.027403129264712334,-0.05273005738854408
1774472317172542000,6.0475419921875,0.15550197660923004,0.044320061802864075,0.000215716048842296
1774472317182556000,6.057555908203125,0.16303180158138275,0.08612076938152313,0.06901555508375168
1774472317192568800,6.06756884765625,0.16000378131866455,0.07865753024816513,0.11415586620569229
1774472317202581800,6.077581787109375,0.1458117961883545,0.025685390457510948,0.12643782794475555
1774472317212594700,6.0875947265625,0.14115633070468903,-0.04531421884894371,0.13087067008018494
1774472317222609000,6.09760888671875,0.13333648443222046,-0.12442128360271454,0.14401362836360931
1774472317232621800,6.107621826171875,0.1303875744342804,-0.19855649769306183,0.17181357741355896
1774472317242634800,6.117634765625,0.1366816759109497,-0.24305446445941925,0.19862280786037445
1774472317252648700,6.127648681640625,0.15220418572425842,-0.24841514229774475,0.20749327540397644
1774472317262662000,6.137661865234375,0.17844697833061218,-0.21539060771465302,0.20052137970924377
1774472317272674800,6.1476748046875,0.20595848560333252,-0.1719195693731308,0.1857094168663025
1774472317282688800,6.157688720703125,0.24364914000034332,-0.1522342711687088,0.15748922526836395
1774472317292702000,6.167701904296875,0.2935328185558319,-0.16172312200069427,0.1166701540350914
1774472317302715000,6.17771484375,0.33965185284614563,-0.16061124205589294,0.05548696219921112
1774472317312728800,6.187728759765625,0.36412468552589417,-0.14465118944644928,-0.018082598224282265
1774472317322741800,6.19774169921875,0.35878291726112366,-0.11557373404502869,-0.09213978052139282
1774472317332755000,6.2077548828125,0.3079751431941986,-0.058269962668418884,-0.15072612464427948
1774472317342769000,6.217768798828125,0.2359669953584671,0.03462082892656326,-0.1776144653558731
1774472317352781800,6.22778173828125,0.15148459374904633,0.15369927883148193,-0.18058443069458008
1774472317362794800,6.237794677734375,0.07169415801763535,0.27716264128685,-0.16638977825641632
1774472317372809000,6.24780908203125,0.009186574257910252,0.3887951374053955,-0.14923448860645294
1774472317382822000,6.25782177734375,-0.027417508885264397,0.47455480694770813,-0.13640791177749634
1774472317392834800,6.267834716796875,-0.046899862587451935,0.5207417607307434,-0.12950925529003143
1774472317402849000,6.27784912109375,-0.0575740784406662,0.5537745356559753,-0.12792840600013733
1774472317412862000,6.287862060546875,-0.06116002798080444,0.5835340023040771,-0.12347160279750824
1774472317422875000,6.297875,-0.05167970433831215,0.5921487808227539,-0.11757136881351471
1774472317432887800,6.3078876953125,-0.03834845498204231,0.5797786712646484,-0.11416598409414291
1774472317442901800,6.31790185546875,-0.035460520535707474,0.5703465938568115,-0.11300085484981537
1774472317452915000,6.3279150390625,-0.044793568551540375,0.5676224231719971,-0.10326620191335678
1774472317462928000,6.337927978515625,-0.059793826192617416,0.5647435188293457,-0.08710028231143951
1774472317472941800,6.34794189453125,-0.06660006940364838,0.5595809817314148,-0.06929145753383636
1774472317482955000,6.357955078125,-0.07137591391801834,0.5459482669830322,-0.04904903471469879
1774472317492968000,6.367968017578125,-0.06006333604454994,0.49396124482154846,-0.030110232532024384
1774472317502982000,6.37798193359375,-0.040334638208150864,0.400262713432312,-0.025075258687138557
1774472317512994800,6.387994873046875,-0.013342703692615032,0.30009138584136963,-0.022106634452939034
1774472317523007700,6.3980078125,0.020262660458683968,0.2138955146074295,-0.0150990579277277
1774472317533022000,6.40802197265625,0.05903935059905052,0.14651088416576385,-0.005721535068005323
1774472317543035000,6.418034912109375,0.08826008439064026,0.10206058621406555,0.00008229167724493891
1774472317553047800,6.4280478515625,0.10693896561861038,0.06088492274284363,0.0010761833982542157
1774472317563062000,6.43806201171875,0.12241140007972717,0.020962540060281754,0.0007177218794822693
1774472317573075000,6.448074951171875,0.1221112608909607,0.005477056838572025,-0.0035177695099264383
1774472317583087900,6.458087890625,0.10822819918394089,0.019939087331295013,-0.008213188499212265
1774472317593102000,6.46810205078125,0.0857122391462326,0.061173342168331146,-0.00455666845664382
1774472317603114800,6.47811474609375,0.06291691213846207,0.11120668053627014,0.0006727144937030971
1774472317613128000,6.4881279296875,0.049000564962625504,0.15261217951774597,-0.003677825443446636
1774472317623142000,6.498141845703125,0.04706577956676483,0.18683433532714844,-0.01906850002706051
1774472317633154800,6.50815478515625,0.043179694563150406,0.19900444149971008,-0.033057019114494324
1774472317643168000,6.51816796875,0.037394508719444275,0.18041877448558807,-0.044371992349624634
1774472317653181000,6.528180908203125,0.03027082048356533,0.152349054813385,-0.04459330067038536
1774472317663195000,6.53819482421875,0.018454374745488167,0.09950661659240723,-0.049847185611724854
1774472317673207800,6.548207763671875,0.019246665760874748,0.04073438048362732,-0.06498352438211441
1774472317683220700,6.558220703125,0.021578527987003326,-0.007570301648229361,-0.08552102744579315
1774472317693235000,6.56823486328125,0.02172979712486267,-0.03098135255277157,-0.0896230936050415
1774472317703248000,6.578247802734375,0.02425260841846466,-0.04175809770822525,-0.06809277087450027
1774472317713260800,6.5882607421875,0.029388515278697014,-0.04475255683064461,-0.03269562870264053
1774472317723275000,6.59827490234375,0.03724217787384987,-0.04135622829198837,0.009283779188990593
1774472317733288000,6.608287841796875,0.04875768721103668,-0.055326372385025024,0.03254302963614464
1774472317743300900,6.61830078125,0.05166878551244736,-0.0655268132686615,0.03460085391998291
1774472317753315000,6.628315185546875,0.045226600021123886,-0.06861155480146408,0.01113574206829071
1774472317763327700,6.63832763671875,0.031614385545253754,-0.049080993980169296,-0.022853916510939598
1774472317773341000,6.6483408203125,0.008445416577160358,-0.0016682040877640247,-0.0538128986954689
1774472317783355000,6.65835498046875,-0.021703697741031647,0.04211442917585373,-0.06847919523715973
1774472317793367800,6.668367919921875,-0.040106672793626785,0.060572799295186996,-0.06714574992656708
1774472317803381000,6.678381103515625,-0.0518227182328701,0.06414835900068283,-0.050041329115629196
1774472317813394700,6.688394775390625,-0.043951213359832764,0.04903864860534668,-0.029844980686903
1774472317823407900,6.698407958984375,-0.03015230968594551,0.011797270737588406,-0.012656140141189098
1774472317833420800,6.7084208984375,-0.009265136905014515,-0.02684013545513153,-0.004176901653409004
1774472317843434000,6.71843408203125,0.009869941510260105,-0.07408168166875839,-0.0015670040156692266
1774472317853448000,6.728447998046875,0.01949114352464676,-0.1213432028889656,-0.01059325598180294
1774472317863460900,6.7384609375,0.024285897612571716,-0.14605841040611267,-0.02977813594043255
1774472317873473800,6.748473876953125,0.03743898496031761,-0.15326997637748718,-0.04620904102921486
1774472317883488000,6.758488037109375,0.059785835444927216,-0.13856241106987,-0.06458032131195068
1774472317893501000,6.7685009765625,0.08008604496717453,-0.11845314502716064,-0.08563660830259323
1774472317903513900,6.778513916015625,0.07920427620410919,-0.09544955939054489,-0.09603918343782425
1774472317913528000,6.788528076171875,0.06288202852010727,-0.08182349056005478,-0.10154979676008224
1774472317923540700,6.798540771484375,0.03996339440345764,-0.07036338001489639,-0.10715734213590622
1774472317933554000,6.808553955078125,0.01751001738011837,-0.03497955575585365,-0.10668542981147766
1774472317943568000,6.81856787109375,-0.006413424387574196,0.019571570679545403,-0.11036299169063568
1774472317953580800,6.828580810546875,-0.03339843824505806,0.0828099250793457,-0.12837927043437958
1774472317963594000,6.838593994140625,-0.050268761813640594,0.14856071770191193,-0.15381592512130737
1774472317973607700,6.848607666015625,-0.05957251787185669,0.2053840458393097,-0.17854657769203186
1774472317983620900,6.858620849609375,-0.06076614558696747,0.22118830680847168,-0.20005692541599274
1774472317993633800,6.8686337890625,-0.060143765062093735,0.20128117501735687,-0.2003522664308548
1774472318003647700,6.878647705078125,-0.0649249404668808,0.16620256006717682,-0.1899600774049759
1774472318013661000,6.888660888671875,-0.06502773612737656,0.1149071455001831,-0.1730564683675766
1774472318023673900,6.898673828125,-0.055448077619075775,0.05110552906990051,-0.1562228947877884
1774472318033686800,6.908686767578125,-0.041663289070129395,-0.01884026639163494,-0.1252567172050476
1774472318043701000,6.918700927734375,-0.018635736778378487,-0.06229373440146446,-0.08888912945985794
1774472318053714000,6.9287138671875,-0.002040247665718198,-0.08351646363735199,-0.0562552846968174
1774472318063726800,6.938726806640625,0.015498798340559006,-0.08976104855537415,-0.03605467453598976
1774472318073741000,6.948740966796875,0.02479855716228485,-0.09655583649873734,-0.023615047335624695
1774472318083753700,6.958753662109375,0.019874904304742813,-0.10823086649179459,-0.01375256385654211
1774472318093767000,6.968766845703125,0.0023092268966138363,-0.12010696530342102,-0.010941064916551113
1774472318103780900,6.97878076171875,-0.015124091878533363,-0.1264583319425583,-0.013103018514811993
1774472318113793800,6.988793701171875,-0.03236619383096695,-0.11703260987997055,-0.014837801456451416
1774472318123807000,6.998806884765625,-0.037577737122774124,-0.09140980988740921,-0.024527180939912796
1774472318133820700,7.008820556640625,-0.03334144502878189,-0.05113056302070618,-0.02990623377263546
1774472318143833900,7.018833740234375,-0.022787604480981827,-0.0019323896849527955,-0.03642032667994499
1774472318153847000,7.028846923828125,-0.005290369503200054,0.038898661732673645,-0.05083521828055382
1774472318163860700,7.03886083984375,0.015165637247264385,0.07493869215250015,-0.07468542456626892
1774472318173874000,7.0488740234375,0.03158003091812134,0.10161770135164261,-0.10460177809000015
1774472318183886800,7.058886962890625,0.03268897160887718,0.11564643681049347,-0.12078580260276794
1774472318193899800,7.068899658203125,0.02912432886660099,0.1202225461602211,-0.11464029550552368
1774472318203914000,7.0789140625,0.029472937807440758,0.10637171566486359,-0.10752033442258835
1774472318213927000,7.088927001953125,0.02629951387643814,0.07805139571428299,-0.09586847573518753
1774472318223939800,7.09893994140625,0.017613613978028297,0.05336708575487137,-0.07494881004095078
1774472318233954000,7.1089541015625,0.013233247213065624,0.036569993942976,-0.04348382726311684
1774472318243966700,7.118966796875,0.020184630528092384,0.04093305021524429,-0.0034876756835728884
1774472318253980000,7.12897998046875,0.0197281651198864,0.0180562324821949,0.04258900508284569
1774472318263993900,7.138993896484375,0.011170895770192146,-0.011332549154758453,0.08528800308704376
1774472318274006800,7.1490068359375,0.0041100564412772655,-0.04565563425421715,0.11150868237018585
1774472318284020000,7.15902001953125,0.011320298537611961,-0.06166363134980202,0.11850666999816895
1774472318294033700,7.16903369140625,0.026340261101722717,-0.04914996773004532,0.11835700273513794
1774472318304046800,7.179046875,0.030283337458968163,-0.023009179159998894,0.11359340697526932
1774472318314060000,7.18906005859375,0.015901735052466393,-0.007446730975061655,0.10808359086513519
1774472318324073700,7.19907373046875,-0.005622998345643282,-0.003040530951693654,0.11305464804172516
1774472318334087000,7.2090869140625,-0.024419322609901428,0.009554356336593628,0.12717552483081818
1774472318344099800,7.219099853515625,-0.028973860666155815,0.026041720062494278,0.12512649595737457
1774472318354112800,7.22911279296875,-0.014577611349523067,0.051720719784498215,0.11024155467748642
1774472318364127000,7.239126953125,0.0027321369852870703,0.079051673412323,0.0918058231472969
1774472318374140000,7.249139892578125,0.01890365034341812,0.09185056388378143,0.0739290863275528
1774472318384152800,7.25915283203125,0.032891638576984406,0.1011684313416481,0.06785202026367188
1774472318394167000,7.2691669921875,0.04345772787928581,0.10916750133037567,0.06492360681295395
1774472318404179700,7.2791796875,0.046788278967142105,0.103624127805233,0.053639527410268784
1774472318414193000,7.28919287109375,0.04253121465444565,0.09990102797746658,0.04331844672560692
1774472318424206800,7.299206787109375,0.0434233732521534,0.10816961526870728,0.02756265178322792
1774472318434219800,7.3092197265625,0.03545492887496948,0.10830197483301163,0.0193723663687706
1774472318444233000,7.31923291015625,0.02124270424246788,0.09694598615169525,0.02256735973060131
1774472318454246700,7.32924658203125,0.0068206219002604485,0.08641984313726425,0.04502499848604202
1774472318464259800,7.339259765625,-0.002484462922438979,0.06688529253005981,0.06275153160095215
1774472318474273000,7.34927294921875,-0.0049825082533061504,0.050388872623443604,0.0665191039443016
1774472318484286000,7.359285888671875,0.0070677632465958595,0.05059792846441269,0.06181623041629791
1774472318494300000,7.3692998046875,0.028907548636198044,0.05717327445745468,0.04813876748085022
1774472318504312800,7.379312744140625,0.05127943307161331,0.05450505390763283,0.037629932165145874
1774472318514325800,7.38932568359375,0.059778910130262375,0.048772066831588745,0.054363373667001724
1774472318524340000,7.399340087890625,0.055879510939121246,0.03104446828365326,0.07122305035591125
1774472318534353000,7.409352783203125,0.044605549424886703,0.006156163290143013,0.07472217082977295
1774472318544365800,7.41936572265625,0.03412548080086708,-0.008935438469052315,0.07832702994346619
1774472318554380000,7.429380126953125,0.026937074959278107,-0.002965696156024933,0.08339609205722809
1774472318564392700,7.439392822265625,0.02257535047829151,0.013636982999742031,0.087857685983181
1774472318574406000,7.449406005859375,0.030845796689391136,0.022553512826561928,0.10174793004989624
1774472318584419800,7.459419921875,0.040580183267593384,0.02666223794221878,0.12433233857154846
1774472318594432800,7.469432861328125,0.03628769889473915,0.024025175720453262,0.1342685967683792
1774472318604446000,7.479446044921875,0.017536649480462074,0.01194241363555193,0.1233576238155365
1774472318614459600,7.489459716796875,-0.0033606430515646935,0.0065801385790109634,0.10588967800140381
1774472318624472800,7.499472900390625,-0.00754899624735117,0.011415107175707817,0.0887831300497055
1774472318634486000,7.509486083984375,0.0010684601729735732,0.01764104515314102,0.07006244361400604
1774472318644499000,7.5194990234375,0.007126885466277599,0.023087741807103157,0.05277027189731598
1774472318654513000,7.529512939453125,0.0004474110610317439,0.022112492471933365,0.05642199516296387
1774472318664525800,7.53952587890625,-0.01344736572355032,0.02003096602857113,0.058518171310424805
1774472318674538800,7.549538818359375,-0.0182889923453331,0.02725452370941639,0.03802620992064476
1774472318684553000,7.559552978515625,-0.019599268212914467,0.043182358145713806,0.0062674833461642265
1774472318694566000,7.56956591796875,-0.018928950652480125,0.07100466638803482,-0.018075672909617424
1774472318704578800,7.579578857421875,-0.031211715191602707,0.09778940677642822,-0.03809305652976036
1774472318714593000,7.589593017578125,-0.03845391422510147,0.12278956919908524,-0.04825940728187561
1774472318724605700,7.599605712890625,-0.05452928692102432,0.14155925810337067,-0.047018107026815414
1774472318734619000,7.609618896484375,-0.05903109535574913,0.1577717810869217,-0.04887353256344795
1774472318744632800,7.6196328125,-0.05924707651138306,0.1757659614086151,-0.05444912612438202
1774472318754645800,7.629645751953125,-0.0494205467402935,0.17650526762008667,-0.057192981243133545
1774472318764659000,7.639658935546875,-0.034701522439718246,0.16266322135925293,-0.05848221853375435
1774472318774672100,7.649672119140625,-0.01919659785926342,0.14398379623889923,-0.05133536085486412
1774472318784686000,7.65968603515625,-0.014434066601097584,0.12423167377710342,-0.03951065614819527
1774472318794699300,7.66969921875,-0.013556821271777153,0.10322252660989761,-0.018798455595970154
1774472318804712000,7.6797119140625,-0.0029294772539287806,0.08806701004505157,0.005391569808125496
1774472318814726100,7.68972607421875,0.010476876050233841,0.06192009150981903,0.025493908673524857
1774472318824739300,7.6997392578125,0.030827155336737633,0.026822293177247047,0.03369458019733429
1774472318834752000,7.709751953125,0.04237701743841171,-0.005606220569461584,0.0314900167286396
1774472318844766200,7.71976611328125,0.04929910600185394,-0.023450996726751328,0.030856981873512268
1774472318854779000,7.72977880859375,0.05330503359436989,-0.025978870689868927,0.03786748647689819
1774472318864792000,7.7397919921875,0.05342886969447136,-0.02389361523091793,0.04277516156435013
1774472318874806300,7.74980615234375,0.04290006309747696,-0.020898357033729553,0.043950945138931274
1774472318884819000,7.75981884765625,0.035351067781448364,-0.0095109473913908,0.04020281136035919
1774472318894832000,7.76983203125,0.025303758680820465,-0.004244279582053423,0.03730902075767517
1774472318904845000,7.779844970703125,0.01146783772855997,-0.0023755396250635386,0.03764884173870087
1774472318914859000,7.78985888671875,0.0025566346012055874,-0.009341304190456867,0.0324799120426178
1774472318924872200,7.7998720703125,-0.004986769054085016,-0.010431335307657719,0.021153222769498825
1774472318934885000,7.809885009765625,-0.004877845756709576,0.005584116093814373,0.00836578756570816
1774472318944899000,7.819899169921875,-0.0013771206140518188,0.03863207995891571,-0.005882656667381525
1774472318954912300,7.829912353515625,0.005254416726529598,0.0679100751876831,-0.020447751507163048
1774472318964925000,7.839925048828125,0.014517157338559628,0.08674581348896027,-0.027896080166101456
1774472318974939100,7.849939208984375,0.021462947130203247,0.09341943264007568,-0.028419923037290573
1774472318984952300,7.859952392578125,0.021881330758333206,0.09288519620895386,-0.025063807144761086
1774472318994965000,7.869965087890625,0.015341139398515224,0.0817372053861618,-0.01635820046067238
1774472319004979200,7.879979248046875,0.008331166580319405,0.06096561625599861,-0.004373443312942982
1774472319014992000,7.889991943359375,-0.00045060686534270644,0.034692998975515366,0.009880860336124897
1774472319025005000,7.900005126953125,-0.006973753683269024,0.00771784083917737,0.019475163891911507
1774472319035018200,7.910018310546875,-0.0151017215102911,-0.004942294210195541,0.026999127119779587
1774472319045032000,7.920031982421875,-0.018200309947133064,-0.0003424825263209641,0.036372922360897064
1774472319055045000,7.930045166015625,-0.012908341363072395,0.005569202359765768,0.03696201369166374
1774472319065058000,7.94005810546875,-0.009267001412808895,0.02002697065472603,0.030233269557356834
1774472319075072000,7.950072021484375,0.0070738885551691055,0.03488607704639435,0.025963157415390015
1774472319085085200,7.960085205078125,0.01968129351735115,0.04735340178012848,0.027935493737459183
1774472319095098000,7.97009814453125,0.033726006746292114,0.05458521470427513,0.03370549902319908
1774472319105112000,7.980112060546875,0.038709577172994614,0.05431756749749184,0.0358637236058712
1774472319115125200,7.990125244140625,0.03847122564911842,0.061706773936748505,0.047147005796432495
1774472319125138000,8.000137939453126,0.036673858761787415,0.0598771832883358,0.0590880885720253
1774472319135152000,8.010152099609375,0.03044605627655983,0.05344032123684883,0.06784296035766602
1774472319145165300,8.020165283203125,0.027945347130298615,0.04084543511271477,0.07326382398605347
1774472319155178000,8.030177978515624,0.01745782047510147,0.05627872049808502,0.07869561016559601
1774472319165191200,8.040191162109375,-0.009103749878704548,0.07303798943758011,0.07848548889160156
1774472319175205000,8.050205078125,-0.024511201307177544,0.08458439260721207,0.06593534350395203
1774472319185218000,8.060218017578125,-0.02424754947423935,0.07725377380847931,0.06311745196580887
1774472319195231200,8.070231201171875,-0.008222776465117931,0.05348533019423485,0.05541665479540825
1774472319205245000,8.080244873046874,0.010743990540504456,0.03148841857910156,0.04406359791755676
1774472319215258000,8.090258056640625,0.02388535812497139,0.02646835893392563,0.03473268076777458
1774472319225271300,8.100271240234376,0.028655080124735832,0.04304707050323486,0.032941438257694244
1774472319235285000,8.110284912109375,0.025420671328902245,0.06322450935840607,0.039044339209795
1774472319245298200,8.120298095703125,0.024997495114803314,0.07644417136907578,0.04586442559957504
1774472319255311000,8.13031103515625,0.03321760892868042,0.07458315789699554,0.04402817785739899
1774472319265325000,8.140324951171875,0.04228061065077782,0.06100529804825783,0.033119603991508484
1774472319275338200,8.150338134765626,0.04826446622610092,0.05083654820919037,0.018978483974933624
1774472319285351000,8.160350830078125,0.04970896616578102,0.04626789689064026,0.014374411664903164
1774472319295364000,8.170364013671875,0.04601036757230759,0.05154947564005852,0.017603227868676186
1774472319305378300,8.18037841796875,0.04171229153871536,0.05396709591150284,0.019880764186382294
1774472319315391000,8.190390869140625,0.04065821319818497,0.04986635968089104,0.02394181862473488
1774472319325404200,8.200404052734376,0.04548066481947899,0.04230165109038353,0.02508777566254139
1774472319335418000,8.210418212890625,0.054662980139255524,0.03791702166199684,0.0291789248585701
1774472319345431000,8.22043115234375,0.0640207976102829,0.023578563705086708,0.028628714382648468
1774472319355444200,8.2304443359375,0.06571482867002487,0.031620778143405914,0.03483574464917183
1774472319365458000,8.2404580078125,0.058933090418577194,0.028135230764746666,0.029458556324243546
1774472319375471000,8.25047119140625,0.04914384335279465,0.04176129400730133,0.0266510508954525
1774472319385484300,8.260484375,0.03389138728380203,0.04590810462832451,0.01865517720580101
1774472319395498000,8.270498046875,0.017402691766619682,0.043362122029066086,0.006219013594090939
1774472319405511200,8.28051123046875,0.005225654691457748,0.04337916523218155,-0.005696235224604607
1774472319415524000,8.290524169921875,-0.0034751589410007,0.040700290352106094,-0.004731904715299606
1774472319425537000,8.300537109375,-0.004851480480283499,0.0393545962870121,0.005382515024393797
1774472319435551200,8.31055126953125,-0.004618453793227673,0.04107899218797684,0.021037373691797256
1774472319445564000,8.32056396484375,-0.0019025622168555856,0.03760117292404175,0.02683347836136818
1774472319455577000,8.3305771484375,0.004653075244277716,0.041068073362112045,0.030416760593652725
1774472319465591300,8.34059130859375,0.006390787661075592,0.04531874507665634,0.026309102773666382
1774472319475604000,8.35060400390625,0.0030096382834017277,0.05439905822277069,0.008930644020438194
1774472319485617200,8.3606171875,0.005892776418477297,0.07044859975576401,-0.0078531289473176
1774472319495631000,8.370631103515626,0.006371080409735441,0.08812426775693893,-0.02467045933008194
1774472319505644000,8.38064404296875,0.012890764512121677,0.10187976062297821,-0.03833993151783943
1774472319515657200,8.3906572265625,0.019844012334942818,0.10856456309556961,-0.04633980244398117
1774472319525670100,8.400670166015624,0.0289421696215868,0.11027111113071442,-0.06011154130101204
1774472319535684000,8.41068408203125,0.031023962423205376,0.10663270205259323,-0.06586156785488129
1774472319545697300,8.420697265625,0.036493562161922455,0.10163821280002594,-0.06992475688457489
1774472319555710000,8.4307099609375,0.03352200612425804,0.07773900032043457,-0.07142224907875061
1774472319565724200,8.44072412109375,0.031557392328977585,0.0309310182929039,-0.06260745227336884
1774472319575737000,8.450737060546874,0.03278804197907448,-0.003918575122952461,-0.034935079514980316
1774472319585750000,8.46075,0.032943833619356155,-0.028733644634485245,-0.009346097707748413
1774472319595764200,8.47076416015625,0.029755765572190285,-0.02623240277171135,0.008932774886488914
1774472319605777200,8.480777099609375,0.03863820433616638,-0.004870389122515917,0.013015666976571083
1774472319615790000,8.4907900390625,0.040888044983148575,0.02050900273025036,0.006956709548830986
1774472319625804300,8.50080419921875,0.046251118183135986,0.050513241440057755,-0.0032900692895054817
1774472319635817000,8.51081689453125,0.03514333814382553,0.07445558905601501,-0.017410416156053543
1774472319645830100,8.520830078125,0.018442390486598015,0.08380462229251862,-0.024873923510313034
1774472319655843000,8.530843017578125,0.002615490462630987,0.0831683874130249,-0.028543228283524513
1774472319665857000,8.54085693359375,-0.013452691957354546,0.06977881491184235,-0.036621127277612686
1774472319675870200,8.5508701171875,-0.018250109627842903,0.04724341258406639,-0.038905855268239975
1774472319685883100,8.560883056640625,-0.01883946731686592,0.03308524936437607,-0.0432840920984745
1774472319695897000,8.57089697265625,-0.0179331935942173,0.024830514565110207,-0.049247439950704575
1774472319705910300,8.58091015625,-0.008804144337773323,0.026042252779006958,-0.04976782202720642
1774472319715923000,8.5909228515625,-0.0016399745363742113,0.03484852612018585,-0.04419196397066116
1774472319725937200,8.600937255859375,0.005228850524872541,0.0458601675927639,-0.04410114884376526
1774472319735950000,8.6109501953125,0.010488061234354973,0.058948006480932236,-0.03942330554127693
1774472319745963000,8.620962890625,0.02412158064544201,0.07644017785787582,-0.04403936117887497
1774472319755977200,8.630977294921875,0.03797880560159683,0.0872984230518341,-0.05068741366267204
1774472319765990100,8.640990234375,0.05072975531220436,0.08389223366975784,-0.061774153262376785
1774472319776003000,8.651003173828125,0.05879940092563629,0.07219696789979935,-0.06764934957027435
1774472319786016300,8.661016357421875,0.05229862406849861,0.05904680863022804,-0.07070266455411911
1774472319796030200,8.6710302734375,0.03435291349887848,0.04853903874754906,-0.07051891088485718
1774472319806043100,8.681043212890625,0.008770056068897247,0.04800134897232056,-0.06136322394013405
1774472319816056300,8.691056396484376,-0.013338175602257252,0.0550382174551487,-0.050445329397916794
1774472319826070300,8.7010703125,-0.01878007873892784,0.06216803193092346,-0.04410887137055397
1774472319836083200,8.711083251953125,-0.010517355985939503,0.06043245270848274,-0.042990345507860184
1774472319846096400,8.721096435546874,0.0028908613603562117,0.056841179728507996,-0.0461384654045105
1774472319856110300,8.7311103515625,0.018804047256708145,0.05783134326338768,-0.05343233048915863
1774472319866123300,8.741123291015626,0.023070165887475014,0.058276887983083725,-0.05681747570633888
1774472319876136200,8.75113623046875,0.01944080926477909,0.06476780772209167,-0.05252925306558609
1774472319886150100,8.761150146484376,0.013135243207216263,0.06533399969339371,-0.045646846294403076
1774472319896163300,8.771163330078124,0.00827816966921091,0.059784237295389175,-0.04192907363176346
1774472319906176300,8.78117626953125,0.01005316711962223,0.0472564622759819,-0.0393599234521389
1774472319916189200,8.791189208984376,0.009840114042162895,0.033778201788663864,-0.03778945654630661
1774472319926203100,8.801203125,0.0002932140196207911,0.02213805913925171,-0.036741502583026886
1774472319936216300,8.81121630859375,-0.01678324118256569,0.00535588338971138,-0.03153795376420021
1774472319946229200,8.821229248046874,-0.033131055533885956,-0.009749566204845905,-0.024993766099214554
1774472319956243200,8.8312431640625,-0.043237484991550446,-0.016830645501613617,-0.020065853372216225
1774472319966256000,8.841256103515626,-0.04421805962920189,-0.01152882445603609,-0.01353684812784195
1774472319976269300,8.851269287109375,-0.03829439356923103,0.003364371368661523,-0.0023483755066990852
1774472319986283300,8.861283203125,-0.026571689173579216,0.019593141973018646,0.006451507564634085
1774472319996296200,8.871296142578124,-0.012102202512323856,0.033128391951322556,0.008892294950783253
1774472320006309400,8.881309326171875,0.0009885653853416443,0.02629472129046917,0.0008860336965881288
1774472320016322000,8.891322021484376,0.004091148264706135,0.013759754598140717,-0.012521117925643921
1774472320026336300,8.901336181640625,0.0023342606145888567,-0.0012836436508223414,-0.012768791988492012
1774472320036349200,8.91134912109375,-0.002150768879801035,-0.012958675622940063,-0.014733938500285149
1774472320046362000,8.921362060546874,-0.001141963410191238,-0.02057371847331524,-0.007274158298969269
1774472320056376300,8.931376220703125,0.0036011263728141785,-0.026635872200131416,0.0014791196445003152
1774472320066389200,8.94138916015625,0.009954629465937614,-0.03792367875576019,0.012518721632659435
1774472320076402200,8.951402099609375,0.019841615110635757,-0.04453231394290924,0.023783359676599503
1774472320086416100,8.961416015625,0.029868682846426964,-0.045823946595191956,0.028750954195857048
1774472320096429300,8.97142919921875,0.03166178986430168,-0.03508501499891281,0.02652907930314541
1774472320106442200,8.981442138671875,0.028915537521243095,-0.01732759177684784,0.02520655281841755
1774472320116456200,8.991456298828124,0.025841183960437775,-0.001683916780166328,0.025305090472102165
1774472320126469000,9.00146923828125,0.017344634979963303,0.011952799744904041,0.025555161759257317
1774472320136482300,9.011482421875,0.01889965496957302,0.01489372830837965,0.020120447501540184
1774472320146495200,9.0214951171875,0.025494707748293877,0.00500967213883996,0.012140818871557713
1774472320156509200,9.03150927734375,0.04018150642514229,-0.006200371775776148,0.00811997801065445
1774472320166522400,9.0415224609375,0.05198357254266739,-0.016699617728590965,0.008083492517471313
1774472320176535000,9.05153515625,0.05783427134156227,-0.022460835054516792,0.009579923003911972
1774472320186549200,9.06154931640625,0.05687766522169113,-0.028561869636178017,0.01152882445603609
1774472320196562200,9.071562255859375,0.05819299817085266,-0.03039518930017948,0.01356454472988844
1774472320206575000,9.0815751953125,0.05830272287130356,-0.0269479937851429,0.022052038460969925
1774472320216589300,9.09158935546875,0.05691494792699814,-0.0270683690905571,0.02623719722032547
1774472320226602200,9.101602294921875,0.053791593760252,-0.01841922104358673,0.03188895806670189
1774472320236615200,9.111615234375,0.048655152320861816,-0.008814530447125435,0.032514799386262894
1774472320246628400,9.12162841796875,0.047932107001543045,-0.007215036079287529,0.03151398524641991
1774472320256642300,9.131642333984376,0.04512939602136612,-0.012766129337251186,0.022098643705248833
1774472320266655200,9.1416552734375,0.03912742808461189,-0.020953485742211342,0.00771890627220273
1774472320276668400,9.15166845703125,0.02840048260986805,-0.01938035525381565,-0.003979029133915901
1774472320286682000,9.16168212890625,0.02058730088174343,-0.011517372913658619,-0.011390872299671173
1774472320296695300,9.1716953125,0.022124210372567177,0.0026104305870831013,-0.01671905815601349
1774472320306708200,9.181708251953125,0.02064562402665615,0.015692410990595818,-0.015451660379767418
1774472320316722200,9.19172216796875,0.022948725149035454,0.027042269706726074,-0.006995059084147215
1774472320326735400,9.2017353515625,0.02100728079676628,0.029994649812579155,0.001930525409989059
1774472320336748000,9.211748046875,0.022057365626096725,0.03189295157790184,0.006542854011058807
1774472320346762200,9.22176220703125,0.027271302416920662,0.02718954347074032,0.01335868239402771
1774472320356775200,9.231775146484376,0.03117336519062519,0.019405122846364975,0.02123151905834675
1774472320366788000,9.2417880859375,0.029397036880254745,0.006189985200762749,0.024573519825935364
1774472320376801300,9.25180126953125,0.02562653459608555,-0.0008889631717465818,0.025891251862049103
1774472320386815200,9.261815185546874,0.016380570828914642,0.001038632821291685,0.015534751117229462
1774472320396828200,9.271828125,0.012685701251029968,0.010862501338124275,0.0017014936311170459
1774472320406841300,9.28184130859375,0.01074106153100729,0.023269370198249817,-0.010539992712438107
1774472320416855300,9.291855224609375,0.015960590913891792,0.03688238561153412,-0.018198179081082344
1774472320426868200,9.3018681640625,0.029821544885635376,0.043897416442632675,-0.018868230283260345
1774472320436881400,9.31188134765625,0.04105689004063606,0.04464869573712349,-0.007497331127524376
1774472320446895000,9.32189501953125,0.040705084800720215,0.040236636996269226,0.006617955397814512
1774472320456908300,9.331908203125,0.03537397086620331,0.03440298140048981,0.015851134434342384
1774472320466921200,9.341921142578125,0.02587181143462658,0.029625803232192993,0.015804795548319817
1774472320476934100,9.35193408203125,0.01848047412931919,0.026250246912240982,0.013952034525573254
1774472320486948400,9.3619482421875,0.011107245460152626,0.013454023748636246,0.0046908920630812645
1774472320496961300,9.371961181640625,-0.0011688614031299949,0.002095108851790428,0.005468268413096666
1774472320506974200,9.38197412109375,-0.006838465109467506,-0.008901349268853664,0.0046754456125199795
1774472320516988200,9.39198828125,-0.010093114338815212,-0.017525730654597282,-0.000601075473241508
1774472320527001000,9.4020009765625,-0.006711698602885008,-0.008903746493160725,0.0026383937802165747
1774472320537014300,9.41201416015625,-0.0021105550695210695,0.004714594222605228,0.0026162895374000072
1774472320547028200,9.4220283203125,0.0045585329644382,0.016037289053201675,-0.00008655273268232122
1774472320557041200,9.432041259765626,0.012154134921729565,0.02377776801586151,-0.0013936321483924985
1774472320567054300,9.442054443359375,0.019597936421632767,0.022886672988533974,0.003823234001174569
1774472320577068300,9.452068359375,0.02052018791437149,0.01528920792043209,0.012053200975060463
1774472320587081200,9.462081298828124,0.01884159818291664,-0.002261822810396552,0.015504124574363232
1774472320597094400,9.472094482421875,0.011568771675229073,-0.015496933832764626,0.018432803452014923
1774472320607107000,9.482107177734376,0.00823928788304329,-0.017553959041833878,0.018862903118133545
1774472320617121300,9.492121337890625,0.007185741327702999,-0.016290290281176567,0.023550067096948624
1774472320627134200,9.50213427734375,0.007504521403461695,-0.011263839900493622,0.02640950307250023
1774472320637147100,9.512147216796874,0.010998322628438473,-0.0038274950347840786,0.029714485630393028
1774472320647161300,9.522161376953125,0.014917164109647274,0.009148224256932735,0.02636183239519596
1774472320657174300,9.53217431640625,0.016084959730505943,0.013231649063527584,0.023494673892855644
1774472320667187200,9.542187255859375,0.02010686695575714,0.0150388702750206,0.016095878556370735
1774472320677201200,9.552201171875,0.015558985993266106,0.009806823916733265,0.013715545646846294
1774472320687214000,9.562214111328124,0.01949646882712841,0.0072840116918087006,0.010129866190254688
1774472320697227300,9.572227294921875,0.025131186470389366,0.0065079666674137115,0.01577496901154518
1774472320707240400,9.582240478515626,0.02731391228735447,0.00279125920496881,0.01858380436897278
1774472320717254100,9.592254150390625,0.021329257637262344,-0.00571860559284687,0.01919153705239296
1774472320727267300,9.602267333984376,0.012985040433704853,-0.013768009841442108,0.01871669664978981
1774472320737280300,9.6122802734375,0.012540026567876339,-0.0178181454539299,0.021919414401054382
1774472320747294200,9.622294189453125,0.009810020215809345,-0.01907755434513092,0.022246716544032097
1774472320757307400,9.632307373046874,0.01462608017027378,-0.01187902968376875,0.023549001663923264
1774472320767320300,9.6423203125,0.01912842132151127,-0.007168164476752281,0.01913667656481266
1774472320777334500,9.65233447265625,0.01829538308084011,-0.001377653214149177,0.019036274403333664
1774472320787347500,9.662347412109375,0.013397297821938992,0.0013949638232588768,0.021525265648961067
1774472320797360400,9.6723603515625,0.009222793392837048,0.00009827064059209079,0.02569417841732502
1774472320807374600,9.68237451171875,0.009006544016301632,0.0003539340978022665,0.030234867706894875
1774472320817387500,9.692387451171875,0.011954396963119507,0.0005531385540962219,0.03303518146276474
1774472320827400400,9.702400390625,0.02383582480251789,0.00461765518411994,0.028548553586006165
1774472320837413600,9.71241357421875,0.032045017927885056,0.011113637126982212,0.02496607042849064
1774472320847427300,9.72242724609375,0.04147766903042793,0.0117927435785532,0.018307633697986603
1774472320857440500,9.7324404296875,0.04174371808767319,0.0075753615237772465,0.015615977346897125
1774472320867453700,9.74245361328125,0.03829172998666763,0.0034519892651587725,0.021225392818450928
1774472320877467400,9.75246728515625,0.02544996701180935,-0.0014839133946225047,0.03232944384217262
1774472320887480600,9.76248046875,0.009199890308082104,0.0017691379180178046,0.043775442987680435
1774472320897493500,9.772493408203125,0.0013693973887711763,0.004026167094707489,0.04568466544151306
1774472320907507500,9.782507568359375,-0.0015941682504490018,0.0007864314829930663,0.04013197496533394
1774472320917520600,9.792520751953125,-0.0005624596378766,-0.0029284118209034204,0.03462189435958862
1774472320927533300,9.802533203125,-0.0033635725267231464,-0.006173207424581051,0.02865002118051052
1774472320937546500,9.81254638671875,-0.00887791346758604,-0.008598015643656254,0.029463084414601326
1774472320947560400,9.822560546875,-0.010465956293046474,-0.006986270658671856,0.03140212967991829
1774472320957573400,9.832573486328124,-0.0051657333970069885,-0.003041330026462674,0.029152825474739075
1774472320967586600,9.842586669921875,0.002201635157689452,-0.0008157262345775962,0.017769409343600273
1774472320977600500,9.8526005859375,0.0073473951779305935,0.001198688754811883,0.006765494588762522
1774472320987613400,9.862613525390625,0.006385461427271366,0.0037822213489562273,0.007215834688395262
1774472320997626600,9.872626708984376,-0.0022058964241296053,0.006374542135745287,0.014093981124460697
1774472321007640600,9.882640625,-0.01281832717359066,0.008153533563017845,0.015785355120897293
1774472321017653500,9.892653564453125,-0.018430139869451523,0.008250206708908081,0.02334367111325264
1774472321027666700,9.902666748046874,-0.0146489841863513,0.009105081669986248,0.020356403663754463
1774472321037680400,9.912680419921875,-0.006911701988428831,-0.0013353090034797788,0.020177440717816353
1774472321047693600,9.922693603515626,-0.0036639769095927477,-0.005894374568015337,0.022763902321457863
1774472321057706500,9.93270654296875,0.001603489276021719,-0.010490990243852139,0.027116306126117706
1774472321067719400,9.942719482421875,0.006329535041004419,-0.004583832807838917,0.030175212770700455
1774472321077733600,9.952733642578124,0.01004863902926445,-0.0003664509567897767,0.02448483742773533
1774472321087746300,9.962746337890625,0.014958443120121956,-0.005418733693659306,0.01230673398822546
1774472321097759500,9.972759521484376,0.023424100130796432,0.005131645128130913,0.010963168926537037
1774472321107773400,9.9827734375,0.023930633440613747,-0.006652043666690588,0.012025503441691399
1774472321117786400,9.992786376953125,0.026339195668697357,-0.013631124049425125,0.022232068702578545
1774472321127799600,10.002799560546874,0.019572902470827103,-0.02202540822327137,0.03514600172638893
1774472321137813500,10.0128134765625,0.011461179703474045,-0.019832827150821686,0.05227332562208176
1774472321147826400,10.022826416015626,0.0033329459838569164,-0.018260495737195015,0.06371479481458664
1774472321157839600,10.032839599609375,-0.00466532539576292,-0.017723603174090385,0.06707677245140076
1774472321167852300,10.042852294921875,-0.004274639766663313,-0.011381817981600761,0.06015974283218384
1774472321177866500,10.052866455078124,-0.0022716764360666275,-0.007213437929749489,0.04658108577132225
1774472321187879700,10.062879638671875,0.0017747305100783706,0.0025278725661337376,0.03578569367527962
1774472321197892400,10.072892333984376,0.005579322576522827,0.008971390314400196,0.026606043800711632
1774472321207906600,10.082906494140625,0.006032059900462627,0.010279002599418163,0.018281802535057068
1774472321217919500,10.09291943359375,-0.0008298410102725029,0.013910755515098572,0.01122016366571188
1774472321227932400,10.102932373046874,-0.005888515617698431,0.01720615103840828,0.0037321539130061865
1774472321237946600,10.112946533203125,-0.006909305229783058,0.018686601892113686,-0.00017443705291952938
1774472321247959300,10.122959228515626,-0.005249623209238052,0.016387496143579483,0.0010934938909485936
1774472321257972500,10.132972412109375,-0.00041092574247159064,0.0052259210497140884,0.006913299672305584
1774472321267985700,10.142985595703125,-0.00007163903501350433,-0.004408597014844418,0.024380173534154892
1774472321277999400,10.152999267578124,0.002660498023033142,-0.012173042632639408,0.04212188720703125
1774472321288012500,10.163012451171875,-0.0005147890187799931,-0.02135322615504265,0.05355297401547432
1774472321298025500,10.173025390625,0.002688993699848652,-0.028181836009025574,0.054492004215717316
1774472321308039400,10.183039306640625,0.004796619527041912,-0.039743948727846146,0.04664366692304611
1774472321318052600,10.193052490234376,0.001457548001781106,-0.04730812832713127,0.040530115365982056
1774472321328065300,10.203065185546874,-0.0026043052785098553,-0.05024745687842369,0.038473621010780334
1774472321338079500,10.21307958984375,-0.006194779183715582,-0.048655152320861816,0.029956834390759468
1774472321348092700,10.2230927734375,-0.006988667417317629,-0.04152480512857437,0.0237607229501009
1774472321358105300,10.233105224609375,-0.006493585649877787,-0.03292146325111389,0.02275511436164379
1774472321368118500,10.243118408203125,-0.0034352114889770746,-0.021635521203279495,0.01703597418963909
1774472321378132500,10.253132568359375,-0.006490123458206654,0.0005888249143026769,0.01002307329326868
1774472321388145400,10.2631455078125,-0.010232397355139256,0.02003043331205845,0.003531351685523987
1774472321398158600,10.27315869140625,-0.01660986989736557,0.03189055621623993,-0.0034519892651587725
1774472321408172300,10.28317236328125,-0.015003450214862823,0.03261173889040947,-0.010090983472764492
1774472321418185500,10.293185546875,-0.008742092177271843,0.027453461661934853,-0.016864467412233353
1774472321428198700,10.30319873046875,0.004050667863339186,0.006385461427271366,-0.019771041348576546
1774472321438212400,10.31321240234375,0.005425125360488892,-0.01581544801592827,-0.010313090868294239
1774472321448225500,10.3232255859375,0.0026466494891792536,-0.03143222630023956,0.002847185591235757
1774472321458238700,10.33323876953125,-0.0005968143814243376,-0.04098045453429222,0.020616594702005386
1774472321468252400,10.34325244140625,-0.0015241270884871483,-0.03888321667909622,0.03754337877035141
1774472321478265600,10.353265625,-0.0014034858904778957,-0.035044003278017044,0.042885150760412216
1774472321488278300,10.3632783203125,0.005298092495650053,-0.03311534225940704,0.03218936175107956
1774472321498291500,10.37329150390625,0.02021712064743042,-0.024509869515895844,0.024049410596489906
1774472321508305700,10.3833056640625,0.026578348129987717,-0.01739363744854927,0.012976252473890781
1774472321518318300,10.393318359375,0.02786358818411827,-0.006523679476231337,-0.002731071785092354
1774472321528331500,10.40333154296875,0.017606956884264946,0.0031382690649479628,-0.017668476328253746
1774472321538345500,10.413345458984375,0.009820406325161457,0.010800981894135475,-0.016829313710331917
1774472321548358400,10.4233583984375,-0.008682703599333763,0.0035840822383761406,-0.015282017178833485
1774472321558371600,10.43337158203125,-0.028853219002485275,-0.007928763516247272,-0.008620386011898518
1774472321568385500,10.443385498046876,-0.04421992599964142,-0.01601172238588333,0.01134187076240778
1774472321578398500,10.4533984375,-0.05042402446269989,-0.025714151561260223,0.017612017691135406
1774472321588411600,10.46341162109375,-0.05125147104263306,-0.04301084950566292,0.01852548122406006
1774472321598424300,10.47342431640625,-0.04441460222005844,-0.037205956876277924,0.01070883683860302
1774472321608438500,10.4834384765625,-0.040102411061525345,-0.027634024620056152,-0.004179831128567457
1774472321618451700,10.49345166015625,-0.033191241323947906,-0.015800800174474716,-0.01811322383582592
1774472321628464400,10.50346435546875,-0.03479047119617462,-0.007448062766343355,-0.029284385964274406
1774472321638478600,10.513478515625,-0.037461619824171066,-0.0015579492319375277,-0.03978123515844345
1774472321648491300,10.5234912109375,-0.047926779836416245,0.007803061977028847,-0.05132443830370903
1774472321658504400,10.53350439453125,-0.058640941977500916,0.02100035734474659,-0.05234469845890999
1774472321668518700,10.5435185546875,-0.06454677134752274,0.030643129721283913,-0.04875741899013519
1774472321678531300,10.55353125,-0.06664667278528214,0.03254489228129387,-0.04333442449569702
1774472321688544500,10.56354443359375,-0.06333556026220322,0.033002689480781555,-0.039742086082696915
1774472321698557400,10.573557373046874,-0.05789312720298767,0.03230813890695572,-0.03782887011766434
1774472321708571400,10.5835712890625,-0.048323854804039,0.031977105885744095,-0.03453587368130684
1774472321718584600,10.59358447265625,-0.0400821715593338,0.028060929849743843,-0.03237605094909668
1774472321728597500,10.603597412109375,-0.02971475198864937,0.026937874034047127,-0.032218389213085175
1774472321738611500,10.613611572265626,-0.02376258745789528,0.02015666663646698,-0.03117602877318859
1774472321748624600,10.623624755859375,-0.01853027381002903,0.015532353892922401,-0.027290476486086845
1774472321758637300,10.63363720703125,-0.010675814002752304,0.0035246936604380608,-0.018967565149068832
1774472321768651000,10.643651123046874,-0.00948085356503725,-0.010933607816696167,-0.013100089505314827
1774472321778664000,10.653663818359375,-0.007923969067633152,-0.011395932175219059,-0.006524212192744017
1774472321788676900,10.6636767578125,-0.012913402169942856,-0.0024775387719273567,-0.0015403723809868097
1774472321798690800,10.67369091796875,-0.017960624769330025,0.016879914328455925,0.005056277383118868
1774472321808704000,10.6837041015625,-0.01914226822555065,0.028429243713617325,0.005016596522182226
1774472321818717000,10.693717041015624,-0.014178935438394547,0.031182952225208282,0.0026325348298996687
1774472321828729900,10.703729736328125,-0.006018477492034435,0.03110332414507866,-0.0020367854740470648
1774472321838743800,10.713743896484376,0.006428071763366461,0.027883563190698624,-0.013130716048181057
1774472321848756700,10.7237568359375,0.012889700010418892,0.024439029395580292,-0.022578280419111252
1774472321858770000,10.73377001953125,0.015073224902153015,0.01991112343966961,-0.025667013600468636
1774472321868783900,10.743783935546874,0.005558017175644636,0.014459366910159588,-0.021107681095600128
1774472321878796800,10.753796875,-0.010497115552425385,0.005400890484452248,-0.010069145821034908
1774472321888810000,10.76381005859375,-0.019478892907500267,0.004950284026563168,0.0010375675046816468
1774472321898824000,10.773823974609375,-0.028743498027324677,0.010616425424814224,0.010701113380491734
1774472321908836900,10.7838369140625,-0.03160293400287628,0.012315788306295872,0.007683752104640007
1774472321918850000,10.79385009765625,-0.02774933911859989,0.010000436566770077,-0.00014034859486855567
1774472321928862700,10.80386279296875,-0.017774470150470734,-0.0019518306944519281,-0.011951201595366001
1774472321938877000,10.813876953125,-0.012026568874716759,-0.014450578019022942,-0.01679043099284172
1774472321948889900,10.823889892578125,-0.016146745532751083,-0.020534303039312363,-0.02009914256632328
1774472321958902800,10.83390283203125,-0.02172127366065979,-0.020008329302072525,-0.021257352083921432
1774472321968917000,10.8439169921875,-0.029741650447249413,-0.014487862586975098,-0.017492707818746567
1774472321978930000,10.853929931640625,-0.0301994476467371,-0.0008748483960516751,-0.01769750379025936
1774472321988942800,10.86394287109375,-0.023180952295660973,0.008597482927143574,-0.021949240937829018
1774472321998956800,10.873956787109375,-0.017616277560591698,0.01366281509399414,-0.026152774691581726
1774472322008969700,10.8839697265625,-0.016647951677441597,0.018138790503144264,-0.031796012073755264
1774472322018983000,10.89398291015625,-0.016651947051286697,0.015205318108201027,-0.02780899405479431
1774472322028996000,10.90399609375,-0.016456738114356995,0.019212577491998672,-0.024688567966222763
1774472322039009800,10.914009765625,-0.015777630731463432,0.013953899033367634,-0.02877225913107395
1774472322049023000,10.92402294921875,-0.020612068474292755,0.006332730874419212,-0.02568565495312214
1774472322059036000,10.934035888671875,-0.023844080045819283,0.0026647590566426516,-0.020786771550774574
1774472322069049900,10.9440498046875,-0.021615546196699142,-0.0008146609761752188,-0.017476994544267654
1774472322079063000,10.95406298828125,-0.02052631415426731,-0.0035087147261947393,-0.007812383119016886
1774472322089075700,10.96407568359375,-0.019175559282302856,-0.012165053747594357,0.0002170476218452677
1774472322099090000,10.97408984375,-0.013185842894017696,-0.02298521064221859,0.009282448329031467
1774472322109102800,10.984102783203125,-0.0046389601193368435,-0.038789741694927216,0.00999351218342781
1774472322119115800,10.99411572265625,-0.0024493092205375433,-0.0441775806248188,0.014734471216797829
1774472322129130000,11.0041298828125,0.003531884169206023,-0.03508581593632698,0.014884939417243004
1774472322139143000,11.014142822265624,0.006789196282625198,-0.013430321589112282,0.00938897393643856
1774472322149155800,11.02415576171875,0.0038421424105763435,0.007970042526721954,-0.00013688647595699877
1774472322159169000,11.0341689453125,0.006163886282593012,0.02423822693526745,-0.006885070353746414
1774472322169183000,11.044182861328125,0.0049156625755131245,0.02244512178003788,-0.010310161858797073
1774472322179196000,11.05419580078125,0.004268514458090067,0.011867045424878597,-0.007621966768056154
1774472322189209000,11.064208984375,0.0009467537747696042,0.00173744629137218,0.002663427498191595
1774472322199222800,11.074222900390625,-0.002412557601928711,0.0016530241118744016,0.010439058765769005
1774472322209236000,11.084236083984376,-0.005965214688330889,0.012832175008952618,0.013492905534803867
1774472322219249000,11.094248779296874,-0.0041345576755702496,0.022273879498243332,0.007179616019129753
1774472322229262800,11.104262939453125,0.002614957746118307,0.018209364265203476,-0.00341577036306262
1774472322239276000,11.114276123046874,0.00902918167412281,0.006973753683269024,-0.015382418408989906
1774472322249288700,11.124288818359375,0.014030598104000092,-0.0005613943794742227,-0.02057718113064766
1774472322259302000,11.134302001953126,0.01781335100531578,0.003537210635840893,-0.01648816280066967
1774472322269315800,11.14431591796875,0.030948061496019363,0.024953553453087807,-0.009031311608850956
1774472322279328800,11.154328857421875,0.024813471361994743,0.038670431822538376,0.010729343630373478
1774472322289342000,11.164342041015624,0.025662751868367195,0.03790690377354622,0.02287442237138748
1774472322299356000,11.17435595703125,0.02720498852431774,0.024517860263586044,0.027710190042853355
1774472322309368800,11.184368896484376,0.03181332349777222,-0.007225422188639641,0.024983113631606102
1774472322319382000,11.194382080078125,0.03851676732301712,-0.032644763588905334,0.02383103035390377
1774472322329396000,11.20439599609375,0.04381965100765228,-0.04338369145989418,0.023688018321990967
1774472322339409000,11.214408935546874,0.041009217500686646,-0.033016007393598557,0.023327160626649857
1774472322349422000,11.224422119140625,0.03194834664463997,-0.010087521746754646,0.0184642281383276
1774472322359434800,11.234434814453126,0.01938088797032833,0.0202163215726614,0.007139934692531824
1774472322369449000,11.244448974609375,0.011759987100958824,0.032228775322437286,-0.0002889529860112816
1774472322379462000,11.2544619140625,0.01242018397897482,0.03182637318968773,-0.006480003707110882
1774472322389474800,11.264474853515624,0.01594354584813118,0.023613717406988144,-0.011974903754889965
1774472322399489000,11.274489013671875,0.0227402001619339,0.019218169152736664,-0.008038751780986786
1774472322409501700,11.284501708984376,0.02857252210378647,0.024931982159614563,0.00267727579921484
1774472322419515000,11.294514892578125,0.03062209114432335,0.030468426644802094,0.0022977753542363644
1774472322429528800,11.30452880859375,0.03314250707626343,0.030052706599235535,0.0029553098138421774
1774472322439541800,11.314541748046874,0.030314229428768158,0.02948385663330555,0.009060606360435486
1774472322449555000,11.324554931640625,0.02719753235578537,0.02142086997628212,0.013997574336826801
1774472322459567900,11.33456787109375,0.025551965460181236,0.011470234952867031,0.01937928982079029
1774472322469581800,11.344581787109375,0.020480241626501083,0.0018967032665386796,0.026510702446103096
1774472322479595000,11.354594970703126,0.02172420360147953,-0.005452556069940329,0.030361367389559746
1774472322489608000,11.36460791015625,0.021517809480428696,-0.012050803750753403,0.029218604788184166
1774472322499622000,11.374621826171875,0.021640846505761147,-0.011632953770458698,0.026308836415410042
1774472322509635000,11.384635009765624,0.02558285742998123,-0.015749935060739517,0.020534835755825043
1774472322519647700,11.394647705078125,0.025720277801156044,-0.011439608410000801,0.01727725751698017
1774472322529662000,11.404661865234376,0.023798540234565735,0.0012250541476532817,0.018969163298606873
1774472322539675000,11.4146748046875,0.02022724039852619,0.007779892534017563,0.020205136388540268
1774472322549687800,11.424687744140625,0.01822853833436966,0.013990383595228195,0.019281286746263504
1774472322559701000,11.434700927734376,0.016890300437808037,0.01678324118256569,0.013953366316854954
1774472322569714700,11.444714599609375,0.019391540437936783,0.013139504007995129,0.003991013392806053
1774472322579728000,11.454727783203126,0.022312762215733528,0.009535448625683784,-0.003491936717182398
1774472322589741000,11.464740966796874,0.023914920166134834,0.008143946528434753,-0.006582535337656736
1774472322599754800,11.474754638671875,0.025801770389080048,0.006711964961141348,-0.009465141221880913
1774472322609768000,11.484767822265624,0.02701004594564438,0.007393467705696821,-0.006933539640158415
1774472322619781000,11.494781005859375,0.03098561242222786,0.009209477342665195,-0.0010639328975230455
1774472322629794800,11.504794921875,0.0331459678709507,0.0023092268966138363,0.003623763332143426
1774472322639808000,11.51480810546875,0.03250680863857269,-0.002356631215661764,0.007468036375939846
1774472322649821000,11.524821044921875,0.03316381201148033,-0.011409248225390911,0.00583791546523571
1774472322659833900,11.534833740234374,0.03456250578165054,-0.01870870590209961,0.003644003299996257
1774472322669848000,11.54484814453125,0.040520261973142624,-0.020971860736608505,-0.001844771672040224
1774472322679860700,11.55486083984375,0.04435521364212036,-0.016045279800891876,-0.004023237619549036
1774472322689874000,11.5648740234375,0.0492735393345356,-0.006286391522735357,-0.0046602655202150345
1774472322699887900,11.574887939453125,0.04036713019013405,-0.0024290692526847124,-0.00615163566544652
1774472322709900800,11.58490087890625,0.037162549793720245,0.004335892386734486,-0.007499994244426489
1774472322719914000,11.5949140625,0.02496500499546528,0.008056594990193844,-0.004613393917679787
1774472322729928000,11.604927978515626,0.011508051306009293,0.005286108236759901,0.00043995422311127186
1774472322739940900,11.61494091796875,0.00897032581269741,0.0007877630414441228,0.011150388978421688
1774472322749954000,11.6249541015625,0.008950884453952312,-0.004700212739408016,0.02196894772350788
1774472322759967700,11.6349677734375,0.013773868791759014,-0.012508334591984749,0.0242568701505661
1774472322769981700,11.644981689453125,0.022767629474401474,-0.016638364642858505,0.020624585449695587
1774472322779994400,11.654994384765626,0.030885478481650352,-0.016927851364016533,0.011815913021564484
1774472322790007600,11.665007568359375,0.03362959995865822,-0.023720242083072662,0.00180908537004143
1774472322800021500,11.675021484375,0.02262674830853939,-0.0323914960026741,-0.0022125542163848877
1774472322810034400,11.685034423828125,0.009697634726762772,-0.03365250304341316,-0.004944424610584974
1774472322820047600,11.695047607421875,0.002089249901473522,-0.0237620547413826,-0.009306150488555431
1774472322830061300,11.705061279296874,0.00044314999831840396,-0.008598814718425274,-0.013628194108605385
1774472322840074500,11.715074462890625,0.0006823018775321543,0.004566788673400879,-0.017436513677239418
1774472322850087700,11.725087646484376,-0.005013933405280113,0.01121883187443018,-0.02400306984782219
1774472322860101400,11.735101318359375,-0.013590909540653229,0.011805526912212372,-0.030606910586357117
1774472322870114600,11.745114501953125,-0.017485782504081726,0.014543522149324417,-0.03142876178026199
1774472322880127500,11.75512744140625,-0.018444521352648735,0.015425561927258968,-0.020984111353754997
1774472322890140400,11.765140380859375,-0.01449904777109623,0.012375975959002972,-0.012571452185511589
1774472322900154600,11.775154541015626,-0.007681621704250574,0.0063007730059325695,-0.004899151157587767
1774472322910167600,11.78516748046875,0.0036397422663867474,0.004591822158545256,0.0009211873984895647
1774472322920180500,11.795180419921875,0.01894306391477585,-0.0013134710025042295,0.00155288923997432
1774472322930194700,11.805194580078124,0.02773442491889,-0.012811935506761074,-0.004151069093495607
1774472322940207400,11.815207275390625,0.029581859707832336,-0.019896475598216057,-0.009464075788855553
1774472322950220500,11.825220458984376,0.02527339942753315,-0.029291043058037758,-0.011419367976486683
1774472322960234800,11.83523486328125,0.012521117925643921,-0.030058566480875015,-0.0078102522529661655
1774472322970247400,11.845247314453125,-0.004630970768630505,-0.01986691541969776,0.0007363640470430255
1774472322980260600,11.855260498046874,-0.023750603199005127,-0.0034618431236594915,0.007968977093696594
1774472322990273500,11.8652734375,-0.031748075038194656,0.008144745603203773,0.012055330909788609
1774472323000287500,11.87528759765625,-0.0280928872525692,0.004013383761048317,0.012798086740076542
1774472323010300700,11.88530078125,-0.020413927733898163,-0.004231763072311878,0.011895807459950447
1774472323020313600,11.895313720703125,-0.007632886059582233,-0.009701629169285297,0.006363889668136835
1774472323030327600,11.90532763671875,0.0007550061563961208,-0.006351905409246683,0.000707868195604533
1774472323040340500,11.915340576171875,0.006155896931886673,0.00959856528788805,-0.006929278839379549
1774472323050353400,11.925353515625,0.006089583970606327,0.0178141500800848,-0.015027152374386787
1774472323060367600,11.93536767578125,0.003853061469271779,0.017711885273456573,-0.023488281294703484
1774472323070380500,11.945380615234376,-0.0012689962750300765,0.013590909540653229,-0.025669144466519356
1774472323080393500,11.9553935546875,0.0006945523782633245,0.01233363151550293,-0.022242454811930656
1774472323090406400,11.965406494140625,0.005922337528318167,0.014674283564090729,-0.016527311876416206
1774472323100420400,11.97542041015625,0.011563711799681187,0.01944320648908615,-0.013785853050649166
1774472323110433500,11.98543359375,0.016690297052264214,0.02063017711043358,-0.016520919278264046
1774472323120446500,11.995446533203125,0.01623915694653988,0.0164231825619936,-0.02172953076660633
1774472323130460400,12.00546044921875,0.017422400414943695,0.023189742118120193,-0.016293752938508987
1774472323140473600,12.0154736328125,0.013336312025785446,0.029569609090685844,-0.01618988811969757
1774472323150486500,12.025486572265624,0.011510182172060013,0.04288967698812485,-0.02570429816842079
1774472323160500500,12.03550048828125,0.013848437927663326,0.06148679554462433,-0.036437369883060455
1774472323170513700,12.045513671875,0.030539000406861305,0.07207206636667252,-0.04920802637934685
1774472323180526600,12.055526611328125,0.04569132253527641,0.072859026491642,-0.06223035231232643
1774472323190539500,12.06553955078125,0.054056309163570404,0.06603600829839706,-0.07134608179330826
1774472323200553500,12.075553466796874,0.0632878914475441,0.07805512100458145,-0.05940553545951843
1774472323210566400,12.08556640625,0.07255249470472336,0.10101956129074097,-0.04005900397896767
1774472323220579600,12.09557958984375,0.08407839387655258,0.11748348921537399,-0.020350545644760132
1774472323230593500,12.105593505859375,0.11634232103824615,0.10880398005247116,-0.0054941014386713505
1774472323240606500,12.1156064453125,0.16260622441768646,0.0683782547712326,0.004235491156578064
1774472323250619400,12.125619384765624,0.21788625419139862,-0.0076302229426801205,-0.0014980280539020896
1774472323260633300,12.13563330078125,0.27222007513046265,-0.0788428857922554,-0.008698416873812675
1774472323270646500,12.145646484375,0.3281501829624176,-0.1403837352991104,-0.018455972895026207
1774472323280659500,12.155659423828125,0.39730316400527954,-0.17927441000938416,-0.015913719311356544
1774472323290672600,12.165672607421875,0.4665943384170532,-0.19774077832698822,-0.030041521415114403
1774472323300686600,12.1756865234375,0.5195127129554749,-0.2086602747440338,-0.04773050546646118
1774472323310699500,12.185699462890625,0.5742305517196655,-0.22081759572029114,-0.06991570442914963
1774472323320712400,12.19571240234375,0.6345998644828796,-0.17147667706012726,-0.11734979599714279
1774472323330726700,12.2057265625,0.6902130246162415,-0.029211414977908134,-0.16415777802467346
1774472323340739600,12.215739501953125,0.7352457642555237,0.16332820057868958,-0.2117181122303009
1774472323350752500,12.22575244140625,0.7792976498603821,0.31634145975112915,-0.24908864498138428
1774472323360766500,12.235766357421875,0.790959358215332,0.28846800327301025,-0.27430427074432373
1774472323370779400,12.245779296875,0.7503381967544556,0.19808858633041382,-0.26290246844291687
1774472323380792600,12.25579248046875,0.6805729269981384,0.08083972334861755,-0.2542749047279358
1774472323390805500,12.265805419921875,0.5991438627243042,-0.029999177902936935,-0.2709082067012787
